"success","timeout","failed_images","failed_audio","failed_video","trial_type","trial_index","time_elapsed","internal_node_id","rt","stimulus","response","value","item_width_mm","item_height_mm","item_width_px","px2mm","view_dist_mm","item_width_deg","px2deg","scale_factor","win_width_deg","win_height_deg","view_history","response_type","key_press","avg_frame_time","center_x","center_y","correct_response","correct","Image","word","condition","screen_id"
"true","false","[]","[]","[]","preload","0","26154","0.0-0.0","","","","","","","","","","","","","","","","","","","","","","","","","",""
"","","","","","html-keyboard-response","1","34104","0.0-1.0","7949","
     <p>您好，欢迎参加本次实验。</p>
     <p>为充分保障您的权利，请确保您已经知晓并同意《参与实验同意书》以及《数据公开知情同意书》。</p>
     <p>如果您未见过上述内容，请咨询实验员。</p>
     <p>如果您选择继续实验，则表示您已经清楚两份知情同意书的内容并同意。</p>
     <p> <div style = ""color: green""><按任意键至下页></div> </p>
     ","m","","","","","","","","","","","","","","","","","","","","","","",""
"","","","","","html-keyboard-response","2","35608","0.0-2.0","1504","
     <p>本实验首先需要您填写一些基本个人信息。</p>
     <p> <div style = ""color: green""><按任意键至下页></div></p>
     ","m","","","","","","","","","","","","","","","","","","","","","","",""
"","","","","","call-function","3","35609","0.0-3.0-0.0","","","","","","","","","","","","","","","","","","","","","","","","","",""
"","","","","","survey-html-form","4","39788","0.0-3.0-1.0","4178","","{""Q0"":""4""}","","","","","","","","","","","","","","","","","","","","","","",""
"","","","","","html-button-response","5","41028","0.0-3.0-2.0","1239","<p style = 'color : white'>您的性别</p>","1","","","","","","","","","","","","","","","","","","","","","","",""
"","","","","","survey-html-form","6","49287","0.0-3.0-3.0","8257","","{""Q0"":""2004""}","","","","","","","","","","","","","","","","","","","","","","",""
"","","","","","survey-html-form","7","53951","0.0-3.0-4.0","4663","","{""Q0"":""5""}","","","","","","","","","","","","","","","","","","","","","","",""
"","","","","","virtual-chinrest","8","228992","0.0-4.0","175040","","","","85.6","53.98","337.84590808555913","3.9455865045004153","725.01","6.756918161711184","49.99999999999999","1.234290515350552","28.860000000000003","17.140000000000004","","","","","","","","","","","",""
"true","","","","","fullscreen","9","232727","0.0-5.0","","","","","","","","","","","","","","","","","","","","","","","","","",""
"","","","","","instructions","10","334413","0.0-6.0","101684","","","","","","","","","","","","","","[{""page_index"":0,""viewing_time"":18576},{""page_index"":1,""viewing_time"":74191},{""page_index"":2,""viewing_time"":2909},{""page_index"":3,""viewing_time"":6008}]","","","","","","","","","","",""
"","","","","","psychophysics","11","336933","0.0-7.0-0.0","null","","null","","","","","","","","","","","","","key","null","16.778986486486737","750","496","f","false","img/H_ambi40.png","朋友","prac",""
"","","","","","html-keyboard-response","12","337434","0.0-7.0-1.0","null","<span class='add_' style='color:yellow; font-size: 70px;'> 太慢! </span>","null","","","","","","","","","","","","","","","","","","","","","","","feedback_test"
"","","","","","psychophysics","13","339940","0.0-7.0-0.1","null","","null","","","","","","","","","","","","","key","null","16.667107382550174","750","496","j","false","img/H_ambi40.png","生人","prac",""
"","","","","","html-keyboard-response","14","340442","0.0-7.0-1.1","null","<span class='add_' style='color:yellow; font-size: 70px;'> 太慢! </span>","null","","","","","","","","","","","","","","","","","","","","","","","feedback_test"
"","","","","","psychophysics","15","342955","0.0-7.0-0.2","1507","","f","","","","","","","","","","","","","key","f","16.666550335570413","750","496","f","true","img/H_ambi40.png","朋友","prac",""
"","","","","","html-keyboard-response","16","343457","0.0-7.0-1.2","null","<span class='add_' style='color:yellow; font-size: 70px;'> 太慢! </span>","null","","","","","","","","","","","","","","","","","","","","","","","feedback_test"
"","","","","","psychophysics","17","345575","0.0-7.0-0.3","1108","","j","","","","","","","","","","","","","key","j","16.801240000000224","750","496","j","true","img/S_ambi40.png","朋友","prac",""
"","","","","","html-keyboard-response","18","346081","0.0-7.0-1.3","null","<span style='color:GreenYellow; font-size: 70px;'>正确! </span>","null","","","","","","","","","","","","","","","","","","","","","","","feedback_test"
"","","","","","psychophysics","19","347523","0.0-7.0-0.4","435","","f","","","","","","","","","","","","","key","f","16.863270588234915","750","496","f","true","img/C_ambi40.png","生人","prac",""
"","","","","","html-keyboard-response","20","348035","0.0-7.0-1.4","null","<span style='color:GreenYellow; font-size: 70px;'>正确! </span>","null","","","","","","","","","","","","","","","","","","","","","","","feedback_test"
"","","","","","psychophysics","21","349358","0.0-7.0-0.5","319","","j","","","","","","","","","","","","","key","j","16.881884615384013","750","496","j","true","img/H_ambi40.png","自我","prac",""
"","","","","","html-keyboard-response","22","349863","0.0-7.0-1.5","null","<span style='color:GreenYellow; font-size: 70px;'>正确! </span>","null","","","","","","","","","","","","","","","","","","","","","","","feedback_test"
"","","","","","psychophysics","23","350913","0.0-7.0-0.6","41","","f","","","","","","","","","","","","","key","f","16.94311475409882","750","496","f","true","img/S_ambi40.png","自我","prac",""
"","","","","","html-keyboard-response","24","351428","0.0-7.0-1.6","null","<span style='color:yellow; font-size: 70px;'>过快! </span>","null","","","","","","","","","","","","","","","","","","","","","","","feedback_test"
"","","","","","psychophysics","25","352748","0.0-7.0-0.7","309","","j","","","","","","","","","","","","","key","j","16.666923076923315","750","496","j","true","img/T_ambi40.png","をる","prac",""
"","","","","","html-keyboard-response","26","353263","0.0-7.0-1.7","null","<span style='color:GreenYellow; font-size: 70px;'>正确! </span>","null","","","","","","","","","","","","","","","","","","","","","","","feedback_test"
"","","","","","psychophysics","27","354591","0.0-7.0-0.8","323","","f","","","","","","","","","","","","","key","f","16.88120512820583","750","496","j","false","img/S_ambi40.png","生人","prac",""
"","","","","","html-keyboard-response","28","355095","0.0-7.0-1.8","null","<span style='color:red; font-size: 70px;'>错误! </span>","null","","","","","","","","","","","","","","","","","","","","","","","feedback_test"
"","","","","","psychophysics","29","356478","0.0-7.0-0.9","376","","j","","","","","","","","","","","","","key","j","16.667451219511836","750","496","j","true","img/T_ambi40.png","をる","prac",""
"","","","","","html-keyboard-response","30","356986","0.0-7.0-1.9","null","<span style='color:GreenYellow; font-size: 70px;'>正确! </span>","null","","","","","","","","","","","","","","","","","","","","","","","feedback_test"
"","","","","","psychophysics","31","358382","0.0-7.0-0.10","394","","f","","","","","","","","","","","","","key","f","17.352512820512622","750","496","f","true","img/S_ambi40.png","自我","prac",""
"","","","","","html-keyboard-response","32","358892","0.0-7.0-1.10","null","<span style='color:GreenYellow; font-size: 70px;'>正确! </span>","null","","","","","","","","","","","","","","","","","","","","","","","feedback_test"
"","","","","","psychophysics","33","360242","0.0-7.0-0.11","345","","j","","","","","","","","","","","","","key","j","16.666737499999726","750","496","j","true","img/C_ambi40.png","朋友","prac",""
"","","","","","html-keyboard-response","34","360749","0.0-7.0-1.11","null","<span style='color:GreenYellow; font-size: 70px;'>正确! </span>","null","","","","","","","","","","","","","","","","","","","","","","","feedback_test"
"","","","","","psychophysics","35","362104","0.0-7.0-0.12","348","","f","","","","","","","","","","","","","key","f","16.879607594936726","750","496","j","false","img/C_ambi40.png","自我","prac",""
"","","","","","html-keyboard-response","36","362610","0.0-7.0-1.12","null","<span style='color:red; font-size: 70px;'>错误! </span>","null","","","","","","","","","","","","","","","","","","","","","","","feedback_test"
"","","","","","psychophysics","37","365122","0.0-7.0-0.13","null","","null","","","","","","","","","","","","","key","null","16.66689261744985","750","496","j","false","img/T_ambi40.png","をる","prac",""
"","","","","","html-keyboard-response","38","365632","0.0-7.0-1.13","null","<span class='add_' style='color:yellow; font-size: 70px;'> 太慢! </span>","null","","","","","","","","","","","","","","","","","","","","","","","feedback_test"
"","","","","","psychophysics","39","366969","0.0-7.0-0.14","331","","j","","","","","","","","","","","","","key","j","16.88108974359019","750","496","f","false","img/C_ambi40.png","生人","prac",""
"","","","","","html-keyboard-response","40","367478","0.0-7.0-1.14","null","<span style='color:red; font-size: 70px;'>错误! </span>","null","","","","","","","","","","","","","","","","","","","","","","","feedback_test"
"","","","","","psychophysics","41","368938","0.0-7.0-0.15","450","","f","","","","","","","","","","","","","key","f","17.269168674698275","750","496","j","false","img/T_ambi40.png","をる","prac",""
"","","","","","html-keyboard-response","42","369451","0.0-7.0-1.15","null","<span style='color:red; font-size: 70px;'>错误! </span>","null","","","","","","","","","","","","","","","","","","","","","","","feedback_test"
"","","","","","psychophysics","43","371972","0.0-7.0-0.16","null","","null","","","","","","","","","","","","","key","null","16.778503355704522","750","496","j","false","img/T_ambi40.png","をる","prac",""
"","","","","","html-keyboard-response","44","372484","0.0-7.0-1.16","null","<span class='add_' style='color:yellow; font-size: 70px;'> 太慢! </span>","null","","","","","","","","","","","","","","","","","","","","","","","feedback_test"
"","","","","","psychophysics","45","374724","0.0-7.0-0.17","1236","","j","","","","","","","","","","","","","key","j","17.049183206106644","750","496","j","true","img/T_ambi40.png","をる","prac",""
"","","","","","html-keyboard-response","46","375224","0.0-7.0-1.17","null","<span style='color:GreenYellow; font-size: 70px;'>正确! </span>","null","","","","","","","","","","","","","","","","","","","","","","","feedback_test"
"","","","","","psychophysics","47","376650","0.0-7.0-0.18","415","","f","","","","","","","","","","","","","key","f","16.669095238094865","750","496","f","true","img/H_ambi40.png","朋友","prac",""
"","","","","","html-keyboard-response","48","377163","0.0-7.0-1.18","null","<span style='color:GreenYellow; font-size: 70px;'>正确! </span>","null","","","","","","","","","","","","","","","","","","","","","","","feedback_test"
"","","","","","psychophysics","49","378509","0.0-7.0-0.19","338","","j","","","","","","","","","","","","","key","j","16.668650000000344","750","496","j","true","img/H_ambi40.png","生人","prac",""
"","","","","","html-keyboard-response","50","379021","0.0-7.0-1.19","null","<span style='color:GreenYellow; font-size: 70px;'>正确! </span>","null","","","","","","","","","","","","","","","","","","","","","","","feedback_test"
"","","","","","psychophysics","51","380441","0.0-7.0-0.20","418","","f","","","","","","","","","","","","","key","f","16.66822619047612","750","496","j","false","img/C_ambi40.png","朋友","prac",""
"","","","","","html-keyboard-response","52","380948","0.0-7.0-1.20","null","<span style='color:red; font-size: 70px;'>错误! </span>","null","","","","","","","","","","","","","","","","","","","","","","","feedback_test"
"","","","","","psychophysics","53","382293","0.0-7.0-0.21","337","","j","","","","","","","","","","","","","key","j","16.66808749999982","750","496","f","false","img/C_ambi40.png","生人","prac",""
"","","","","","html-keyboard-response","54","382805","0.0-7.0-1.21","null","<span style='color:red; font-size: 70px;'>错误! </span>","null","","","","","","","","","","","","","","","","","","","","","","","feedback_test"
"","","","","","psychophysics","55","385316","0.0-7.0-0.22","null","","null","","","","","","","","","","","","","key","null","16.665677852348907","750","496","f","false","img/C_ambi40.png","生人","prac",""
"","","","","","html-keyboard-response","56","385833","0.0-7.0-1.22","null","<span class='add_' style='color:yellow; font-size: 70px;'> 太慢! </span>","null","","","","","","","","","","","","","","","","","","","","","","","feedback_test"
"","","","","","psychophysics","57","387158","0.0-7.0-0.23","318","","f","","","","","","","","","","","","","key","f","16.88167948717959","750","496","j","false","img/H_ambi40.png","自我","prac",""
"","","","","","html-keyboard-response","58","387664","0.0-7.0-1.23","null","<span style='color:red; font-size: 70px;'>错误! </span>","null","","","","","","","","","","","","","","","","","","","","","","","feedback_test"
"","","","","","psychophysics","59","388998","0.0-7.0-0.24","327","","j","","","","","","","","","","","","","key","j","16.668037974683838","750","496","j","true","img/T_ambi40.png","をる","prac",""
"","","","","","html-keyboard-response","60","389504","0.0-7.0-1.24","null","<span style='color:GreenYellow; font-size: 70px;'>正确! </span>","null","","","","","","","","","","","","","","","","","","","","","","","feedback_test"
"","","","","","psychophysics","61","390950","0.0-7.0-0.25","444","","j","","","","","","","","","","","","","key","j","16.70344047619091","750","496","f","false","img/H_ambi40.png","朋友","prac",""
"","","","","","html-keyboard-response","62","391460","0.0-7.0-1.25","null","<span style='color:red; font-size: 70px;'>错误! </span>","null","","","","","","","","","","","","","","","","","","","","","","","feedback_test"
"","","","","","psychophysics","63","392810","0.0-7.0-0.26","346","","f","","","","","","","","","","","","","key","f","16.670700000000217","750","496","j","false","img/S_ambi40.png","生人","prac",""
"","","","","","html-keyboard-response","64","393320","0.0-7.0-1.26","null","<span style='color:red; font-size: 70px;'>错误! </span>","null","","","","","","","","","","","","","","","","","","","","","","","feedback_test"
"","","","","","psychophysics","65","394598","0.0-7.0-0.27","275","","j","","","","","","","","","","","","","key","j","16.889026666666226","750","496","j","true","img/T_ambi40.png","をる","prac",""
"","","","","","html-keyboard-response","66","395103","0.0-7.0-1.27","null","<span style='color:GreenYellow; font-size: 70px;'>正确! </span>","null","","","","","","","","","","","","","","","","","","","","","","","feedback_test"
"","","","","","psychophysics","67","396416","0.0-7.0-0.28","310","","j","","","","","","","","","","","","","key","j","16.88314285714258","750","496","j","true","img/C_ambi40.png","自我","prac",""
"","","","","","html-keyboard-response","68","396930","0.0-7.0-1.28","null","<span style='color:GreenYellow; font-size: 70px;'>正确! </span>","null","","","","","","","","","","","","","","","","","","","","","","","feedback_test"
"","","","","","psychophysics","69","398308","0.0-7.0-0.29","372","","j","","","","","","","","","","","","","key","j","16.87338271604946","750","496","j","true","img/S_ambi40.png","朋友","prac",""
"","","","","","html-keyboard-response","70","398815","0.0-7.0-1.29","null","<span style='color:GreenYellow; font-size: 70px;'>正确! </span>","null","","","","","","","","","","","","","","","","","","","","","","","feedback_test"
"","","","","","psychophysics","71","400137","0.0-7.0-0.30","315","","j","","","","","","","","","","","","","key","j","16.88551948051945","750","496","f","false","img/S_ambi40.png","自我","prac",""
"","","","","","html-keyboard-response","72","400639","0.0-7.0-1.30","null","<span style='color:red; font-size: 70px;'>错误! </span>","null","","","","","","","","","","","","","","","","","","","","","","","feedback_test"
"","","","","","psychophysics","73","401945","0.0-7.0-0.31","305","","f","","","","","","","","","","","","","key","f","16.66640259740215","750","496","f","true","img/S_ambi40.png","自我","prac",""
"","","","","","html-keyboard-response","74","402450","0.0-7.0-1.31","null","<span style='color:GreenYellow; font-size: 70px;'>正确! </span>","null","","","","","","","","","","","","","","","","","","","","","","","feedback_test"
"","","","","","psychophysics","75","403719","0.0-8.0-0.0-0.0","264","","j","","","","","","","","","","","","","key","j","16.892013513513785","750","496","j","true","img/T_ambi40.png","をる","prac",""
"","","","","","html-keyboard-response","76","404231","0.0-8.0-0.0-1.0","null","<span style='color:GreenYellow; font-size: 70px;'>正确! </span>","null","","","","","","","","","","","","","","","","","","","","","","","feedback_test"
"","","","","","psychophysics","77","405588","0.0-8.0-0.0-0.1","349","","f","","","","","","","","","","","","","key","f","17.09565384615323","750","496","j","false","img/S_ambi40.png","朋友","prac",""
"","","","","","html-keyboard-response","78","406092","0.0-8.0-0.0-1.1","null","<span style='color:red; font-size: 70px;'>错误! </span>","null","","","","","","","","","","","","","","","","","","","","","","","feedback_test"
"","","","","","psychophysics","79","407435","0.0-8.0-0.0-0.2","338","","j","","","","","","","","","","","","","key","j","16.66815189873399","750","496","f","false","img/C_ambi40.png","生人","prac",""
"","","","","","html-keyboard-response","80","407936","0.0-8.0-0.0-1.2","null","<span style='color:red; font-size: 70px;'>错误! </span>","null","","","","","","","","","","","","","","","","","","","","","","","feedback_test"
"","","","","","psychophysics","81","409293","0.0-8.0-0.0-0.3","354","","f","","","","","","","","","","","","","key","f","16.66785000000018","750","496","f","true","img/S_ambi40.png","自我","prac",""
"","","","","","html-keyboard-response","82","409797","0.0-8.0-0.0-1.3","null","<span style='color:GreenYellow; font-size: 70px;'>正确! </span>","null","","","","","","","","","","","","","","","","","","","","","","","feedback_test"
"","","","","","psychophysics","83","411179","0.0-8.0-0.0-0.4","377","","j","","","","","","","","","","","","","key","j","16.666914634146053","750","496","j","true","img/C_ambi40.png","朋友","prac",""
"","","","","","html-keyboard-response","84","411684","0.0-8.0-0.0-1.4","null","<span style='color:GreenYellow; font-size: 70px;'>正确! </span>","null","","","","","","","","","","","","","","","","","","","","","","","feedback_test"
"","","","","","psychophysics","85","414205","0.0-8.0-0.0-0.5","null","","null","","","","","","","","","","","","","key","null","16.667519999999787","750","496","f","false","img/C_ambi40.png","生人","prac",""
"","","","","","html-keyboard-response","86","414717","0.0-8.0-0.0-1.5","null","<span class='add_' style='color:yellow; font-size: 70px;'> 太慢! </span>","null","","","","","","","","","","","","","","","","","","","","","","","feedback_test"
"","","","","","psychophysics","87","416037","0.0-8.0-0.0-0.6","314","","f","","","","","","","","","","","","","key","f","16.666615384615188","750","496","j","false","img/C_ambi40.png","自我","prac",""
"","","","","","html-keyboard-response","88","416544","0.0-8.0-0.0-1.6","null","<span style='color:red; font-size: 70px;'>错误! </span>","null","","","","","","","","","","","","","","","","","","","","","","","feedback_test"
"","","","","","psychophysics","89","417932","0.0-8.0-0.0-0.7","377","","j","","","","","","","","","","","","","key","j","16.87427160493817","750","496","j","true","img/S_ambi40.png","生人","prac",""
"","","","","","html-keyboard-response","90","418438","0.0-8.0-0.0-1.7","null","<span style='color:GreenYellow; font-size: 70px;'>正确! </span>","null","","","","","","","","","","","","","","","","","","","","","","","feedback_test"
"","","","","","psychophysics","91","419833","0.0-8.0-0.0-0.8","393","","f","","","","","","","","","","","","","key","f","16.694580246913564","750","496","j","false","img/T_ambi40.png","をる","prac",""
"","","","","","html-keyboard-response","92","420338","0.0-8.0-0.0-1.8","null","<span style='color:red; font-size: 70px;'>错误! </span>","null","","","","","","","","","","","","","","","","","","","","","","","feedback_test"
"","","","","","psychophysics","93","421717","0.0-8.0-0.0-0.9","371","","j","","","","","","","","","","","","","key","j","16.669901234567753","750","496","j","true","img/T_ambi40.png","をる","prac",""
"","","","","","html-keyboard-response","94","422226","0.0-8.0-0.0-1.9","null","<span style='color:GreenYellow; font-size: 70px;'>正确! </span>","null","","","","","","","","","","","","","","","","","","","","","","","feedback_test"
"","","","","","psychophysics","95","423553","0.0-8.0-0.0-0.10","325","","j","","","","","","","","","","","","","key","j","16.8841948051946","750","496","f","false","img/S_ambi40.png","自我","prac",""
"","","","","","html-keyboard-response","96","424063","0.0-8.0-0.0-1.10","null","<span style='color:red; font-size: 70px;'>错误! </span>","null","","","","","","","","","","","","","","","","","","","","","","","feedback_test"
"","","","","","psychophysics","97","425442","0.0-8.0-0.0-0.11","376","","f","","","","","","","","","","","","","key","f","16.668707317072847","750","496","f","true","img/H_ambi40.png","朋友","prac",""
"","","","","","html-keyboard-response","98","425956","0.0-8.0-0.0-1.11","null","<span style='color:GreenYellow; font-size: 70px;'>正确! </span>","null","","","","","","","","","","","","","","","","","","","","","","","feedback_test"
"","","","","","psychophysics","99","427267","0.0-8.0-0.0-0.12","301","","j","","","","","","","","","","","","","key","j","16.887223684210575","750","496","j","true","img/T_ambi40.png","をる","prac",""
"","","","","","html-keyboard-response","100","427778","0.0-8.0-0.0-1.12","null","<span style='color:GreenYellow; font-size: 70px;'>正确! </span>","null","","","","","","","","","","","","","","","","","","","","","","","feedback_test"
"","","","","","psychophysics","101","429129","0.0-8.0-0.0-0.13","343","","f","","","","","","","","","","","","","key","f","16.881205128205085","750","496","j","false","img/H_ambi40.png","生人","prac",""
"","","","","","html-keyboard-response","102","429637","0.0-8.0-0.0-1.13","null","<span style='color:red; font-size: 70px;'>错误! </span>","null","","","","","","","","","","","","","","","","","","","","","","","feedback_test"
"","","","","","psychophysics","103","431009","0.0-8.0-0.0-0.14","370","","j","","","","","","","","","","","","","key","j","16.875600000000123","750","496","j","true","img/H_ambi40.png","自我","prac",""
"","","","","","html-keyboard-response","104","431516","0.0-8.0-0.0-1.14","null","<span style='color:GreenYellow; font-size: 70px;'>正确! </span>","null","","","","","","","","","","","","","","","","","","","","","","","feedback_test"
"","","","","","psychophysics","105","432910","0.0-8.0-0.0-0.15","390","","j","","","","","","","","","","","","","key","j","16.870487804878106","750","496","f","false","img/H_ambi40.png","朋友","prac",""
"","","","","","html-keyboard-response","106","433418","0.0-8.0-0.0-1.15","null","<span style='color:red; font-size: 70px;'>错误! </span>","null","","","","","","","","","","","","","","","","","","","","","","","feedback_test"
"","","","","","psychophysics","107","434856","0.0-8.0-0.0-0.16","434","","f","","","","","","","","","","","","","key","f","16.86269411764669","750","496","f","true","img/S_ambi40.png","自我","prac",""
"","","","","","html-keyboard-response","108","435363","0.0-8.0-0.0-1.16","null","<span style='color:GreenYellow; font-size: 70px;'>正确! </span>","null","","","","","","","","","","","","","","","","","","","","","","","feedback_test"
"","","","","","psychophysics","109","436726","0.0-8.0-0.0-0.17","354","","f","","","","","","","","","","","","","key","f","16.668370370370088","750","496","j","false","img/S_ambi40.png","生人","prac",""
"","","","","","html-keyboard-response","110","437239","0.0-8.0-0.0-1.17","null","<span style='color:red; font-size: 70px;'>错误! </span>","null","","","","","","","","","","","","","","","","","","","","","","","feedback_test"
"","","","","","psychophysics","111","438398","0.0-8.0-0.0-0.18","157","","j","","","","","","","","","","","","","key","j","16.915432835821367","750","496","f","false","img/C_ambi40.png","生人","prac",""
"","","","","","html-keyboard-response","112","438909","0.0-8.0-0.0-1.18","null","<span style='color:yellow; font-size: 70px;'>过快! </span>","null","","","","","","","","","","","","","","","","","","","","","","","feedback_test"
"","","","","","psychophysics","113","440235","0.0-8.0-0.0-0.19","318","","j","","","","","","","","","","","","","key","j","16.66520512820511","750","496","j","true","img/S_ambi40.png","朋友","prac",""
"","","","","","html-keyboard-response","114","440737","0.0-8.0-0.0-1.19","null","<span style='color:GreenYellow; font-size: 70px;'>正确! </span>","null","","","","","","","","","","","","","","","","","","","","","","","feedback_test"
"","","","","","psychophysics","115","442109","0.0-8.0-0.0-0.20","370","","j","","","","","","","","","","","","","key","j","16.694225000000007","750","496","j","true","img/H_ambi40.png","自我","prac",""
"","","","","","html-keyboard-response","116","442615","0.0-8.0-0.0-1.20","null","<span style='color:GreenYellow; font-size: 70px;'>正确! </span>","null","","","","","","","","","","","","","","","","","","","","","","","feedback_test"
"","","","","","psychophysics","117","443968","0.0-8.0-0.0-0.21","351","","j","","","","","","","","","","","","","key","j","16.877949367087965","750","496","j","true","img/C_ambi40.png","自我","prac",""
"","","","","","html-keyboard-response","118","444470","0.0-8.0-0.0-1.21","null","<span style='color:GreenYellow; font-size: 70px;'>正确! </span>","null","","","","","","","","","","","","","","","","","","","","","","","feedback_test"
"","","","","","psychophysics","119","445766","0.0-8.0-0.0-0.22","294","","f","","","","","","","","","","","","","key","f","16.666657894736424","750","496","f","true","img/H_ambi40.png","朋友","prac",""
"","","","","","html-keyboard-response","120","446270","0.0-8.0-0.0-1.22","null","<span style='color:GreenYellow; font-size: 70px;'>正确! </span>","null","","","","","","","","","","","","","","","","","","","","","","","feedback_test"
"","","","","","psychophysics","121","447614","0.0-8.0-0.0-0.23","342","","j","","","","","","","","","","","","","key","j","16.877333333333716","750","496","j","true","img/H_ambi40.png","生人","prac",""
"","","","","","html-keyboard-response","122","448130","0.0-8.0-0.0-1.23","null","<span style='color:GreenYellow; font-size: 70px;'>正确! </span>","null","","","","","","","","","","","","","","","","","","","","","","","feedback_test"
"","","","","","psychophysics","123","449329","0.0-8.0-0.0-0.24","198","","f","","","","","","","","","","","","","key","f","16.90530000000061","750","496","f","true","img/H_ambi40.png","朋友","prac",""
"","","","","","html-keyboard-response","124","449834","0.0-8.0-0.0-1.24","null","<span style='color:yellow; font-size: 70px;'>过快! </span>","null","","","","","","","","","","","","","","","","","","","","","","","feedback_test"
"","","","","","psychophysics","125","451200","0.0-8.0-0.0-0.25","362","","j","","","","","","","","","","","","","key","j","16.879037499999686","750","496","j","true","img/T_ambi40.png","をる","prac",""
"","","","","","html-keyboard-response","126","451711","0.0-8.0-0.0-1.25","null","<span style='color:GreenYellow; font-size: 70px;'>正确! </span>","null","","","","","","","","","","","","","","","","","","","","","","","feedback_test"
"","","","","","psychophysics","127","453082","0.0-8.0-0.0-0.26","363","","j","","","","","","","","","","","","","key","j","16.668604938271685","750","496","j","true","img/T_ambi40.png","をる","prac",""
"","","","","","html-keyboard-response","128","453597","0.0-8.0-0.0-1.26","null","<span style='color:GreenYellow; font-size: 70px;'>正确! </span>","null","","","","","","","","","","","","","","","","","","","","","","","feedback_test"
"","","","","","psychophysics","129","454906","0.0-8.0-0.0-0.27","305","","j","","","","","","","","","","","","","key","j","17.105434210526017","750","496","j","true","img/T_ambi40.png","をる","prac",""
"","","","","","html-keyboard-response","130","455409","0.0-8.0-0.0-1.27","null","<span style='color:GreenYellow; font-size: 70px;'>正确! </span>","null","","","","","","","","","","","","","","","","","","","","","","","feedback_test"
"","","","","","psychophysics","131","456736","0.0-8.0-0.0-0.28","314","","j","","","","","","","","","","","","","key","j","16.668499999999767","750","496","j","true","img/T_ambi40.png","をる","prac",""
"","","","","","html-keyboard-response","132","457248","0.0-8.0-0.0-1.28","null","<span style='color:GreenYellow; font-size: 70px;'>正确! </span>","null","","","","","","","","","","","","","","","","","","","","","","","feedback_test"
"","","","","","psychophysics","133","458549","0.0-8.0-0.0-0.29","295","","f","","","","","","","","","","","","","key","f","16.88702631578934","750","496","j","false","img/C_ambi40.png","朋友","prac",""
"","","","","","html-keyboard-response","134","459064","0.0-8.0-0.0-1.29","null","<span style='color:red; font-size: 70px;'>错误! </span>","null","","","","","","","","","","","","","","","","","","","","","","","feedback_test"
"","","","","","psychophysics","135","460397","0.0-8.0-0.0-0.30","330","","j","","","","","","","","","","","","","key","j","16.66856962025366","750","496","f","false","img/C_ambi40.png","生人","prac",""
"","","","","","html-keyboard-response","136","460904","0.0-8.0-0.0-1.30","null","<span style='color:red; font-size: 70px;'>错误! </span>","null","","","","","","","","","","","","","","","","","","","","","","","feedback_test"
"","","","","","psychophysics","137","462262","0.0-8.0-0.0-0.31","356","","j","","","","","","","","","","","","","key","j","16.667430379747007","750","496","f","false","img/S_ambi40.png","自我","prac",""
"","","","","","html-keyboard-response","138","462775","0.0-8.0-0.0-1.31","null","<span style='color:red; font-size: 70px;'>错误! </span>","null","","","","","","","","","","","","","","","","","","","","","","","feedback_test"
"","","","","","html-keyboard-response","139","479575","0.0-8.0-1.0-0.0","16799","<style>.context{color:white; font-size: 35px; line-height:40px}</style>                          <div><p class='context'>您正确回答了59% 的试次。</p ><p class='context'>您的平均反应时为339毫秒。</p >","m","","","","","","","","","","","","","","","","","","","","","","",""
"","","","","","instructions","140","511632","0.0-8.0-1.0-1.0","32055","","","","","","","","","","","","","","[{""page_index"":0,""viewing_time"":2369},{""page_index"":1,""viewing_time"":28515},{""page_index"":2,""viewing_time"":1171}]","","","","","","","","","","",""
"","","","","","psychophysics","141","513035","0.0-8.1-0.1-0.32","396","","f","","","","","","","","","","","","","key","f","16.667097560975492","750","496","f","true","img/H_ambi40.png","朋友","prac",""
"","","","","","html-keyboard-response","142","513540","0.0-8.1-0.1-1.32","null","<span style='color:GreenYellow; font-size: 70px;'>正确! </span>","null","","","","","","","","","","","","","","","","","","","","","","","feedback_test"
"","","","","","psychophysics","143","515053","0.0-8.1-0.1-0.33","506","","f","","","","","","","","","","","","","key","f","16.669056179774977","750","496","j","false","img/T_ambi40.png","をる","prac",""
"","","","","","html-keyboard-response","144","515555","0.0-8.1-0.1-1.33","null","<span style='color:red; font-size: 70px;'>错误! </span>","null","","","","","","","","","","","","","","","","","","","","","","","feedback_test"
"","","","","","psychophysics","145","516943","0.0-8.1-0.1-0.34","379","","j","","","","","","","","","","","","","key","j","16.668682926829206","750","496","f","false","img/S_ambi40.png","自我","prac",""
"","","","","","html-keyboard-response","146","517452","0.0-8.1-0.1-1.34","null","<span style='color:red; font-size: 70px;'>错误! </span>","null","","","","","","","","","","","","","","","","","","","","","","","feedback_test"
"","","","","","psychophysics","147","519916","0.0-8.1-0.1-0.35","1461","","j","","","","","","","","","","","","","key","j","16.66733333333332","750","496","j","true","img/T_ambi40.png","をる","prac",""
"","","","","","html-keyboard-response","148","520418","0.0-8.1-0.1-1.35","null","<span style='color:GreenYellow; font-size: 70px;'>正确! </span>","null","","","","","","","","","","","","","","","","","","","","","","","feedback_test"
"","","","","","psychophysics","149","521891","0.0-8.1-0.1-0.36","470","","j","","","","","","","","","","","","","key","j","16.859873563218486","750","496","j","true","img/H_ambi40.png","生人","prac",""
"","","","","","html-keyboard-response","150","522397","0.0-8.1-0.1-1.36","null","<span style='color:GreenYellow; font-size: 70px;'>正确! </span>","null","","","","","","","","","","","","","","","","","","","","","","","feedback_test"
"","","","","","psychophysics","151","523807","0.0-8.1-0.1-0.37","406","","f","","","","","","","","","","","","","key","f","16.868084337349128","750","496","j","false","img/S_ambi40.png","生人","prac",""
"","","","","","html-keyboard-response","152","524316","0.0-8.1-0.1-1.37","null","<span style='color:red; font-size: 70px;'>错误! </span>","null","","","","","","","","","","","","","","","","","","","","","","","feedback_test"
"","","","","","psychophysics","153","526839","0.0-8.1-0.1-0.38","null","","null","","","","","","","","","","","","","key","null","16.667539999999573","750","496","j","false","img/S_ambi40.png","朋友","prac",""
"","","","","","html-keyboard-response","154","527352","0.0-8.1-0.1-1.38","null","<span class='add_' style='color:yellow; font-size: 70px;'> 太慢! </span>","null","","","","","","","","","","","","","","","","","","","","","","","feedback_test"
"","","","","","psychophysics","155","528853","0.0-8.1-0.1-0.39","499","","j","","","","","","","","","","","","","key","j","17.050413793104102","750","496","f","false","img/S_ambi40.png","自我","prac",""
"","","","","","html-keyboard-response","156","529367","0.0-8.1-0.1-1.39","null","<span style='color:red; font-size: 70px;'>错误! </span>","null","","","","","","","","","","","","","","","","","","","","","","","feedback_test"
"","","","","","psychophysics","157","531051","0.0-8.1-0.1-0.40","680","","f","","","","","","","","","","","","","key","f","16.667240000000458","750","496","f","true","img/C_ambi40.png","生人","prac",""
"","","","","","html-keyboard-response","158","531552","0.0-8.1-0.1-1.40","null","<span style='color:GreenYellow; font-size: 70px;'>正确! </span>","null","","","","","","","","","","","","","","","","","","","","","","","feedback_test"
"","","","","","psychophysics","159","533029","0.0-8.1-0.1-0.41","474","","j","","","","","","","","","","","","","key","j","16.668850574712","750","496","j","true","img/C_ambi40.png","朋友","prac",""
"","","","","","html-keyboard-response","160","533543","0.0-8.1-0.1-1.41","null","<span style='color:GreenYellow; font-size: 70px;'>正确! </span>","null","","","","","","","","","","","","","","","","","","","","","","","feedback_test"
"","","","","","psychophysics","161","535033","0.0-8.1-0.1-0.42","489","","f","","","","","","","","","","","","","key","f","16.66779545454615","750","496","j","false","img/H_ambi40.png","自我","prac",""
"","","","","","html-keyboard-response","162","535539","0.0-8.1-0.1-1.42","null","<span style='color:red; font-size: 70px;'>错误! </span>","null","","","","","","","","","","","","","","","","","","","","","","","feedback_test"
"","","","","","psychophysics","163","537449","0.0-8.1-0.1-0.43","905","","j","","","","","","","","","","","","","key","j","16.66785840707959","750","496","j","true","img/T_ambi40.png","をる","prac",""
"","","","","","html-keyboard-response","164","537956","0.0-8.1-0.1-1.43","null","<span style='color:GreenYellow; font-size: 70px;'>正确! </span>","null","","","","","","","","","","","","","","","","","","","","","","","feedback_test"
"","","","","","psychophysics","165","539474","0.0-8.1-0.1-0.44","513","","j","","","","","","","","","","","","","key","j","16.667477777778792","750","496","j","true","img/C_ambi40.png","自我","prac",""
"","","","","","html-keyboard-response","166","539982","0.0-8.1-0.1-1.44","null","<span style='color:GreenYellow; font-size: 70px;'>正确! </span>","null","","","","","","","","","","","","","","","","","","","","","","","feedback_test"
"","","","","","psychophysics","167","541475","0.0-8.1-0.1-0.45","488","","j","","","","","","","","","","","","","key","j","16.669337078651644","750","496","f","false","img/C_ambi40.png","生人","prac",""
"","","","","","html-keyboard-response","168","541987","0.0-8.1-0.1-1.45","null","<span style='color:red; font-size: 70px;'>错误! </span>","null","","","","","","","","","","","","","","","","","","","","","","","feedback_test"
"","","","","","psychophysics","169","543792","0.0-8.1-0.1-0.46","803","","j","","","","","","","","","","","","","key","j","16.667214953270957","750","496","j","true","img/T_ambi40.png","をる","prac",""
"","","","","","html-keyboard-response","170","544296","0.0-8.1-0.1-1.46","null","<span style='color:GreenYellow; font-size: 70px;'>正确! </span>","null","","","","","","","","","","","","","","","","","","","","","","","feedback_test"
"","","","","","psychophysics","171","545789","0.0-8.1-0.1-0.47","485","","j","","","","","","","","","","","","","key","j","16.6677865168548","750","496","f","false","img/H_ambi40.png","朋友","prac",""
"","","","","","html-keyboard-response","172","546298","0.0-8.1-0.1-1.47","null","<span style='color:red; font-size: 70px;'>错误! </span>","null","","","","","","","","","","","","","","","","","","","","","","","feedback_test"
"","","","","","psychophysics","173","548024","0.0-8.1-0.1-0.48","720","","j","","","","","","","","","","","","","key","j","16.997623762376328","750","496","j","true","img/T_ambi40.png","をる","prac",""
"","","","","","html-keyboard-response","174","548525","0.0-8.1-0.1-1.48","null","<span style='color:GreenYellow; font-size: 70px;'>正确! </span>","null","","","","","","","","","","","","","","","","","","","","","","","feedback_test"
"","","","","","psychophysics","175","549967","0.0-8.1-0.1-0.49","436","","f","","","","","","","","","","","","","key","f","16.668964705883305","750","496","f","true","img/C_ambi40.png","生人","prac",""
"","","","","","html-keyboard-response","176","550477","0.0-8.1-0.1-1.49","null","<span style='color:GreenYellow; font-size: 70px;'>正确! </span>","null","","","","","","","","","","","","","","","","","","","","","","","feedback_test"
"","","","","","psychophysics","177","551996","0.0-8.1-0.1-0.50","507","","j","","","","","","","","","","","","","key","j","16.66697777777703","750","496","j","true","img/T_ambi40.png","をる","prac",""
"","","","","","html-keyboard-response","178","552507","0.0-8.1-0.1-1.50","null","<span style='color:GreenYellow; font-size: 70px;'>正确! </span>","null","","","","","","","","","","","","","","","","","","","","","","","feedback_test"
"","","","","","psychophysics","179","553966","0.0-8.1-0.1-0.51","453","","f","","","","","","","","","","","","","key","f","16.8630941176472","750","496","f","true","img/S_ambi40.png","自我","prac",""
"","","","","","html-keyboard-response","180","554473","0.0-8.1-0.1-1.51","null","<span style='color:GreenYellow; font-size: 70px;'>正确! </span>","null","","","","","","","","","","","","","","","","","","","","","","","feedback_test"
"","","","","","psychophysics","181","556058","0.0-8.1-0.1-0.52","583","","f","","","","","","","","","","","","","key","f","16.846881720430208","750","496","j","false","img/C_ambi40.png","自我","prac",""
"","","","","","html-keyboard-response","182","556565","0.0-8.1-0.1-1.52","null","<span style='color:red; font-size: 70px;'>错误! </span>","null","","","","","","","","","","","","","","","","","","","","","","","feedback_test"
"","","","","","psychophysics","183","557976","0.0-8.1-0.1-0.53","409","","j","","","","","","","","","","","","","key","j","16.868542168675138","750","496","f","false","img/S_ambi40.png","自我","prac",""
"","","","","","html-keyboard-response","184","558482","0.0-8.1-0.1-1.53","null","<span style='color:red; font-size: 70px;'>错误! </span>","null","","","","","","","","","","","","","","","","","","","","","","","feedback_test"
"","","","","","psychophysics","185","560113","0.0-8.1-0.1-0.54","626","","j","","","","","","","","","","","","","key","j","16.840260416665842","750","496","j","true","img/T_ambi40.png","をる","prac",""
"","","","","","html-keyboard-response","186","560622","0.0-8.1-0.1-1.54","null","<span style='color:GreenYellow; font-size: 70px;'>正确! </span>","null","","","","","","","","","","","","","","","","","","","","","","","feedback_test"
"","","","","","psychophysics","187","563129","0.0-8.1-0.1-0.55","null","","null","","","","","","","","","","","","","key","null","16.666570469798778","750","496","j","false","img/S_ambi40.png","朋友","prac",""
"","","","","","html-keyboard-response","188","563639","0.0-8.1-0.1-1.55","null","<span class='add_' style='color:yellow; font-size: 70px;'> 太慢! </span>","null","","","","","","","","","","","","","","","","","","","","","","","feedback_test"
"","","","","","psychophysics","189","565676","0.0-8.1-0.1-0.56","1034","","f","","","","","","","","","","","","","key","f","16.66819834710707","750","496","f","true","img/C_ambi40.png","生人","prac",""
"","","","","","html-keyboard-response","190","566178","0.0-8.1-0.1-1.56","null","<span style='color:GreenYellow; font-size: 70px;'>正确! </span>","null","","","","","","","","","","","","","","","","","","","","","","","feedback_test"
"","","","","","psychophysics","191","568701","0.0-8.1-0.1-0.57","null","","null","","","","","","","","","","","","","key","null","16.667453333333444","750","496","j","false","img/C_ambi40.png","朋友","prac",""
"","","","","","html-keyboard-response","192","569208","0.0-8.1-0.1-1.57","null","<span class='add_' style='color:yellow; font-size: 70px;'> 太慢! </span>","null","","","","","","","","","","","","","","","","","","","","","","","feedback_test"
"","","","","","psychophysics","193","571186","0.0-8.1-0.1-0.58","966","","j","","","","","","","","","","","","","key","j","16.668470085470172","750","496","j","true","img/H_ambi40.png","生人","prac",""
"","","","","","html-keyboard-response","194","571696","0.0-8.1-0.1-1.58","null","<span style='color:GreenYellow; font-size: 70px;'>正确! </span>","null","","","","","","","","","","","","","","","","","","","","","","","feedback_test"
"","","","","","psychophysics","195","573683","0.0-8.1-0.1-0.59","980","","j","","","","","","","","","","","","","key","j","16.80982905982906","750","496","j","true","img/S_ambi40.png","生人","prac",""
"","","","","","html-keyboard-response","196","574197","0.0-8.1-0.1-1.59","null","<span style='color:GreenYellow; font-size: 70px;'>正确! </span>","null","","","","","","","","","","","","","","","","","","","","","","","feedback_test"
"","","","","","psychophysics","197","576136","0.0-8.1-0.1-0.60","932","","f","","","","","","","","","","","","","key","f","16.962884955753086","750","496","j","false","img/H_ambi40.png","自我","prac",""
"","","","","","html-keyboard-response","198","576651","0.0-8.1-0.1-1.60","null","<span style='color:red; font-size: 70px;'>错误! </span>","null","","","","","","","","","","","","","","","","","","","","","","","feedback_test"
"","","","","","psychophysics","199","578792","0.0-8.1-0.1-0.61","1138","","j","","","","","","","","","","","","","key","j","16.668046875000073","750","496","f","false","img/H_ambi40.png","朋友","prac",""
"","","","","","html-keyboard-response","200","579301","0.0-8.1-0.1-1.61","null","<span style='color:red; font-size: 70px;'>错误! </span>","null","","","","","","","","","","","","","","","","","","","","","","","feedback_test"
"","","","","","psychophysics","201","580930","0.0-8.1-0.1-0.62","626","","j","","","","","","","","","","","","","key","j","16.842604166666813","750","496","j","true","img/T_ambi40.png","をる","prac",""
"","","","","","html-keyboard-response","202","581435","0.0-8.1-0.1-1.62","null","<span style='color:GreenYellow; font-size: 70px;'>正确! </span>","null","","","","","","","","","","","","","","","","","","","","","","","feedback_test"
"","","","","","psychophysics","203","583954","0.0-8.1-0.1-0.63","null","","null","","","","","","","","","","","","","key","null","16.69408108108139","750","496","f","false","img/H_ambi40.png","朋友","prac",""
"","","","","","html-keyboard-response","204","584456","0.0-8.1-0.1-1.63","null","<span class='add_' style='color:yellow; font-size: 70px;'> 太慢! </span>","null","","","","","","","","","","","","","","","","","","","","","","","feedback_test"
"","","","","","html-keyboard-response","205","588630","0.0-8.1-1.1-0.1","4172","<style>.context{color:white; font-size: 35px; line-height:40px}</style>                          <div><p class='context'>您正确回答了53% 的试次。</p ><p class='context'>您的平均反应时为709毫秒。</p >"," ","","","","","","","","","","","","","","","","","","","","","","",""
"","","","","","instructions","206","602523","0.0-8.1-1.1-1.1","13891","","","","","","","","","","","","","","[{""page_index"":0,""viewing_time"":1171},{""page_index"":1,""viewing_time"":11700},{""page_index"":2,""viewing_time"":1020}]","","","","","","","","","","",""
"","","","","","psychophysics","207","605036","0.0-8.2-0.2-0.64","null","","null","","","","","","","","","","","","","key","null","16.779155405405813","750","496","j","false","img/S_ambi40.png","生人","prac",""
"","","","","","html-keyboard-response","208","605544","0.0-8.2-0.2-1.64","null","<span class='add_' style='color:yellow; font-size: 70px;'> 太慢! </span>","null","","","","","","","","","","","","","","","","","","","","","","","feedback_test"
"","","","","","psychophysics","209","607153","0.0-8.2-0.2-0.65","608","","j","","","","","","","","","","","","","key","j","16.667273684211175","750","496","j","true","img/T_ambi40.png","をる","prac",""
"","","","","","html-keyboard-response","210","607655","0.0-8.2-0.2-1.65","null","<span style='color:GreenYellow; font-size: 70px;'>正确! </span>","null","","","","","","","","","","","","","","","","","","","","","","","feedback_test"
"","","","","","psychophysics","211","609183","0.0-8.2-0.2-0.66","523","","j","","","","","","","","","","","","","key","j","17.04614772727258","750","496","j","true","img/T_ambi40.png","をる","prac",""
"","","","","","html-keyboard-response","212","609698","0.0-8.2-0.2-1.66","null","<span style='color:GreenYellow; font-size: 70px;'>正确! </span>","null","","","","","","","","","","","","","","","","","","","","","","","feedback_test"
"","","","","","psychophysics","213","611766","0.0-8.2-0.2-0.67","1062","","f","","","","","","","","","","","","","key","f","16.667414634146848","750","496","f","true","img/C_ambi40.png","生人","prac",""
"","","","","","html-keyboard-response","214","612270","0.0-8.2-0.2-1.67","null","<span style='color:GreenYellow; font-size: 70px;'>正确! </span>","null","","","","","","","","","","","","","","","","","","","","","","","feedback_test"
"","","","","","psychophysics","215","614468","0.0-8.2-0.2-0.68","1191","","f","","","","","","","","","","","","","key","f","16.795767441860313","750","496","f","true","img/H_ambi40.png","朋友","prac",""
"","","","","","html-keyboard-response","216","614969","0.0-8.2-0.2-1.68","null","<span style='color:GreenYellow; font-size: 70px;'>正确! </span>","null","","","","","","","","","","","","","","","","","","","","","","","feedback_test"
"","","","","","psychophysics","217","616916","0.0-8.2-0.2-0.69","945","","j","","","","","","","","","","","","","key","j","16.666069565217374","750","496","j","true","img/C_ambi40.png","自我","prac",""
"","","","","","html-keyboard-response","218","617417","0.0-8.2-0.2-1.69","null","<span style='color:GreenYellow; font-size: 70px;'>正确! </span>","null","","","","","","","","","","","","","","","","","","","","","","","feedback_test"
"","","","","","psychophysics","219","619479","0.0-8.2-0.2-0.70","1061","","f","","","","","","","","","","","","","key","f","16.668487804877472","750","496","f","true","img/S_ambi40.png","自我","prac",""
"","","","","","html-keyboard-response","220","619984","0.0-8.2-0.2-1.70","null","<span style='color:GreenYellow; font-size: 70px;'>正确! </span>","null","","","","","","","","","","","","","","","","","","","","","","","feedback_test"
"","","","","","psychophysics","221","621681","0.0-8.2-0.2-0.71","693","","j","","","","","","","","","","","","","key","j","16.83572999999975","750","496","j","true","img/T_ambi40.png","をる","prac",""
"","","","","","html-keyboard-response","222","622183","0.0-8.2-0.2-1.71","null","<span style='color:GreenYellow; font-size: 70px;'>正确! </span>","null","","","","","","","","","","","","","","","","","","","","","","","feedback_test"
"","","","","","psychophysics","223","624358","0.0-8.2-0.2-0.72","1171","","j","","","","","","","","","","","","","key","j","16.796093750000182","750","496","j","true","img/H_ambi40.png","自我","prac",""
"","","","","","html-keyboard-response","224","624861","0.0-8.2-0.2-1.72","null","<span style='color:GreenYellow; font-size: 70px;'>正确! </span>","null","","","","","","","","","","","","","","","","","","","","","","","feedback_test"
"","","","","","psychophysics","225","627266","0.0-8.2-0.2-0.73","1401","","j","","","","","","","","","","","","","key","j","16.784295774647855","750","496","j","true","img/H_ambi40.png","生人","prac",""
"","","","","","html-keyboard-response","226","627768","0.0-8.2-0.2-1.73","null","<span style='color:GreenYellow; font-size: 70px;'>正确! </span>","null","","","","","","","","","","","","","","","","","","","","","","","feedback_test"
"","","","","","psychophysics","227","629756","0.0-8.2-0.2-0.74","987","","f","","","","","","","","","","","","","key","f","16.80790677966187","750","496","f","true","img/S_ambi40.png","自我","prac",""
"","","","","","html-keyboard-response","228","630257","0.0-8.2-0.2-1.74","null","<span style='color:GreenYellow; font-size: 70px;'>正确! </span>","null","","","","","","","","","","","","","","","","","","","","","","","feedback_test"
"","","","","","psychophysics","229","632237","0.0-8.2-0.2-0.75","972","","j","","","","","","","","","","","","","key","j","16.66739316239384","750","496","j","true","img/S_ambi40.png","朋友","prac",""
"","","","","","html-keyboard-response","230","632740","0.0-8.2-0.2-1.75","null","<span style='color:GreenYellow; font-size: 70px;'>正确! </span>","null","","","","","","","","","","","","","","","","","","","","","","","feedback_test"
"","","","","","psychophysics","231","634816","0.0-8.2-0.2-0.76","1074","","f","","","","","","","","","","","","","key","f","16.805262295081715","750","496","f","true","img/C_ambi40.png","生人","prac",""
"","","","","","html-keyboard-response","232","635324","0.0-8.2-0.2-1.76","null","<span style='color:GreenYellow; font-size: 70px;'>正确! </span>","null","","","","","","","","","","","","","","","","","","","","","","","feedback_test"
"","","","","","psychophysics","233","637835","0.0-8.2-0.2-0.77","null","","null","","","","","","","","","","","","","key","null","16.779675675675627","750","496","j","false","img/C_ambi40.png","朋友","prac",""
"","","","","","html-keyboard-response","234","638335","0.0-8.2-0.2-1.77","null","<span class='add_' style='color:yellow; font-size: 70px;'> 太慢! </span>","null","","","","","","","","","","","","","","","","","","","","","","","feedback_test"
"","","","","","psychophysics","235","640033","0.0-8.2-0.2-0.78","697","","j","","","","","","","","","","","","","key","j","17.535885416666133","750","496","j","true","img/T_ambi40.png","をる","prac",""
"","","","","","html-keyboard-response","236","640548","0.0-8.2-0.2-1.78","null","<span style='color:GreenYellow; font-size: 70px;'>正确! </span>","null","","","","","","","","","","","","","","","","","","","","","","","feedback_test"
"","","","","","psychophysics","237","642441","0.0-8.2-0.2-0.79","888","","f","","","","","","","","","","","","","key","f","16.8161428571423","750","496","f","true","img/H_ambi40.png","朋友","prac",""
"","","","","","html-keyboard-response","238","642943","0.0-8.2-0.2-1.79","null","<span style='color:GreenYellow; font-size: 70px;'>正确! </span>","null","","","","","","","","","","","","","","","","","","","","","","","feedback_test"
"","","","","","psychophysics","239","644679","0.0-8.2-0.2-0.80","733","","j","","","","","","","","","","","","","key","j","16.996980198019294","750","496","j","true","img/T_ambi40.png","をる","prac",""
"","","","","","html-keyboard-response","240","645194","0.0-8.2-0.2-1.80","null","<span style='color:GreenYellow; font-size: 70px;'>正确! </span>","null","","","","","","","","","","","","","","","","","","","","","","","feedback_test"
"","","","","","psychophysics","241","647479","0.0-8.2-0.2-0.81","1278","","j","","","","","","","","","","","","","key","j","16.667213235294398","750","496","j","true","img/S_ambi40.png","生人","prac",""
"","","","","","html-keyboard-response","242","647981","0.0-8.2-0.2-1.81","null","<span style='color:GreenYellow; font-size: 70px;'>正确! </span>","null","","","","","","","","","","","","","","","","","","","","","","","feedback_test"
"","","","","","psychophysics","243","649656","0.0-8.2-0.2-0.82","670","","j","","","","","","","","","","","","","key","j","16.836663265306292","750","496","j","true","img/T_ambi40.png","をる","prac",""
"","","","","","html-keyboard-response","244","650168","0.0-8.2-0.2-1.82","null","<span style='color:GreenYellow; font-size: 70px;'>正确! </span>","null","","","","","","","","","","","","","","","","","","","","","","","feedback_test"
"","","","","","psychophysics","245","652152","0.0-8.2-0.2-0.83","980","","f","","","","","","","","","","","","","key","f","17.10093913043485","750","496","f","true","img/S_ambi40.png","自我","prac",""
"","","","","","html-keyboard-response","246","652666","0.0-8.2-0.2-1.83","null","<span style='color:GreenYellow; font-size: 70px;'>正确! </span>","null","","","","","","","","","","","","","","","","","","","","","","","feedback_test"
"","","","","","psychophysics","247","654674","0.0-8.2-0.2-0.84","1004","","j","","","","","","","","","","","","","key","j","16.950499999999874","750","496","f","false","img/C_ambi40.png","生人","prac",""
"","","","","","html-keyboard-response","248","655184","0.0-8.2-0.2-1.84","null","<span style='color:red; font-size: 70px;'>错误! </span>","null","","","","","","","","","","","","","","","","","","","","","","","feedback_test"
"","","","","","psychophysics","249","657579","0.0-8.2-0.2-0.85","1393","","f","","","","","","","","","","","","","key","f","16.78447887323908","750","496","f","true","img/C_ambi40.png","生人","prac",""
"","","","","","html-keyboard-response","250","658095","0.0-8.2-0.2-1.85","null","<span style='color:GreenYellow; font-size: 70px;'>正确! </span>","null","","","","","","","","","","","","","","","","","","","","","","","feedback_test"
"","","","","","psychophysics","251","660234","0.0-8.2-0.2-0.86","1136","","f","","","","","","","","","","","","","key","f","16.668929133857564","750","496","f","true","img/H_ambi40.png","朋友","prac",""
"","","","","","html-keyboard-response","252","660743","0.0-8.2-0.2-1.86","null","<span style='color:GreenYellow; font-size: 70px;'>正确! </span>","null","","","","","","","","","","","","","","","","","","","","","","","feedback_test"
"","","","","","psychophysics","253","662831","0.0-8.2-0.2-0.87","1082","","j","","","","","","","","","","","","","key","j","16.666604838709556","750","496","j","true","img/H_ambi40.png","生人","prac",""
"","","","","","html-keyboard-response","254","663332","0.0-8.2-0.2-1.87","null","<span style='color:GreenYellow; font-size: 70px;'>正确! </span>","null","","","","","","","","","","","","","","","","","","","","","","","feedback_test"
"","","","","","psychophysics","255","665490","0.0-8.2-0.2-0.88","1156","","j","","","","","","","","","","","","","key","j","16.797351562500808","750","496","j","true","img/H_ambi40.png","自我","prac",""
"","","","","","html-keyboard-response","256","666000","0.0-8.2-0.2-1.88","null","<span style='color:GreenYellow; font-size: 70px;'>正确! </span>","null","","","","","","","","","","","","","","","","","","","","","","","feedback_test"
"","","","","","psychophysics","257","668520","0.0-8.2-0.2-0.89","null","","null","","","","","","","","","","","","","key","null","16.77967785234913","750","496","j","false","img/S_ambi40.png","朋友","prac",""
"","","","","","html-keyboard-response","258","669034","0.0-8.2-0.2-1.89","null","<span class='add_' style='color:yellow; font-size: 70px;'> 太慢! </span>","null","","","","","","","","","","","","","","","","","","","","","","","feedback_test"
"","","","","","psychophysics","259","671100","0.0-8.2-0.2-0.90","1065","","f","","","","","","","","","","","","","key","f","16.70447933884272","750","496","f","true","img/H_ambi40.png","朋友","prac",""
"","","","","","html-keyboard-response","260","671611","0.0-8.2-0.2-1.90","null","<span style='color:GreenYellow; font-size: 70px;'>正确! </span>","null","","","","","","","","","","","","","","","","","","","","","","","feedback_test"
"","","","","","psychophysics","261","673875","0.0-8.2-0.2-0.91","1256","","f","","","","","","","","","","","","","key","f","16.791514925372876","750","496","j","false","img/C_ambi40.png","自我","prac",""
"","","","","","html-keyboard-response","262","674377","0.0-8.2-0.2-1.91","null","<span style='color:red; font-size: 70px;'>错误! </span>","null","","","","","","","","","","","","","","","","","","","","","","","feedback_test"
"","","","","","psychophysics","263","676399","0.0-8.2-0.2-0.92","1018","","f","","","","","","","","","","","","","key","f","16.80810084033605","750","496","f","true","img/S_ambi40.png","自我","prac",""
"","","","","","html-keyboard-response","264","676908","0.0-8.2-0.2-1.92","null","<span style='color:GreenYellow; font-size: 70px;'>正确! </span>","null","","","","","","","","","","","","","","","","","","","","","","","feedback_test"
"","","","","","psychophysics","265","678660","0.0-8.2-0.2-0.93","739","","j","","","","","","","","","","","","","key","j","16.829611650484985","750","496","j","true","img/T_ambi40.png","をる","prac",""
"","","","","","html-keyboard-response","266","679165","0.0-8.2-0.2-1.93","null","<span style='color:GreenYellow; font-size: 70px;'>正确! </span>","null","","","","","","","","","","","","","","","","","","","","","","","feedback_test"
"","","","","","psychophysics","267","681384","0.0-8.2-0.2-0.94","1214","","j","","","","","","","","","","","","","key","j","16.795091603053486","750","496","j","true","img/C_ambi40.png","朋友","prac",""
"","","","","","html-keyboard-response","268","681896","0.0-8.2-0.2-1.94","null","<span style='color:GreenYellow; font-size: 70px;'>正确! </span>","null","","","","","","","","","","","","","","","","","","","","","","","feedback_test"
"","","","","","psychophysics","269","683554","0.0-8.2-0.2-0.95","651","","j","","","","","","","","","","","","","key","j","17.00999999999971","750","496","j","true","img/T_ambi40.png","をる","prac",""
"","","","","","html-keyboard-response","270","684056","0.0-8.2-0.2-1.95","null","<span style='color:GreenYellow; font-size: 70px;'>正确! </span>","null","","","","","","","","","","","","","","","","","","","","","","","feedback_test"
"","","","","","html-keyboard-response","271","699378","0.0-9.0","15318","<style>.context{color:white; font-size: 35px; line-height:40px}</style>                          <div><p class='context'>您正确回答了84% 的试次。</p ><p class='context'>您的平均反应时为977毫秒。</p ><p class='context'>恭喜您完成练习。按任意键进入正式实验。</p ><p class='footer' style='font-size: 35px; line-height:40px;'>请在进入正式实验实验之前将您的<span style='color: lightgreen;'>食指</span>放在电脑键盘的相应键位上进行按键。</p >"," ","","","","","","","","","","","","","","","","","","","","","","",""
"","","","","","psychophysics","272","701890","0.0-10.0-0.0-0.0-0.0-0.0","null","","null","","","","","","","","","","","","","key","null","16.668279999999797","750","496","f","false","img/S_ambi40.png","自我","same",""
"","","","","","html-keyboard-response","273","702391","0.0-10.0-0.0-0.0-0.0-1.0","null","<span class='add_' style='color:yellow; font-size: 70px;'> 太慢! </span>","null","","","","","","","","","","","","","","","","","","","","","","","feedback_test"
"","","","","","psychophysics","274","704898","0.0-10.0-0.0-0.0-0.0-0.1","null","","null","","","","","","","","","","","","","key","null","18.00418978102206","750","496","j","false","img/C_ambi40.png","自我","same",""
"","","","","","html-keyboard-response","275","705413","0.0-10.0-0.0-0.0-0.0-1.1","null","<span class='add_' style='color:yellow; font-size: 70px;'> 太慢! </span>","null","","","","","","","","","","","","","","","","","","","","","","","feedback_test"
"","","","","","psychophysics","276","707922","0.0-10.0-0.0-0.0-0.0-0.2","null","","null","","","","","","","","","","","","","key","null","17.857199999999388","750","496","j","false","img/H_ambi40.png","生人","same",""
"","","","","","html-keyboard-response","277","708431","0.0-10.0-0.0-0.0-0.0-1.2","null","<span class='add_' style='color:yellow; font-size: 70px;'> 太慢! </span>","null","","","","","","","","","","","","","","","","","","","","","","","feedback_test"
"","","","","","psychophysics","278","710945","0.0-10.0-0.0-0.0-0.0-0.3","null","","null","","","","","","","","","","","","","key","null","18.656850746268088","750","496","f","false","img/C_ambi40.png","生人","same",""
"","","","","","html-keyboard-response","279","711446","0.0-10.0-0.0-0.0-0.0-1.3","null","<span class='add_' style='color:yellow; font-size: 70px;'> 太慢! </span>","null","","","","","","","","","","","","","","","","","","","","","","","feedback_test"
"","","","","","psychophysics","280","713427","0.0-10.0-0.0-0.0-0.0-0.4","974","","j","","","","","","","","","","","","","key","j","16.668016949152552","750","496","j","true","img/C_ambi40.png","朋友","same",""
"","","","","","html-keyboard-response","281","713932","0.0-10.0-0.0-0.0-0.0-1.4","null","<span style='color:GreenYellow; font-size: 70px;'>正确! </span>","null","","","","","","","","","","","","","","","","","","","","","","","feedback_test"
"","","","","","psychophysics","282","715774","0.0-10.0-0.0-0.0-0.0-0.5","838","","f","","","","","","","","","","","","","key","f","16.821908256880633","750","496","f","true","img/S_ambi40.png","自我","same",""
"","","","","","html-keyboard-response","283","716289","0.0-10.0-0.0-0.0-0.0-1.5","null","<span style='color:GreenYellow; font-size: 70px;'>正确! </span>","null","","","","","","","","","","","","","","","","","","","","","","","feedback_test"
"","","","","","psychophysics","284","718212","0.0-10.0-0.0-0.0-0.0-0.6","907","","j","","","","","","","","","","","","","key","j","16.66572807017579","750","496","f","false","img/H_ambi40.png","朋友","same",""
"","","","","","html-keyboard-response","285","718715","0.0-10.0-0.0-0.0-0.0-1.6","null","<span style='color:red; font-size: 70px;'>错误! </span>","null","","","","","","","","","","","","","","","","","","","","","","","feedback_test"
"","","","","","psychophysics","286","720611","0.0-10.0-0.0-0.0-0.0-0.7","891","","f","","","","","","","","","","","","","key","f","16.6681238938055","750","496","j","false","img/S_ambi40.png","朋友","same",""
"","","","","","html-keyboard-response","287","721120","0.0-10.0-0.0-0.0-0.0-1.7","null","<span style='color:red; font-size: 70px;'>错误! </span>","null","","","","","","","","","","","","","","","","","","","","","","","feedback_test"
"","","","","","psychophysics","288","723531","0.0-10.0-0.0-0.0-0.0-0.8","1410","","f","","","","","","","","","","","","","key","f","16.666090909091242","750","496","j","false","img/H_ambi40.png","自我","same",""
"","","","","","html-keyboard-response","289","724046","0.0-10.0-0.0-0.0-0.0-1.8","null","<span style='color:red; font-size: 70px;'>错误! </span>","null","","","","","","","","","","","","","","","","","","","","","","","feedback_test"
"","","","","","psychophysics","290","726239","0.0-10.0-0.0-0.0-0.0-0.9","1187","","f","","","","","","","","","","","","","key","f","16.925875968992884","750","496","f","true","img/C_ambi40.png","生人","same",""
"","","","","","html-keyboard-response","291","726744","0.0-10.0-0.0-0.0-0.0-1.9","null","<span style='color:GreenYellow; font-size: 70px;'>正确! </span>","null","","","","","","","","","","","","","","","","","","","","","","","feedback_test"
"","","","","","psychophysics","292","728816","0.0-10.0-0.0-0.0-0.0-0.10","1063","","j","","","","","","","","","","","","","key","j","16.80298360655672","750","496","j","true","img/S_ambi40.png","生人","same",""
"","","","","","html-keyboard-response","293","729330","0.0-10.0-0.0-0.0-0.0-1.10","null","<span style='color:GreenYellow; font-size: 70px;'>正确! </span>","null","","","","","","","","","","","","","","","","","","","","","","","feedback_test"
"","","","","","psychophysics","294","731176","0.0-10.0-0.0-0.0-0.0-0.11","842","","f","","","","","","","","","","","","","key","f","16.820073394495736","750","496","f","true","img/S_ambi40.png","自我","same",""
"","","","","","html-keyboard-response","295","731691","0.0-10.0-0.0-0.0-0.0-1.11","null","<span style='color:GreenYellow; font-size: 70px;'>正确! </span>","null","","","","","","","","","","","","","","","","","","","","","","","feedback_test"
"","","","","","psychophysics","296","733710","0.0-10.0-0.0-0.0-0.0-0.12","1014","","f","","","","","","","","","","","","","key","f","16.80672268907563","750","496","f","true","img/C_ambi40.png","生人","same",""
"","","","","","html-keyboard-response","297","734215","0.0-10.0-0.0-0.0-0.0-1.12","null","<span style='color:GreenYellow; font-size: 70px;'>正确! </span>","null","","","","","","","","","","","","","","","","","","","","","","","feedback_test"
"","","","","","psychophysics","298","736414","0.0-10.0-0.0-0.0-0.0-0.13","1194","","f","","","","","","","","","","","","","key","f","16.79544615384657","750","496","f","true","img/H_ambi40.png","朋友","same",""
"","","","","","html-keyboard-response","299","736919","0.0-10.0-0.0-0.0-0.0-1.13","null","<span style='color:GreenYellow; font-size: 70px;'>正确! </span>","null","","","","","","","","","","","","","","","","","","","","","","","feedback_test"
"","","","","","psychophysics","300","738699","0.0-10.0-0.0-0.0-0.0-0.14","769","","j","","","","","","","","","","","","","key","j","16.82980769230814","750","496","j","true","img/T_ambi40.png","をる","same",""
"","","","","","html-keyboard-response","301","739206","0.0-10.0-0.0-0.0-0.0-1.14","null","<span style='color:GreenYellow; font-size: 70px;'>正确! </span>","null","","","","","","","","","","","","","","","","","","","","","","","feedback_test"
"","","","","","psychophysics","302","741069","0.0-10.0-0.0-0.0-0.0-0.15","858","","f","","","","","","","","","","","","","key","f","16.66724545454543","750","496","f","true","img/H_ambi40.png","朋友","same",""
"","","","","","html-keyboard-response","303","741572","0.0-10.0-0.0-0.0-0.0-1.15","null","<span style='color:GreenYellow; font-size: 70px;'>正确! </span>","null","","","","","","","","","","","","","","","","","","","","","","","feedback_test"
"","","","","","psychophysics","304","743368","0.0-10.0-0.0-0.0-0.0-0.16","786","","j","","","","","","","","","","","","","key","j","16.825361904761355","750","496","j","true","img/T_ambi40.png","をる","same",""
"","","","","","html-keyboard-response","305","743870","0.0-10.0-0.0-0.0-0.0-1.16","null","<span style='color:GreenYellow; font-size: 70px;'>正确! </span>","null","","","","","","","","","","","","","","","","","","","","","","","feedback_test"
"","","","","","psychophysics","306","745567","0.0-10.0-0.0-0.0-0.0-0.17","696","","j","","","","","","","","","","","","","key","j","16.66682999999961","750","496","j","true","img/T_ambi40.png","をる","same",""
"","","","","","html-keyboard-response","307","746074","0.0-10.0-0.0-0.0-0.0-1.17","null","<span style='color:GreenYellow; font-size: 70px;'>正确! </span>","null","","","","","","","","","","","","","","","","","","","","","","","feedback_test"
"","","","","","psychophysics","308","747758","0.0-10.0-0.0-0.0-0.0-0.18","680","","f","","","","","","","","","","","","","key","f","16.667900000000373","750","496","f","true","img/H_ambi40.png","朋友","same",""
"","","","","","html-keyboard-response","309","748259","0.0-10.0-0.0-0.0-0.0-1.18","null","<span style='color:GreenYellow; font-size: 70px;'>正确! </span>","null","","","","","","","","","","","","","","","","","","","","","","","feedback_test"
"","","","","","psychophysics","310","750042","0.0-10.0-0.0-0.0-0.0-0.19","778","","f","","","","","","","","","","","","","key","f","16.668528301887356","750","496","f","true","img/C_ambi40.png","生人","same",""
"","","","","","html-keyboard-response","311","750552","0.0-10.0-0.0-0.0-0.0-1.19","null","<span style='color:GreenYellow; font-size: 70px;'>正确! </span>","null","","","","","","","","","","","","","","","","","","","","","","","feedback_test"
"","","","","","psychophysics","312","752522","0.0-10.0-0.0-0.0-0.0-0.20","969","","f","","","","","","","","","","","","","key","f","16.689534482757907","750","496","f","true","img/C_ambi40.png","生人","same",""
"","","","","","html-keyboard-response","313","753033","0.0-10.0-0.0-0.0-0.0-1.20","null","<span style='color:GreenYellow; font-size: 70px;'>正确! </span>","null","","","","","","","","","","","","","","","","","","","","","","","feedback_test"
"","","","","","psychophysics","314","754991","0.0-10.0-0.0-0.0-0.0-0.21","955","","j","","","","","","","","","","","","","key","j","17.105833333332843","750","496","j","true","img/C_ambi40.png","朋友","same",""
"","","","","","html-keyboard-response","315","755502","0.0-10.0-0.0-0.0-0.0-1.21","null","<span style='color:GreenYellow; font-size: 70px;'>正确! </span>","null","","","","","","","","","","","","","","","","","","","","","","","feedback_test"
"","","","","","psychophysics","316","757739","0.0-10.0-0.0-0.0-0.0-0.22","1236","","j","","","","","","","","","","","","","key","j","16.66715789473654","750","496","j","true","img/T_ambi40.png","をる","same",""
"","","","","","html-keyboard-response","317","758241","0.0-10.0-0.0-0.0-0.0-1.22","null","<span style='color:GreenYellow; font-size: 70px;'>正确! </span>","null","","","","","","","","","","","","","","","","","","","","","","","feedback_test"
"","","","","","psychophysics","318","760345","0.0-10.0-0.0-0.0-0.0-0.23","1095","","j","","","","","","","","","","","","","key","j","16.802403225806625","750","496","j","true","img/C_ambi40.png","自我","same",""
"","","","","","html-keyboard-response","319","760850","0.0-10.0-0.0-0.0-0.0-1.23","null","<span style='color:GreenYellow; font-size: 70px;'>正确! </span>","null","","","","","","","","","","","","","","","","","","","","","","","feedback_test"
"","","","","","psychophysics","320","762632","0.0-10.0-0.0-0.0-0.0-0.24","779","","j","","","","","","","","","","","","","key","j","16.826371428571154","750","496","j","true","img/T_ambi40.png","をる","same",""
"","","","","","html-keyboard-response","321","763140","0.0-10.0-0.0-0.0-0.0-1.24","null","<span style='color:GreenYellow; font-size: 70px;'>正确! </span>","null","","","","","","","","","","","","","","","","","","","","","","","feedback_test"
"","","","","","psychophysics","322","764827","0.0-10.0-0.0-0.0-0.0-0.25","680","","f","","","","","","","","","","","","","key","f","16.667020000000484","750","496","f","true","img/S_ambi40.png","自我","same",""
"","","","","","html-keyboard-response","323","765342","0.0-10.0-0.0-0.0-0.0-1.25","null","<span style='color:GreenYellow; font-size: 70px;'>正确! </span>","null","","","","","","","","","","","","","","","","","","","","","","","feedback_test"
"","","","","","psychophysics","324","767208","0.0-10.0-0.0-0.0-0.0-0.26","855","","j","","","","","","","","","","","","","key","j","16.817827272727367","750","496","j","true","img/S_ambi40.png","朋友","same",""
"","","","","","html-keyboard-response","325","767722","0.0-10.0-0.0-0.0-0.0-1.26","null","<span style='color:GreenYellow; font-size: 70px;'>正确! </span>","null","","","","","","","","","","","","","","","","","","","","","","","feedback_test"
"","","","","","psychophysics","326","769473","0.0-10.0-0.0-0.0-0.0-0.27","744","","f","","","","","","","","","","","","","key","f","16.66696153846211","750","496","f","true","img/S_ambi40.png","自我","same",""
"","","","","","html-keyboard-response","327","769986","0.0-10.0-0.0-0.0-0.0-1.27","null","<span style='color:GreenYellow; font-size: 70px;'>正确! </span>","null","","","","","","","","","","","","","","","","","","","","","","","feedback_test"
"","","","","","psychophysics","328","772252","0.0-10.0-0.0-0.0-0.0-0.28","1258","","f","","","","","","","","","","","","","key","f","16.792052631578898","750","496","f","true","img/C_ambi40.png","生人","same",""
"","","","","","html-keyboard-response","329","772763","0.0-10.0-0.0-0.0-0.0-1.28","null","<span style='color:GreenYellow; font-size: 70px;'>正确! </span>","null","","","","","","","","","","","","","","","","","","","","","","","feedback_test"
"","","","","","psychophysics","330","774618","0.0-10.0-0.0-0.0-0.0-0.29","849","","j","","","","","","","","","","","","","key","j","16.667290909090926","750","496","j","true","img/S_ambi40.png","生人","same",""
"","","","","","html-keyboard-response","331","775124","0.0-10.0-0.0-0.0-0.0-1.29","null","<span style='color:GreenYellow; font-size: 70px;'>正确! </span>","null","","","","","","","","","","","","","","","","","","","","","","","feedback_test"
"","","","","","psychophysics","332","777317","0.0-10.0-0.0-0.0-0.0-0.30","1185","","j","","","","","","","","","","","","","key","j","16.666630769230856","750","496","j","true","img/H_ambi40.png","生人","same",""
"","","","","","html-keyboard-response","333","777832","0.0-10.0-0.0-0.0-0.0-1.30","null","<span style='color:GreenYellow; font-size: 70px;'>正确! </span>","null","","","","","","","","","","","","","","","","","","","","","","","feedback_test"
"","","","","","psychophysics","334","779397","0.0-10.0-0.0-0.0-0.0-0.31","561","","f","","","","","","","","","","","","","key","f","16.849358695652842","750","496","j","false","img/H_ambi40.png","自我","same",""
"","","","","","html-keyboard-response","335","779905","0.0-10.0-0.0-0.0-0.0-1.31","null","<span style='color:red; font-size: 70px;'>错误! </span>","null","","","","","","","","","","","","","","","","","","","","","","","feedback_test"
"","","","","","psychophysics","336","781670","0.0-10.0-0.0-0.0-0.0-0.32","756","","j","","","","","","","","","","","","","key","j","16.667269230768746","750","496","j","true","img/T_ambi40.png","をる","same",""
"","","","","","html-keyboard-response","337","782179","0.0-10.0-0.0-0.0-0.0-1.32","null","<span style='color:GreenYellow; font-size: 70px;'>正确! </span>","null","","","","","","","","","","","","","","","","","","","","","","","feedback_test"
"","","","","","psychophysics","338","783961","0.0-10.0-0.0-0.0-0.0-0.33","775","","j","","","","","","","","","","","","","key","j","16.826219047619297","750","496","f","false","img/S_ambi40.png","自我","same",""
"","","","","","html-keyboard-response","339","784476","0.0-10.0-0.0-0.0-0.0-1.33","null","<span style='color:red; font-size: 70px;'>错误! </span>","null","","","","","","","","","","","","","","","","","","","","","","","feedback_test"
"","","","","","psychophysics","340","786330","0.0-10.0-0.0-0.0-0.0-0.34","847","","f","","","","","","","","","","","","","key","f","16.667681818181354","750","496","f","true","img/H_ambi40.png","朋友","same",""
"","","","","","html-keyboard-response","341","786844","0.0-10.0-0.0-0.0-0.0-1.34","null","<span style='color:GreenYellow; font-size: 70px;'>正确! </span>","null","","","","","","","","","","","","","","","","","","","","","","","feedback_test"
"","","","","","psychophysics","342","788997","0.0-10.0-0.0-0.0-0.0-0.35","1144","","j","","","","","","","","","","","","","key","j","16.932912698411936","750","496","f","false","img/H_ambi40.png","朋友","same",""
"","","","","","html-keyboard-response","343","789501","0.0-10.0-0.0-0.0-0.0-1.35","null","<span style='color:red; font-size: 70px;'>错误! </span>","null","","","","","","","","","","","","","","","","","","","","","","","feedback_test"
"","","","","","psychophysics","344","791758","0.0-10.0-0.0-0.0-0.0-0.36","1255","","j","","","","","","","","","","","","","key","j","16.66700740740721","750","496","j","true","img/S_ambi40.png","朋友","same",""
"","","","","","html-keyboard-response","345","792269","0.0-10.0-0.0-0.0-0.0-1.36","null","<span style='color:GreenYellow; font-size: 70px;'>正确! </span>","null","","","","","","","","","","","","","","","","","","","","","","","feedback_test"
"","","","","","psychophysics","346","793912","0.0-10.0-0.0-0.0-0.0-0.37","641","","j","","","","","","","","","","","","","key","j","16.839979166665824","750","496","j","true","img/T_ambi40.png","をる","same",""
"","","","","","html-keyboard-response","347","794428","0.0-10.0-0.0-0.0-0.0-1.37","null","<span style='color:GreenYellow; font-size: 70px;'>正确! </span>","null","","","","","","","","","","","","","","","","","","","","","","","feedback_test"
"","","","","","psychophysics","348","796352","0.0-10.0-0.0-0.0-0.0-0.38","916","","f","","","","","","","","","","","","","key","f","16.966821428571297","750","496","f","true","img/C_ambi40.png","生人","same",""
"","","","","","html-keyboard-response","349","796863","0.0-10.0-0.0-0.0-0.0-1.38","null","<span style='color:GreenYellow; font-size: 70px;'>正确! </span>","null","","","","","","","","","","","","","","","","","","","","","","","feedback_test"
"","","","","","psychophysics","350","798805","0.0-10.0-0.0-0.0-0.0-0.39","938","","j","","","","","","","","","","","","","key","j","16.669172413792694","750","496","j","true","img/C_ambi40.png","自我","same",""
"","","","","","html-keyboard-response","351","799312","0.0-10.0-0.0-0.0-0.0-1.39","null","<span style='color:GreenYellow; font-size: 70px;'>正确! </span>","null","","","","","","","","","","","","","","","","","","","","","","","feedback_test"
"","","","","","psychophysics","352","801751","0.0-10.0-0.0-0.0-0.0-0.40","1432","","j","","","","","","","","","","","","","key","j","16.78267361111082","750","496","j","true","img/C_ambi40.png","朋友","same",""
"","","","","","html-keyboard-response","353","802258","0.0-10.0-0.0-0.0-0.0-1.40","null","<span style='color:GreenYellow; font-size: 70px;'>正确! </span>","null","","","","","","","","","","","","","","","","","","","","","","","feedback_test"
"","","","","","psychophysics","354","803989","0.0-10.0-0.0-0.0-0.0-0.41","728","","f","","","","","","","","","","","","","key","f","16.66673786407766","750","496","f","true","img/S_ambi40.png","自我","same",""
"","","","","","html-keyboard-response","355","804500","0.0-10.0-0.0-0.0-0.0-1.41","null","<span style='color:GreenYellow; font-size: 70px;'>正确! </span>","null","","","","","","","","","","","","","","","","","","","","","","","feedback_test"
"","","","","","psychophysics","356","807010","0.0-10.0-0.0-0.0-0.0-0.42","null","","null","","","","","","","","","","","","","key","null","16.779416107382758","750","496","j","false","img/H_ambi40.png","自我","same",""
"","","","","","html-keyboard-response","357","807521","0.0-10.0-0.0-0.0-0.0-1.42","null","<span class='add_' style='color:yellow; font-size: 70px;'> 太慢! </span>","null","","","","","","","","","","","","","","","","","","","","","","","feedback_test"
"","","","","","psychophysics","358","809342","0.0-10.0-0.0-0.0-0.0-0.43","816","","f","","","","","","","","","","","","","key","f","16.823158878504483","750","496","f","true","img/C_ambi40.png","生人","same",""
"","","","","","html-keyboard-response","359","809856","0.0-10.0-0.0-0.0-0.0-1.43","null","<span style='color:GreenYellow; font-size: 70px;'>正确! </span>","null","","","","","","","","","","","","","","","","","","","","","","","feedback_test"
"","","","","","psychophysics","360","811438","0.0-10.0-0.0-0.0-0.0-0.44","573","","j","","","","","","","","","","","","","key","j","16.666691489361643","750","496","j","true","img/T_ambi40.png","をる","same",""
"","","","","","html-keyboard-response","361","811953","0.0-10.0-0.0-0.0-0.0-1.44","null","<span style='color:GreenYellow; font-size: 70px;'>正确! </span>","null","","","","","","","","","","","","","","","","","","","","","","","feedback_test"
"","","","","","psychophysics","362","813940","0.0-10.0-0.0-0.0-0.0-0.45","987","","f","","","","","","","","","","","","","key","f","16.667432203389687","750","496","f","true","img/H_ambi40.png","朋友","same",""
"","","","","","html-keyboard-response","363","814455","0.0-10.0-0.0-0.0-0.0-1.45","null","<span style='color:GreenYellow; font-size: 70px;'>正确! </span>","null","","","","","","","","","","","","","","","","","","","","","","","feedback_test"
"","","","","","psychophysics","364","816157","0.0-10.0-0.0-0.0-0.0-0.46","696","","f","","","","","","","","","","","","","key","f","16.66864356435582","750","496","f","true","img/H_ambi40.png","朋友","same",""
"","","","","","html-keyboard-response","365","816669","0.0-10.0-0.0-0.0-0.0-1.46","null","<span style='color:GreenYellow; font-size: 70px;'>正确! </span>","null","","","","","","","","","","","","","","","","","","","","","","","feedback_test"
"","","","","","psychophysics","366","818629","0.0-10.0-0.0-0.0-0.0-0.47","958","","j","","","","","","","","","","","","","key","j","16.66616379310365","750","496","j","true","img/H_ambi40.png","生人","same",""
"","","","","","html-keyboard-response","367","819135","0.0-10.0-0.0-0.0-0.0-1.47","null","<span style='color:GreenYellow; font-size: 70px;'>正确! </span>","null","","","","","","","","","","","","","","","","","","","","","","","feedback_test"
"","","","","","psychophysics","368","821174","0.0-10.0-0.0-0.0-0.0-0.48","1038","","j","","","","","","","","","","","","","key","j","16.689124999999574","750","496","j","true","img/S_ambi40.png","生人","same",""
"","","","","","html-keyboard-response","369","821677","0.0-10.0-0.0-0.0-0.0-1.48","null","<span style='color:GreenYellow; font-size: 70px;'>正确! </span>","null","","","","","","","","","","","","","","","","","","","","","","","feedback_test"
"","","","","","psychophysics","370","823297","0.0-10.0-0.0-0.0-0.0-0.49","611","","f","","","","","","","","","","","","","key","f","16.841999999999903","750","496","f","true","img/S_ambi40.png","自我","same",""
"","","","","","html-keyboard-response","371","823805","0.0-10.0-0.0-0.0-0.0-1.49","null","<span style='color:GreenYellow; font-size: 70px;'>正确! </span>","null","","","","","","","","","","","","","","","","","","","","","","","feedback_test"
"","","","","","psychophysics","372","825735","0.0-10.0-0.0-0.0-0.0-0.50","924","","f","","","","","","","","","","","","","key","f","16.81375221238962","750","496","f","true","img/H_ambi40.png","朋友","same",""
"","","","","","html-keyboard-response","373","826238","0.0-10.0-0.0-0.0-0.0-1.50","null","<span style='color:GreenYellow; font-size: 70px;'>正确! </span>","null","","","","","","","","","","","","","","","","","","","","","","","feedback_test"
"","","","","","psychophysics","374","828045","0.0-10.0-0.0-0.0-0.0-0.51","801","","f","","","","","","","","","","","","","key","f","16.666757009345734","750","496","f","true","img/S_ambi40.png","自我","same",""
"","","","","","html-keyboard-response","375","828551","0.0-10.0-0.0-0.0-0.0-1.51","null","<span style='color:GreenYellow; font-size: 70px;'>正确! </span>","null","","","","","","","","","","","","","","","","","","","","","","","feedback_test"
"","","","","","psychophysics","376","830328","0.0-10.0-0.0-0.0-0.0-0.52","776","","j","","","","","","","","","","","","","key","j","16.70393269230688","750","496","j","true","img/T_ambi40.png","をる","same",""
"","","","","","html-keyboard-response","377","830829","0.0-10.0-0.0-0.0-0.0-1.52","null","<span style='color:GreenYellow; font-size: 70px;'>正确! </span>","null","","","","","","","","","","","","","","","","","","","","","","","feedback_test"
"","","","","","psychophysics","378","832871","0.0-10.0-0.0-0.0-0.0-0.53","1035","","f","","","","","","","","","","","","","key","f","16.804669421487528","750","496","f","true","img/C_ambi40.png","生人","same",""
"","","","","","html-keyboard-response","379","833382","0.0-10.0-0.0-0.0-0.0-1.53","null","<span style='color:GreenYellow; font-size: 70px;'>正确! </span>","null","","","","","","","","","","","","","","","","","","","","","","","feedback_test"
"","","","","","psychophysics","380","835051","0.0-10.0-0.0-0.0-0.0-0.54","665","","f","","","","","","","","","","","","","key","f","16.837591836735015","750","496","f","true","img/C_ambi40.png","生人","same",""
"","","","","","html-keyboard-response","381","835554","0.0-10.0-0.0-0.0-0.0-1.54","null","<span style='color:GreenYellow; font-size: 70px;'>正确! </span>","null","","","","","","","","","","","","","","","","","","","","","","","feedback_test"
"","","","","","psychophysics","382","837420","0.0-10.0-0.0-0.0-0.0-0.55","863","","j","","","","","","","","","","","","","key","j","16.66738738738701","750","496","j","true","img/H_ambi40.png","生人","same",""
"","","","","","html-keyboard-response","383","837925","0.0-10.0-0.0-0.0-0.0-1.55","null","<span style='color:GreenYellow; font-size: 70px;'>正确! </span>","null","","","","","","","","","","","","","","","","","","","","","","","feedback_test"
"","","","","","psychophysics","384","839668","0.0-10.0-0.0-0.0-0.0-0.56","736","","f","","","","","","","","","","","","","key","f","16.667805825242574","750","496","j","false","img/C_ambi40.png","自我","same",""
"","","","","","html-keyboard-response","385","840174","0.0-10.0-0.0-0.0-0.0-1.56","null","<span style='color:red; font-size: 70px;'>错误! </span>","null","","","","","","","","","","","","","","","","","","","","","","","feedback_test"
"","","","","","psychophysics","386","841927","0.0-10.0-0.0-0.0-0.0-0.57","744","","f","","","","","","","","","","","","","key","f","16.828951456310516","750","496","f","true","img/H_ambi40.png","朋友","same",""
"","","","","","html-keyboard-response","387","842442","0.0-10.0-0.0-0.0-0.0-1.57","null","<span style='color:GreenYellow; font-size: 70px;'>正确! </span>","null","","","","","","","","","","","","","","","","","","","","","","","feedback_test"
"","","","","","psychophysics","388","844171","0.0-10.0-0.0-0.0-0.0-0.58","719","","j","","","","","","","","","","","","","key","j","16.66751456310638","750","496","j","true","img/T_ambi40.png","をる","same",""
"","","","","","html-keyboard-response","389","844676","0.0-10.0-0.0-0.0-0.0-1.58","null","<span style='color:GreenYellow; font-size: 70px;'>正确! </span>","null","","","","","","","","","","","","","","","","","","","","","","","feedback_test"
"","","","","","psychophysics","390","846714","0.0-10.0-0.0-0.0-0.0-0.59","1030","","j","","","","","","","","","","","","","key","j","16.66804132231392","750","496","j","true","img/H_ambi40.png","自我","same",""
"","","","","","html-keyboard-response","391","847220","0.0-10.0-0.0-0.0-0.0-1.59","null","<span style='color:GreenYellow; font-size: 70px;'>正确! </span>","null","","","","","","","","","","","","","","","","","","","","","","","feedback_test"
"","","","","","psychophysics","392","849275","0.0-10.0-0.0-0.0-0.0-0.60","1045","","j","","","","","","","","","","","","","key","j","16.666942622950568","750","496","j","true","img/S_ambi40.png","生人","same",""
"","","","","","html-keyboard-response","393","849782","0.0-10.0-0.0-0.0-0.0-1.60","null","<span style='color:GreenYellow; font-size: 70px;'>正确! </span>","null","","","","","","","","","","","","","","","","","","","","","","","feedback_test"
"","","","","","psychophysics","394","851444","0.0-10.0-0.0-0.0-0.0-0.61","659","","j","","","","","","","","","","","","","key","j","16.838612244898044","750","496","j","true","img/T_ambi40.png","をる","same",""
"","","","","","html-keyboard-response","395","851946","0.0-10.0-0.0-0.0-0.0-1.61","null","<span style='color:GreenYellow; font-size: 70px;'>正确! </span>","null","","","","","","","","","","","","","","","","","","","","","","","feedback_test"
"","","","","","psychophysics","396","854129","0.0-10.0-0.0-0.0-0.0-0.62","1177","","f","","","","","","","","","","","","","key","f","16.795620155038833","750","496","j","false","img/S_ambi40.png","朋友","same",""
"","","","","","html-keyboard-response","397","854644","0.0-10.0-0.0-0.0-0.0-1.62","null","<span style='color:red; font-size: 70px;'>错误! </span>","null","","","","","","","","","","","","","","","","","","","","","","","feedback_test"
"","","","","","psychophysics","398","856531","0.0-10.0-0.0-0.0-0.0-0.63","878","","f","","","","","","","","","","","","","key","f","16.817540540540307","750","496","f","true","img/H_ambi40.png","朋友","same",""
"","","","","","html-keyboard-response","399","857034","0.0-10.0-0.0-0.0-0.0-1.63","null","<span style='color:GreenYellow; font-size: 70px;'>正确! </span>","null","","","","","","","","","","","","","","","","","","","","","","","feedback_test"
"","","","","","psychophysics","400","859023","0.0-10.0-0.0-0.0-0.0-0.64","986","","f","","","","","","","","","","","","","key","f","16.843818965517507","750","496","f","true","img/C_ambi40.png","生人","same",""
"","","","","","html-keyboard-response","401","859534","0.0-10.0-0.0-0.0-0.0-1.64","null","<span style='color:GreenYellow; font-size: 70px;'>正确! </span>","null","","","","","","","","","","","","","","","","","","","","","","","feedback_test"
"","","","","","psychophysics","402","861193","0.0-10.0-0.0-0.0-0.0-0.65","657","","j","","","","","","","","","","","","","key","j","16.703773195875723","750","496","j","true","img/T_ambi40.png","をる","same",""
"","","","","","html-keyboard-response","403","861706","0.0-10.0-0.0-0.0-0.0-1.65","null","<span style='color:GreenYellow; font-size: 70px;'>正确! </span>","null","","","","","","","","","","","","","","","","","","","","","","","feedback_test"
"","","","","","psychophysics","404","863804","0.0-10.0-0.0-0.0-0.0-0.66","1085","","j","","","","","","","","","","","","","key","j","16.667327999999745","750","496","j","true","img/C_ambi40.png","朋友","same",""
"","","","","","html-keyboard-response","405","864315","0.0-10.0-0.0-0.0-0.0-1.66","null","<span style='color:GreenYellow; font-size: 70px;'>正确! </span>","null","","","","","","","","","","","","","","","","","","","","","","","feedback_test"
"","","","","","psychophysics","406","866504","0.0-10.0-0.0-0.0-0.0-0.67","1184","","j","","","","","","","","","","","","","key","j","16.79510769230815","750","496","f","false","img/S_ambi40.png","自我","same",""
"","","","","","html-keyboard-response","407","867010","0.0-10.0-0.0-0.0-0.0-1.67","null","<span style='color:red; font-size: 70px;'>错误! </span>","null","","","","","","","","","","","","","","","","","","","","","","","feedback_test"
"","","","","","psychophysics","408","868779","0.0-10.0-0.0-0.0-0.0-0.68","760","","f","","","","","","","","","","","","","key","f","16.666533333333653","750","496","f","true","img/H_ambi40.png","朋友","same",""
"","","","","","html-keyboard-response","409","869289","0.0-10.0-0.0-0.0-0.0-1.68","null","<span style='color:GreenYellow; font-size: 70px;'>正确! </span>","null","","","","","","","","","","","","","","","","","","","","","","","feedback_test"
"","","","","","psychophysics","410","871342","0.0-10.0-0.0-0.0-0.0-0.69","1046","","f","","","","","","","","","","","","","key","f","16.66744262295046","750","496","f","true","img/C_ambi40.png","生人","same",""
"","","","","","html-keyboard-response","411","871843","0.0-10.0-0.0-0.0-0.0-1.69","null","<span style='color:GreenYellow; font-size: 70px;'>正确! </span>","null","","","","","","","","","","","","","","","","","","","","","","","feedback_test"
"","","","","","psychophysics","412","873673","0.0-10.0-0.0-0.0-0.0-0.70","825","","f","","","","","","","","","","","","","key","f","16.97806542056012","750","496","f","true","img/S_ambi40.png","自我","same",""
"","","","","","html-keyboard-response","413","874179","0.0-10.0-0.0-0.0-0.0-1.70","null","<span style='color:GreenYellow; font-size: 70px;'>正确! </span>","null","","","","","","","","","","","","","","","","","","","","","","","feedback_test"
"","","","","","psychophysics","414","875941","0.0-10.0-0.0-0.0-0.0-0.71","756","","f","","","","","","","","","","","","","key","f","16.828634615385315","750","496","f","true","img/S_ambi40.png","自我","same",""
"","","","","","html-keyboard-response","415","876446","0.0-10.0-0.0-0.0-0.0-1.71","null","<span style='color:GreenYellow; font-size: 70px;'>正确! </span>","null","","","","","","","","","","","","","","","","","","","","","","","feedback_test"
"","","","","","psychophysics","416","878255","0.0-10.0-0.0-0.0-0.0-0.72","803","","f","","","","","","","","","","","","","key","f","16.668842592592462","750","496","f","true","img/C_ambi40.png","生人","same",""
"","","","","","html-keyboard-response","417","878758","0.0-10.0-0.0-0.0-0.0-1.72","null","<span style='color:GreenYellow; font-size: 70px;'>正确! </span>","null","","","","","","","","","","","","","","","","","","","","","","","feedback_test"
"","","","","","psychophysics","418","880537","0.0-10.0-0.0-0.0-0.0-0.73","772","","f","","","","","","","","","","","","","key","f","16.666698113207943","750","496","j","false","img/H_ambi40.png","自我","same",""
"","","","","","html-keyboard-response","419","881049","0.0-10.0-0.0-0.0-0.0-1.73","null","<span style='color:red; font-size: 70px;'>错误! </span>","null","","","","","","","","","","","","","","","","","","","","","","","feedback_test"
"","","","","","psychophysics","420","882869","0.0-10.0-0.0-0.0-0.0-0.74","817","","f","","","","","","","","","","","","","key","f","16.711018867924686","750","496","j","false","img/S_ambi40.png","朋友","same",""
"","","","","","html-keyboard-response","421","883375","0.0-10.0-0.0-0.0-0.0-1.74","null","<span style='color:red; font-size: 70px;'>错误! </span>","null","","","","","","","","","","","","","","","","","","","","","","","feedback_test"
"","","","","","psychophysics","422","885066","0.0-10.0-0.0-0.0-0.0-0.75","681","","j","","","","","","","","","","","","","key","j","16.83752525252563","750","496","j","true","img/T_ambi40.png","をる","same",""
"","","","","","html-keyboard-response","423","885575","0.0-10.0-0.0-0.0-0.0-1.75","null","<span style='color:GreenYellow; font-size: 70px;'>正确! </span>","null","","","","","","","","","","","","","","","","","","","","","","","feedback_test"
"","","","","","psychophysics","424","887405","0.0-10.0-0.0-0.0-0.0-0.76","824","","f","","","","","","","","","","","","","key","f","16.666954128441205","750","496","f","true","img/C_ambi40.png","生人","same",""
"","","","","","html-keyboard-response","425","887917","0.0-10.0-0.0-0.0-0.0-1.76","null","<span style='color:GreenYellow; font-size: 70px;'>正确! </span>","null","","","","","","","","","","","","","","","","","","","","","","","feedback_test"
"","","","","","psychophysics","426","889641","0.0-10.0-0.0-0.0-0.0-0.77","722","","j","","","","","","","","","","","","","key","j","16.710029702970186","750","496","j","true","img/T_ambi40.png","をる","same",""
"","","","","","html-keyboard-response","427","890152","0.0-10.0-0.0-0.0-0.0-1.77","null","<span style='color:GreenYellow; font-size: 70px;'>正确! </span>","null","","","","","","","","","","","","","","","","","","","","","","","feedback_test"
"","","","","","psychophysics","428","892278","0.0-10.0-0.0-0.0-0.0-0.78","1125","","f","","","","","","","","","","","","","key","f","16.667206349207035","750","496","f","true","img/S_ambi40.png","自我","same",""
"","","","","","html-keyboard-response","429","892781","0.0-10.0-0.0-0.0-0.0-1.78","null","<span style='color:GreenYellow; font-size: 70px;'>正确! </span>","null","","","","","","","","","","","","","","","","","","","","","","","feedback_test"
"","","","","","psychophysics","430","894478","0.0-10.0-0.0-0.0-0.0-0.79","692","","f","","","","","","","","","","","","","key","f","16.834400000000606","750","496","f","true","img/S_ambi40.png","自我","same",""
"","","","","","html-keyboard-response","431","894985","0.0-10.0-0.0-0.0-0.0-1.79","null","<span style='color:GreenYellow; font-size: 70px;'>正确! </span>","null","","","","","","","","","","","","","","","","","","","","","","","feedback_test"
"","","","","","psychophysics","432","896935","0.0-10.0-0.0-0.0-0.0-0.80","948","","j","","","","","","","","","","","","","key","j","16.666834782608582","750","496","j","true","img/C_ambi40.png","自我","same",""
"","","","","","html-keyboard-response","433","897445","0.0-10.0-0.0-0.0-0.0-1.80","null","<span style='color:GreenYellow; font-size: 70px;'>正确! </span>","null","","","","","","","","","","","","","","","","","","","","","","","feedback_test"
"","","","","","psychophysics","434","899306","0.0-10.0-0.0-0.0-0.0-0.81","854","","f","","","","","","","","","","","","","key","f","16.818972727273252","750","496","f","true","img/C_ambi40.png","生人","same",""
"","","","","","html-keyboard-response","435","899815","0.0-10.0-0.0-0.0-0.0-1.81","null","<span style='color:GreenYellow; font-size: 70px;'>正确! </span>","null","","","","","","","","","","","","","","","","","","","","","","","feedback_test"
"","","","","","psychophysics","436","901700","0.0-10.0-0.0-0.0-0.0-0.82","881","","f","","","","","","","","","","","","","key","f","16.818540540540607","750","496","f","true","img/H_ambi40.png","朋友","same",""
"","","","","","html-keyboard-response","437","902204","0.0-10.0-0.0-0.0-0.0-1.82","null","<span style='color:GreenYellow; font-size: 70px;'>正确! </span>","null","","","","","","","","","","","","","","","","","","","","","","","feedback_test"
"","","","","","psychophysics","438","903919","0.0-10.0-0.0-0.0-0.0-0.83","705","","f","","","","","","","","","","","","","key","f","16.832850000000327","750","496","f","true","img/H_ambi40.png","朋友","same",""
"","","","","","html-keyboard-response","439","904426","0.0-10.0-0.0-0.0-0.0-1.83","null","<span style='color:GreenYellow; font-size: 70px;'>正确! </span>","null","","","","","","","","","","","","","","","","","","","","","","","feedback_test"
"","","","","","psychophysics","440","906100","0.0-10.0-0.0-0.0-0.0-0.84","669","","j","","","","","","","","","","","","","key","j","16.668070707070367","750","496","j","true","img/T_ambi40.png","をる","same",""
"","","","","","html-keyboard-response","441","906608","0.0-10.0-0.0-0.0-0.0-1.84","null","<span style='color:GreenYellow; font-size: 70px;'>正确! </span>","null","","","","","","","","","","","","","","","","","","","","","","","feedback_test"
"","","","","","psychophysics","442","908684","0.0-10.0-0.0-0.0-0.0-0.85","1068","","j","","","","","","","","","","","","","key","j","16.66751219512236","750","496","j","true","img/C_ambi40.png","朋友","same",""
"","","","","","html-keyboard-response","443","909192","0.0-10.0-0.0-0.0-0.0-1.85","null","<span style='color:GreenYellow; font-size: 70px;'>正确! </span>","null","","","","","","","","","","","","","","","","","","","","","","","feedback_test"
"","","","","","psychophysics","444","911400","0.0-10.0-0.0-0.0-0.0-0.86","1199","","j","","","","","","","","","","","","","key","j","16.666923664121903","750","496","j","true","img/H_ambi40.png","生人","same",""
"","","","","","html-keyboard-response","445","911908","0.0-10.0-0.0-0.0-0.0-1.86","null","<span style='color:GreenYellow; font-size: 70px;'>正确! </span>","null","","","","","","","","","","","","","","","","","","","","","","","feedback_test"
"","","","","","psychophysics","446","913855","0.0-10.0-0.0-0.0-0.0-0.87","943","","j","","","","","","","","","","","","","key","j","16.81221739130459","750","496","j","true","img/S_ambi40.png","生人","same",""
"","","","","","html-keyboard-response","447","914363","0.0-10.0-0.0-0.0-0.0-1.87","null","<span style='color:GreenYellow; font-size: 70px;'>正确! </span>","null","","","","","","","","","","","","","","","","","","","","","","","feedback_test"
"","","","","","psychophysics","448","916164","0.0-10.0-0.0-0.0-0.0-0.88","796","","f","","","","","","","","","","","","","key","f","16.985933333333758","750","496","f","true","img/H_ambi40.png","朋友","same",""
