"success","timeout","failed_images","failed_audio","failed_video","trial_type","trial_index","time_elapsed","internal_node_id","rt","stimulus","response","value","item_width_mm","item_height_mm","item_width_px","px2mm","view_dist_mm","item_width_deg","px2deg","scale_factor","win_width_deg","win_height_deg","view_history","response_type","key_press","avg_frame_time","center_x","center_y","correct_response","correct","Image","word","condition","screen_id"
"true","false","[]","[]","[]","preload","0","94","0.0-0.0","","","","","","","","","","","","","","","","","","","","","","","","","",""
"","","","","","html-keyboard-response","1","21686","0.0-1.0","21591","
     <p>您好，欢迎参加本次实验。</p>
     <p>为充分保障您的权利，请确保您已经知晓并同意《参与实验同意书》以及《数据公开知情同意书》。</p>
     <p>如果您未见过上述内容，请咨询实验员。</p>
     <p>如果您选择继续实验，则表示您已经清楚两份知情同意书的内容并同意。</p>
     <p> <div style = ""color: green""><按任意键至下页></div> </p>
     "," ","","","","","","","","","","","","","","","","","","","","","","",""
"","","","","","html-keyboard-response","2","22415","0.0-2.0","728","
     <p>本实验首先需要您填写一些基本个人信息。</p>
     <p> <div style = ""color: green""><按任意键至下页></div></p>
     "," ","","","","","","","","","","","","","","","","","","","","","","",""
"","","","","","call-function","3","22416","0.0-3.0-0.0","","","","","","","","","","","","","","","","","","","","","","","","","",""
"","","","","","survey-html-form","4","27214","0.0-3.0-1.0","4797","","{""Q0"":""26""}","","","","","","","","","","","","","","","","","","","","","","",""
"","","","","","html-button-response","5","28029","0.0-3.0-2.0","812","<p style = 'color : white'>您的性别</p>","1","","","","","","","","","","","","","","","","","","","","","","",""
"","","","","","survey-html-form","6","31305","0.0-3.0-3.0","3275","","{""Q0"":""2005""}","","","","","","","","","","","","","","","","","","","","","","",""
"","","","","","survey-html-form","7","33072","0.0-3.0-4.0","1766","","{""Q0"":""5""}","","","","","","","","","","","","","","","","","","","","","","",""
"","","","","","virtual-chinrest","8","197178","0.0-4.0","164102","","","","85.6","53.98","592.3389344022506","6.923586418998165","412.52","11.846778688045013","50","0.8998226674697121","38.32","18.36","","","","","","","","","","","",""
"true","","","","","fullscreen","9","201162","0.0-5.0","","","","","","","","","","","","","","","","","","","","","","","","","",""
"","","","","","instructions","10","288240","0.0-6.0","87077","","","","","","","","","","","","","","[{""page_index"":0,""viewing_time"":11391},{""page_index"":1,""viewing_time"":59073},{""page_index"":2,""viewing_time"":8286},{""page_index"":3,""viewing_time"":8325}]","","","","","","","","","","",""
"","","","","","psychophysics","11","290756","0.0-7.0-0.0-0.0","null","","null","","","","","","","","","","","","","key","null","20.04996747967439","960","536","j","false","img/C_ambi40.png","自我","prac",""
"","","","","","html-keyboard-response","12","291259","0.0-7.0-0.0-1.0","null","<span class='add_' style='color:yellow; font-size: 70px;'> 太慢! </span>","null","","","","","","","","","","","","","","","","","","","","","","","feedback_test"
"","","","","","psychophysics","13","293762","0.0-7.0-0.0-0.1","null","","null","","","","","","","","","","","","","key","null","19.889056451613037","960","536","j","false","img/S_ambi40.png","生人","prac",""
"","","","","","html-keyboard-response","14","294267","0.0-7.0-0.0-1.1","null","<span class='add_' style='color:yellow; font-size: 70px;'> 太慢! </span>","null","","","","","","","","","","","","","","","","","","","","","","","feedback_test"
"","","","","","psychophysics","15","295718","0.0-7.0-0.0-0.2","444","","f","","","","","","","","","","","","","key","f","19.107253333333258","960","536","j","false","img/H_ambi40.png","朋友","prac",""
"","","","","","html-keyboard-response","16","296226","0.0-7.0-0.0-1.2","null","<span style='color:red; font-size: 70px;'>错误! </span>","null","","","","","","","","","","","","","","","","","","","","","","","feedback_test"
"","","","","","psychophysics","17","297380","0.0-7.0-0.0-0.3","145","","f","","","","","","","","","","","","","key","f","18.330533333333246","960","536","f","true","img/H_ambi40.png","生人","prac",""
"","","","","","html-keyboard-response","18","297883","0.0-7.0-0.0-1.3","null","<span style='color:yellow; font-size: 70px;'>过快! </span>","null","","","","","","","","","","","","","","","","","","","","","","","feedback_test"
"","","","","","psychophysics","19","299703","0.0-7.0-0.0-0.4","814","","f","","","","","","","","","","","","","key","f","19.56118478260823","960","536","j","false","img/C_ambi40.png","生人","prac",""
"","","","","","html-keyboard-response","20","300211","0.0-7.0-0.0-1.4","null","<span style='color:red; font-size: 70px;'>错误! </span>","null","","","","","","","","","","","","","","","","","","","","","","","feedback_test"
"","","","","","psychophysics","21","302715","0.0-7.0-0.0-0.5","null","","null","","","","","","","","","","","","","key","null","19.118131782945746","960","536","f","false","img/H_ambi40.png","生人","prac",""
"","","","","","html-keyboard-response","22","303218","0.0-7.0-0.0-1.5","null","<span class='add_' style='color:yellow; font-size: 70px;'> 太慢! </span>","null","","","","","","","","","","","","","","","","","","","","","","","feedback_test"
"","","","","","psychophysics","23","305722","0.0-7.0-0.0-0.6","null","","null","","","","","","","","","","","","","key","null","20.185520325203395","960","536","j","false","img/H_ambi40.png","自我","prac",""
"","","","","","html-keyboard-response","24","306227","0.0-7.0-0.0-1.6","null","<span class='add_' style='color:yellow; font-size: 70px;'> 太慢! </span>","null","","","","","","","","","","","","","","","","","","","","","","","feedback_test"
"","","","","","psychophysics","25","308731","0.0-7.0-0.0-0.7","null","","null","","","","","","","","","","","","","key","null","19.39727343750019","960","536","f","false","img/S_ambi40.png","自我","prac",""
"","","","","","html-keyboard-response","26","309234","0.0-7.0-0.0-1.7","null","<span class='add_' style='color:yellow; font-size: 70px;'> 太慢! </span>","null","","","","","","","","","","","","","","","","","","","","","","","feedback_test"
"","","","","","psychophysics","27","311747","0.0-7.0-0.0-0.8","null","","null","","","","","","","","","","","","","key","null","19.862783999999984","960","536","j","false","img/T_ambi40.png","をる","prac",""
"","","","","","html-keyboard-response","28","312250","0.0-7.0-0.0-1.8","null","<span class='add_' style='color:yellow; font-size: 70px;'> 太慢! </span>","null","","","","","","","","","","","","","","","","","","","","","","","feedback_test"
"","","","","","psychophysics","29","314753","0.0-7.0-0.0-0.9","null","","null","","","","","","","","","","","","","key","null","19.5726507936511","960","536","j","false","img/T_ambi40.png","をる","prac",""
"","","","","","html-keyboard-response","30","315259","0.0-7.0-0.0-1.9","null","<span class='add_' style='color:yellow; font-size: 70px;'> 太慢! </span>","null","","","","","","","","","","","","","","","","","","","","","","","feedback_test"
"","","","","","psychophysics","31","317763","0.0-7.0-0.0-0.10","null","","null","","","","","","","","","","","","","key","null","20.21464754098341","960","536","f","false","img/S_ambi40.png","自我","prac",""
"","","","","","html-keyboard-response","32","318266","0.0-7.0-0.0-1.10","null","<span class='add_' style='color:yellow; font-size: 70px;'> 太慢! </span>","null","","","","","","","","","","","","","","","","","","","","","","","feedback_test"
"","","","","","psychophysics","33","320778","0.0-7.0-0.0-0.11","null","","null","","","","","","","","","","","","","key","null","20.381421487603323","960","536","j","false","img/S_ambi40.png","朋友","prac",""
"","","","","","html-keyboard-response","34","321283","0.0-7.0-0.0-1.11","null","<span class='add_' style='color:yellow; font-size: 70px;'> 太慢! </span>","null","","","","","","","","","","","","","","","","","","","","","","","feedback_test"
"","","","","","psychophysics","35","323785","0.0-7.0-0.0-0.12","null","","null","","","","","","","","","","","","","key","null","20.351229508196532","960","536","f","false","img/C_ambi40.png","朋友","prac",""
"","","","","","html-keyboard-response","36","324291","0.0-7.0-0.0-1.12","null","<span class='add_' style='color:yellow; font-size: 70px;'> 太慢! </span>","null","","","","","","","","","","","","","","","","","","","","","","","feedback_test"
"","","","","","psychophysics","37","326794","0.0-7.0-0.0-0.13","null","","null","","","","","","","","","","","","","key","null","20.185772357723387","960","536","j","false","img/T_ambi40.png","をる","prac",""
"","","","","","html-keyboard-response","38","327322","0.0-7.0-0.0-1.13","null","<span class='add_' style='color:yellow; font-size: 70px;'> 太慢! </span>","null","","","","","","","","","","","","","","","","","","","","","","","feedback_test"
"","","","","","psychophysics","39","329826","0.0-7.0-0.0-0.14","null","","null","","","","","","","","","","","","","key","null","20.72399159663889","960","536","f","false","img/C_ambi40.png","朋友","prac",""
"","","","","","html-keyboard-response","40","330330","0.0-7.0-0.0-1.14","null","<span class='add_' style='color:yellow; font-size: 70px;'> 太慢! </span>","null","","","","","","","","","","","","","","","","","","","","","","","feedback_test"
"","","","","","psychophysics","41","332834","0.0-7.0-0.0-0.15","null","","null","","","","","","","","","","","","","key","null","20.381702479338735","960","536","j","false","img/T_ambi40.png","をる","prac",""
"","","","","","html-keyboard-response","42","333340","0.0-7.0-0.0-1.15","null","<span class='add_' style='color:yellow; font-size: 70px;'> 太慢! </span>","null","","","","","","","","","","","","","","","","","","","","","","","feedback_test"
"","","","","","psychophysics","43","335849","0.0-7.0-0.0-0.16","null","","null","","","","","","","","","","","","","key","null","21.040847457627176","960","536","j","false","img/H_ambi40.png","自我","prac",""
"","","","","","html-keyboard-response","44","336355","0.0-7.0-0.0-1.16","null","<span class='add_' style='color:yellow; font-size: 70px;'> 太慢! </span>","null","","","","","","","","","","","","","","","","","","","","","","","feedback_test"
"","","","","","psychophysics","45","338857","0.0-7.0-0.0-0.17","null","","null","","","","","","","","","","","","","key","null","21.04111864406791","960","536","j","false","img/S_ambi40.png","生人","prac",""
"","","","","","html-keyboard-response","46","339363","0.0-7.0-0.0-1.17","null","<span class='add_' style='color:yellow; font-size: 70px;'> 太慢! </span>","null","","","","","","","","","","","","","","","","","","","","","","","feedback_test"
"","","","","","psychophysics","47","341874","0.0-7.0-0.0-0.18","null","","null","","","","","","","","","","","","","key","null","21.779394736842317","960","536","j","false","img/S_ambi40.png","朋友","prac",""
"","","","","","html-keyboard-response","48","342378","0.0-7.0-0.0-1.18","null","<span class='add_' style='color:yellow; font-size: 70px;'> 太慢! </span>","null","","","","","","","","","","","","","","","","","","","","","","","feedback_test"
"","","","","","psychophysics","49","344880","0.0-7.0-0.0-0.19","null","","null","","","","","","","","","","","","","key","null","21.22066666666641","960","536","f","false","img/C_ambi40.png","朋友","prac",""
"","","","","","html-keyboard-response","50","345385","0.0-7.0-0.0-1.19","null","<span class='add_' style='color:yellow; font-size: 70px;'> 太慢! </span>","null","","","","","","","","","","","","","","","","","","","","","","","feedback_test"
"","","","","","psychophysics","51","347890","0.0-7.0-0.0-0.20","null","","null","","","","","","","","","","","","","key","null","21.07847863247839","960","536","f","false","img/H_ambi40.png","生人","prac",""
"","","","","","html-keyboard-response","52","348394","0.0-7.0-0.0-1.20","null","<span class='add_' style='color:yellow; font-size: 70px;'> 太慢! </span>","null","","","","","","","","","","","","","","","","","","","","","","","feedback_test"
"","","","","","psychophysics","53","350899","0.0-7.0-0.0-0.21","null","","null","","","","","","","","","","","","","key","null","21.040822033898635","960","536","j","false","img/C_ambi40.png","生人","prac",""
"","","","","","html-keyboard-response","54","351402","0.0-7.0-0.0-1.21","null","<span class='add_' style='color:yellow; font-size: 70px;'> 太慢! </span>","null","","","","","","","","","","","","","","","","","","","","","","","feedback_test"
"","","","","","psychophysics","55","353906","0.0-7.0-0.0-0.22","null","","null","","","","","","","","","","","","","key","null","20.724260504201972","960","536","j","false","img/C_ambi40.png","自我","prac",""
"","","","","","html-keyboard-response","56","354410","0.0-7.0-0.0-1.22","null","<span class='add_' style='color:yellow; font-size: 70px;'> 太慢! </span>","null","","","","","","","","","","","","","","","","","","","","","","","feedback_test"
"","","","","","psychophysics","57","356917","0.0-7.0-0.0-0.23","null","","null","","","","","","","","","","","","","key","null","21.46609482758604","960","536","j","false","img/H_ambi40.png","朋友","prac",""
"","","","","","html-keyboard-response","58","357427","0.0-7.0-0.0-1.23","null","<span class='add_' style='color:yellow; font-size: 70px;'> 太慢! </span>","null","","","","","","","","","","","","","","","","","","","","","","","feedback_test"
"","","","","","psychophysics","59","359930","0.0-7.0-0.0-0.24","null","","null","","","","","","","","","","","","","key","null","20.949661016949133","960","536","j","false","img/T_ambi40.png","をる","prac",""
"","","","","","html-keyboard-response","60","360443","0.0-7.0-0.0-1.24","null","<span class='add_' style='color:yellow; font-size: 70px;'> 太慢! </span>","null","","","","","","","","","","","","","","","","","","","","","","","feedback_test"
"","","","","","psychophysics","61","362946","0.0-7.0-0.0-0.25","null","","null","","","","","","","","","","","","","key","null","21.034635593220337","960","536","j","false","img/T_ambi40.png","をる","prac",""
"","","","","","html-keyboard-response","62","363450","0.0-7.0-0.0-1.25","null","<span class='add_' style='color:yellow; font-size: 70px;'> 太慢! </span>","null","","","","","","","","","","","","","","","","","","","","","","","feedback_test"
"","","","","","psychophysics","63","365962","0.0-7.0-0.0-0.26","null","","null","","","","","","","","","","","","","key","null","20.55084166666687","960","536","f","false","img/S_ambi40.png","自我","prac",""
"","","","","","html-keyboard-response","64","366466","0.0-7.0-0.0-1.26","null","<span class='add_' style='color:yellow; font-size: 70px;'> 太慢! </span>","null","","","","","","","","","","","","","","","","","","","","","","","feedback_test"
"","","","","","psychophysics","65","368970","0.0-7.0-0.0-0.27","null","","null","","","","","","","","","","","","","key","null","19.70534126984098","960","536","j","false","img/T_ambi40.png","をる","prac",""
"","","","","","html-keyboard-response","66","369474","0.0-7.0-0.0-1.27","null","<span class='add_' style='color:yellow; font-size: 70px;'> 太慢! </span>","null","","","","","","","","","","","","","","","","","","","","","","","feedback_test"
"","","","","","psychophysics","67","371978","0.0-7.0-0.0-0.28","null","","null","","","","","","","","","","","","","key","null","19.573960317460458","960","536","f","false","img/S_ambi40.png","自我","prac",""
"","","","","","html-keyboard-response","68","372493","0.0-7.0-0.0-1.28","null","<span class='add_' style='color:yellow; font-size: 70px;'> 太慢! </span>","null","","","","","","","","","","","","","","","","","","","","","","","feedback_test"
"","","","","","psychophysics","69","375000","0.0-7.0-0.0-0.29","null","","null","","","","","","","","","","","","","key","null","19.862632000000215","960","536","j","false","img/T_ambi40.png","をる","prac",""
"","","","","","html-keyboard-response","70","375506","0.0-7.0-0.0-1.29","null","<span class='add_' style='color:yellow; font-size: 70px;'> 太慢! </span>","null","","","","","","","","","","","","","","","","","","","","","","","feedback_test"
"","","","","","psychophysics","71","378010","0.0-7.0-0.0-0.30","null","","null","","","","","","","","","","","","","key","null","19.418606299212602","960","536","f","false","img/C_ambi40.png","朋友","prac",""
"","","","","","html-keyboard-response","72","378525","0.0-7.0-0.0-1.30","null","<span class='add_' style='color:yellow; font-size: 70px;'> 太慢! </span>","null","","","","","","","","","","","","","","","","","","","","","","","feedback_test"
"","","","","","psychophysics","73","381029","0.0-7.0-0.0-0.31","null","","null","","","","","","","","","","","","","key","null","19.397031250000055","960","536","f","false","img/H_ambi40.png","生人","prac",""
"","","","","","html-keyboard-response","74","381538","0.0-7.0-0.0-1.31","null","<span class='add_' style='color:yellow; font-size: 70px;'> 太慢! </span>","null","","","","","","","","","","","","","","","","","","","","","","","feedback_test"
"","","","","","html-keyboard-response","75","397468","0.0-7.0-1.0-0.0","15927","<style>.context{color:white; font-size: 35px; line-height:40px}</style>                          <div><p class='context'>您正确回答了3% 的试次。</p ><p class='context'>您的平均反应时为145毫秒。</p >"," ","","","","","","","","","","","","","","","","","","","","","","",""
"","","","","","instructions","76","502919","0.0-7.0-1.0-1.0","105447","","","","","","","","","","","","","","[{""page_index"":0,""viewing_time"":4609},{""page_index"":1,""viewing_time"":81674},{""page_index"":2,""viewing_time"":19164}]","","","","","","","","","","",""
"","","","","","psychophysics","77","505208","0.0-7.1-0.1-0.32","1285","","f","","","","","","","","","","","","","key","f","21.630067307692325","960","536","j","false","img/C_ambi40.png","生人","prac",""
"","","","","","html-keyboard-response","78","505714","0.0-7.1-0.1-1.32","null","<span style='color:red; font-size: 70px;'>错误! </span>","null","","","","","","","","","","","","","","","","","","","","","","","feedback_test"
"","","","","","psychophysics","79","507686","0.0-7.1-0.1-0.33","963","","j","","","","","","","","","","","","","key","j","21.718674157303365","960","536","f","false","img/H_ambi40.png","生人","prac",""
"","","","","","html-keyboard-response","80","508195","0.0-7.1-0.1-1.33","null","<span style='color:red; font-size: 70px;'>错误! </span>","null","","","","","","","","","","","","","","","","","","","","","","","feedback_test"
"","","","","","psychophysics","81","510509","0.0-7.1-0.1-0.34","1298","","f","","","","","","","","","","","","","key","f","21.291898148148363","960","536","f","true","img/C_ambi40.png","朋友","prac",""
"","","","","","html-keyboard-response","82","511011","0.0-7.1-0.1-1.34","null","<span style='color:GreenYellow; font-size: 70px;'>正确! </span>","null","","","","","","","","","","","","","","","","","","","","","","","feedback_test"
"","","","","","psychophysics","83","512918","0.0-7.1-0.1-0.35","905","","j","","","","","","","","","","","","","key","j","21.397409090909193","960","536","f","false","img/H_ambi40.png","生人","prac",""
"","","","","","html-keyboard-response","84","513428","0.0-7.1-0.1-1.35","null","<span style='color:red; font-size: 70px;'>错误! </span>","null","","","","","","","","","","","","","","","","","","","","","","","feedback_test"
"","","","","","psychophysics","85","515257","0.0-7.1-0.1-0.36","822","","j","","","","","","","","","","","","","key","j","21.172105882353122","960","536","f","false","img/S_ambi40.png","自我","prac",""
"","","","","","html-keyboard-response","86","515762","0.0-7.1-0.1-1.36","null","<span style='color:red; font-size: 70px;'>错误! </span>","null","","","","","","","","","","","","","","","","","","","","","","","feedback_test"
"","","","","","psychophysics","87","518091","0.0-7.1-0.1-0.37","1321","","j","","","","","","","","","","","","","key","j","21.33543925233638","960","536","j","true","img/H_ambi40.png","朋友","prac",""
"","","","","","html-keyboard-response","88","518603","0.0-7.1-0.1-1.37","null","<span style='color:GreenYellow; font-size: 70px;'>正确! </span>","null","","","","","","","","","","","","","","","","","","","","","","","feedback_test"
"","","","","","psychophysics","89","520679","0.0-7.1-0.1-0.38","1069","","f","","","","","","","","","","","","","key","f","20.348386138614202","960","536","f","true","img/C_ambi40.png","朋友","prac",""
"","","","","","html-keyboard-response","90","521186","0.0-7.1-0.1-1.38","null","<span style='color:GreenYellow; font-size: 70px;'>正确! </span>","null","","","","","","","","","","","","","","","","","","","","","","","feedback_test"
"","","","","","psychophysics","91","523300","0.0-7.1-0.1-0.39","1109","","j","","","","","","","","","","","","","key","j","20.56178217821773","960","536","j","true","img/H_ambi40.png","自我","prac",""
"","","","","","html-keyboard-response","92","523823","0.0-7.1-0.1-1.39","null","<span style='color:GreenYellow; font-size: 70px;'>正确! </span>","null","","","","","","","","","","","","","","","","","","","","","","","feedback_test"
"","","","","","psychophysics","93","525924","0.0-7.1-0.1-0.40","1097","","f","","","","","","","","","","","","","key","f","20.623762376237625","960","536","f","true","img/S_ambi40.png","自我","prac",""
"","","","","","html-keyboard-response","94","526426","0.0-7.1-0.1-1.40","null","<span style='color:GreenYellow; font-size: 70px;'>正确! </span>","null","","","","","","","","","","","","","","","","","","","","","","","feedback_test"
"","","","","","psychophysics","95","528268","0.0-7.1-0.1-0.41","833","","j","","","","","","","","","","","","","key","j","19.98646666666674","960","536","j","true","img/T_ambi40.png","をる","prac",""
"","","","","","html-keyboard-response","96","528770","0.0-7.1-0.1-1.41","null","<span style='color:GreenYellow; font-size: 70px;'>正确! </span>","null","","","","","","","","","","","","","","","","","","","","","","","feedback_test"
"","","","","","psychophysics","97","530180","0.0-7.1-0.1-0.42","403","","j","","","","","","","","","","","","","key","j","20.093455882352668","960","536","j","true","img/T_ambi40.png","をる","prac",""
"","","","","","html-keyboard-response","98","530682","0.0-7.1-0.1-1.42","null","<span style='color:GreenYellow; font-size: 70px;'>正确! </span>","null","","","","","","","","","","","","","","","","","","","","","","","feedback_test"
"","","","","","psychophysics","99","532343","0.0-7.1-0.1-0.43","654","","f","","","","","","","","","","","","","key","f","19.915963414633396","960","536","j","false","img/S_ambi40.png","生人","prac",""
"","","","","","html-keyboard-response","100","532850","0.0-7.1-0.1-1.43","null","<span style='color:red; font-size: 70px;'>错误! </span>","null","","","","","","","","","","","","","","","","","","","","","","","feedback_test"
"","","","","","psychophysics","101","534361","0.0-7.1-0.1-0.44","502","","j","","","","","","","","","","","","","key","j","19.55087999999989","960","536","j","true","img/T_ambi40.png","をる","prac",""
"","","","","","html-keyboard-response","102","534866","0.0-7.1-0.1-1.44","null","<span style='color:GreenYellow; font-size: 70px;'>正确! </span>","null","","","","","","","","","","","","","","","","","","","","","","","feedback_test"
"","","","","","psychophysics","103","536565","0.0-7.1-0.1-0.45","691","","f","","","","","","","","","","","","","key","f","19.604811764707076","960","536","j","false","img/C_ambi40.png","自我","prac",""
"","","","","","html-keyboard-response","104","537074","0.0-7.1-0.1-1.45","null","<span style='color:red; font-size: 70px;'>错误! </span>","null","","","","","","","","","","","","","","","","","","","","","","","feedback_test"
"","","","","","psychophysics","105","539212","0.0-7.1-0.1-0.46","1130","","j","","","","","","","","","","","","","key","j","18.91554054054054","960","536","j","true","img/S_ambi40.png","朋友","prac",""
"","","","","","html-keyboard-response","106","539715","0.0-7.1-0.1-1.46","null","<span style='color:GreenYellow; font-size: 70px;'>正确! </span>","null","","","","","","","","","","","","","","","","","","","","","","","feedback_test"
"","","","","","psychophysics","107","541540","0.0-7.1-0.1-0.47","824","","j","","","","","","","","","","","","","key","j","19.35143010752771","960","536","j","true","img/T_ambi40.png","をる","prac",""
"","","","","","html-keyboard-response","108","542043","0.0-7.1-0.1-1.47","null","<span style='color:GreenYellow; font-size: 70px;'>正确! </span>","null","","","","","","","","","","","","","","","","","","","","","","","feedback_test"
"","","","","","psychophysics","109","543975","0.0-7.1-0.1-0.48","926","","j","","","","","","","","","","","","","key","j","19.41238144329946","960","536","f","false","img/C_ambi40.png","朋友","prac",""
"","","","","","html-keyboard-response","110","544483","0.0-7.1-0.1-1.48","null","<span style='color:red; font-size: 70px;'>错误! </span>","null","","","","","","","","","","","","","","","","","","","","","","","feedback_test"
"","","","","","psychophysics","111","546612","0.0-7.1-0.1-0.49","1126","","f","","","","","","","","","","","","","key","f","19.08698181818155","960","536","f","true","img/H_ambi40.png","生人","prac",""
"","","","","","html-keyboard-response","112","547114","0.0-7.1-0.1-1.49","null","<span style='color:GreenYellow; font-size: 70px;'>正确! </span>","null","","","","","","","","","","","","","","","","","","","","","","","feedback_test"
"","","","","","psychophysics","113","549044","0.0-7.1-0.1-0.50","922","","j","","","","","","","","","","","","","key","j","19.61378125000071","960","536","j","true","img/C_ambi40.png","生人","prac",""
"","","","","","html-keyboard-response","114","549546","0.0-7.1-0.1-1.50","null","<span style='color:GreenYellow; font-size: 70px;'>正确! </span>","null","","","","","","","","","","","","","","","","","","","","","","","feedback_test"
"","","","","","psychophysics","115","551589","0.0-7.1-0.1-0.51","1037","","f","","","","","","","","","","","","","key","f","19.38734615384601","960","536","j","false","img/H_ambi40.png","朋友","prac",""
"","","","","","html-keyboard-response","116","552112","0.0-7.1-0.1-1.51","null","<span style='color:red; font-size: 70px;'>错误! </span>","null","","","","","","","","","","","","","","","","","","","","","","","feedback_test"
"","","","","","psychophysics","117","554619","0.0-7.1-0.1-0.52","null","","null","","","","","","","","","","","","","key","null","19.55003149606247","960","536","j","false","img/H_ambi40.png","自我","prac",""
"","","","","","html-keyboard-response","118","555123","0.0-7.1-0.1-1.52","null","<span class='add_' style='color:yellow; font-size: 70px;'> 太慢! </span>","null","","","","","","","","","","","","","","","","","","","","","","","feedback_test"
"","","","","","psychophysics","119","557565","0.0-7.1-0.1-0.53","1436","","j","","","","","","","","","","","","","key","j","19.668081967212586","960","536","j","true","img/S_ambi40.png","朋友","prac",""
"","","","","","html-keyboard-response","120","558074","0.0-7.1-0.1-1.53","null","<span style='color:GreenYellow; font-size: 70px;'>正确! </span>","null","","","","","","","","","","","","","","","","","","","","","","","feedback_test"
"","","","","","psychophysics","121","559886","0.0-7.1-0.1-0.54","804","","j","","","","","","","","","","","","","key","j","19.592967032966623","960","536","j","true","img/T_ambi40.png","をる","prac",""
"","","","","","html-keyboard-response","122","560395","0.0-7.1-0.1-1.54","null","<span style='color:GreenYellow; font-size: 70px;'>正确! </span>","null","","","","","","","","","","","","","","","","","","","","","","","feedback_test"
"","","","","","psychophysics","123","562664","0.0-7.1-0.1-0.55","1262","","j","","","","","","","","","","","","","key","j","19.561426086956637","960","536","j","true","img/S_ambi40.png","生人","prac",""
"","","","","","html-keyboard-response","124","563170","0.0-7.1-0.1-1.55","null","<span style='color:GreenYellow; font-size: 70px;'>正确! </span>","null","","","","","","","","","","","","","","","","","","","","","","","feedback_test"
"","","","","","psychophysics","125","564987","0.0-7.1-0.1-0.56","809","","f","","","","","","","","","","","","","key","f","20.033292134831335","960","536","j","false","img/C_ambi40.png","自我","prac",""
"","","","","","html-keyboard-response","126","565490","0.0-7.1-0.1-1.56","null","<span style='color:red; font-size: 70px;'>错误! </span>","null","","","","","","","","","","","","","","","","","","","","","","","feedback_test"
"","","","","","psychophysics","127","567129","0.0-7.1-0.1-0.57","632","","j","","","","","","","","","","","","","key","j","19.711768292682812","960","536","j","true","img/T_ambi40.png","をる","prac",""
"","","","","","html-keyboard-response","128","567634","0.0-7.1-0.1-1.57","null","<span style='color:GreenYellow; font-size: 70px;'>正确! </span>","null","","","","","","","","","","","","","","","","","","","","","","","feedback_test"
"","","","","","psychophysics","129","569453","0.0-7.1-0.1-0.58","811","","j","","","","","","","","","","","","","key","j","20.261306818181765","960","536","j","true","img/T_ambi40.png","をる","prac",""
"","","","","","html-keyboard-response","130","569954","0.0-7.1-0.1-1.58","null","<span style='color:GreenYellow; font-size: 70px;'>正确! </span>","null","","","","","","","","","","","","","","","","","","","","","","","feedback_test"
"","","","","","psychophysics","131","571741","0.0-7.1-0.1-0.59","778","","j","","","","","","","","","","","","","key","j","20.58431764705764","960","536","f","false","img/S_ambi40.png","自我","prac",""
"","","","","","html-keyboard-response","132","572251","0.0-7.1-0.1-1.59","null","<span style='color:red; font-size: 70px;'>错误! </span>","null","","","","","","","","","","","","","","","","","","","","","","","feedback_test"
"","","","","","psychophysics","133","574130","0.0-7.1-0.1-0.60","872","","j","","","","","","","","","","","","","key","j","21.507558139535153","960","536","f","false","img/C_ambi40.png","朋友","prac",""
"","","","","","html-keyboard-response","134","574633","0.0-7.1-0.1-1.60","null","<span style='color:red; font-size: 70px;'>错误! </span>","null","","","","","","","","","","","","","","","","","","","","","","","feedback_test"
"","","","","","psychophysics","135","577138","0.0-7.1-0.1-0.61","null","","null","","","","","","","","","","","","","key","null","21.4450956521738","960","536","f","false","img/H_ambi40.png","生人","prac",""
"","","","","","html-keyboard-response","136","577642","0.0-7.1-0.1-1.61","null","<span class='add_' style='color:yellow; font-size: 70px;'> 太慢! </span>","null","","","","","","","","","","","","","","","","","","","","","","","feedback_test"
"","","","","","psychophysics","137","579564","0.0-7.1-0.1-0.62","916","","f","","","","","","","","","","","","","key","f","21.643425287356354","960","536","f","true","img/S_ambi40.png","自我","prac",""
"","","","","","html-keyboard-response","138","580067","0.0-7.1-0.1-1.62","null","<span style='color:GreenYellow; font-size: 70px;'>正确! </span>","null","","","","","","","","","","","","","","","","","","","","","","","feedback_test"
"","","","","","psychophysics","139","581672","0.0-7.1-0.1-0.63","598","","j","","","","","","","","","","","","","key","j","21.457178082192726","960","536","j","true","img/T_ambi40.png","をる","prac",""
"","","","","","html-keyboard-response","140","582182","0.0-7.1-0.1-1.63","null","<span style='color:GreenYellow; font-size: 70px;'>正确! </span>","null","","","","","","","","","","","","","","","","","","","","","","","feedback_test"
"","","","","","html-keyboard-response","141","628925","0.0-7.1-1.1-0.1","46741","<style>.context{color:white; font-size: 35px; line-height:40px}</style>                          <div><p class='context'>您正确回答了59% 的试次。</p ><p class='context'>您的平均反应时为952毫秒。</p >","escape","","","","","","","","","","","","","","","","","","","","","","",""
"","","","","","instructions","142","754942","0.0-7.1-1.1-1.1","126015","","","","","","","","","","","","","","[{""page_index"":0,""viewing_time"":3578},{""page_index"":1,""viewing_time"":120494},{""page_index"":2,""viewing_time"":1942}]","","","","","","","","","","",""
"","","","","","psychophysics","143","756761","0.0-7.2-0.2-0.64","816","","f","","","","","","","","","","","","","key","f","20.732081395349205","958","455","f","true","img/S_ambi40.png","自我","prac",""
"","","","","","html-keyboard-response","144","757265","0.0-7.2-0.2-1.64","null","<span style='color:GreenYellow; font-size: 70px;'>正确! </span>","null","","","","","","","","","","","","","","","","","","","","","","","feedback_test"
"","","","","","psychophysics","145","759136","0.0-7.2-0.2-0.65","861","","j","","","","","","","","","","","","","key","j","20.595292134831784","958","455","j","true","img/S_ambi40.png","生人","prac",""
"","","","","","html-keyboard-response","146","759643","0.0-7.2-0.2-1.65","null","<span style='color:GreenYellow; font-size: 70px;'>正确! </span>","null","","","","","","","","","","","","","","","","","","","","","","","feedback_test"
"","","","","","psychophysics","147","761278","0.0-7.2-0.2-0.66","635","","j","","","","","","","","","","","","","key","j","20.46027848101221","958","455","j","true","img/T_ambi40.png","をる","prac",""
"","","","","","html-keyboard-response","148","761786","0.0-7.2-0.2-1.66","null","<span style='color:GreenYellow; font-size: 70px;'>正确! </span>","null","","","","","","","","","","","","","","","","","","","","","","","feedback_test"
"","","","","","psychophysics","149","763555","0.0-7.2-0.2-0.67","762","","j","","","","","","","","","","","","","key","j","20.87956626506113","958","455","f","false","img/C_ambi40.png","朋友","prac",""
"","","","","","html-keyboard-response","150","764057","0.0-7.2-0.2-1.67","null","<span style='color:red; font-size: 70px;'>错误! </span>","null","","","","","","","","","","","","","","","","","","","","","","","feedback_test"
"","","","","","psychophysics","151","765739","0.0-7.2-0.2-0.68","679","","j","","","","","","","","","","","","","key","j","19.837130952381163","958","455","j","true","img/T_ambi40.png","をる","prac",""
"","","","","","html-keyboard-response","152","766242","0.0-7.2-0.2-1.68","null","<span style='color:GreenYellow; font-size: 70px;'>正确! </span>","null","","","","","","","","","","","","","","","","","","","","","","","feedback_test"
"","","","","","psychophysics","153","768121","0.0-7.2-0.2-0.69","871","","f","","","","","","","","","","","","","key","f","19.852602150537805","958","455","f","true","img/H_ambi40.png","生人","prac",""
"","","","","","html-keyboard-response","154","768626","0.0-7.2-0.2-1.69","null","<span style='color:GreenYellow; font-size: 70px;'>正确! </span>","null","","","","","","","","","","","","","","","","","","","","","","","feedback_test"
"","","","","","psychophysics","155","770727","0.0-7.2-0.2-0.70","1093","","j","","","","","","","","","","","","","key","j","20.46725742574228","958","455","j","true","img/H_ambi40.png","自我","prac",""
"","","","","","html-keyboard-response","156","771233","0.0-7.2-0.2-1.70","null","<span style='color:GreenYellow; font-size: 70px;'>正确! </span>","null","","","","","","","","","","","","","","","","","","","","","","","feedback_test"
"","","","","","psychophysics","157","773006","0.0-7.2-0.2-0.71","768","","j","","","","","","","","","","","","","key","j","20.09865517241361","958","455","j","true","img/T_ambi40.png","をる","prac",""
"","","","","","html-keyboard-response","158","773514","0.0-7.2-0.2-1.71","null","<span style='color:GreenYellow; font-size: 70px;'>正确! </span>","null","","","","","","","","","","","","","","","","","","","","","","","feedback_test"
"","","","","","psychophysics","159","775522","0.0-7.2-0.2-0.72","1005","","f","","","","","","","","","","","","","key","f","20.233316326530517","958","455","f","true","img/H_ambi40.png","生人","prac",""
"","","","","","html-keyboard-response","160","776027","0.0-7.2-0.2-1.72","null","<span style='color:GreenYellow; font-size: 70px;'>正确! </span>","null","","","","","","","","","","","","","","","","","","","","","","","feedback_test"
"","","","","","psychophysics","161","778397","0.0-7.2-0.2-0.73","1363","","j","","","","","","","","","","","","","key","j","19.143809917354996","958","455","j","true","img/S_ambi40.png","朋友","prac",""
"","","","","","html-keyboard-response","162","778905","0.0-7.2-0.2-1.73","null","<span style='color:GreenYellow; font-size: 70px;'>正确! </span>","null","","","","","","","","","","","","","","","","","","","","","","","feedback_test"
"","","","","","psychophysics","163","781164","0.0-7.2-0.2-0.74","1250","","j","","","","","","","","","","","","","key","j","19.248448275862632","958","455","j","true","img/H_ambi40.png","朋友","prac",""
"","","","","","html-keyboard-response","164","781666","0.0-7.2-0.2-1.74","null","<span style='color:GreenYellow; font-size: 70px;'>正确! </span>","null","","","","","","","","","","","","","","","","","","","","","","","feedback_test"
"","","","","","psychophysics","165","783229","0.0-7.2-0.2-0.75","556","","f","","","","","","","","","","","","","key","f","19.40532911392489","958","455","j","false","img/C_ambi40.png","自我","prac",""
"","","","","","html-keyboard-response","166","783730","0.0-7.2-0.2-1.75","null","<span style='color:red; font-size: 70px;'>错误! </span>","null","","","","","","","","","","","","","","","","","","","","","","","feedback_test"
"","","","","","psychophysics","167","785532","0.0-7.2-0.2-0.76","801","","j","","","","","","","","","","","","","key","j","19.810699999999876","958","455","j","true","img/T_ambi40.png","をる","prac",""
"","","","","","html-keyboard-response","168","786033","0.0-7.2-0.2-1.76","null","<span style='color:GreenYellow; font-size: 70px;'>正确! </span>","null","","","","","","","","","","","","","","","","","","","","","","","feedback_test"
"","","","","","psychophysics","169","787694","0.0-7.2-0.2-0.77","656","","f","","","","","","","","","","","","","key","f","18.55711363636444","958","455","f","true","img/S_ambi40.png","自我","prac",""
"","","","","","html-keyboard-response","170","788201","0.0-7.2-0.2-1.77","null","<span style='color:GreenYellow; font-size: 70px;'>正确! </span>","null","","","","","","","","","","","","","","","","","","","","","","","feedback_test"
"","","","","","psychophysics","171","790401","0.0-7.2-0.2-0.78","1196","","j","","","","","","","","","","","","","key","j","20.211935185184874","958","455","j","true","img/C_ambi40.png","生人","prac",""
"","","","","","html-keyboard-response","172","790905","0.0-7.2-0.2-1.78","null","<span style='color:GreenYellow; font-size: 70px;'>正确! </span>","null","","","","","","","","","","","","","","","","","","","","","","","feedback_test"
"","","","","","psychophysics","173","792772","0.0-7.2-0.2-0.79","858","","f","","","","","","","","","","","","","key","f","18.533642857143064","958","455","f","true","img/C_ambi40.png","朋友","prac",""
"","","","","","html-keyboard-response","174","793274","0.0-7.2-0.2-1.79","null","<span style='color:GreenYellow; font-size: 70px;'>正确! </span>","null","","","","","","","","","","","","","","","","","","","","","","","feedback_test"
"","","","","","psychophysics","175","794881","0.0-7.2-0.2-0.80","599","","j","","","","","","","","","","","","","key","j","20.342103896104707","958","455","j","true","img/T_ambi40.png","をる","prac",""
"","","","","","html-keyboard-response","176","795386","0.0-7.2-0.2-1.80","null","<span style='color:GreenYellow; font-size: 70px;'>正确! </span>","null","","","","","","","","","","","","","","","","","","","","","","","feedback_test"
"","","","","","psychophysics","177","797035","0.0-7.2-0.2-0.81","641","","j","","","","","","","","","","","","","key","j","19.711439024390106","958","455","j","true","img/T_ambi40.png","をる","prac",""
"","","","","","html-keyboard-response","178","797537","0.0-7.2-0.2-1.81","null","<span style='color:GreenYellow; font-size: 70px;'>正确! </span>","null","","","","","","","","","","","","","","","","","","","","","","","feedback_test"
"","","","","","psychophysics","179","799109","0.0-7.2-0.2-0.82","562","","j","","","","","","","","","","","","","key","j","19.693285714286112","958","455","j","true","img/T_ambi40.png","をる","prac",""
"","","","","","html-keyboard-response","180","799610","0.0-7.2-0.2-1.82","null","<span style='color:GreenYellow; font-size: 70px;'>正确! </span>","null","","","","","","","","","","","","","","","","","","","","","","","feedback_test"
"","","","","","psychophysics","181","801181","0.0-7.2-0.2-0.83","564","","f","","","","","","","","","","","","","key","f","19.131839506172884","958","455","f","true","img/S_ambi40.png","自我","prac",""
"","","","","","html-keyboard-response","182","801690","0.0-7.2-0.2-1.83","null","<span style='color:GreenYellow; font-size: 70px;'>正确! </span>","null","","","","","","","","","","","","","","","","","","","","","","","feedback_test"
"","","","","","psychophysics","183","803639","0.0-7.2-0.2-0.84","942","","j","","","","","","","","","","","","","key","j","19.996189473684584","958","455","j","true","img/S_ambi40.png","朋友","prac",""
"","","","","","html-keyboard-response","184","804147","0.0-7.2-0.2-1.84","null","<span style='color:GreenYellow; font-size: 70px;'>正确! </span>","null","","","","","","","","","","","","","","","","","","","","","","","feedback_test"
"","","","","","psychophysics","185","805740","0.0-7.2-0.2-0.85","591","","f","","","","","","","","","","","","","key","f","19.8271265822784","958","455","j","false","img/C_ambi40.png","自我","prac",""
"","","","","","html-keyboard-response","186","806242","0.0-7.2-0.2-1.85","null","<span style='color:red; font-size: 70px;'>错误! </span>","null","","","","","","","","","","","","","","","","","","","","","","","feedback_test"
"","","","","","psychophysics","187","808367","0.0-7.2-0.2-0.86","1122","","j","","","","","","","","","","","","","key","j","20.222621359222668","958","455","f","false","img/H_ambi40.png","生人","prac",""
"","","","","","html-keyboard-response","188","808889","0.0-7.2-0.2-1.86","null","<span style='color:red; font-size: 70px;'>错误! </span>","null","","","","","","","","","","","","","","","","","","","","","","","feedback_test"
"","","","","","psychophysics","189","810967","0.0-7.2-0.2-0.87","1069","","j","","","","","","","","","","","","","key","j","19.930529411764606","958","455","j","true","img/H_ambi40.png","自我","prac",""
"","","","","","html-keyboard-response","190","811474","0.0-7.2-0.2-1.87","null","<span style='color:GreenYellow; font-size: 70px;'>正确! </span>","null","","","","","","","","","","","","","","","","","","","","","","","feedback_test"
"","","","","","psychophysics","191","813704","0.0-7.2-0.2-0.88","1222","","j","","","","","","","","","","","","","key","j","20.366444444444454","958","455","f","false","img/H_ambi40.png","生人","prac",""
"","","","","","html-keyboard-response","192","814210","0.0-7.2-0.2-1.88","null","<span style='color:red; font-size: 70px;'>错误! </span>","null","","","","","","","","","","","","","","","","","","","","","","","feedback_test"
"","","","","","psychophysics","193","815897","0.0-7.2-0.2-0.89","683","","j","","","","","","","","","","","","","key","j","20.881784810127595","958","455","j","true","img/T_ambi40.png","をる","prac",""
"","","","","","html-keyboard-response","194","816402","0.0-7.2-0.2-1.89","null","<span style='color:GreenYellow; font-size: 70px;'>正确! </span>","null","","","","","","","","","","","","","","","","","","","","","","","feedback_test"
"","","","","","psychophysics","195","818183","0.0-7.2-0.2-0.90","773","","f","","","","","","","","","","","","","key","f","20.111172413793337","958","455","f","true","img/S_ambi40.png","自我","prac",""
"","","","","","html-keyboard-response","196","818690","0.0-7.2-0.2-1.90","null","<span style='color:GreenYellow; font-size: 70px;'>正确! </span>","null","","","","","","","","","","","","","","","","","","","","","","","feedback_test"
"","","","","","psychophysics","197","820731","0.0-7.2-0.2-0.91","1034","","j","","","","","","","","","","","","","key","j","21.91576086956522","958","455","j","true","img/H_ambi40.png","朋友","prac",""
"","","","","","html-keyboard-response","198","821233","0.0-7.2-0.2-1.91","null","<span style='color:GreenYellow; font-size: 70px;'>正确! </span>","null","","","","","","","","","","","","","","","","","","","","","","","feedback_test"
"","","","","","psychophysics","199","823138","0.0-7.2-0.2-0.92","897","","f","","","","","","","","","","","","","key","f","21.451839080459074","958","455","j","false","img/C_ambi40.png","生人","prac",""
"","","","","","html-keyboard-response","200","823642","0.0-7.2-0.2-1.92","null","<span style='color:red; font-size: 70px;'>错误! </span>","null","","","","","","","","","","","","","","","","","","","","","","","feedback_test"
"","","","","","psychophysics","201","826065","0.0-7.2-0.2-0.93","1418","","j","","","","","","","","","","","","","key","j","21.424107142857142","958","455","j","true","img/S_ambi40.png","生人","prac",""
"","","","","","html-keyboard-response","202","826570","0.0-7.2-0.2-1.93","null","<span style='color:GreenYellow; font-size: 70px;'>正确! </span>","null","","","","","","","","","","","","","","","","","","","","","","","feedback_test"
"","","","","","psychophysics","203","828364","0.0-7.2-0.2-0.94","791","","f","","","","","","","","","","","","","key","f","21.080361445783637","958","455","f","true","img/C_ambi40.png","朋友","prac",""
"","","","","","html-keyboard-response","204","828866","0.0-7.2-0.2-1.94","null","<span style='color:GreenYellow; font-size: 70px;'>正确! </span>","null","","","","","","","","","","","","","","","","","","","","","","","feedback_test"
"","","","","","psychophysics","205","830937","0.0-7.2-0.2-0.95","1063","","f","","","","","","","","","","","","","key","f","21.17615624999962","958","455","f","true","img/C_ambi40.png","朋友","prac",""
"","","","","","html-keyboard-response","206","831441","0.0-7.2-0.2-1.95","null","<span style='color:GreenYellow; font-size: 70px;'>正确! </span>","null","","","","","","","","","","","","","","","","","","","","","","","feedback_test"
"","","","","","html-keyboard-response","207","839214","0.0-8.0","7771","<style>.context{color:white; font-size: 35px; line-height:40px}</style>                          <div><p class='context'>您正确回答了81% 的试次。</p ><p class='context'>您的平均反应时为884毫秒。</p ><p class='context'>恭喜您完成练习。按任意键进入正式实验。</p ><p class='footer' style='font-size: 35px; line-height:40px;'>请在进入正式实验实验之前将您的<span style='color: lightgreen;'>食指</span>放在电脑键盘的相应键位上进行按键。</p >","f","","","","","","","","","","","","","","","","","","","","","","",""
"","","","","","psychophysics","208","841720","0.0-9.0-0.0-0.0-0.0-0.0","null","","null","","","","","","","","","","","","","key","null","21.04077118644057","958","455","f","false","img/H_ambi40.png","生人","same",""
"","","","","","html-keyboard-response","209","842226","0.0-9.0-0.0-0.0-0.0-1.0","null","<span class='add_' style='color:yellow; font-size: 70px;'> 太慢! </span>","null","","","","","","","","","","","","","","","","","","","","","","","feedback_test"
"","","","","","psychophysics","210","844096","0.0-9.0-0.0-0.0-0.0-0.1","869","","j","","","","","","","","","","","","","key","j","20.595258426966325","958","455","f","false","img/C_ambi40.png","朋友","same",""
"","","","","","html-keyboard-response","211","844602","0.0-9.0-0.0-0.0-0.0-1.1","null","<span style='color:red; font-size: 70px;'>错误! </span>","null","","","","","","","","","","","","","","","","","","","","","","","feedback_test"
"","","","","","psychophysics","212","846564","0.0-9.0-0.0-0.0-0.0-0.2","955","","f","","","","","","","","","","","","","key","f","20.60520430107511","958","455","f","true","img/S_ambi40.png","自我","same",""
"","","","","","html-keyboard-response","213","847065","0.0-9.0-0.0-0.0-0.0-1.2","null","<span style='color:GreenYellow; font-size: 70px;'>正确! </span>","null","","","","","","","","","","","","","","","","","","","","","","","feedback_test"
"","","","","","psychophysics","214","849569","0.0-9.0-0.0-0.0-0.0-0.3","null","","null","","","","","","","","","","","","","key","null","20.303139344262355","958","455","j","false","img/C_ambi40.png","生人","same",""
"","","","","","html-keyboard-response","215","850074","0.0-9.0-0.0-0.0-0.0-1.3","null","<span class='add_' style='color:yellow; font-size: 70px;'> 太慢! </span>","null","","","","","","","","","","","","","","","","","","","","","","","feedback_test"
"","","","","","psychophysics","216","852316","0.0-9.0-0.0-0.0-0.0-0.4","1240","","j","","","","","","","","","","","","","key","j","20.447009345795088","958","455","j","true","img/H_ambi40.png","朋友","same",""
"","","","","","html-keyboard-response","217","852818","0.0-9.0-0.0-0.0-0.0-1.4","null","<span style='color:GreenYellow; font-size: 70px;'>正确! </span>","null","","","","","","","","","","","","","","","","","","","","","","","feedback_test"
"","","","","","psychophysics","218","854438","0.0-9.0-0.0-0.0-0.0-0.5","616","","f","","","","","","","","","","","","","key","f","19.774687499999708","958","455","f","true","img/C_ambi40.png","朋友","same",""
"","","","","","html-keyboard-response","219","854946","0.0-9.0-0.0-0.0-0.0-1.5","null","<span style='color:GreenYellow; font-size: 70px;'>正确! </span>","null","","","","","","","","","","","","","","","","","","","","","","","feedback_test"
"","","","","","psychophysics","220","857449","0.0-9.0-0.0-0.0-0.0-0.6","null","","null","","","","","","","","","","","","","key","null","19.545149606299645","958","455","f","false","img/S_ambi40.png","自我","same",""
"","","","","","html-keyboard-response","221","857954","0.0-9.0-0.0-0.0-0.0-1.6","null","<span class='add_' style='color:yellow; font-size: 70px;'> 太慢! </span>","null","","","","","","","","","","","","","","","","","","","","","","","feedback_test"
"","","","","","psychophysics","222","859816","0.0-9.0-0.0-0.0-0.0-0.7","860","","f","","","","","","","","","","","","","key","f","19.095979166667046","958","455","j","false","img/S_ambi40.png","生人","same",""
"","","","","","html-keyboard-response","223","860322","0.0-9.0-0.0-0.0-0.0-1.7","null","<span style='color:red; font-size: 70px;'>错误! </span>","null","","","","","","","","","","","","","","","","","","","","","","","feedback_test"
"","","","","","psychophysics","224","862826","0.0-9.0-0.0-0.0-0.0-0.8","null","","null","","","","","","","","","","","","","key","null","19.418385826771726","958","455","f","false","img/S_ambi40.png","自我","same",""
"","","","","","html-keyboard-response","225","863330","0.0-9.0-0.0-0.0-0.0-1.8","null","<span class='add_' style='color:yellow; font-size: 70px;'> 太慢! </span>","null","","","","","","","","","","","","","","","","","","","","","","","feedback_test"
"","","","","","psychophysics","226","865766","0.0-9.0-0.0-0.0-0.0-0.9","1434","","f","","","","","","","","","","","","","key","f","19.830595041322137","958","455","f","true","img/H_ambi40.png","生人","same",""
"","","","","","html-keyboard-response","227","866275","0.0-9.0-0.0-0.0-0.0-1.9","null","<span style='color:GreenYellow; font-size: 70px;'>正确! </span>","null","","","","","","","","","","","","","","","","","","","","","","","feedback_test"
"","","","","","psychophysics","228","868216","0.0-9.0-0.0-0.0-0.0-0.10","934","","f","","","","","","","","","","","","","key","f","19.38433673469307","958","455","f","true","img/C_ambi40.png","朋友","same",""
"","","","","","html-keyboard-response","229","868723","0.0-9.0-0.0-0.0-0.0-1.10","null","<span style='color:GreenYellow; font-size: 70px;'>正确! </span>","null","","","","","","","","","","","","","","","","","","","","","","","feedback_test"
"","","","","","psychophysics","230","870411","0.0-9.0-0.0-0.0-0.0-0.11","680","","j","","","","","","","","","","","","","key","j","20.117804878047757","958","455","j","true","img/T_ambi40.png","をる","same",""
"","","","","","html-keyboard-response","231","870914","0.0-9.0-0.0-0.0-0.0-1.11","null","<span style='color:GreenYellow; font-size: 70px;'>正确! </span>","null","","","","","","","","","","","","","","","","","","","","","","","feedback_test"
"","","","","","psychophysics","232","873244","0.0-9.0-0.0-0.0-0.0-0.12","1329","","j","","","","","","","","","","","","","key","j","19.680370689654755","958","455","j","true","img/S_ambi40.png","朋友","same",""
"","","","","","html-keyboard-response","233","873747","0.0-9.0-0.0-0.0-0.0-1.12","null","<span style='color:GreenYellow; font-size: 70px;'>正确! </span>","null","","","","","","","","","","","","","","","","","","","","","","","feedback_test"
"","","","","","psychophysics","234","875586","0.0-9.0-0.0-0.0-0.0-0.13","834","","j","","","","","","","","","","","","","key","j","19.32221276595807","958","455","j","true","img/T_ambi40.png","をる","same",""
"","","","","","html-keyboard-response","235","876090","0.0-9.0-0.0-0.0-0.0-1.13","null","<span style='color:GreenYellow; font-size: 70px;'>正确! </span>","null","","","","","","","","","","","","","","","","","","","","","","","feedback_test"
"","","","","","psychophysics","236","878067","0.0-9.0-0.0-0.0-0.0-0.14","969","","f","","","","","","","","","","","","","key","f","19.303237623762165","958","455","j","false","img/C_ambi40.png","自我","same",""
"","","","","","html-keyboard-response","237","878570","0.0-9.0-0.0-0.0-0.0-1.14","null","<span style='color:red; font-size: 70px;'>错误! </span>","null","","","","","","","","","","","","","","","","","","","","","","","feedback_test"
"","","","","","psychophysics","238","880665","0.0-9.0-0.0-0.0-0.0-0.15","1087","","j","","","","","","","","","","","","","key","j","19.678428571428437","958","455","f","false","img/H_ambi40.png","生人","same",""
"","","","","","html-keyboard-response","239","881170","0.0-9.0-0.0-0.0-0.0-1.15","null","<span style='color:red; font-size: 70px;'>错误! </span>","null","","","","","","","","","","","","","","","","","","","","","","","feedback_test"
"","","","","","psychophysics","240","882914","0.0-9.0-0.0-0.0-0.0-0.16","735","","j","","","","","","","","","","","","","key","j","18.65564130434802","958","455","j","true","img/T_ambi40.png","をる","same",""
"","","","","","html-keyboard-response","241","883428","0.0-9.0-0.0-0.0-0.0-1.16","null","<span style='color:GreenYellow; font-size: 70px;'>正确! </span>","null","","","","","","","","","","","","","","","","","","","","","","","feedback_test"
"","","","","","psychophysics","242","885448","0.0-9.0-0.0-0.0-0.0-0.17","1017","","j","","","","","","","","","","","","","key","j","19.797851485148357","958","455","j","true","img/H_ambi40.png","自我","same",""
"","","","","","html-keyboard-response","243","885954","0.0-9.0-0.0-0.0-0.0-1.17","null","<span style='color:GreenYellow; font-size: 70px;'>正确! </span>","null","","","","","","","","","","","","","","","","","","","","","","","feedback_test"
"","","","","","psychophysics","244","887673","0.0-9.0-0.0-0.0-0.0-0.18","711","","j","","","","","","","","","","","","","key","j","19.800188235293472","958","455","j","true","img/T_ambi40.png","をる","same",""
"","","","","","html-keyboard-response","245","888178","0.0-9.0-0.0-0.0-0.0-1.18","null","<span style='color:GreenYellow; font-size: 70px;'>正确! </span>","null","","","","","","","","","","","","","","","","","","","","","","","feedback_test"
"","","","","","psychophysics","246","890533","0.0-9.0-0.0-0.0-0.0-0.19","1354","","j","","","","","","","","","","","","","key","j","20.285913043478303","958","455","j","true","img/H_ambi40.png","朋友","same",""
"","","","","","html-keyboard-response","247","891034","0.0-9.0-0.0-0.0-0.0-1.19","null","<span style='color:GreenYellow; font-size: 70px;'>正确! </span>","null","","","","","","","","","","","","","","","","","","","","","","","feedback_test"
"","","","","","psychophysics","248","892885","0.0-9.0-0.0-0.0-0.0-0.20","842","","f","","","","","","","","","","","","","key","f","19.959615384614875","958","455","f","true","img/C_ambi40.png","朋友","same",""
"","","","","","html-keyboard-response","249","893386","0.0-9.0-0.0-0.0-0.0-1.20","null","<span style='color:GreenYellow; font-size: 70px;'>正确! </span>","null","","","","","","","","","","","","","","","","","","","","","","","feedback_test"
"","","","","","psychophysics","250","895102","0.0-9.0-0.0-0.0-0.0-0.21","709","","j","","","","","","","","","","","","","key","j","20.572246913581132","958","455","j","true","img/T_ambi40.png","をる","same",""
"","","","","","html-keyboard-response","251","895611","0.0-9.0-0.0-0.0-0.0-1.21","null","<span style='color:GreenYellow; font-size: 70px;'>正确! </span>","null","","","","","","","","","","","","","","","","","","","","","","","feedback_test"
"","","","","","psychophysics","252","897525","0.0-9.0-0.0-0.0-0.0-0.22","911","","f","","","","","","","","","","","","","key","f","21.344247191011632","958","455","f","true","img/S_ambi40.png","自我","same",""
"","","","","","html-keyboard-response","253","898028","0.0-9.0-0.0-0.0-0.0-1.22","null","<span style='color:GreenYellow; font-size: 70px;'>正确! </span>","null","","","","","","","","","","","","","","","","","","","","","","","feedback_test"
"","","","","","psychophysics","254","899569","0.0-9.0-0.0-0.0-0.0-0.23","535","","j","","","","","","","","","","","","","key","j","20.829430555556126","958","455","j","true","img/T_ambi40.png","をる","same",""
"","","","","","html-keyboard-response","255","900074","0.0-9.0-0.0-0.0-0.0-1.23","null","<span style='color:GreenYellow; font-size: 70px;'>正确! </span>","null","","","","","","","","","","","","","","","","","","","","","","","feedback_test"
"","","","","","psychophysics","256","902080","0.0-9.0-0.0-0.0-0.0-0.24","1001","","j","","","","","","","","","","","","","key","j","21.790703296703594","958","455","j","true","img/S_ambi40.png","生人","same",""
"","","","","","html-keyboard-response","257","902586","0.0-9.0-0.0-0.0-0.0-1.24","null","<span style='color:GreenYellow; font-size: 70px;'>正确! </span>","null","","","","","","","","","","","","","","","","","","","","","","","feedback_test"
"","","","","","psychophysics","258","904470","0.0-9.0-0.0-0.0-0.0-0.25","879","","f","","","","","","","","","","","","","key","f","21.018443181818427","958","455","f","true","img/S_ambi40.png","自我","same",""
"","","","","","html-keyboard-response","259","904977","0.0-9.0-0.0-0.0-0.0-1.25","null","<span style='color:GreenYellow; font-size: 70px;'>正确! </span>","null","","","","","","","","","","","","","","","","","","","","","","","feedback_test"
"","","","","","psychophysics","260","907026","0.0-9.0-0.0-0.0-0.0-0.26","1045","","j","","","","","","","","","","","","","key","j","21.6804193548385","958","455","j","true","img/H_ambi40.png","自我","same",""
"","","","","","html-keyboard-response","261","907531","0.0-9.0-0.0-0.0-0.0-1.26","null","<span style='color:GreenYellow; font-size: 70px;'>正确! </span>","null","","","","","","","","","","","","","","","","","","","","","","","feedback_test"
"","","","","","psychophysics","262","909587","0.0-9.0-0.0-0.0-0.0-0.27","1049","","j","","","","","","","","","","","","","key","j","21.22370526315767","958","455","f","false","img/H_ambi40.png","生人","same",""
"","","","","","html-keyboard-response","263","910090","0.0-9.0-0.0-0.0-0.0-1.27","null","<span style='color:red; font-size: 70px;'>错误! </span>","null","","","","","","","","","","","","","","","","","","","","","","","feedback_test"
"","","","","","psychophysics","264","911740","0.0-9.0-0.0-0.0-0.0-0.28","643","","f","","","","","","","","","","","","","key","f","21.267921052631113","958","455","f","true","img/H_ambi40.png","生人","same",""
"","","","","","html-keyboard-response","265","912243","0.0-9.0-0.0-0.0-0.0-1.28","null","<span style='color:GreenYellow; font-size: 70px;'>正确! </span>","null","","","","","","","","","","","","","","","","","","","","","","","feedback_test"
"","","","","","psychophysics","266","914346","0.0-9.0-0.0-0.0-0.0-0.29","1101","","f","","","","","","","","","","","","","key","f","21.473536082473824","958","455","j","false","img/C_ambi40.png","自我","same",""
"","","","","","html-keyboard-response","267","914850","0.0-9.0-0.0-0.0-0.0-1.29","null","<span style='color:red; font-size: 70px;'>错误! </span>","null","","","","","","","","","","","","","","","","","","","","","","","feedback_test"
"","","","","","psychophysics","268","917019","0.0-9.0-0.0-0.0-0.0-0.30","1164","","j","","","","","","","","","","","","","key","j","20.910882352941496","958","455","j","true","img/S_ambi40.png","朋友","same",""
"","","","","","html-keyboard-response","269","917522","0.0-9.0-0.0-0.0-0.0-1.30","null","<span style='color:GreenYellow; font-size: 70px;'>正确! </span>","null","","","","","","","","","","","","","","","","","","","","","","","feedback_test"
"","","","","","psychophysics","270","919284","0.0-9.0-0.0-0.0-0.0-0.31","757","","f","","","","","","","","","","","","","key","f","20.879602409638352","958","455","f","true","img/S_ambi40.png","自我","same",""
"","","","","","html-keyboard-response","271","919794","0.0-9.0-0.0-0.0-0.0-1.31","null","<span style='color:GreenYellow; font-size: 70px;'>正确! </span>","null","","","","","","","","","","","","","","","","","","","","","","","feedback_test"
"","","","","","psychophysics","272","921663","0.0-9.0-0.0-0.0-0.0-0.32","861","","j","","","","","","","","","","","","","key","j","20.829227272726712","958","455","f","false","img/H_ambi40.png","生人","same",""
"","","","","","html-keyboard-response","273","922171","0.0-9.0-0.0-0.0-0.0-1.32","null","<span style='color:red; font-size: 70px;'>错误! </span>","null","","","","","","","","","","","","","","","","","","","","","","","feedback_test"
"","","","","","psychophysics","274","924013","0.0-9.0-0.0-0.0-0.0-0.33","835","","j","","","","","","","","","","","","","key","j","21.368517647059086","958","455","j","true","img/C_ambi40.png","生人","same",""
"","","","","","html-keyboard-response","275","924514","0.0-9.0-0.0-0.0-0.0-1.33","null","<span style='color:GreenYellow; font-size: 70px;'>正确! </span>","null","","","","","","","","","","","","","","","","","","","","","","","feedback_test"
"","","","","","psychophysics","276","926904","0.0-9.0-0.0-0.0-0.0-0.34","1385","","j","","","","","","","","","","","","","key","j","21.359190909090366","958","455","f","false","img/C_ambi40.png","朋友","same",""
"","","","","","html-keyboard-response","277","927411","0.0-9.0-0.0-0.0-0.0-1.34","null","<span style='color:red; font-size: 70px;'>错误! </span>","null","","","","","","","","","","","","","","","","","","","","","","","feedback_test"
"","","","","","psychophysics","278","928854","0.0-9.0-0.0-0.0-0.0-0.35","436","","f","","","","","","","","","","","","","key","f","19.949380281689564","958","455","f","true","img/C_ambi40.png","朋友","same",""
"","","","","","html-keyboard-response","279","929362","0.0-9.0-0.0-0.0-0.0-1.35","null","<span style='color:GreenYellow; font-size: 70px;'>正确! </span>","null","","","","","","","","","","","","","","","","","","","","","","","feedback_test"
"","","","","","psychophysics","280","930971","0.0-9.0-0.0-0.0-0.0-0.36","600","","j","","","","","","","","","","","","","key","j","20.698144736842217","958","455","j","true","img/T_ambi40.png","をる","same",""
"","","","","","html-keyboard-response","281","931474","0.0-9.0-0.0-0.0-0.0-1.36","null","<span style='color:GreenYellow; font-size: 70px;'>正确! </span>","null","","","","","","","","","","","","","","","","","","","","","","","feedback_test"
"","","","","","psychophysics","282","933329","0.0-9.0-0.0-0.0-0.0-0.37","846","","f","","","","","","","","","","","","","key","f","19.8116774193552","958","455","j","false","img/C_ambi40.png","自我","same",""
"","","","","","html-keyboard-response","283","933834","0.0-9.0-0.0-0.0-0.0-1.37","null","<span style='color:red; font-size: 70px;'>错误! </span>","null","","","","","","","","","","","","","","","","","","","","","","","feedback_test"
"","","","","","psychophysics","284","935426","0.0-9.0-0.0-0.0-0.0-0.38","584","","f","","","","","","","","","","","","","key","f","19.369703703703657","958","455","f","true","img/C_ambi40.png","朋友","same",""
"","","","","","html-keyboard-response","285","935930","0.0-9.0-0.0-0.0-0.0-1.38","null","<span style='color:GreenYellow; font-size: 70px;'>正确! </span>","null","","","","","","","","","","","","","","","","","","","","","","","feedback_test"
"","","","","","psychophysics","286","937824","0.0-9.0-0.0-0.0-0.0-0.39","890","","j","","","","","","","","","","","","","key","j","20.218489130435046","958","455","f","false","img/S_ambi40.png","自我","same",""
"","","","","","html-keyboard-response","287","938345","0.0-9.0-0.0-0.0-0.0-1.39","null","<span style='color:red; font-size: 70px;'>错误! </span>","null","","","","","","","","","","","","","","","","","","","","","","","feedback_test"
"","","","","","psychophysics","288","939813","0.0-9.0-0.0-0.0-0.0-0.40","459","","f","","","","","","","","","","","","","key","f","19.870069444444702","958","455","f","true","img/C_ambi40.png","朋友","same",""
"","","","","","html-keyboard-response","289","940322","0.0-9.0-0.0-0.0-0.0-1.40","null","<span style='color:GreenYellow; font-size: 70px;'>正确! </span>","null","","","","","","","","","","","","","","","","","","","","","","","feedback_test"
"","","","","","psychophysics","290","941993","0.0-9.0-0.0-0.0-0.0-0.41","671","","j","","","","","","","","","","","","","key","j","19.63858333333268","958","455","j","true","img/T_ambi40.png","をる","same",""
"","","","","","html-keyboard-response","291","942498","0.0-9.0-0.0-0.0-0.0-1.41","null","<span style='color:GreenYellow; font-size: 70px;'>正确! </span>","null","","","","","","","","","","","","","","","","","","","","","","","feedback_test"
"","","","","","psychophysics","292","944426","0.0-9.0-0.0-0.0-0.0-0.42","921","","f","","","","","","","","","","","","","key","f","18.996119999999646","958","455","f","true","img/S_ambi40.png","自我","same",""
"","","","","","html-keyboard-response","293","944930","0.0-9.0-0.0-0.0-0.0-1.42","null","<span style='color:GreenYellow; font-size: 70px;'>正确! </span>","null","","","","","","","","","","","","","","","","","","","","","","","feedback_test"
"","","","","","psychophysics","294","946899","0.0-9.0-0.0-0.0-0.0-0.43","967","","f","","","","","","","","","","","","","key","f","19.495989999999292","958","455","f","true","img/C_ambi40.png","朋友","same",""
"","","","","","html-keyboard-response","295","947412","0.0-9.0-0.0-0.0-0.0-1.43","null","<span style='color:GreenYellow; font-size: 70px;'>正确! </span>","null","","","","","","","","","","","","","","","","","","","","","","","feedback_test"
"","","","","","psychophysics","296","949318","0.0-9.0-0.0-0.0-0.0-0.44","901","","f","","","","","","","","","","","","","key","f","19.82104210526266","958","455","f","true","img/H_ambi40.png","生人","same",""
"","","","","","html-keyboard-response","297","949820","0.0-9.0-0.0-0.0-0.0-1.44","null","<span style='color:GreenYellow; font-size: 70px;'>正确! </span>","null","","","","","","","","","","","","","","","","","","","","","","","feedback_test"
"","","","","","psychophysics","298","951630","0.0-9.0-0.0-0.0-0.0-0.45","805","","f","","","","","","","","","","","","","key","f","19.409912087912364","958","455","f","true","img/H_ambi40.png","生人","same",""
"","","","","","html-keyboard-response","299","952139","0.0-9.0-0.0-0.0-0.0-1.45","null","<span style='color:GreenYellow; font-size: 70px;'>正确! </span>","null","","","","","","","","","","","","","","","","","","","","","","","feedback_test"
"","","","","","psychophysics","300","954076","0.0-9.0-0.0-0.0-0.0-0.46","930","","j","","","","","","","","","","","","","key","j","20.42625806451605","958","455","j","true","img/S_ambi40.png","生人","same",""
"","","","","","html-keyboard-response","301","954579","0.0-9.0-0.0-0.0-0.0-1.46","null","<span style='color:GreenYellow; font-size: 70px;'>正确! </span>","null","","","","","","","","","","","","","","","","","","","","","","","feedback_test"
"","","","","","psychophysics","302","956568","0.0-9.0-0.0-0.0-0.0-0.47","989","","f","","","","","","","","","","","","","key","f","19.49594000000041","958","455","f","true","img/S_ambi40.png","自我","same",""
"","","","","","html-keyboard-response","303","957074","0.0-9.0-0.0-0.0-0.0-1.47","null","<span style='color:GreenYellow; font-size: 70px;'>正确! </span>","null","","","","","","","","","","","","","","","","","","","","","","","feedback_test"
"","","","","","psychophysics","304","959204","0.0-9.0-0.0-0.0-0.0-0.48","1123","","j","","","","","","","","","","","","","key","j","19.99612380952375","958","455","j","true","img/H_ambi40.png","自我","same",""
"","","","","","html-keyboard-response","305","959706","0.0-9.0-0.0-0.0-0.0-1.48","null","<span style='color:GreenYellow; font-size: 70px;'>正确! </span>","null","","","","","","","","","","","","","","","","","","","","","","","feedback_test"
"","","","","","psychophysics","306","961884","0.0-9.0-0.0-0.0-0.0-0.49","1172","","j","","","","","","","","","","","","","key","j","19.541399999998976","958","455","f","false","img/H_ambi40.png","生人","same",""
"","","","","","html-keyboard-response","307","962386","0.0-9.0-0.0-0.0-0.0-1.49","null","<span style='color:red; font-size: 70px;'>错误! </span>","null","","","","","","","","","","","","","","","","","","","","","","","feedback_test"
"","","","","","psychophysics","308","964697","0.0-9.0-0.0-0.0-0.0-0.50","1303","","j","","","","","","","","","","","","","key","j","20.054902654867497","958","455","j","true","img/S_ambi40.png","朋友","same",""
"","","","","","html-keyboard-response","309","965203","0.0-9.0-0.0-0.0-0.0-1.50","null","<span style='color:GreenYellow; font-size: 70px;'>正确! </span>","null","","","","","","","","","","","","","","","","","","","","","","","feedback_test"
"","","","","","psychophysics","310","967557","0.0-9.0-0.0-0.0-0.0-0.51","1347","","j","","","","","","","","","","","","","key","j","19.796735042734987","958","455","j","true","img/C_ambi40.png","生人","same",""
"","","","","","html-keyboard-response","311","968066","0.0-9.0-0.0-0.0-0.0-1.51","null","<span style='color:GreenYellow; font-size: 70px;'>正确! </span>","null","","","","","","","","","","","","","","","","","","","","","","","feedback_test"
"","","","","","psychophysics","312","970570","0.0-9.0-0.0-0.0-0.0-0.52","null","","null","","","","","","","","","","","","","key","null","19.729479999999516","958","455","j","false","img/H_ambi40.png","朋友","same",""
"","","","","","html-keyboard-response","313","971074","0.0-9.0-0.0-0.0-0.0-1.52","null","<span class='add_' style='color:yellow; font-size: 70px;'> 太慢! </span>","null","","","","","","","","","","","","","","","","","","","","","","","feedback_test"
"","","","","","psychophysics","314","972778","0.0-9.0-0.0-0.0-0.0-0.53","702","","j","","","","","","","","","","","","","key","j","20.777962962963134","958","455","j","true","img/T_ambi40.png","をる","same",""
"","","","","","html-keyboard-response","315","973282","0.0-9.0-0.0-0.0-0.0-1.53","null","<span style='color:GreenYellow; font-size: 70px;'>正确! </span>","null","","","","","","","","","","","","","","","","","","","","","","","feedback_test"
"","","","","","psychophysics","316","975133","0.0-9.0-0.0-0.0-0.0-0.54","842","","f","","","","","","","","","","","","","key","f","20.366499999999846","958","455","f","true","img/C_ambi40.png","朋友","same",""
"","","","","","html-keyboard-response","317","975633","0.0-9.0-0.0-0.0-0.0-1.54","null","<span style='color:GreenYellow; font-size: 70px;'>正确! </span>","null","","","","","","","","","","","","","","","","","","","","","","","feedback_test"
"","","","","","psychophysics","318","977252","0.0-9.0-0.0-0.0-0.0-0.55","610","","f","","","","","","","","","","","","","key","f","20.558896103896526","958","455","f","true","img/C_ambi40.png","朋友","same",""
"","","","","","html-keyboard-response","319","977754","0.0-9.0-0.0-0.0-0.0-1.55","null","<span style='color:GreenYellow; font-size: 70px;'>正确! </span>","null","","","","","","","","","","","","","","","","","","","","","","","feedback_test"
"","","","","","psychophysics","320","979363","0.0-9.0-0.0-0.0-0.0-0.56","602","","j","","","","","","","","","","","","","key","j","20.61017105263186","958","455","j","true","img/T_ambi40.png","をる","same",""
"","","","","","html-keyboard-response","321","979866","0.0-9.0-0.0-0.0-0.0-1.56","null","<span style='color:GreenYellow; font-size: 70px;'>正确! </span>","null","","","","","","","","","","","","","","","","","","","","","","","feedback_test"
"","","","","","psychophysics","322","981980","0.0-9.0-0.0-0.0-0.0-0.57","1105","","j","","","","","","","","","","","","","key","j","21.47337113402078","958","455","j","true","img/H_ambi40.png","自我","same",""
"","","","","","html-keyboard-response","323","982483","0.0-9.0-0.0-0.0-0.0-1.57","null","<span style='color:GreenYellow; font-size: 70px;'>正确! </span>","null","","","","","","","","","","","","","","","","","","","","","","","feedback_test"
"","","","","","psychophysics","324","984357","0.0-9.0-0.0-0.0-0.0-0.58","867","","j","","","","","","","","","","","","","key","j","21.564529411764543","958","455","j","true","img/C_ambi40.png","生人","same",""
"","","","","","html-keyboard-response","325","984859","0.0-9.0-0.0-0.0-0.0-1.58","null","<span style='color:GreenYellow; font-size: 70px;'>正确! </span>","null","","","","","","","","","","","","","","","","","","","","","","","feedback_test"
"","","","","","psychophysics","326","986614","0.0-9.0-0.0-0.0-0.0-0.59","750","","f","","","","","","","","","","","","","key","f","21.394876543209705","958","455","f","true","img/S_ambi40.png","自我","same",""
"","","","","","html-keyboard-response","327","987122","0.0-9.0-0.0-0.0-0.0-1.59","null","<span style='color:GreenYellow; font-size: 70px;'>正确! </span>","null","","","","","","","","","","","","","","","","","","","","","","","feedback_test"
"","","","","","psychophysics","328","989046","0.0-9.0-0.0-0.0-0.0-0.60","923","","j","","","","","","","","","","","","","key","j","21.107066666667297","958","455","j","true","img/S_ambi40.png","朋友","same",""
"","","","","","html-keyboard-response","329","989555","0.0-9.0-0.0-0.0-0.0-1.60","null","<span style='color:GreenYellow; font-size: 70px;'>正确! </span>","null","","","","","","","","","","","","","","","","","","","","","","","feedback_test"
"","","","","","psychophysics","330","991207","0.0-9.0-0.0-0.0-0.0-0.61","645","","f","","","","","","","","","","","","","key","f","21.26752631578864","958","455","f","true","img/C_ambi40.png","朋友","same",""
"","","","","","html-keyboard-response","331","991714","0.0-9.0-0.0-0.0-0.0-1.61","null","<span style='color:GreenYellow; font-size: 70px;'>正确! </span>","null","","","","","","","","","","","","","","","","","","","","","","","feedback_test"
"","","","","","psychophysics","332","993570","0.0-9.0-0.0-0.0-0.0-0.62","849","","f","","","","","","","","","","","","","key","f","21.172470588235676","958","455","f","true","img/S_ambi40.png","自我","same",""
"","","","","","html-keyboard-response","333","994084","0.0-9.0-0.0-0.0-0.0-1.62","null","<span style='color:GreenYellow; font-size: 70px;'>正确! </span>","null","","","","","","","","","","","","","","","","","","","","","","","feedback_test"
"","","","","","psychophysics","334","996248","0.0-9.0-0.0-0.0-0.0-0.63","1157","","j","","","","","","","","","","","","","key","j","21.11770297029623","958","455","f","false","img/H_ambi40.png","生人","same",""
"","","","","","html-keyboard-response","335","996754","0.0-9.0-0.0-0.0-0.0-1.63","null","<span style='color:red; font-size: 70px;'>错误! </span>","null","","","","","","","","","","","","","","","","","","","","","","","feedback_test"
"","","","","","psychophysics","336","999018","0.0-9.0-0.0-0.0-0.0-0.64","1256","","f","","","","","","","","","","","","","key","f","21.47022115384663","958","455","j","false","img/S_ambi40.png","生人","same",""
"","","","","","html-keyboard-response","337","999522","0.0-9.0-0.0-0.0-0.0-1.64","null","<span style='color:red; font-size: 70px;'>错误! </span>","null","","","","","","","","","","","","","","","","","","","","","","","feedback_test"
"","","","","","psychophysics","338","1001541","0.0-9.0-0.0-0.0-0.0-0.65","1013","","j","","","","","","","","","","","","","key","j","21.32175268817152","958","455","j","true","img/H_ambi40.png","朋友","same",""
"","","","","","html-keyboard-response","339","1002043","0.0-9.0-0.0-0.0-0.0-1.65","null","<span style='color:GreenYellow; font-size: 70px;'>正确! </span>","null","","","","","","","","","","","","","","","","","","","","","","","feedback_test"
"","","","","","psychophysics","340","1004278","0.0-9.0-0.0-0.0-0.0-0.66","1234","","j","","","","","","","","","","","","","key","j","20.907915094340186","958","455","f","false","img/H_ambi40.png","生人","same",""
"","","","","","html-keyboard-response","341","1004786","0.0-9.0-0.0-0.0-0.0-1.66","null","<span style='color:red; font-size: 70px;'>错误! </span>","null","","","","","","","","","","","","","","","","","","","","","","","feedback_test"
"","","","","","psychophysics","342","1006912","0.0-9.0-0.0-0.0-0.0-0.67","1118","","f","","","","","","","","","","","","","key","f","20.58395098039296","958","455","f","true","img/S_ambi40.png","自我","same",""
"","","","","","html-keyboard-response","343","1007418","0.0-9.0-0.0-0.0-0.0-1.67","null","<span style='color:GreenYellow; font-size: 70px;'>正确! </span>","null","","","","","","","","","","","","","","","","","","","","","","","feedback_test"
"","","","","","psychophysics","344","1009098","0.0-9.0-0.0-0.0-0.0-0.68","671","","j","","","","","","","","","","","","","key","j","20.16080246913609","958","455","j","true","img/T_ambi40.png","をる","same",""
"","","","","","html-keyboard-response","345","1009602","0.0-9.0-0.0-0.0-0.0-1.68","null","<span style='color:GreenYellow; font-size: 70px;'>正确! </span>","null","","","","","","","","","","","","","","","","","","","","","","","feedback_test"
"","","","","","psychophysics","346","1011912","0.0-9.0-0.0-0.0-0.0-0.69","1305","","j","","","","","","","","","","","","","key","j","20.202283185840773","958","455","f","false","img/H_ambi40.png","生人","same",""
"","","","","","html-keyboard-response","347","1012419","0.0-9.0-0.0-0.0-0.0-1.69","null","<span style='color:red; font-size: 70px;'>错误! </span>","null","","","","","","","","","","","","","","","","","","","","","","","feedback_test"
"","","","","","psychophysics","348","1014422","0.0-9.0-0.0-0.0-0.0-0.70","995","","f","","","","","","","","","","","","","key","f","20.212724489796603","958","455","j","false","img/C_ambi40.png","自我","same",""
"","","","","","html-keyboard-response","349","1014930","0.0-9.0-0.0-0.0-0.0-1.70","null","<span style='color:red; font-size: 70px;'>错误! </span>","null","","","","","","","","","","","","","","","","","","","","","","","feedback_test"
"","","","","","psychophysics","350","1016558","0.0-9.0-0.0-0.0-0.0-0.71","620","","j","","","","","","","","","","","","","key","j","19.751629629629424","958","455","j","true","img/T_ambi40.png","をる","same",""
"","","","","","html-keyboard-response","351","1017066","0.0-9.0-0.0-0.0-0.0-1.71","null","<span style='color:GreenYellow; font-size: 70px;'>正确! </span>","null","","","","","","","","","","","","","","","","","","","","","","","feedback_test"
"","","","","","psychophysics","352","1018842","0.0-9.0-0.0-0.0-0.0-0.72","768","","f","","","","","","","","","","","","","key","f","19.644471910112443","958","455","j","false","img/C_ambi40.png","自我","same",""
"","","","","","html-keyboard-response","353","1019346","0.0-9.0-0.0-0.0-0.0-1.72","null","<span style='color:red; font-size: 70px;'>错误! </span>","null","","","","","","","","","","","","","","","","","","","","","","","feedback_test"
"","","","","","psychophysics","354","1021027","0.0-9.0-0.0-0.0-0.0-0.73","673","","j","","","","","","","","","","","","","key","j","19.405752941177173","958","455","j","true","img/S_ambi40.png","生人","same",""
"","","","","","html-keyboard-response","355","1021531","0.0-9.0-0.0-0.0-0.0-1.73","null","<span style='color:GreenYellow; font-size: 70px;'>正确! </span>","null","","","","","","","","","","","","","","","","","","","","","","","feedback_test"
"","","","","","psychophysics","356","1023128","0.0-9.0-0.0-0.0-0.0-0.74","596","","j","","","","","","","","","","","","","key","j","19.340777777777813","958","455","j","true","img/T_ambi40.png","をる","same",""
"","","","","","html-keyboard-response","357","1023635","0.0-9.0-0.0-0.0-0.0-1.74","null","<span style='color:GreenYellow; font-size: 70px;'>正确! </span>","null","","","","","","","","","","","","","","","","","","","","","","","feedback_test"
"","","","","","psychophysics","358","1025285","0.0-9.0-0.0-0.0-0.0-0.75","649","","j","","","","","","","","","","","","","key","j","19.712219512195144","958","455","j","true","img/T_ambi40.png","をる","same",""
"","","","","","html-keyboard-response","359","1025786","0.0-9.0-0.0-0.0-0.0-1.75","null","<span style='color:GreenYellow; font-size: 70px;'>正确! </span>","null","","","","","","","","","","","","","","","","","","","","","","","feedback_test"
"","","","","","psychophysics","360","1027439","0.0-9.0-0.0-0.0-0.0-0.76","649","","j","","","","","","","","","","","","","key","j","19.67531325301178","958","455","j","true","img/T_ambi40.png","をる","same",""
"","","","","","html-keyboard-response","361","1027946","0.0-9.0-0.0-0.0-0.0-1.76","null","<span style='color:GreenYellow; font-size: 70px;'>正确! </span>","null","","","","","","","","","","","","","","","","","","","","","","","feedback_test"
"","","","","","psychophysics","362","1030448","0.0-9.0-0.0-0.0-0.0-0.77","null","","null","","","","","","","","","","","","","key","null","19.396867187499993","958","455","f","false","img/H_ambi40.png","生人","same",""
"","","","","","html-keyboard-response","363","1030955","0.0-9.0-0.0-0.0-0.0-1.77","null","<span class='add_' style='color:yellow; font-size: 70px;'> 太慢! </span>","null","","","","","","","","","","","","","","","","","","","","","","","feedback_test"
"","","","","","psychophysics","364","1032977","0.0-9.0-0.0-0.0-0.0-0.78","1014","","f","","","","","","","","","","","","","key","f","19.468504950495223","958","455","j","false","img/S_ambi40.png","朋友","same",""
"","","","","","html-keyboard-response","365","1033495","0.0-9.0-0.0-0.0-0.0-1.78","null","<span style='color:red; font-size: 70px;'>错误! </span>","null","","","","","","","","","","","","","","","","","","","","","","","feedback_test"
"","","","","","psychophysics","366","1035934","0.0-9.0-0.0-0.0-0.0-0.79","1435","","j","","","","","","","","","","","","","key","j","19.485266129032805","958","455","j","true","img/H_ambi40.png","朋友","same",""
"","","","","","html-keyboard-response","367","1036442","0.0-9.0-0.0-0.0-0.0-1.79","null","<span style='color:GreenYellow; font-size: 70px;'>正确! </span>","null","","","","","","","","","","","","","","","","","","","","","","","feedback_test"
"","","","","","psychophysics","368","1038462","0.0-9.0-0.0-0.0-0.0-0.80","1017","","f","","","","","","","","","","","","","key","f","19.227307692307825","958","455","f","true","img/S_ambi40.png","自我","same",""
"","","","","","html-keyboard-response","369","1038970","0.0-9.0-0.0-0.0-0.0-1.80","null","<span style='color:GreenYellow; font-size: 70px;'>正确! </span>","null","","","","","","","","","","","","","","","","","","","","","","","feedback_test"
"","","","","","psychophysics","370","1040720","0.0-9.0-0.0-0.0-0.0-0.81","742","","f","","","","","","","","","","","","","key","f","19.72767816091909","958","455","f","true","img/S_ambi40.png","自我","same",""
"","","","","","html-keyboard-response","371","1041225","0.0-9.0-0.0-0.0-0.0-1.81","null","<span style='color:GreenYellow; font-size: 70px;'>正确! </span>","null","","","","","","","","","","","","","","","","","","","","","","","feedback_test"
"","","","","","psychophysics","372","1042765","0.0-9.0-0.0-0.0-0.0-0.82","532","","f","","","","","","","","","","","","","key","f","19.69331168831181","958","455","f","true","img/C_ambi40.png","朋友","same",""
"","","","","","html-keyboard-response","373","1043273","0.0-9.0-0.0-0.0-0.0-1.82","null","<span style='color:GreenYellow; font-size: 70px;'>正确! </span>","null","","","","","","","","","","","","","","","","","","","","","","","feedback_test"
"","","","","","psychophysics","374","1044936","0.0-9.0-0.0-0.0-0.0-0.83","655","","f","","","","","","","","","","","","","key","f","20.412912500000676","958","455","f","true","img/S_ambi40.png","自我","same",""
"","","","","","html-keyboard-response","375","1045442","0.0-9.0-0.0-0.0-0.0-1.83","null","<span style='color:GreenYellow; font-size: 70px;'>正确! </span>","null","","","","","","","","","","","","","","","","","","","","","","","feedback_test"
"","","","","","psychophysics","376","1047609","0.0-9.0-0.0-0.0-0.0-0.84","1164","","f","","","","","","","","","","","","","key","f","19.93384112149616","958","455","f","true","img/H_ambi40.png","生人","same",""
"","","","","","html-keyboard-response","377","1048113","0.0-9.0-0.0-0.0-0.0-1.84","null","<span style='color:GreenYellow; font-size: 70px;'>正确! </span>","null","","","","","","","","","","","","","","","","","","","","","","","feedback_test"
"","","","","","psychophysics","378","1050179","0.0-9.0-0.0-0.0-0.0-0.85","1061","","f","","","","","","","","","","","","","key","f","19.707961538461788","958","455","j","false","img/H_ambi40.png","自我","same",""
"","","","","","html-keyboard-response","379","1050681","0.0-9.0-0.0-0.0-0.0-1.85","null","<span style='color:red; font-size: 70px;'>错误! </span>","null","","","","","","","","","","","","","","","","","","","","","","","feedback_test"
"","","","","","psychophysics","380","1052817","0.0-9.0-0.0-0.0-0.0-0.86","1133","","f","","","","","","","","","","","","","key","f","20.546407766990562","958","455","f","true","img/H_ambi40.png","生人","same",""
"","","","","","html-keyboard-response","381","1053321","0.0-9.0-0.0-0.0-0.0-1.86","null","<span style='color:GreenYellow; font-size: 70px;'>正确! </span>","null","","","","","","","","","","","","","","","","","","","","","","","feedback_test"
"","","","","","psychophysics","382","1055241","0.0-9.0-0.0-0.0-0.0-0.87","916","","f","","","","","","","","","","","","","key","f","20.03137234042577","958","455","f","true","img/C_ambi40.png","朋友","same",""
"","","","","","html-keyboard-response","383","1055746","0.0-9.0-0.0-0.0-0.0-1.87","null","<span style='color:GreenYellow; font-size: 70px;'>正确! </span>","null","","","","","","","","","","","","","","","","","","","","","","","feedback_test"
"","","","","","psychophysics","384","1057810","0.0-9.0-0.0-0.0-0.0-0.88","1062","","j","","","","","","","","","","","","","key","j","20.95819587628933","958","455","j","true","img/C_ambi40.png","生人","same",""
"","","","","","html-keyboard-response","385","1058313","0.0-9.0-0.0-0.0-0.0-1.88","null","<span style='color:GreenYellow; font-size: 70px;'>正确! </span>","null","","","","","","","","","","","","","","","","","","","","","","","feedback_test"
"","","","","","psychophysics","386","1060552","0.0-9.0-0.0-0.0-0.0-0.89","1237","","f","","","","","","","","","","","","","key","f","20.90815094339591","958","455","f","true","img/C_ambi40.png","朋友","same",""
"","","","","","html-keyboard-response","387","1061058","0.0-9.0-0.0-0.0-0.0-1.89","null","<span style='color:GreenYellow; font-size: 70px;'>正确! </span>","null","","","","","","","","","","","","","","","","","","","","","","","feedback_test"
"","","","","","psychophysics","388","1062698","0.0-9.0-0.0-0.0-0.0-0.90","633","","j","","","","","","","","","","","","","key","j","21.329306666667883","958","455","j","true","img/T_ambi40.png","をる","same",""
"","","","","","html-keyboard-response","389","1063202","0.0-9.0-0.0-0.0-0.0-1.90","null","<span style='color:GreenYellow; font-size: 70px;'>正确! </span>","null","","","","","","","","","","","","","","","","","","","","","","","feedback_test"
"","","","","","psychophysics","390","1065409","0.0-9.0-0.0-0.0-0.0-0.91","1200","","j","","","","","","","","","","","","","key","j","21.448000000001365","958","455","j","true","img/H_ambi40.png","朋友","same",""
"","","","","","html-keyboard-response","391","1065913","0.0-9.0-0.0-0.0-0.0-1.91","null","<span style='color:GreenYellow; font-size: 70px;'>正确! </span>","null","","","","","","","","","","","","","","","","","","","","","","","feedback_test"
"","","","","","psychophysics","392","1068025","0.0-9.0-0.0-0.0-0.0-0.92","1104","","f","","","","","","","","","","","","","key","f","21.30174226804214","958","455","j","false","img/H_ambi40.png","自我","same",""
"","","","","","html-keyboard-response","393","1068529","0.0-9.0-0.0-0.0-0.0-1.92","null","<span style='color:red; font-size: 70px;'>错误! </span>","null","","","","","","","","","","","","","","","","","","","","","","","feedback_test"
"","","","","","psychophysics","394","1070223","0.0-9.0-0.0-0.0-0.0-0.93","685","","f","","","","","","","","","","","","","key","f","20.366530864197692","958","455","f","true","img/C_ambi40.png","朋友","same",""
"","","","","","html-keyboard-response","395","1070729","0.0-9.0-0.0-0.0-0.0-1.93","null","<span style='color:GreenYellow; font-size: 70px;'>正确! </span>","null","","","","","","","","","","","","","","","","","","","","","","","feedback_test"
"","","","","","psychophysics","396","1073116","0.0-9.0-0.0-0.0-0.0-0.94","1378","","j","","","","","","","","","","","","","key","j","21.167054054052528","958","455","f","false","img/H_ambi40.png","生人","same",""
"","","","","","html-keyboard-response","397","1073618","0.0-9.0-0.0-0.0-0.0-1.94","null","<span style='color:red; font-size: 70px;'>错误! </span>","null","","","","","","","","","","","","","","","","","","","","","","","feedback_test"
"","","","","","psychophysics","398","1075336","0.0-9.0-0.0-0.0-0.0-0.95","711","","j","","","","","","","","","","","","","key","j","20.524585365854406","958","455","j","true","img/T_ambi40.png","をる","same",""
"","","","","","html-keyboard-response","399","1075841","0.0-9.0-0.0-0.0-0.0-1.95","null","<span style='color:GreenYellow; font-size: 70px;'>正确! </span>","null","","","","","","","","","","","","","","","","","","","","","","","feedback_test"
"","","","","","psychophysics","400","1077586","0.0-9.0-0.0-0.0-0.0-0.96","741","","f","","","","","","","","","","","","","key","f","20.4780602409639","958","455","f","true","img/C_ambi40.png","朋友","same",""
"","","","","","html-keyboard-response","401","1078089","0.0-9.0-0.0-0.0-0.0-1.96","null","<span style='color:GreenYellow; font-size: 70px;'>正确! </span>","null","","","","","","","","","","","","","","","","","","","","","","","feedback_test"
"","","","","","psychophysics","402","1080284","0.0-9.0-0.0-0.0-0.0-0.97","1187","","j","","","","","","","","","","","","","key","j","21.447990099009644","958","455","j","true","img/T_ambi40.png","をる","same",""
"","","","","","html-keyboard-response","403","1080785","0.0-9.0-0.0-0.0-0.0-1.97","null","<span style='color:GreenYellow; font-size: 70px;'>正确! </span>","null","","","","","","","","","","","","","","","","","","","","","","","feedback_test"
"","","","","","psychophysics","404","1082841","0.0-9.0-0.0-0.0-0.0-0.98","1055","","j","","","","","","","","","","","","","key","j","21.17645833333275","958","455","j","true","img/C_ambi40.png","自我","same",""
"","","","","","html-keyboard-response","405","1083345","0.0-9.0-0.0-0.0-0.0-1.98","null","<span style='color:GreenYellow; font-size: 70px;'>正确! </span>","null","","","","","","","","","","","","","","","","","","","","","","","feedback_test"
"","","","","","psychophysics","406","1085414","0.0-9.0-0.0-0.0-0.0-0.99","1060","","j","","","","","","","","","","","","","key","j","20.329429999999704","958","455","j","true","img/S_ambi40.png","生人","same",""
"","","","","","html-keyboard-response","407","1085922","0.0-9.0-0.0-0.0-0.0-1.99","null","<span style='color:GreenYellow; font-size: 70px;'>正确! </span>","null","","","","","","","","","","","","","","","","","","","","","","","feedback_test"
"","","","","","psychophysics","408","1087714","0.0-9.0-0.0-0.0-0.0-0.100","789","","f","","","","","","","","","","","","","key","f","21.027749999997294","958","455","f","true","img/C_ambi40.png","朋友","same",""
"","","","","","html-keyboard-response","409","1088217","0.0-9.0-0.0-0.0-0.0-1.100","null","<span style='color:GreenYellow; font-size: 70px;'>正确! </span>","null","","","","","","","","","","","","","","","","","","","","","","","feedback_test"
"","","","","","psychophysics","410","1090600","0.0-9.0-0.0-0.0-0.0-0.101","1375","","f","","","","","","","","","","","","","key","f","20.792407079645127","958","455","f","true","img/S_ambi40.png","自我","same",""
"","","","","","html-keyboard-response","411","1091105","0.0-9.0-0.0-0.0-0.0-1.101","null","<span style='color:GreenYellow; font-size: 70px;'>正确! </span>","null","","","","","","","","","","","","","","","","","","","","","","","feedback_test"
"","","","","","psychophysics","412","1092818","0.0-9.0-0.0-0.0-0.0-0.102","705","","f","","","","","","","","","","","","","key","f","20.035857142858383","958","455","f","true","img/S_ambi40.png","自我","same",""
"","","","","","html-keyboard-response","413","1093329","0.0-9.0-0.0-0.0-0.0-1.102","null","<span style='color:GreenYellow; font-size: 70px;'>正确! </span>","null","","","","","","","","","","","","","","","","","","","","","","","feedback_test"
"","","","","","psychophysics","414","1095388","0.0-9.0-0.0-0.0-0.0-0.103","1054","","f","","","","","","","","","","","","","key","f","19.262547169809828","958","455","j","false","img/S_ambi40.png","朋友","same",""
"","","","","","html-keyboard-response","415","1095890","0.0-9.0-0.0-0.0-0.0-1.103","null","<span style='color:red; font-size: 70px;'>错误! </span>","null","","","","","","","","","","","","","","","","","","","","","","","feedback_test"
"","","","","","psychophysics","416","1098096","0.0-9.0-0.0-0.0-0.0-0.104","1199","","j","","","","","","","","","","","","","key","j","19.573045045045113","958","455","j","true","img/C_ambi40.png","生人","same",""
"","","","","","html-keyboard-response","417","1098602","0.0-9.0-0.0-0.0-0.0-1.104","null","<span style='color:GreenYellow; font-size: 70px;'>正确! </span>","null","","","","","","","","","","","","","","","","","","","","","","","feedback_test"
"","","","","","psychophysics","418","1100332","0.0-9.0-0.0-0.0-0.0-0.105","724","","f","","","","","","","","","","","","","key","f","19.5235402298845","958","455","f","true","img/S_ambi40.png","自我","same",""
"","","","","","html-keyboard-response","419","1100834","0.0-9.0-0.0-0.0-0.0-1.105","null","<span style='color:GreenYellow; font-size: 70px;'>正确! </span>","null","","","","","","","","","","","","","","","","","","","","","","","feedback_test"
"","","","","","psychophysics","420","1102505","0.0-9.0-0.0-0.0-0.0-0.106","669","","j","","","","","","","","","","","","","key","j","19.63734523809537","958","455","f","false","img/H_ambi40.png","生人","same",""
"","","","","","html-keyboard-response","421","1103010","0.0-9.0-0.0-0.0-0.0-1.106","null","<span style='color:red; font-size: 70px;'>错误! </span>","null","","","","","","","","","","","","","","","","","","","","","","","feedback_test"
"","","","","","psychophysics","422","1104745","0.0-9.0-0.0-0.0-0.0-0.107","726","","f","","","","","","","","","","","","","key","f","19.31154545454774","958","455","f","true","img/H_ambi40.png","生人","same",""
"","","","","","html-keyboard-response","423","1105250","0.0-9.0-0.0-0.0-0.0-1.107","null","<span style='color:GreenYellow; font-size: 70px;'>正确! </span>","null","","","","","","","","","","","","","","","","","","","","","","","feedback_test"
"","","","","","html-keyboard-response","424","1113481","0.0-9.0-0.0-0.0-1.0","8229","<style>.context{color:white; font-size: 35px; line-height:40px}</style>                          <div><p class='context'>您正确回答了73% 的试次。</p><p class='context'>您的平均反应时为883毫秒。</p><p class='context'>请按任意键进入休息</p></div>"," ","","","","","","","","","","","","","","","","","","","","","","",""
"","","","","","html-button-response","425","1148023","0.0-9.0-0.0-0.0-2.0","34538","
                    <p>您当前还剩余5组实验</p>
                    <p>现在是休息时间，当您结束休息后，您可以点击 结束休息 按钮 继续</p>
                    <p>建议休息时间还剩余<span id=""iii"">60</span>秒</p>","0","","","","","","","","","","","","","","","","","","","","","","",""
"","","","","","psychophysics","426","1150530","0.0-9.0-0.0-0.0-0.1-0.108","null","","null","","","","","","","","","","","","","key","null","21.403551724137223","958","455","j","false","img/C_ambi40.png","生人","same",""
"","","","","","html-keyboard-response","427","1151034","0.0-9.0-0.0-0.0-0.1-1.108","null","<span class='add_' style='color:yellow; font-size: 70px;'> 太慢! </span>","null","","","","","","","","","","","","","","","","","","","","","","","feedback_test"
"","","","","","psychophysics","428","1152841","0.0-9.0-0.0-0.0-0.1-0.109","802","","f","","","","","","","","","","","","","key","f","21.226059523810232","958","455","f","true","img/C_ambi40.png","朋友","same",""
"","","","","","html-keyboard-response","429","1153347","0.0-9.0-0.0-0.0-0.1-1.109","null","<span style='color:GreenYellow; font-size: 70px;'>正确! </span>","null","","","","","","","","","","","","","","","","","","","","","","","feedback_test"
"","","","","","psychophysics","430","1155246","0.0-9.0-0.0-0.0-0.1-0.110","891","","j","","","","","","","","","","","","","key","j","21.260298850574134","958","455","f","false","img/H_ambi40.png","生人","same",""
"","","","","","html-keyboard-response","431","1155747","0.0-9.0-0.0-0.0-0.1-1.110","null","<span style='color:red; font-size: 70px;'>错误! </span>","null","","","","","","","","","","","","","","","","","","","","","","","feedback_test"
"","","","","","psychophysics","432","1157505","0.0-9.0-0.0-0.0-0.1-0.111","751","","j","","","","","","","","","","","","","key","j","20.879578313251667","958","455","j","true","img/T_ambi40.png","をる","same",""
"","","","","","html-keyboard-response","433","1158011","0.0-9.0-0.0-0.0-0.1-1.111","null","<span style='color:GreenYellow; font-size: 70px;'>正确! </span>","null","","","","","","","","","","","","","","","","","","","","","","","feedback_test"
"","","","","","psychophysics","434","1159661","0.0-9.0-0.0-0.0-0.1-0.112","649","","f","","","","","","","","","","","","","key","f","20.936243589743615","958","455","f","true","img/C_ambi40.png","朋友","same",""
"","","","","","html-keyboard-response","435","1160163","0.0-9.0-0.0-0.0-0.1-1.112","null","<span style='color:GreenYellow; font-size: 70px;'>正确! </span>","null","","","","","","","","","","","","","","","","","","","","","","","feedback_test"
"","","","","","psychophysics","436","1162289","0.0-9.0-0.0-0.0-0.1-0.113","1119","","j","","","","","","","","","","","","","key","j","20.222485436892896","958","455","j","true","img/S_ambi40.png","朋友","same",""
"","","","","","html-keyboard-response","437","1162794","0.0-9.0-0.0-0.0-0.1-1.113","null","<span style='color:GreenYellow; font-size: 70px;'>正确! </span>","null","","","","","","","","","","","","","","","","","","","","","","","feedback_test"
"","","","","","psychophysics","438","1164464","0.0-9.0-0.0-0.0-0.1-0.114","662","","f","","","","","","","","","","","","","key","f","20.671240506331213","958","455","f","true","img/S_ambi40.png","自我","same",""
"","","","","","html-keyboard-response","439","1164972","0.0-9.0-0.0-0.0-0.1-1.114","null","<span style='color:GreenYellow; font-size: 70px;'>正确! </span>","null","","","","","","","","","","","","","","","","","","","","","","","feedback_test"
"","","","","","psychophysics","440","1166807","0.0-9.0-0.0-0.0-0.1-0.115","831","","f","","","","","","","","","","","","","key","f","20.181000000000413","958","455","f","true","img/C_ambi40.png","朋友","same",""
"","","","","","html-keyboard-response","441","1167315","0.0-9.0-0.0-0.0-0.1-1.115","null","<span style='color:GreenYellow; font-size: 70px;'>正确! </span>","null","","","","","","","","","","","","","","","","","","","","","","","feedback_test"
"","","","","","psychophysics","442","1169263","0.0-9.0-0.0-0.0-0.1-0.116","944","","j","","","","","","","","","","","","","key","j","21.058252747252503","958","455","j","true","img/H_ambi40.png","朋友","same",""
