"success","timeout","failed_images","failed_audio","failed_video","trial_type","trial_index","time_elapsed","internal_node_id","rt","stimulus","response","value","item_width_mm","item_height_mm","item_width_px","px2mm","view_dist_mm","item_width_deg","px2deg","scale_factor","win_width_deg","win_height_deg","view_history","response_type","key_press","avg_frame_time","center_x","center_y","correct_response","correct","Image","word","condition","screen_id"
"true","false","[]","[]","[]","preload","0","1178","0.0-0.0","","","","","","","","","","","","","","","","","","","","","","","","","",""
"","","","","","html-keyboard-response","1","39773","0.0-1.0","38595","
     <p>您好，欢迎参加本次实验。</p>
     <p>为充分保障您的权利，请确保您已经知晓并同意《参与实验同意书》以及《数据公开知情同意书》。</p>
     <p>如果您未见过上述内容，请咨询实验员。</p>
     <p>如果您选择继续实验，则表示您已经清楚两份知情同意书的内容并同意。</p>
     <p> <div style = ""color: green""><按任意键至下页></div> </p>
     ","arrowdown","","","","","","","","","","","","","","","","","","","","","","",""
"","","","","","html-keyboard-response","2","41450","0.0-2.0","1677","
     <p>本实验首先需要您填写一些基本个人信息。</p>
     <p> <div style = ""color: green""><按任意键至下页></div></p>
     ","arrowdown","","","","","","","","","","","","","","","","","","","","","","",""
"","","","","","call-function","3","41450","0.0-3.0-0.0","","","","","","","","","","","","","","","","","","","","","","","","","",""
"","","","","","survey-html-form","4","44596","0.0-3.0-1.0","3143","","{""Q0"":""3""}","","","","","","","","","","","","","","","","","","","","","","",""
"","","","","","html-button-response","5","47009","0.0-3.0-2.0","2412","<p style = 'color : white'>您的性别</p>","0","","","","","","","","","","","","","","","","","","","","","","",""
"","","","","","survey-html-form","6","53301","0.0-3.0-3.0","6292","","{""Q0"":""2002""}","","","","","","","","","","","","","","","","","","","","","","",""
"","","","","","survey-html-form","7","57084","0.0-3.0-4.0","3782","","{""Q0"":""5""}","","","","","","","","","","","","","","","","","","","","","","",""
"","","","","","virtual-chinrest","8","166349","0.0-4.0","109263","","","","85.6","53.98","301.6453002819545","3.5218273278992593","812.21","6.03290600563909","50","1.2663880380133097","29.58","14.44","","","","","","","","","","","",""
"true","","","","","fullscreen","9","169039","0.0-5.0","","","","","","","","","","","","","","","","","","","","","","","","","",""
"","","","","","instructions","10","231145","0.0-6.0","62106","","","","","","","","","","","","","","[{""page_index"":0,""viewing_time"":4860},{""page_index"":1,""viewing_time"":29575},{""page_index"":2,""viewing_time"":20838},{""page_index"":3,""viewing_time"":6832}]","","","","","","","","","","",""
"","","","","","psychophysics","11","233654","0.0-7.0-0.0","null","","null","","","","","","","","","","","","","key","null","7.043000000000011","768","428","j","false","img/S_ambi40.png","生人","prac",""
"","","","","","html-keyboard-response","12","234155","0.0-7.0-1.0","null","<span class='add_' style='color:yellow; font-size: 70px;'> 太慢! </span>","null","","","","","","","","","","","","","","","","","","","","","","","feedback_test"
"","","","","","psychophysics","13","236231","0.0-7.0-0.1","1074","","f","","","","","","","","","","","","","key","f","7.015172881355916","768","428","f","true","img/S_ambi40.png","自我","prac",""
"","","","","","html-keyboard-response","14","236731","0.0-7.0-1.1","null","<span style='color:GreenYellow; font-size: 70px;'>正确! </span>","null","","","","","","","","","","","","","","","","","","","","","","","feedback_test"
"","","","","","psychophysics","15","238515","0.0-7.0-0.2","783","","j","","","","","","","","","","","","","key","j","6.999405511811089","768","428","j","true","img/C_ambi40.png","朋友","prac",""
"","","","","","html-keyboard-response","16","239016","0.0-7.0-1.2","null","<span style='color:GreenYellow; font-size: 70px;'>正确! </span>","null","","","","","","","","","","","","","","","","","","","","","","","feedback_test"
"","","","","","psychophysics","17","241032","0.0-7.0-0.3","1014","","f","","","","","","","","","","","","","key","f","6.993379790940787","768","428","j","false","img/S_ambi40.png","生人","prac",""
"","","","","","html-keyboard-response","18","241533","0.0-7.0-1.3","null","<span style='color:red; font-size: 70px;'>错误! </span>","null","","","","","","","","","","","","","","","","","","","","","","","feedback_test"
"","","","","","psychophysics","19","243849","0.0-7.0-0.4","1314","","j","","","","","","","","","","","","","key","j","6.944729729729733","768","428","f","false","img/C_ambi40.png","生人","prac",""
"","","","","","html-keyboard-response","20","244350","0.0-7.0-1.4","null","<span style='color:red; font-size: 70px;'>错误! </span>","null","","","","","","","","","","","","","","","","","","","","","","","feedback_test"
"","","","","","psychophysics","21","246679","0.0-7.0-0.5","1327","","f","","","","","","","","","","","","","key","f","7.093449541284373","768","428","f","true","img/S_ambi40.png","朋友","prac",""
"","","","","","html-keyboard-response","22","247180","0.0-7.0-1.5","null","<span style='color:GreenYellow; font-size: 70px;'>正确! </span>","null","","","","","","","","","","","","","","","","","","","","","","","feedback_test"
"","","","","","psychophysics","23","248970","0.0-7.0-0.6","789","","f","","","","","","","","","","","","","key","f","6.943457031249977","768","428","f","true","img/T_ambi40.png","をる","prac",""
"","","","","","html-keyboard-response","24","249472","0.0-7.0-1.6","null","<span style='color:GreenYellow; font-size: 70px;'>正确! </span>","null","","","","","","","","","","","","","","","","","","","","","","","feedback_test"
"","","","","","psychophysics","25","251479","0.0-7.0-0.7","1007","","f","","","","","","","","","","","","","key","f","6.941487804878031","768","428","f","true","img/H_ambi40.png","生人","prac",""
"","","","","","html-keyboard-response","26","251980","0.0-7.0-1.7","null","<span style='color:GreenYellow; font-size: 70px;'>正确! </span>","null","","","","","","","","","","","","","","","","","","","","","","","feedback_test"
"","","","","","psychophysics","27","253690","0.0-7.0-0.8","707","","f","","","","","","","","","","","","","key","f","6.944934693877633","768","428","f","true","img/T_ambi40.png","をる","prac",""
"","","","","","html-keyboard-response","28","254191","0.0-7.0-1.8","null","<span style='color:GreenYellow; font-size: 70px;'>正确! </span>","null","","","","","","","","","","","","","","","","","","","","","","","feedback_test"
"","","","","","psychophysics","29","255831","0.0-7.0-0.9","638","","j","","","","","","","","","","","","","key","j","7.003965665236048","768","428","j","true","img/H_ambi40.png","自我","prac",""
"","","","","","html-keyboard-response","30","256332","0.0-7.0-1.9","null","<span style='color:GreenYellow; font-size: 70px;'>正确! </span>","null","","","","","","","","","","","","","","","","","","","","","","","feedback_test"
"","","","","","psychophysics","31","257952","0.0-7.0-0.10","618","","f","","","","","","","","","","","","","key","f","7.032789473684317","768","428","j","false","img/C_ambi40.png","朋友","prac",""
"","","","","","html-keyboard-response","32","258453","0.0-7.0-1.10","null","<span style='color:red; font-size: 70px;'>错误! </span>","null","","","","","","","","","","","","","","","","","","","","","","","feedback_test"
"","","","","","psychophysics","33","260069","0.0-7.0-0.11","613","","f","","","","","","","","","","","","","key","f","6.974769565217455","768","428","f","true","img/T_ambi40.png","をる","prac",""
"","","","","","html-keyboard-response","34","260571","0.0-7.0-1.11","null","<span style='color:GreenYellow; font-size: 70px;'>正确! </span>","null","","","","","","","","","","","","","","","","","","","","","","","feedback_test"
"","","","","","psychophysics","35","262410","0.0-7.0-0.12","838","","f","","","","","","","","","","","","","key","f","6.9709351145038525","768","428","f","true","img/H_ambi40.png","朋友","prac",""
"","","","","","html-keyboard-response","36","262911","0.0-7.0-1.12","null","<span style='color:GreenYellow; font-size: 70px;'>正确! </span>","null","","","","","","","","","","","","","","","","","","","","","","","feedback_test"
"","","","","","psychophysics","37","264493","0.0-7.0-0.13","579","","f","","","","","","","","","","","","","key","f","6.9451238938053015","768","428","f","true","img/T_ambi40.png","をる","prac",""
"","","","","","html-keyboard-response","38","264995","0.0-7.0-1.13","null","<span style='color:GreenYellow; font-size: 70px;'>正确! </span>","null","","","","","","","","","","","","","","","","","","","","","","","feedback_test"
"","","","","","psychophysics","39","266840","0.0-7.0-0.14","843","","j","","","","","","","","","","","","","key","j","7.051500000000054","768","428","f","false","img/C_ambi40.png","自我","prac",""
"","","","","","html-keyboard-response","40","267342","0.0-7.0-1.14","null","<span style='color:red; font-size: 70px;'>错误! </span>","null","","","","","","","","","","","","","","","","","","","","","","","feedback_test"
"","","","","","psychophysics","41","268979","0.0-7.0-0.15","636","","j","","","","","","","","","","","","","key","j","6.974261802575219","768","428","j","true","img/H_ambi40.png","自我","prac",""
"","","","","","html-keyboard-response","42","269480","0.0-7.0-1.15","null","<span style='color:GreenYellow; font-size: 70px;'>正确! </span>","null","","","","","","","","","","","","","","","","","","","","","","","feedback_test"
"","","","","","psychophysics","43","271030","0.0-7.0-0.16","549","","f","","","","","","","","","","","","","key","f","6.975737556560983","768","428","f","true","img/T_ambi40.png","をる","prac",""
"","","","","","html-keyboard-response","44","271531","0.0-7.0-1.16","null","<span style='color:GreenYellow; font-size: 70px;'>正确! </span>","null","","","","","","","","","","","","","","","","","","","","","","","feedback_test"
"","","","","","psychophysics","45","273068","0.0-7.0-0.17","534","","f","","","","","","","","","","","","","key","f","7.008449541284423","768","428","f","true","img/T_ambi40.png","をる","prac",""
"","","","","","html-keyboard-response","46","273569","0.0-7.0-1.17","null","<span style='color:GreenYellow; font-size: 70px;'>正确! </span>","null","","","","","","","","","","","","","","","","","","","","","","","feedback_test"
"","","","","","psychophysics","47","275384","0.0-7.0-0.18","814","","f","","","","","","","","","","","","","key","f","6.994717054263519","768","428","f","true","img/C_ambi40.png","自我","prac",""
"","","","","","html-keyboard-response","48","275885","0.0-7.0-1.18","null","<span style='color:GreenYellow; font-size: 70px;'>正确! </span>","null","","","","","","","","","","","","","","","","","","","","","","","feedback_test"
"","","","","","psychophysics","49","277646","0.0-7.0-0.19","760","","f","","","","","","","","","","","","","key","f","7.028132530120501","768","428","j","false","img/C_ambi40.png","朋友","prac",""
"","","","","","html-keyboard-response","50","278148","0.0-7.0-1.19","null","<span style='color:red; font-size: 70px;'>错误! </span>","null","","","","","","","","","","","","","","","","","","","","","","","feedback_test"
"","","","","","psychophysics","51","279768","0.0-7.0-0.20","618","","j","","","","","","","","","","","","","key","j","6.974757575757551","768","428","j","true","img/C_ambi40.png","朋友","prac",""
"","","","","","html-keyboard-response","52","280269","0.0-7.0-1.20","null","<span style='color:GreenYellow; font-size: 70px;'>正确! </span>","null","","","","","","","","","","","","","","","","","","","","","","","feedback_test"
"","","","","","psychophysics","53","282163","0.0-7.0-0.21","893","","j","","","","","","","","","","","","","key","j","6.99599999999994","768","428","j","true","img/S_ambi40.png","生人","prac",""
"","","","","","html-keyboard-response","54","282664","0.0-7.0-1.21","null","<span style='color:GreenYellow; font-size: 70px;'>正确! </span>","null","","","","","","","","","","","","","","","","","","","","","","","feedback_test"
"","","","","","psychophysics","55","284302","0.0-7.0-0.22","636","","j","","","","","","","","","","","","","key","j","7.004270386266074","768","428","j","true","img/H_ambi40.png","自我","prac",""
"","","","","","html-keyboard-response","56","284803","0.0-7.0-1.22","null","<span style='color:GreenYellow; font-size: 70px;'>正确! </span>","null","","","","","","","","","","","","","","","","","","","","","","","feedback_test"
"","","","","","psychophysics","57","286281","0.0-7.0-0.23","477","","f","","","","","","","","","","","","","key","f","6.944698113207607","768","428","f","true","img/T_ambi40.png","をる","prac",""
"","","","","","html-keyboard-response","58","286784","0.0-7.0-1.23","null","<span style='color:GreenYellow; font-size: 70px;'>正确! </span>","null","","","","","","","","","","","","","","","","","","","","","","","feedback_test"
"","","","","","psychophysics","59","288968","0.0-7.0-0.24","1182","","f","","","","","","","","","","","","","key","f","7.126052287581652","768","428","f","true","img/S_ambi40.png","朋友","prac",""
"","","","","","html-keyboard-response","60","289469","0.0-7.0-1.24","null","<span style='color:GreenYellow; font-size: 70px;'>正确! </span>","null","","","","","","","","","","","","","","","","","","","","","","","feedback_test"
"","","","","","psychophysics","61","291264","0.0-7.0-0.25","794","","f","","","","","","","","","","","","","key","f","6.9991490196078265","768","428","f","true","img/C_ambi40.png","生人","prac",""
"","","","","","html-keyboard-response","62","291765","0.0-7.0-1.25","null","<span style='color:GreenYellow; font-size: 70px;'>正确! </span>","null","","","","","","","","","","","","","","","","","","","","","","","feedback_test"
"","","","","","psychophysics","63","293562","0.0-7.0-0.26","797","","f","","","","","","","","","","","","","key","f","6.972039062500016","768","428","f","true","img/S_ambi40.png","自我","prac",""
"","","","","","html-keyboard-response","64","294063","0.0-7.0-1.26","null","<span style='color:GreenYellow; font-size: 70px;'>正确! </span>","null","","","","","","","","","","","","","","","","","","","","","","","feedback_test"
"","","","","","psychophysics","65","295950","0.0-7.0-0.27","886","","j","","","","","","","","","","","","","key","j","6.9436851851851245","768","428","j","true","img/S_ambi40.png","生人","prac",""
"","","","","","html-keyboard-response","66","296452","0.0-7.0-1.27","null","<span style='color:GreenYellow; font-size: 70px;'>正确! </span>","null","","","","","","","","","","","","","","","","","","","","","","","feedback_test"
"","","","","","psychophysics","67","298060","0.0-7.0-0.28","607","","j","","","","","","","","","","","","","key","j","6.941508695652263","768","428","j","true","img/H_ambi40.png","自我","prac",""
"","","","","","html-keyboard-response","68","298563","0.0-7.0-1.28","null","<span style='color:GreenYellow; font-size: 70px;'>正确! </span>","null","","","","","","","","","","","","","","","","","","","","","","","feedback_test"
"","","","","","psychophysics","69","300312","0.0-7.0-0.29","748","","f","","","","","","","","","","","","","key","f","7.053296747967379","768","428","f","true","img/H_ambi40.png","朋友","prac",""
"","","","","","html-keyboard-response","70","300814","0.0-7.0-1.29","null","<span style='color:GreenYellow; font-size: 70px;'>正确! </span>","null","","","","","","","","","","","","","","","","","","","","","","","feedback_test"
"","","","","","psychophysics","71","302549","0.0-7.0-0.30","734","","f","","","","","","","","","","","","","key","f","6.9447822580644445","768","428","f","true","img/H_ambi40.png","生人","prac",""
"","","","","","html-keyboard-response","72","303050","0.0-7.0-1.30","null","<span style='color:GreenYellow; font-size: 70px;'>正确! </span>","null","","","","","","","","","","","","","","","","","","","","","","","feedback_test"
"","","","","","psychophysics","73","304646","0.0-7.0-0.31","595","","f","","","","","","","","","","","","","key","f","6.944850877192884","768","428","f","true","img/T_ambi40.png","をる","prac",""
"","","","","","html-keyboard-response","74","305146","0.0-7.0-1.31","null","<span style='color:GreenYellow; font-size: 70px;'>正确! </span>","null","","","","","","","","","","","","","","","","","","","","","","","feedback_test"
"","","","","","psychophysics","75","306896","0.0-8.0-0.0-0.0","748","","f","","","","","","","","","","","","","key","f","6.940988000000129","768","428","f","true","img/T_ambi40.png","をる","prac",""
"","","","","","html-keyboard-response","76","307398","0.0-8.0-0.0-1.0","null","<span style='color:GreenYellow; font-size: 70px;'>正确! </span>","null","","","","","","","","","","","","","","","","","","","","","","","feedback_test"
"","","","","","psychophysics","77","309091","0.0-8.0-0.0-0.1","692","","j","","","","","","","","","","","","","key","j","6.973585062240505","768","428","j","true","img/H_ambi40.png","自我","prac",""
"","","","","","html-keyboard-response","78","309593","0.0-8.0-0.0-1.1","null","<span style='color:GreenYellow; font-size: 70px;'>正确! </span>","null","","","","","","","","","","","","","","","","","","","","","","","feedback_test"
"","","","","","psychophysics","79","311319","0.0-8.0-0.0-0.2","723","","f","","","","","","","","","","","","","key","f","7.117481327800928","768","428","f","true","img/C_ambi40.png","自我","prac",""
"","","","","","html-keyboard-response","80","311820","0.0-8.0-0.0-1.2","null","<span style='color:GreenYellow; font-size: 70px;'>正确! </span>","null","","","","","","","","","","","","","","","","","","","","","","","feedback_test"
"","","","","","psychophysics","81","313570","0.0-8.0-0.0-0.3","749","","f","","","","","","","","","","","","","key","f","7.0005381526102886","768","428","f","true","img/C_ambi40.png","生人","prac",""
"","","","","","html-keyboard-response","82","314071","0.0-8.0-0.0-1.3","null","<span style='color:GreenYellow; font-size: 70px;'>正确! </span>","null","","","","","","","","","","","","","","","","","","","","","","","feedback_test"
"","","","","","psychophysics","83","315580","0.0-8.0-0.0-0.4","508","","f","","","","","","","","","","","","","key","f","7.00962149532687","768","428","f","true","img/T_ambi40.png","をる","prac",""
"","","","","","html-keyboard-response","84","316081","0.0-8.0-0.0-1.4","null","<span style='color:GreenYellow; font-size: 70px;'>正确! </span>","null","","","","","","","","","","","","","","","","","","","","","","","feedback_test"
"","","","","","psychophysics","85","317892","0.0-8.0-0.0-0.5","810","","f","","","","","","","","","","","","","key","f","6.9448384615384455","768","428","f","true","img/S_ambi40.png","朋友","prac",""
"","","","","","html-keyboard-response","86","318392","0.0-8.0-0.0-1.5","null","<span style='color:GreenYellow; font-size: 70px;'>正确! </span>","null","","","","","","","","","","","","","","","","","","","","","","","feedback_test"
"","","","","","psychophysics","87","319960","0.0-8.0-0.0-0.6","565","","f","","","","","","","","","","","","","key","f","7.039570135746585","768","428","f","true","img/T_ambi40.png","をる","prac",""
"","","","","","html-keyboard-response","88","320462","0.0-8.0-0.0-1.6","null","<span style='color:GreenYellow; font-size: 70px;'>正确! </span>","null","","","","","","","","","","","","","","","","","","","","","","","feedback_test"
"","","","","","psychophysics","89","322363","0.0-8.0-0.0-0.7","898","","j","","","","","","","","","","","","","key","j","6.995851851851869","768","428","j","true","img/S_ambi40.png","生人","prac",""
"","","","","","html-keyboard-response","90","322864","0.0-8.0-0.0-1.7","null","<span style='color:GreenYellow; font-size: 70px;'>正确! </span>","null","","","","","","","","","","","","","","","","","","","","","","","feedback_test"
"","","","","","psychophysics","91","324769","0.0-8.0-0.0-0.8","903","","j","","","","","","","","","","","","","key","j","6.944534798534826","768","428","j","true","img/S_ambi40.png","生人","prac",""
"","","","","","html-keyboard-response","92","325270","0.0-8.0-0.0-1.8","null","<span style='color:GreenYellow; font-size: 70px;'>正确! </span>","null","","","","","","","","","","","","","","","","","","","","","","","feedback_test"
"","","","","","psychophysics","93","327591","0.0-8.0-0.0-0.9","1320","","j","","","","","","","","","","","","","key","j","6.944606606606618","768","428","j","true","img/C_ambi40.png","朋友","prac",""
"","","","","","html-keyboard-response","94","328092","0.0-8.0-0.0-1.9","null","<span style='color:GreenYellow; font-size: 70px;'>正确! </span>","null","","","","","","","","","","","","","","","","","","","","","","","feedback_test"
"","","","","","psychophysics","95","329737","0.0-8.0-0.0-0.10","644","","f","","","","","","","","","","","","","key","f","6.9448297872339335","768","428","f","true","img/H_ambi40.png","生人","prac",""
"","","","","","html-keyboard-response","96","330239","0.0-8.0-0.0-1.10","null","<span style='color:GreenYellow; font-size: 70px;'>正确! </span>","null","","","","","","","","","","","","","","","","","","","","","","","feedback_test"
"","","","","","psychophysics","97","331937","0.0-8.0-0.0-0.11","697","","j","","","","","","","","","","","","","key","j","7.002336099585161","768","428","j","true","img/H_ambi40.png","自我","prac",""
"","","","","","html-keyboard-response","98","332439","0.0-8.0-0.0-1.11","null","<span style='color:GreenYellow; font-size: 70px;'>正确! </span>","null","","","","","","","","","","","","","","","","","","","","","","","feedback_test"
"","","","","","psychophysics","99","334266","0.0-8.0-0.0-0.12","825","","f","","","","","","","","","","","","","key","f","6.9948803088803055","768","428","f","true","img/H_ambi40.png","朋友","prac",""
"","","","","","html-keyboard-response","100","334767","0.0-8.0-0.0-1.12","null","<span style='color:GreenYellow; font-size: 70px;'>正确! </span>","null","","","","","","","","","","","","","","","","","","","","","","","feedback_test"
"","","","","","psychophysics","101","336750","0.0-8.0-0.0-0.13","980","","j","","","","","","","","","","","","","key","j","6.945172535211281","768","428","j","true","img/C_ambi40.png","朋友","prac",""
"","","","","","html-keyboard-response","102","337251","0.0-8.0-0.0-1.13","null","<span style='color:GreenYellow; font-size: 70px;'>正确! </span>","null","","","","","","","","","","","","","","","","","","","","","","","feedback_test"
"","","","","","psychophysics","103","338956","0.0-8.0-0.0-0.14","703","","f","","","","","","","","","","","","","key","f","6.9717901234566275","768","428","f","true","img/S_ambi40.png","自我","prac",""
"","","","","","html-keyboard-response","104","339458","0.0-8.0-0.0-1.14","null","<span style='color:GreenYellow; font-size: 70px;'>正确! </span>","null","","","","","","","","","","","","","","","","","","","","","","","feedback_test"
"","","","","","psychophysics","105","340976","0.0-8.0-0.0-0.15","516","","f","","","","","","","","","","","","","key","f","6.976631336405547","768","428","f","true","img/T_ambi40.png","をる","prac",""
"","","","","","html-keyboard-response","106","341477","0.0-8.0-0.0-1.15","null","<span style='color:GreenYellow; font-size: 70px;'>正确! </span>","null","","","","","","","","","","","","","","","","","","","","","","","feedback_test"
"","","","","","psychophysics","107","343018","0.0-8.0-0.0-0.16","539","","f","","","","","","","","","","","","","key","f","7.072317972350361","768","428","f","true","img/T_ambi40.png","をる","prac",""
"","","","","","html-keyboard-response","108","343520","0.0-8.0-0.0-1.16","null","<span style='color:GreenYellow; font-size: 70px;'>正确! </span>","null","","","","","","","","","","","","","","","","","","","","","","","feedback_test"
"","","","","","psychophysics","109","344997","0.0-8.0-0.0-0.17","475","","f","","","","","","","","","","","","","key","f","6.94475943396249","768","428","f","true","img/T_ambi40.png","をる","prac",""
"","","","","","html-keyboard-response","110","345498","0.0-8.0-0.0-1.17","null","<span style='color:GreenYellow; font-size: 70px;'>正确! </span>","null","","","","","","","","","","","","","","","","","","","","","","","feedback_test"
"","","","","","psychophysics","111","347364","0.0-8.0-0.0-0.18","863","","j","","","","","","","","","","","","","key","j","6.945172284644102","768","428","j","true","img/S_ambi40.png","生人","prac",""
"","","","","","html-keyboard-response","112","347865","0.0-8.0-0.0-1.18","null","<span style='color:GreenYellow; font-size: 70px;'>正确! </span>","null","","","","","","","","","","","","","","","","","","","","","","","feedback_test"
"","","","","","psychophysics","113","349606","0.0-8.0-0.0-0.19","739","","f","","","","","","","","","","","","","key","f","6.972560483870996","768","428","f","true","img/C_ambi40.png","自我","prac",""
"","","","","","html-keyboard-response","114","350107","0.0-8.0-0.0-1.19","null","<span style='color:GreenYellow; font-size: 70px;'>正确! </span>","null","","","","","","","","","","","","","","","","","","","","","","","feedback_test"
"","","","","","psychophysics","115","351629","0.0-8.0-0.0-0.20","521","","j","","","","","","","","","","","","","key","j","6.944766055046017","768","428","j","true","img/H_ambi40.png","自我","prac",""
"","","","","","html-keyboard-response","116","352130","0.0-8.0-0.0-1.20","null","<span style='color:GreenYellow; font-size: 70px;'>正确! </span>","null","","","","","","","","","","","","","","","","","","","","","","","feedback_test"
"","","","","","psychophysics","117","353903","0.0-8.0-0.0-0.21","772","","j","","","","","","","","","","","","","key","j","7.11340485829959","768","428","j","true","img/C_ambi40.png","朋友","prac",""
"","","","","","html-keyboard-response","118","354404","0.0-8.0-0.0-1.21","null","<span style='color:GreenYellow; font-size: 70px;'>正确! </span>","null","","","","","","","","","","","","","","","","","","","","","","","feedback_test"
"","","","","","psychophysics","119","356287","0.0-8.0-0.0-0.22","882","","j","","","","","","","","","","","","","key","j","7.022190298507409","768","428","j","true","img/S_ambi40.png","生人","prac",""
"","","","","","html-keyboard-response","120","356789","0.0-8.0-0.0-1.22","null","<span style='color:GreenYellow; font-size: 70px;'>正确! </span>","null","","","","","","","","","","","","","","","","","","","","","","","feedback_test"
"","","","","","psychophysics","121","358328","0.0-8.0-0.0-0.23","537","","f","","","","","","","","","","","","","key","f","7.0410875576038086","768","428","f","true","img/T_ambi40.png","をる","prac",""
"","","","","","html-keyboard-response","122","358829","0.0-8.0-0.0-1.23","null","<span style='color:GreenYellow; font-size: 70px;'>正确! </span>","null","","","","","","","","","","","","","","","","","","","","","","","feedback_test"
"","","","","","psychophysics","123","360707","0.0-8.0-0.0-0.24","878","","f","","","","","","","","","","","","","key","f","6.941613382899607","768","428","f","true","img/H_ambi40.png","朋友","prac",""
"","","","","","html-keyboard-response","124","361209","0.0-8.0-0.0-1.24","null","<span style='color:GreenYellow; font-size: 70px;'>正确! </span>","null","","","","","","","","","","","","","","","","","","","","","","","feedback_test"
"","","","","","psychophysics","125","362859","0.0-8.0-0.0-0.25","648","","j","","","","","","","","","","","","","key","j","6.944565400843732","768","428","f","false","img/S_ambi40.png","自我","prac",""
"","","","","","html-keyboard-response","126","363360","0.0-8.0-0.0-1.25","null","<span style='color:red; font-size: 70px;'>错误! </span>","null","","","","","","","","","","","","","","","","","","","","","","","feedback_test"
"","","","","","psychophysics","127","365445","0.0-8.0-0.0-0.26","1084","","f","","","","","","","","","","","","","key","f","7.23498257839722","768","428","f","true","img/C_ambi40.png","生人","prac",""
"","","","","","html-keyboard-response","128","365946","0.0-8.0-0.0-1.26","null","<span style='color:GreenYellow; font-size: 70px;'>正确! </span>","null","","","","","","","","","","","","","","","","","","","","","","","feedback_test"
"","","","","","psychophysics","129","367766","0.0-8.0-0.0-0.27","819","","f","","","","","","","","","","","","","key","f","6.9673745173744726","768","428","f","true","img/H_ambi40.png","生人","prac",""
"","","","","","html-keyboard-response","130","368268","0.0-8.0-0.0-1.27","null","<span style='color:GreenYellow; font-size: 70px;'>正确! </span>","null","","","","","","","","","","","","","","","","","","","","","","","feedback_test"
"","","","","","psychophysics","131","369825","0.0-8.0-0.0-0.28","554","","f","","","","","","","","","","","","","key","f","6.945080717488906","768","428","f","true","img/T_ambi40.png","をる","prac",""
"","","","","","html-keyboard-response","132","370327","0.0-8.0-0.0-1.28","null","<span style='color:GreenYellow; font-size: 70px;'>正确! </span>","null","","","","","","","","","","","","","","","","","","","","","","","feedback_test"
"","","","","","psychophysics","133","372785","0.0-8.0-0.0-0.29","1457","","j","","","","","","","","","","","","","key","j","6.964284090909132","768","428","j","true","img/H_ambi40.png","自我","prac",""
"","","","","","html-keyboard-response","134","373286","0.0-8.0-0.0-1.29","null","<span style='color:GreenYellow; font-size: 70px;'>正确! </span>","null","","","","","","","","","","","","","","","","","","","","","","","feedback_test"
"","","","","","psychophysics","135","375219","0.0-8.0-0.0-0.30","931","","f","","","","","","","","","","","","","key","f","6.994948905109416","768","428","f","true","img/S_ambi40.png","朋友","prac",""
"","","","","","html-keyboard-response","136","375721","0.0-8.0-0.0-1.30","null","<span style='color:GreenYellow; font-size: 70px;'>正确! </span>","null","","","","","","","","","","","","","","","","","","","","","","","feedback_test"
"","","","","","psychophysics","137","377265","0.0-8.0-0.0-0.31","541","","j","","","","","","","","","","","","","key","j","7.072857142857132","768","428","j","true","img/C_ambi40.png","朋友","prac",""
"","","","","","html-keyboard-response","138","377766","0.0-8.0-0.0-1.31","null","<span style='color:GreenYellow; font-size: 70px;'>正确! </span>","null","","","","","","","","","","","","","","","","","","","","","","","feedback_test"
"","","","","","html-keyboard-response","139","383860","0.0-9.0","6093","<style>.context{color:white; font-size: 35px; line-height:40px}</style>                          <div><p class='context'>您正确回答了97% 的试次。</p ><p class='context'>您的平均反应时为770毫秒。</p ><p class='context'>恭喜您完成练习。按任意键进入正式实验。</p ><p class='footer' style='font-size: 35px; line-height:40px;'>请在进入正式实验实验之前将您的<span style='color: lightgreen;'>食指</span>放在电脑键盘的相应键位上进行按键。</p >","arrowdown","","","","","","","","","","","","","","","","","","","","","","",""
"","","","","","psychophysics","140","385547","0.0-10.0-0.0-0.0-0.0-0.0","683","","f","","","","","","","","","","","","","key","f","6.944752066115722","768","428","f","true","img/C_ambi40.png","生人","same",""
"","","","","","html-keyboard-response","141","386050","0.0-10.0-0.0-0.0-0.0-1.0","null","<span style='color:GreenYellow; font-size: 70px;'>正确! </span>","null","","","","","","","","","","","","","","","","","","","","","","","feedback_test"
"","","","","","psychophysics","142","387829","0.0-10.0-0.0-0.0-0.0-0.1","778","","j","","","","","","","","","","","","","key","j","6.941220472440972","768","428","j","true","img/S_ambi40.png","生人","same",""
"","","","","","html-keyboard-response","143","388330","0.0-10.0-0.0-0.0-0.0-1.1","null","<span style='color:GreenYellow; font-size: 70px;'>正确! </span>","null","","","","","","","","","","","","","","","","","","","","","","","feedback_test"
"","","","","","psychophysics","144","389988","0.0-10.0-0.0-0.0-0.0-0.2","656","","f","","","","","","","","","","","","","key","f","7.003706382978658","768","428","f","true","img/S_ambi40.png","朋友","same",""
"","","","","","html-keyboard-response","145","390490","0.0-10.0-0.0-0.0-0.0-1.2","null","<span style='color:GreenYellow; font-size: 70px;'>正确! </span>","null","","","","","","","","","","","","","","","","","","","","","","","feedback_test"
"","","","","","psychophysics","146","392213","0.0-10.0-0.0-0.0-0.0-0.3","722","","j","","","","","","","","","","","","","key","j","6.944562753036558","768","428","j","true","img/S_ambi40.png","生人","same",""
"","","","","","html-keyboard-response","147","392714","0.0-10.0-0.0-0.0-0.0-1.3","null","<span style='color:GreenYellow; font-size: 70px;'>正确! </span>","null","","","","","","","","","","","","","","","","","","","","","","","feedback_test"
"","","","","","psychophysics","148","394227","0.0-10.0-0.0-0.0-0.0-0.4","511","","j","","","","","","","","","","","","","key","j","6.9447465437788445","768","428","j","true","img/H_ambi40.png","自我","same",""
"","","","","","html-keyboard-response","149","394729","0.0-10.0-0.0-0.0-0.0-1.4","null","<span style='color:GreenYellow; font-size: 70px;'>正确! </span>","null","","","","","","","","","","","","","","","","","","","","","","","feedback_test"
"","","","","","psychophysics","150","396205","0.0-10.0-0.0-0.0-0.0-0.5","476","","j","","","","","","","","","","","","","key","j","7.010971428571446","768","428","j","true","img/H_ambi40.png","自我","same",""
"","","","","","html-keyboard-response","151","396706","0.0-10.0-0.0-0.0-0.0-1.5","null","<span style='color:GreenYellow; font-size: 70px;'>正确! </span>","null","","","","","","","","","","","","","","","","","","","","","","","feedback_test"
"","","","","","psychophysics","152","398315","0.0-10.0-0.0-0.0-0.0-0.6","608","","j","","","","","","","","","","","","","key","j","6.9749956331876675","768","428","j","true","img/C_ambi40.png","朋友","same",""
"","","","","","html-keyboard-response","153","398815","0.0-10.0-0.0-0.0-0.0-1.6","null","<span style='color:GreenYellow; font-size: 70px;'>正确! </span>","null","","","","","","","","","","","","","","","","","","","","","","","feedback_test"
"","","","","","psychophysics","154","400598","0.0-10.0-0.0-0.0-0.0-0.7","782","","j","","","","","","","","","","","","","key","j","6.944486274509736","768","428","j","true","img/H_ambi40.png","自我","same",""
"","","","","","html-keyboard-response","155","401098","0.0-10.0-0.0-0.0-0.0-1.7","null","<span style='color:GreenYellow; font-size: 70px;'>正确! </span>","null","","","","","","","","","","","","","","","","","","","","","","","feedback_test"
"","","","","","psychophysics","156","402609","0.0-10.0-0.0-0.0-0.0-0.8","509","","f","","","","","","","","","","","","","key","f","7.0753661971831665","768","428","f","true","img/T_ambi40.png","をる","same",""
"","","","","","html-keyboard-response","157","403109","0.0-10.0-0.0-0.0-0.0-1.8","null","<span style='color:GreenYellow; font-size: 70px;'>正确! </span>","null","","","","","","","","","","","","","","","","","","","","","","","feedback_test"
"","","","","","psychophysics","158","404595","0.0-10.0-0.0-0.0-0.0-0.9","484","","j","","","","","","","","","","","","","key","j","6.977433962264222","768","428","f","false","img/C_ambi40.png","自我","same",""
"","","","","","html-keyboard-response","159","405096","0.0-10.0-0.0-0.0-0.0-1.9","null","<span style='color:red; font-size: 70px;'>错误! </span>","null","","","","","","","","","","","","","","","","","","","","","","","feedback_test"
"","","","","","psychophysics","160","406767","0.0-10.0-0.0-0.0-0.0-0.10","670","","j","","","","","","","","","","","","","key","j","6.944790794979294","768","428","j","true","img/C_ambi40.png","朋友","same",""
"","","","","","html-keyboard-response","161","407268","0.0-10.0-0.0-0.0-0.0-1.10","null","<span style='color:GreenYellow; font-size: 70px;'>正确! </span>","null","","","","","","","","","","","","","","","","","","","","","","","feedback_test"
"","","","","","psychophysics","162","408819","0.0-10.0-0.0-0.0-0.0-0.11","550","","j","","","","","","","","","","","","","key","j","6.976217194570163","768","428","j","true","img/C_ambi40.png","朋友","same",""
"","","","","","html-keyboard-response","163","409323","0.0-10.0-0.0-0.0-0.0-1.11","null","<span style='color:GreenYellow; font-size: 70px;'>正确! </span>","null","","","","","","","","","","","","","","","","","","","","","","","feedback_test"
"","","","","","psychophysics","164","410904","0.0-10.0-0.0-0.0-0.0-0.12","581","","j","","","","","","","","","","","","","key","j","7.006450892857174","768","428","j","true","img/S_ambi40.png","生人","same",""
"","","","","","html-keyboard-response","165","411406","0.0-10.0-0.0-0.0-0.0-1.12","null","<span style='color:GreenYellow; font-size: 70px;'>正确! </span>","null","","","","","","","","","","","","","","","","","","","","","","","feedback_test"
"","","","","","psychophysics","166","413176","0.0-10.0-0.0-0.0-0.0-0.13","770","","f","","","","","","","","","","","","","key","f","6.94450197628448","768","428","f","true","img/H_ambi40.png","生人","same",""
"","","","","","html-keyboard-response","167","413678","0.0-10.0-0.0-0.0-0.0-1.13","null","<span style='color:GreenYellow; font-size: 70px;'>正确! </span>","null","","","","","","","","","","","","","","","","","","","","","","","feedback_test"
"","","","","","psychophysics","168","415221","0.0-10.0-0.0-0.0-0.0-0.14","542","","f","","","","","","","","","","","","","key","f","6.944959276018146","768","428","f","true","img/T_ambi40.png","をる","same",""
"","","","","","html-keyboard-response","169","415723","0.0-10.0-0.0-0.0-0.0-1.14","null","<span style='color:GreenYellow; font-size: 70px;'>正确! </span>","null","","","","","","","","","","","","","","","","","","","","","","","feedback_test"
"","","","","","psychophysics","170","417146","0.0-10.0-0.0-0.0-0.0-0.15","422","","f","","","","","","","","","","","","","key","f","6.978926108374428","768","428","f","true","img/T_ambi40.png","をる","same",""
"","","","","","html-keyboard-response","171","417647","0.0-10.0-0.0-0.0-0.0-1.15","null","<span style='color:GreenYellow; font-size: 70px;'>正确! </span>","null","","","","","","","","","","","","","","","","","","","","","","","feedback_test"
"","","","","","psychophysics","172","419389","0.0-10.0-0.0-0.0-0.0-0.16","741","","f","","","","","","","","","","","","","key","f","6.972421686746878","768","428","f","true","img/S_ambi40.png","自我","same",""
"","","","","","html-keyboard-response","173","419890","0.0-10.0-0.0-0.0-0.0-1.16","null","<span style='color:GreenYellow; font-size: 70px;'>正确! </span>","null","","","","","","","","","","","","","","","","","","","","","","","feedback_test"
"","","","","","psychophysics","174","421578","0.0-10.0-0.0-0.0-0.0-0.17","686","","f","","","","","","","","","","","","","key","f","6.944747933884361","768","428","f","true","img/H_ambi40.png","朋友","same",""
"","","","","","html-keyboard-response","175","422078","0.0-10.0-0.0-0.0-0.0-1.17","null","<span style='color:GreenYellow; font-size: 70px;'>正确! </span>","null","","","","","","","","","","","","","","","","","","","","","","","feedback_test"
"","","","","","psychophysics","176","423648","0.0-10.0-0.0-0.0-0.0-0.18","569","","f","","","","","","","","","","","","","key","f","6.970856502242104","768","428","f","true","img/T_ambi40.png","をる","same",""
"","","","","","html-keyboard-response","177","424150","0.0-10.0-0.0-0.0-0.0-1.18","null","<span style='color:GreenYellow; font-size: 70px;'>正确! </span>","null","","","","","","","","","","","","","","","","","","","","","","","feedback_test"
"","","","","","psychophysics","178","425939","0.0-10.0-0.0-0.0-0.0-0.19","788","","j","","","","","","","","","","","","","key","j","6.944574218749949","768","428","j","true","img/S_ambi40.png","生人","same",""
"","","","","","html-keyboard-response","179","426440","0.0-10.0-0.0-0.0-0.0-1.19","null","<span style='color:GreenYellow; font-size: 70px;'>正确! </span>","null","","","","","","","","","","","","","","","","","","","","","","","feedback_test"
"","","","","","psychophysics","180","428377","0.0-10.0-0.0-0.0-0.0-0.20","936","","f","","","","","","","","","","","","","key","f","7.095594095940808","768","428","f","true","img/S_ambi40.png","朋友","same",""
"","","","","","html-keyboard-response","181","428879","0.0-10.0-0.0-0.0-0.0-1.20","null","<span style='color:GreenYellow; font-size: 70px;'>正确! </span>","null","","","","","","","","","","","","","","","","","","","","","","","feedback_test"
"","","","","","psychophysics","182","430610","0.0-10.0-0.0-0.0-0.0-0.21","729","","j","","","","","","","","","","","","","key","j","6.972914979757076","768","428","j","true","img/C_ambi40.png","朋友","same",""
"","","","","","html-keyboard-response","183","431110","0.0-10.0-0.0-0.0-0.0-1.21","null","<span style='color:GreenYellow; font-size: 70px;'>正确! </span>","null","","","","","","","","","","","","","","","","","","","","","","","feedback_test"
"","","","","","psychophysics","184","432768","0.0-10.0-0.0-0.0-0.0-0.22","657","","f","","","","","","","","","","","","","key","f","6.974054852320531","768","428","f","true","img/H_ambi40.png","朋友","same",""
"","","","","","html-keyboard-response","185","433270","0.0-10.0-0.0-0.0-0.0-1.22","null","<span style='color:GreenYellow; font-size: 70px;'>正确! </span>","null","","","","","","","","","","","","","","","","","","","","","","","feedback_test"
"","","","","","psychophysics","186","434962","0.0-10.0-0.0-0.0-0.0-0.23","691","","j","","","","","","","","","","","","","key","j","6.973863070539423","768","428","j","true","img/S_ambi40.png","生人","same",""
"","","","","","html-keyboard-response","187","435463","0.0-10.0-0.0-0.0-0.0-1.23","null","<span style='color:GreenYellow; font-size: 70px;'>正确! </span>","null","","","","","","","","","","","","","","","","","","","","","","","feedback_test"
"","","","","","psychophysics","188","436992","0.0-10.0-0.0-0.0-0.0-0.24","528","","f","","","","","","","","","","","","","key","f","6.9445936073061105","768","428","f","true","img/T_ambi40.png","をる","same",""
"","","","","","html-keyboard-response","189","437492","0.0-10.0-0.0-0.0-0.0-1.24","null","<span style='color:GreenYellow; font-size: 70px;'>正确! </span>","null","","","","","","","","","","","","","","","","","","","","","","","feedback_test"
"","","","","","psychophysics","190","439274","0.0-10.0-0.0-0.0-0.0-0.25","779","","f","","","","","","","","","","","","","key","f","7.083600000000093","768","428","f","true","img/S_ambi40.png","自我","same",""
"","","","","","html-keyboard-response","191","439775","0.0-10.0-0.0-0.0-0.0-1.25","null","<span style='color:GreenYellow; font-size: 70px;'>正确! </span>","null","","","","","","","","","","","","","","","","","","","","","","","feedback_test"
"","","","","","psychophysics","192","441394","0.0-10.0-0.0-0.0-0.0-0.26","617","","j","","","","","","","","","","","","","key","j","6.9747012987013735","768","428","j","true","img/C_ambi40.png","朋友","same",""
"","","","","","html-keyboard-response","193","441895","0.0-10.0-0.0-0.0-0.0-1.26","null","<span style='color:GreenYellow; font-size: 70px;'>正确! </span>","null","","","","","","","","","","","","","","","","","","","","","","","feedback_test"
"","","","","","psychophysics","194","443584","0.0-10.0-0.0-0.0-0.0-0.27","687","","f","","","","","","","","","","","","","key","f","7.031682008368141","768","428","f","true","img/C_ambi40.png","生人","same",""
"","","","","","html-keyboard-response","195","444086","0.0-10.0-0.0-0.0-0.0-1.27","null","<span style='color:GreenYellow; font-size: 70px;'>正确! </span>","null","","","","","","","","","","","","","","","","","","","","","","","feedback_test"
"","","","","","psychophysics","196","445673","0.0-10.0-0.0-0.0-0.0-0.28","586","","f","","","","","","","","","","","","","key","f","6.944118942731288","768","428","f","true","img/T_ambi40.png","をる","same",""
"","","","","","html-keyboard-response","197","446174","0.0-10.0-0.0-0.0-0.0-1.28","null","<span style='color:GreenYellow; font-size: 70px;'>正确! </span>","null","","","","","","","","","","","","","","","","","","","","","","","feedback_test"
"","","","","","psychophysics","198","447917","0.0-10.0-0.0-0.0-0.0-0.29","741","","j","","","","","","","","","","","","","key","j","7.028882591093199","768","428","j","true","img/S_ambi40.png","生人","same",""
"","","","","","html-keyboard-response","199","448419","0.0-10.0-0.0-0.0-0.0-1.29","null","<span style='color:GreenYellow; font-size: 70px;'>正确! </span>","null","","","","","","","","","","","","","","","","","","","","","","","feedback_test"
"","","","","","psychophysics","200","450103","0.0-10.0-0.0-0.0-0.0-0.30","682","","f","","","","","","","","","","","","","key","f","7.031870292886901","768","428","f","true","img/H_ambi40.png","生人","same",""
"","","","","","html-keyboard-response","201","450603","0.0-10.0-0.0-0.0-0.0-1.30","null","<span style='color:GreenYellow; font-size: 70px;'>正确! </span>","null","","","","","","","","","","","","","","","","","","","","","","","feedback_test"
"","","","","","psychophysics","202","452494","0.0-10.0-0.0-0.0-0.0-0.31","889","","f","","","","","","","","","","","","","key","f","6.945265682656885","768","428","f","true","img/C_ambi40.png","自我","same",""
"","","","","","html-keyboard-response","203","452997","0.0-10.0-0.0-0.0-0.0-1.31","null","<span style='color:GreenYellow; font-size: 70px;'>正确! </span>","null","","","","","","","","","","","","","","","","","","","","","","","feedback_test"
"","","","","","psychophysics","204","454684","0.0-10.0-0.0-0.0-0.0-0.32","686","","j","","","","","","","","","","","","","key","j","6.944651452282007","768","428","j","true","img/H_ambi40.png","自我","same",""
"","","","","","html-keyboard-response","205","455184","0.0-10.0-0.0-0.0-0.0-1.32","null","<span style='color:GreenYellow; font-size: 70px;'>正确! </span>","null","","","","","","","","","","","","","","","","","","","","","","","feedback_test"
"","","","","","psychophysics","206","456694","0.0-10.0-0.0-0.0-0.0-0.33","508","","f","","","","","","","","","","","","","key","f","6.945069444444488","768","428","j","false","img/C_ambi40.png","朋友","same",""
"","","","","","html-keyboard-response","207","457194","0.0-10.0-0.0-0.0-0.0-1.33","null","<span style='color:red; font-size: 70px;'>错误! </span>","null","","","","","","","","","","","","","","","","","","","","","","","feedback_test"
"","","","","","psychophysics","208","458765","0.0-10.0-0.0-0.0-0.0-0.34","570","","j","","","","","","","","","","","","","key","j","6.975705357142942","768","428","j","true","img/H_ambi40.png","自我","same",""
"","","","","","html-keyboard-response","209","459267","0.0-10.0-0.0-0.0-0.0-1.34","null","<span style='color:GreenYellow; font-size: 70px;'>正确! </span>","null","","","","","","","","","","","","","","","","","","","","","","","feedback_test"
"","","","","","psychophysics","210","460968","0.0-10.0-0.0-0.0-0.0-0.35","700","","j","","","","","","","","","","","","","key","j","7.117559322033924","768","428","j","true","img/H_ambi40.png","自我","same",""
"","","","","","html-keyboard-response","211","461471","0.0-10.0-0.0-0.0-0.0-1.35","null","<span style='color:GreenYellow; font-size: 70px;'>正确! </span>","null","","","","","","","","","","","","","","","","","","","","","","","feedback_test"
"","","","","","psychophysics","212","463041","0.0-10.0-0.0-0.0-0.0-0.36","568","","f","","","","","","","","","","","","","key","f","7.00706278026911","768","428","f","true","img/T_ambi40.png","をる","same",""
"","","","","","html-keyboard-response","213","463542","0.0-10.0-0.0-0.0-0.0-1.36","null","<span style='color:GreenYellow; font-size: 70px;'>正确! </span>","null","","","","","","","","","","","","","","","","","","","","","","","feedback_test"
"","","","","","psychophysics","214","465483","0.0-10.0-0.0-0.0-0.0-0.37","940","","j","","","","","","","","","","","","","key","j","6.969830324909681","768","428","j","true","img/S_ambi40.png","生人","same",""
"","","","","","html-keyboard-response","215","465984","0.0-10.0-0.0-0.0-0.0-1.37","null","<span style='color:GreenYellow; font-size: 70px;'>正确! </span>","null","","","","","","","","","","","","","","","","","","","","","","","feedback_test"
"","","","","","psychophysics","216","467523","0.0-10.0-0.0-0.0-0.0-0.38","538","","j","","","","","","","","","","","","","key","j","7.04074193548394","768","428","j","true","img/H_ambi40.png","自我","same",""
"","","","","","html-keyboard-response","217","468024","0.0-10.0-0.0-0.0-0.0-1.38","null","<span style='color:GreenYellow; font-size: 70px;'>正确! </span>","null","","","","","","","","","","","","","","","","","","","","","","","feedback_test"
"","","","","","psychophysics","218","469627","0.0-10.0-0.0-0.0-0.0-0.39","602","","j","","","","","","","","","","","","","key","j","7.005885462554855","768","428","f","false","img/H_ambi40.png","朋友","same",""
"","","","","","html-keyboard-response","219","470128","0.0-10.0-0.0-0.0-0.0-1.39","null","<span style='color:red; font-size: 70px;'>错误! </span>","null","","","","","","","","","","","","","","","","","","","","","","","feedback_test"
"","","","","","psychophysics","220","471755","0.0-10.0-0.0-0.0-0.0-0.40","626","","j","","","","","","","","","","","","","key","j","7.097365638766579","768","428","j","true","img/C_ambi40.png","朋友","same",""
"","","","","","html-keyboard-response","221","472258","0.0-10.0-0.0-0.0-0.0-1.40","null","<span style='color:GreenYellow; font-size: 70px;'>正确! </span>","null","","","","","","","","","","","","","","","","","","","","","","","feedback_test"
"","","","","","psychophysics","222","473802","0.0-10.0-0.0-0.0-0.0-0.41","542","","j","","","","","","","","","","","","","key","j","6.944638009049574","768","428","j","true","img/H_ambi40.png","自我","same",""
"","","","","","html-keyboard-response","223","474303","0.0-10.0-0.0-0.0-0.0-1.41","null","<span style='color:GreenYellow; font-size: 70px;'>正确! </span>","null","","","","","","","","","","","","","","","","","","","","","","","feedback_test"
"","","","","","psychophysics","224","476076","0.0-10.0-0.0-0.0-0.0-0.42","772","","j","","","","","","","","","","","","","key","j","6.99983333333327","768","428","j","true","img/C_ambi40.png","朋友","same",""
"","","","","","html-keyboard-response","225","476578","0.0-10.0-0.0-0.0-0.0-1.42","null","<span style='color:GreenYellow; font-size: 70px;'>正确! </span>","null","","","","","","","","","","","","","","","","","","","","","","","feedback_test"
"","","","","","psychophysics","226","478337","0.0-10.0-0.0-0.0-0.0-0.43","757","","f","","","","","","","","","","","","","key","f","7.056826612903199","768","428","f","true","img/C_ambi40.png","生人","same",""
"","","","","","html-keyboard-response","227","478838","0.0-10.0-0.0-0.0-0.0-1.43","null","<span style='color:GreenYellow; font-size: 70px;'>正确! </span>","null","","","","","","","","","","","","","","","","","","","","","","","feedback_test"
"","","","","","psychophysics","228","480638","0.0-10.0-0.0-0.0-0.0-0.44","797","","f","","","","","","","","","","","","","key","f","6.9714747081711845","768","428","f","true","img/C_ambi40.png","自我","same",""
"","","","","","html-keyboard-response","229","481139","0.0-10.0-0.0-0.0-0.0-1.44","null","<span style='color:GreenYellow; font-size: 70px;'>正确! </span>","null","","","","","","","","","","","","","","","","","","","","","","","feedback_test"
"","","","","","psychophysics","230","482794","0.0-10.0-0.0-0.0-0.0-0.45","653","","j","","","","","","","","","","","","","key","j","7.15586086956521","768","428","j","true","img/C_ambi40.png","朋友","same",""
"","","","","","html-keyboard-response","231","483294","0.0-10.0-0.0-0.0-0.0-1.45","null","<span style='color:GreenYellow; font-size: 70px;'>正确! </span>","null","","","","","","","","","","","","","","","","","","","","","","","feedback_test"
"","","","","","psychophysics","232","484959","0.0-10.0-0.0-0.0-0.0-0.46","663","","f","","","","","","","","","","","","","key","f","6.9446276150627755","768","428","f","true","img/T_ambi40.png","をる","same",""
"","","","","","html-keyboard-response","233","485462","0.0-10.0-0.0-0.0-0.0-1.46","null","<span style='color:GreenYellow; font-size: 70px;'>正确! </span>","null","","","","","","","","","","","","","","","","","","","","","","","feedback_test"
"","","","","","psychophysics","234","487809","0.0-10.0-0.0-0.0-0.0-0.47","1345","","f","","","","","","","","","","","","","key","f","6.944711309523838","768","428","f","true","img/H_ambi40.png","生人","same",""
"","","","","","html-keyboard-response","235","488310","0.0-10.0-0.0-0.0-0.0-1.47","null","<span style='color:GreenYellow; font-size: 70px;'>正确! </span>","null","","","","","","","","","","","","","","","","","","","","","","","feedback_test"
"","","","","","psychophysics","236","489903","0.0-10.0-0.0-0.0-0.0-0.48","592","","j","","","","","","","","","","","","","key","j","6.944793859649125","768","428","j","true","img/H_ambi40.png","自我","same",""
"","","","","","html-keyboard-response","237","490404","0.0-10.0-0.0-0.0-0.0-1.48","null","<span style='color:GreenYellow; font-size: 70px;'>正确! </span>","null","","","","","","","","","","","","","","","","","","","","","","","feedback_test"
"","","","","","psychophysics","238","492107","0.0-10.0-0.0-0.0-0.0-0.49","701","","j","","","","","","","","","","","","","key","j","6.972786008230403","768","428","j","true","img/S_ambi40.png","生人","same",""
"","","","","","html-keyboard-response","239","492609","0.0-10.0-0.0-0.0-0.0-1.49","null","<span style='color:GreenYellow; font-size: 70px;'>正确! </span>","null","","","","","","","","","","","","","","","","","","","","","","","feedback_test"
"","","","","","psychophysics","240","494433","0.0-10.0-0.0-0.0-0.0-0.50","824","","j","","","","","","","","","","","","","key","j","7.136007874015641","768","428","j","true","img/S_ambi40.png","生人","same",""
"","","","","","html-keyboard-response","241","494934","0.0-10.0-0.0-0.0-0.0-1.50","null","<span style='color:GreenYellow; font-size: 70px;'>正确! </span>","null","","","","","","","","","","","","","","","","","","","","","","","feedback_test"
"","","","","","psychophysics","242","496671","0.0-10.0-0.0-0.0-0.0-0.51","735","","f","","","","","","","","","","","","","key","f","6.997178861788546","768","428","f","true","img/S_ambi40.png","朋友","same",""
"","","","","","html-keyboard-response","243","497172","0.0-10.0-0.0-0.0-0.0-1.51","null","<span style='color:GreenYellow; font-size: 70px;'>正确! </span>","null","","","","","","","","","","","","","","","","","","","","","","","feedback_test"
"","","","","","psychophysics","244","498993","0.0-10.0-0.0-0.0-0.0-0.52","818","","f","","","","","","","","","","","","","key","f","6.998231660231721","768","428","f","true","img/S_ambi40.png","自我","same",""
"","","","","","html-keyboard-response","245","499494","0.0-10.0-0.0-0.0-0.0-1.52","null","<span style='color:GreenYellow; font-size: 70px;'>正确! </span>","null","","","","","","","","","","","","","","","","","","","","","","","feedback_test"
"","","","","","psychophysics","246","501124","0.0-10.0-0.0-0.0-0.0-0.53","629","","f","","","","","","","","","","","","","key","f","6.944756410256303","768","428","f","true","img/T_ambi40.png","をる","same",""
"","","","","","html-keyboard-response","247","501625","0.0-10.0-0.0-0.0-0.0-1.53","null","<span style='color:GreenYellow; font-size: 70px;'>正确! </span>","null","","","","","","","","","","","","","","","","","","","","","","","feedback_test"
"","","","","","psychophysics","248","503416","0.0-10.0-0.0-0.0-0.0-0.54","790","","j","","","","","","","","","","","","","key","j","7.054407114624331","768","428","j","true","img/C_ambi40.png","朋友","same",""
"","","","","","html-keyboard-response","249","503917","0.0-10.0-0.0-0.0-0.0-1.54","null","<span style='color:GreenYellow; font-size: 70px;'>正确! </span>","null","","","","","","","","","","","","","","","","","","","","","","","feedback_test"
"","","","","","psychophysics","250","505415","0.0-10.0-0.0-0.0-0.0-0.55","496","","f","","","","","","","","","","","","","key","f","7.076075829383729","768","428","j","false","img/S_ambi40.png","生人","same",""
"","","","","","html-keyboard-response","251","505916","0.0-10.0-0.0-0.0-0.0-1.55","null","<span style='color:red; font-size: 70px;'>错误! </span>","null","","","","","","","","","","","","","","","","","","","","","","","feedback_test"
"","","","","","psychophysics","252","507412","0.0-10.0-0.0-0.0-0.0-0.56","494","","j","","","","","","","","","","","","","key","j","6.944448598130948","768","428","j","true","img/S_ambi40.png","生人","same",""
"","","","","","html-keyboard-response","253","507914","0.0-10.0-0.0-0.0-0.0-1.56","null","<span style='color:GreenYellow; font-size: 70px;'>正确! </span>","null","","","","","","","","","","","","","","","","","","","","","","","feedback_test"
"","","","","","psychophysics","254","509498","0.0-10.0-0.0-0.0-0.0-0.57","584","","j","","","","","","","","","","","","","key","j","6.941292035398311","768","428","j","true","img/C_ambi40.png","朋友","same",""
"","","","","","html-keyboard-response","255","510000","0.0-10.0-0.0-0.0-0.0-1.57","null","<span style='color:GreenYellow; font-size: 70px;'>正确! </span>","null","","","","","","","","","","","","","","","","","","","","","","","feedback_test"
"","","","","","psychophysics","256","511520","0.0-10.0-0.0-0.0-0.0-0.58","519","","j","","","","","","","","","","","","","key","j","6.9447522935780075","768","428","f","false","img/C_ambi40.png","生人","same",""
"","","","","","html-keyboard-response","257","512021","0.0-10.0-0.0-0.0-0.0-1.58","null","<span style='color:red; font-size: 70px;'>错误! </span>","null","","","","","","","","","","","","","","","","","","","","","","","feedback_test"
"","","","","","psychophysics","258","513619","0.0-10.0-0.0-0.0-0.0-0.59","596","","j","","","","","","","","","","","","","key","j","7.005933920704629","768","428","j","true","img/C_ambi40.png","朋友","same",""
"","","","","","html-keyboard-response","259","514120","0.0-10.0-0.0-0.0-0.0-1.59","null","<span style='color:GreenYellow; font-size: 70px;'>正确! </span>","null","","","","","","","","","","","","","","","","","","","","","","","feedback_test"
"","","","","","psychophysics","260","515857","0.0-10.0-0.0-0.0-0.0-0.60","736","","f","","","","","","","","","","","","","key","f","7.116197530864335","768","428","f","true","img/S_ambi40.png","自我","same",""
"","","","","","html-keyboard-response","261","516358","0.0-10.0-0.0-0.0-0.0-1.60","null","<span style='color:GreenYellow; font-size: 70px;'>正确! </span>","null","","","","","","","","","","","","","","","","","","","","","","","feedback_test"
"","","","","","psychophysics","262","517863","0.0-10.0-0.0-0.0-0.0-0.61","503","","f","","","","","","","","","","","","","key","f","6.9446325581396255","768","428","f","true","img/T_ambi40.png","をる","same",""
"","","","","","html-keyboard-response","263","518363","0.0-10.0-0.0-0.0-0.0-1.61","null","<span style='color:GreenYellow; font-size: 70px;'>正确! </span>","null","","","","","","","","","","","","","","","","","","","","","","","feedback_test"
"","","","","","psychophysics","264","519860","0.0-10.0-0.0-0.0-0.0-0.62","495","","j","","","","","","","","","","","","","key","j","7.109461904761736","768","428","f","false","img/H_ambi40.png","朋友","same",""
"","","","","","html-keyboard-response","265","520361","0.0-10.0-0.0-0.0-0.0-1.62","null","<span style='color:red; font-size: 70px;'>错误! </span>","null","","","","","","","","","","","","","","","","","","","","","","","feedback_test"
"","","","","","psychophysics","266","521891","0.0-10.0-0.0-0.0-0.0-0.63","528","","f","","","","","","","","","","","","","key","f","6.944926940639329","768","428","f","true","img/T_ambi40.png","をる","same",""
"","","","","","html-keyboard-response","267","522393","0.0-10.0-0.0-0.0-0.0-1.63","null","<span style='color:GreenYellow; font-size: 70px;'>正确! </span>","null","","","","","","","","","","","","","","","","","","","","","","","feedback_test"
"","","","","","psychophysics","268","523996","0.0-10.0-0.0-0.0-0.0-0.64","603","","j","","","","","","","","","","","","","key","j","6.973114035087699","768","428","j","true","img/H_ambi40.png","自我","same",""
"","","","","","html-keyboard-response","269","524499","0.0-10.0-0.0-0.0-0.0-1.64","null","<span style='color:GreenYellow; font-size: 70px;'>正确! </span>","null","","","","","","","","","","","","","","","","","","","","","","","feedback_test"
"","","","","","psychophysics","270","525984","0.0-10.0-0.0-0.0-0.0-0.65","484","","j","","","","","","","","","","","","","key","j","7.146771844660126","768","428","j","true","img/H_ambi40.png","自我","same",""
"","","","","","html-keyboard-response","271","526485","0.0-10.0-0.0-0.0-0.0-1.65","null","<span style='color:GreenYellow; font-size: 70px;'>正确! </span>","null","","","","","","","","","","","","","","","","","","","","","","","feedback_test"
"","","","","","psychophysics","272","528045","0.0-10.0-0.0-0.0-0.0-0.66","559","","f","","","","","","","","","","","","","key","f","6.944681614349729","768","428","f","true","img/T_ambi40.png","をる","same",""
"","","","","","html-keyboard-response","273","528546","0.0-10.0-0.0-0.0-0.0-1.66","null","<span style='color:GreenYellow; font-size: 70px;'>正确! </span>","null","","","","","","","","","","","","","","","","","","","","","","","feedback_test"
"","","","","","psychophysics","274","530191","0.0-10.0-0.0-0.0-0.0-0.67","643","","f","","","","","","","","","","","","","key","f","6.944400000000035","768","428","f","true","img/C_ambi40.png","自我","same",""
"","","","","","html-keyboard-response","275","530692","0.0-10.0-0.0-0.0-0.0-1.67","null","<span style='color:GreenYellow; font-size: 70px;'>正确! </span>","null","","","","","","","","","","","","","","","","","","","","","","","feedback_test"
"","","","","","psychophysics","276","532329","0.0-10.0-0.0-0.0-0.0-0.68","636","","f","","","","","","","","","","","","","key","f","6.94166239316209","768","428","f","true","img/H_ambi40.png","生人","same",""
"","","","","","html-keyboard-response","277","532829","0.0-10.0-0.0-0.0-0.0-1.68","null","<span style='color:GreenYellow; font-size: 70px;'>正确! </span>","null","","","","","","","","","","","","","","","","","","","","","","","feedback_test"
"","","","","","psychophysics","278","534625","0.0-10.0-0.0-0.0-0.0-0.69","794","","f","","","","","","","","","","","","","key","f","6.945248062015771","768","428","f","true","img/S_ambi40.png","朋友","same",""
"","","","","","html-keyboard-response","279","535127","0.0-10.0-0.0-0.0-0.0-1.69","null","<span style='color:GreenYellow; font-size: 70px;'>正确! </span>","null","","","","","","","","","","","","","","","","","","","","","","","feedback_test"
"","","","","","psychophysics","280","536772","0.0-10.0-0.0-0.0-0.0-0.70","644","","j","","","","","","","","","","","","","key","j","7.125913043478099","768","428","j","true","img/H_ambi40.png","自我","same",""
"","","","","","html-keyboard-response","281","537273","0.0-10.0-0.0-0.0-0.0-1.70","null","<span style='color:GreenYellow; font-size: 70px;'>正确! </span>","null","","","","","","","","","","","","","","","","","","","","","","","feedback_test"
"","","","","","psychophysics","282","539267","0.0-10.0-0.0-0.0-0.0-0.71","992","","j","","","","","","","","","","","","","key","j","6.969007017543915","768","428","j","true","img/S_ambi40.png","生人","same",""
"","","","","","html-keyboard-response","283","539768","0.0-10.0-0.0-0.0-0.0-1.71","null","<span style='color:GreenYellow; font-size: 70px;'>正确! </span>","null","","","","","","","","","","","","","","","","","","","","","","","feedback_test"
"","","","","","psychophysics","284","541426","0.0-10.0-0.0-0.0-0.0-0.72","656","","f","","","","","","","","","","","","","key","f","6.940333333333074","768","428","f","true","img/S_ambi40.png","朋友","same",""
"","","","","","html-keyboard-response","285","541928","0.0-10.0-0.0-0.0-0.0-1.72","null","<span style='color:GreenYellow; font-size: 70px;'>正确! </span>","null","","","","","","","","","","","","","","","","","","","","","","","feedback_test"
"","","","","","psychophysics","286","543661","0.0-10.0-0.0-0.0-0.0-0.73","732","","f","","","","","","","","","","","","","key","f","6.944326612903105","768","428","f","true","img/H_ambi40.png","朋友","same",""
"","","","","","html-keyboard-response","287","544162","0.0-10.0-0.0-0.0-0.0-1.73","null","<span style='color:GreenYellow; font-size: 70px;'>正确! </span>","null","","","","","","","","","","","","","","","","","","","","","","","feedback_test"
"","","","","","psychophysics","288","545919","0.0-10.0-0.0-0.0-0.0-0.74","755","","f","","","","","","","","","","","","","key","f","7.000304000000003","768","428","f","true","img/C_ambi40.png","自我","same",""
"","","","","","html-keyboard-response","289","546420","0.0-10.0-0.0-0.0-0.0-1.74","null","<span style='color:GreenYellow; font-size: 70px;'>正确! </span>","null","","","","","","","","","","","","","","","","","","","","","","","feedback_test"
"","","","","","psychophysics","290","548378","0.0-10.0-0.0-0.0-0.0-0.75","957","","f","","","","","","","","","","","","","key","f","7.0963381818182425","768","428","f","true","img/S_ambi40.png","自我","same",""
"","","","","","html-keyboard-response","291","548880","0.0-10.0-0.0-0.0-0.0-1.75","null","<span style='color:GreenYellow; font-size: 70px;'>正确! </span>","null","","","","","","","","","","","","","","","","","","","","","","","feedback_test"
"","","","","","psychophysics","292","550700","0.0-10.0-0.0-0.0-0.0-0.76","820","","j","","","","","","","","","","","","","key","j","6.9426769230769985","768","428","j","true","img/C_ambi40.png","朋友","same",""
"","","","","","html-keyboard-response","293","551201","0.0-10.0-0.0-0.0-0.0-1.76","null","<span style='color:GreenYellow; font-size: 70px;'>正确! </span>","null","","","","","","","","","","","","","","","","","","","","","","","feedback_test"
"","","","","","psychophysics","294","552818","0.0-10.0-0.0-0.0-0.0-0.77","615","","f","","","","","","","","","","","","","key","f","7.035692982456296","768","428","f","true","img/H_ambi40.png","生人","same",""
"","","","","","html-keyboard-response","295","553319","0.0-10.0-0.0-0.0-0.0-1.77","null","<span style='color:GreenYellow; font-size: 70px;'>正确! </span>","null","","","","","","","","","","","","","","","","","","","","","","","feedback_test"
"","","","","","psychophysics","296","554866","0.0-10.0-0.0-0.0-0.0-0.78","545","","f","","","","","","","","","","","","","key","f","6.944705882353068","768","428","f","true","img/T_ambi40.png","をる","same",""
"","","","","","html-keyboard-response","297","555367","0.0-10.0-0.0-0.0-0.0-1.78","null","<span style='color:GreenYellow; font-size: 70px;'>正确! </span>","null","","","","","","","","","","","","","","","","","","","","","","","feedback_test"
"","","","","","psychophysics","298","556842","0.0-10.0-0.0-0.0-0.0-0.79","475","","f","","","","","","","","","","","","","key","f","6.9446255924170215","768","428","f","true","img/T_ambi40.png","をる","same",""
"","","","","","html-keyboard-response","299","557345","0.0-10.0-0.0-0.0-0.0-1.79","null","<span style='color:GreenYellow; font-size: 70px;'>正确! </span>","null","","","","","","","","","","","","","","","","","","","","","","","feedback_test"
"","","","","","psychophysics","300","559201","0.0-10.0-0.0-0.0-0.0-0.80","855","","j","","","","","","","","","","","","","key","j","6.996435606060638","768","428","j","true","img/S_ambi40.png","生人","same",""
"","","","","","html-keyboard-response","301","559702","0.0-10.0-0.0-0.0-0.0-1.80","null","<span style='color:GreenYellow; font-size: 70px;'>正确! </span>","null","","","","","","","","","","","","","","","","","","","","","","","feedback_test"
"","","","","","psychophysics","302","561699","0.0-10.0-0.0-0.0-0.0-0.81","996","","j","","","","","","","","","","","","","key","j","6.993630281690112","768","428","j","true","img/C_ambi40.png","朋友","same",""
"","","","","","html-keyboard-response","303","562201","0.0-10.0-0.0-0.0-0.0-1.81","null","<span style='color:GreenYellow; font-size: 70px;'>正确! </span>","null","","","","","","","","","","","","","","","","","","","","","","","feedback_test"
"","","","","","psychophysics","304","563983","0.0-10.0-0.0-0.0-0.0-0.82","781","","j","","","","","","","","","","","","","key","j","6.94450588235312","768","428","j","true","img/S_ambi40.png","生人","same",""
"","","","","","html-keyboard-response","305","564484","0.0-10.0-0.0-0.0-0.0-1.82","null","<span style='color:GreenYellow; font-size: 70px;'>正确! </span>","null","","","","","","","","","","","","","","","","","","","","","","","feedback_test"
"","","","","","psychophysics","306","566191","0.0-10.0-0.0-0.0-0.0-0.83","706","","j","","","","","","","","","","","","","key","j","7.001876033057963","768","428","j","true","img/H_ambi40.png","自我","same",""
"","","","","","html-keyboard-response","307","566692","0.0-10.0-0.0-0.0-0.0-1.83","null","<span style='color:GreenYellow; font-size: 70px;'>正确! </span>","null","","","","","","","","","","","","","","","","","","","","","","","feedback_test"
"","","","","","psychophysics","308","568711","0.0-10.0-0.0-0.0-0.0-0.84","1019","","f","","","","","","","","","","","","","key","f","6.9681701388888335","768","428","f","true","img/C_ambi40.png","生人","same",""
"","","","","","html-keyboard-response","309","569212","0.0-10.0-0.0-0.0-0.0-1.84","null","<span style='color:GreenYellow; font-size: 70px;'>正确! </span>","null","","","","","","","","","","","","","","","","","","","","","","","feedback_test"
"","","","","","psychophysics","310","570762","0.0-10.0-0.0-0.0-0.0-0.85","548","","j","","","","","","","","","","","","","key","j","6.976506787330139","768","428","j","true","img/H_ambi40.png","自我","same",""
"","","","","","html-keyboard-response","311","571262","0.0-10.0-0.0-0.0-0.0-1.85","null","<span style='color:GreenYellow; font-size: 70px;'>正确! </span>","null","","","","","","","","","","","","","","","","","","","","","","","feedback_test"
"","","","","","psychophysics","312","572743","0.0-10.0-0.0-0.0-0.0-0.86","480","","j","","","","","","","","","","","","","key","j","6.944584905660276","768","428","j","true","img/H_ambi40.png","自我","same",""
"","","","","","html-keyboard-response","313","573244","0.0-10.0-0.0-0.0-0.0-1.86","null","<span style='color:GreenYellow; font-size: 70px;'>正确! </span>","null","","","","","","","","","","","","","","","","","","","","","","","feedback_test"
"","","","","","psychophysics","314","574911","0.0-10.0-0.0-0.0-0.0-0.87","665","","j","","","","","","","","","","","","","key","j","7.032995762711912","768","428","j","true","img/C_ambi40.png","朋友","same",""
"","","","","","html-keyboard-response","315","575412","0.0-10.0-0.0-0.0-0.0-1.87","null","<span style='color:GreenYellow; font-size: 70px;'>正确! </span>","null","","","","","","","","","","","","","","","","","","","","","","","feedback_test"
"","","","","","psychophysics","316","577071","0.0-10.0-0.0-0.0-0.0-0.88","658","","f","","","","","","","","","","","","","key","f","6.944768907562947","768","428","f","true","img/T_ambi40.png","をる","same",""
"","","","","","html-keyboard-response","317","577573","0.0-10.0-0.0-0.0-0.0-1.88","null","<span style='color:GreenYellow; font-size: 70px;'>正确! </span>","null","","","","","","","","","","","","","","","","","","","","","","","feedback_test"
"","","","","","psychophysics","318","579213","0.0-10.0-0.0-0.0-0.0-0.89","639","","j","","","","","","","","","","","","","key","j","6.944600000000123","768","428","j","true","img/S_ambi40.png","生人","same",""
"","","","","","html-keyboard-response","319","579713","0.0-10.0-0.0-0.0-0.0-1.89","null","<span style='color:GreenYellow; font-size: 70px;'>正确! </span>","null","","","","","","","","","","","","","","","","","","","","","","","feedback_test"
"","","","","","psychophysics","320","581311","0.0-10.0-0.0-0.0-0.0-0.90","596","","j","","","","","","","","","","","","","key","j","6.943149122807275","768","428","j","true","img/H_ambi40.png","自我","same",""
"","","","","","html-keyboard-response","321","581812","0.0-10.0-0.0-0.0-0.0-1.90","null","<span style='color:GreenYellow; font-size: 70px;'>正确! </span>","null","","","","","","","","","","","","","","","","","","","","","","","feedback_test"
"","","","","","psychophysics","322","583355","0.0-10.0-0.0-0.0-0.0-0.91","542","","f","","","","","","","","","","","","","key","f","7.008168949771643","768","428","f","true","img/T_ambi40.png","をる","same",""
"","","","","","html-keyboard-response","323","583858","0.0-10.0-0.0-0.0-0.0-1.91","null","<span style='color:GreenYellow; font-size: 70px;'>正确! </span>","null","","","","","","","","","","","","","","","","","","","","","","","feedback_test"
"","","","","","psychophysics","324","585798","0.0-10.0-0.0-0.0-0.0-0.92","938","","j","","","","","","","","","","","","","key","j","6.994521739130478","768","428","j","true","img/S_ambi40.png","生人","same",""
"","","","","","html-keyboard-response","325","586299","0.0-10.0-0.0-0.0-0.0-1.92","null","<span style='color:GreenYellow; font-size: 70px;'>正确! </span>","null","","","","","","","","","","","","","","","","","","","","","","","feedback_test"
"","","","","","psychophysics","326","587872","0.0-10.0-0.0-0.0-0.0-0.93","572","","f","","","","","","","","","","","","","key","f","6.944471111111343","768","428","f","true","img/T_ambi40.png","をる","same",""
"","","","","","html-keyboard-response","327","588373","0.0-10.0-0.0-0.0-0.0-1.93","null","<span style='color:GreenYellow; font-size: 70px;'>正确! </span>","null","","","","","","","","","","","","","","","","","","","","","","","feedback_test"
"","","","","","psychophysics","328","590110","0.0-10.0-0.0-0.0-0.0-0.94","736","","f","","","","","","","","","","","","","key","f","7.025848979591772","768","428","f","true","img/C_ambi40.png","生人","same",""
"","","","","","html-keyboard-response","329","590613","0.0-10.0-0.0-0.0-0.0-1.94","null","<span style='color:GreenYellow; font-size: 70px;'>正确! </span>","null","","","","","","","","","","","","","","","","","","","","","","","feedback_test"
"","","","","","psychophysics","330","592365","0.0-10.0-0.0-0.0-0.0-0.95","750","","f","","","","","","","","","","","","","key","f","6.944657370518147","768","428","f","true","img/H_ambi40.png","生人","same",""
"","","","","","html-keyboard-response","331","592866","0.0-10.0-0.0-0.0-0.0-1.95","null","<span style='color:GreenYellow; font-size: 70px;'>正确! </span>","null","","","","","","","","","","","","","","","","","","","","","","","feedback_test"
"","","","","","psychophysics","332","594622","0.0-10.0-0.0-0.0-0.0-0.96","755","","f","","","","","","","","","","","","","key","f","7.02823293172702","768","428","f","true","img/S_ambi40.png","自我","same",""
"","","","","","html-keyboard-response","333","595124","0.0-10.0-0.0-0.0-0.0-1.96","null","<span style='color:GreenYellow; font-size: 70px;'>正确! </span>","null","","","","","","","","","","","","","","","","","","","","","","","feedback_test"
"","","","","","psychophysics","334","597156","0.0-10.0-0.0-0.0-0.0-0.97","1031","","f","","","","","","","","","","","","","key","f","7.018718750000214","768","428","f","true","img/C_ambi40.png","自我","same",""
"","","","","","html-keyboard-response","335","597658","0.0-10.0-0.0-0.0-0.0-1.97","null","<span style='color:GreenYellow; font-size: 70px;'>正确! </span>","null","","","","","","","","","","","","","","","","","","","","","","","feedback_test"
"","","","","","psychophysics","336","599299","0.0-10.0-0.0-0.0-0.0-0.98","641","","j","","","","","","","","","","","","","key","j","6.941808510638595","768","428","j","true","img/C_ambi40.png","朋友","same",""
"","","","","","html-keyboard-response","337","599801","0.0-10.0-0.0-0.0-0.0-1.98","null","<span style='color:GreenYellow; font-size: 70px;'>正确! </span>","null","","","","","","","","","","","","","","","","","","","","","","","feedback_test"
"","","","","","psychophysics","338","601321","0.0-10.0-0.0-0.0-0.0-0.99","519","","f","","","","","","","","","","","","","key","f","7.243885167464436","768","428","f","true","img/T_ambi40.png","をる","same",""
"","","","","","html-keyboard-response","339","601822","0.0-10.0-0.0-0.0-0.0-1.99","null","<span style='color:GreenYellow; font-size: 70px;'>正确! </span>","null","","","","","","","","","","","","","","","","","","","","","","","feedback_test"
"","","","","","psychophysics","340","603480","0.0-10.0-0.0-0.0-0.0-0.100","657","","j","","","","","","","","","","","","","key","j","6.944827731092218","768","428","j","true","img/C_ambi40.png","朋友","same",""
"","","","","","html-keyboard-response","341","603983","0.0-10.0-0.0-0.0-0.0-1.100","null","<span style='color:GreenYellow; font-size: 70px;'>正确! </span>","null","","","","","","","","","","","","","","","","","","","","","","","feedback_test"
"","","","","","psychophysics","342","605476","0.0-10.0-0.0-0.0-0.0-0.101","492","","j","","","","","","","","","","","","","key","j","7.042815165876706","768","428","j","true","img/H_ambi40.png","自我","same",""
"","","","","","html-keyboard-response","343","605978","0.0-10.0-0.0-0.0-0.0-1.101","null","<span style='color:GreenYellow; font-size: 70px;'>正确! </span>","null","","","","","","","","","","","","","","","","","","","","","","","feedback_test"
"","","","","","psychophysics","344","607621","0.0-10.0-0.0-0.0-0.0-0.102","642","","f","","","","","","","","","","","","","key","f","6.9730427350429025","768","428","f","true","img/H_ambi40.png","朋友","same",""
"","","","","","html-keyboard-response","345","608123","0.0-10.0-0.0-0.0-0.0-1.102","null","<span style='color:GreenYellow; font-size: 70px;'>正确! </span>","null","","","","","","","","","","","","","","","","","","","","","","","feedback_test"
"","","","","","psychophysics","346","609729","0.0-10.0-0.0-0.0-0.0-0.103","605","","j","","","","","","","","","","","","","key","j","6.944734782609157","768","428","j","true","img/C_ambi40.png","朋友","same",""
"","","","","","html-keyboard-response","347","610230","0.0-10.0-0.0-0.0-0.0-1.103","null","<span style='color:GreenYellow; font-size: 70px;'>正确! </span>","null","","","","","","","","","","","","","","","","","","","","","","","feedback_test"
"","","","","","psychophysics","348","611777","0.0-10.0-0.0-0.0-0.0-0.104","545","","j","","","","","","","","","","","","","key","j","7.171869158878636","768","428","j","true","img/H_ambi40.png","自我","same",""
"","","","","","html-keyboard-response","349","612278","0.0-10.0-0.0-0.0-0.0-1.104","null","<span style='color:GreenYellow; font-size: 70px;'>正确! </span>","null","","","","","","","","","","","","","","","","","","","","","","","feedback_test"
"","","","","","psychophysics","350","613957","0.0-10.0-0.0-0.0-0.0-0.105","678","","j","","","","","","","","","","","","","key","j","6.973579166666605","768","428","j","true","img/S_ambi40.png","生人","same",""
"","","","","","html-keyboard-response","351","614459","0.0-10.0-0.0-0.0-0.0-1.105","null","<span style='color:GreenYellow; font-size: 70px;'>正确! </span>","null","","","","","","","","","","","","","","","","","","","","","","","feedback_test"
"","","","","","psychophysics","352","616350","0.0-10.0-0.0-0.0-0.0-0.106","890","","j","","","","","","","","","","","","","key","j","6.944782287822744","768","428","j","true","img/S_ambi40.png","生人","same",""
"","","","","","html-keyboard-response","353","616852","0.0-10.0-0.0-0.0-0.0-1.106","null","<span style='color:GreenYellow; font-size: 70px;'>正确! </span>","null","","","","","","","","","","","","","","","","","","","","","","","feedback_test"
"","","","","","psychophysics","354","618511","0.0-10.0-0.0-0.0-0.0-0.107","657","","f","","","","","","","","","","","","","key","f","6.944634453781896","768","428","f","true","img/S_ambi40.png","朋友","same",""
"","","","","","html-keyboard-response","355","619012","0.0-10.0-0.0-0.0-0.0-1.107","null","<span style='color:GreenYellow; font-size: 70px;'>正确! </span>","null","","","","","","","","","","","","","","","","","","","","","","","feedback_test"
"","","","","","html-keyboard-response","356","638148","0.0-10.0-0.0-0.0-1.0","19135","<style>.context{color:white; font-size: 35px; line-height:40px}</style>                          <div><p class='context'>您正确回答了94% 的试次。</p><p class='context'>您的平均反应时为684毫秒。</p><p class='context'>请按任意键进入休息</p></div>"," ","","","","","","","","","","","","","","","","","","","","","","",""
"","","","","","html-button-response","357","694238","0.0-10.0-0.0-0.0-2.0","56089","
                    <p>您当前还剩余5组实验</p>
                    <p>现在是休息时间，当您结束休息后，您可以点击 结束休息 按钮 继续</p>
                    <p>建议休息时间还剩余<span id=""iii"">60</span>秒</p>","0","","","","","","","","","","","","","","","","","","","","","","",""
"","","","","","psychophysics","358","696721","0.0-10.0-0.0-0.0-0.1-0.108","1481","","f","","","","","","","","","","","","","key","f","7.083922636103456","768","428","f","true","img/H_ambi40.png","生人","same",""
"","","","","","html-keyboard-response","359","697223","0.0-10.0-0.0-0.0-0.1-1.108","null","<span style='color:GreenYellow; font-size: 70px;'>正确! </span>","null","","","","","","","","","","","","","","","","","","","","","","","feedback_test"
"","","","","","psychophysics","360","698908","0.0-10.0-0.0-0.0-0.1-0.109","685","","f","","","","","","","","","","","","","key","f","6.944502074688796","768","428","f","true","img/H_ambi40.png","朋友","same",""
"","","","","","html-keyboard-response","361","699410","0.0-10.0-0.0-0.0-0.1-1.109","null","<span style='color:GreenYellow; font-size: 70px;'>正确! </span>","null","","","","","","","","","","","","","","","","","","","","","","","feedback_test"
"","","","","","psychophysics","362","701312","0.0-10.0-0.0-0.0-0.1-0.110","901","","j","","","","","","","","","","","","","key","j","6.996359259259232","768","428","j","true","img/S_ambi40.png","生人","same",""
"","","","","","html-keyboard-response","363","701813","0.0-10.0-0.0-0.0-0.1-1.110","null","<span style='color:GreenYellow; font-size: 70px;'>正确! </span>","null","","","","","","","","","","","","","","","","","","","","","","","feedback_test"
"","","","","","psychophysics","364","703367","0.0-10.0-0.0-0.0-0.1-0.111","552","","f","","","","","","","","","","","","","key","f","6.9446621621620155","768","428","f","true","img/T_ambi40.png","をる","same",""
"","","","","","html-keyboard-response","365","703869","0.0-10.0-0.0-0.0-0.1-1.111","null","<span style='color:GreenYellow; font-size: 70px;'>正确! </span>","null","","","","","","","","","","","","","","","","","","","","","","","feedback_test"
"","","","","","psychophysics","366","705538","0.0-10.0-0.0-0.0-0.1-0.112","668","","j","","","","","","","","","","","","","key","j","7.003464135021082","768","428","j","true","img/S_ambi40.png","生人","same",""
"","","","","","html-keyboard-response","367","706039","0.0-10.0-0.0-0.0-0.1-1.112","null","<span style='color:GreenYellow; font-size: 70px;'>正确! </span>","null","","","","","","","","","","","","","","","","","","","","","","","feedback_test"
"","","","","","psychophysics","368","707697","0.0-10.0-0.0-0.0-0.1-0.113","657","","f","","","","","","","","","","","","","key","f","7.217524017467098","768","428","f","true","img/C_ambi40.png","生人","same",""
"","","","","","html-keyboard-response","369","708198","0.0-10.0-0.0-0.0-0.1-1.113","null","<span style='color:GreenYellow; font-size: 70px;'>正确! </span>","null","","","","","","","","","","","","","","","","","","","","","","","feedback_test"
"","","","","","psychophysics","370","709898","0.0-10.0-0.0-0.0-0.1-0.114","698","","f","","","","","","","","","","","","","key","f","6.973353909465116","768","428","f","true","img/S_ambi40.png","朋友","same",""
"","","","","","html-keyboard-response","371","710399","0.0-10.0-0.0-0.0-0.1-1.114","null","<span style='color:GreenYellow; font-size: 70px;'>正确! </span>","null","","","","","","","","","","","","","","","","","","","","","","","feedback_test"
"","","","","","psychophysics","372","712017","0.0-10.0-0.0-0.0-0.1-0.115","616","","j","","","","","","","","","","","","","key","j","7.035764192139494","768","428","j","true","img/C_ambi40.png","朋友","same",""
"","","","","","html-keyboard-response","373","712518","0.0-10.0-0.0-0.0-0.1-1.115","null","<span style='color:GreenYellow; font-size: 70px;'>正确! </span>","null","","","","","","","","","","","","","","","","","","","","","","","feedback_test"
"","","","","","psychophysics","374","714086","0.0-10.0-0.0-0.0-0.1-0.116","567","","j","","","","","","","","","","","","","key","j","7.070312217195051","768","428","j","true","img/C_ambi40.png","朋友","same",""
"","","","","","html-keyboard-response","375","714587","0.0-10.0-0.0-0.0-0.1-1.116","null","<span style='color:GreenYellow; font-size: 70px;'>正确! </span>","null","","","","","","","","","","","","","","","","","","","","","","","feedback_test"
"","","","","","psychophysics","376","716104","0.0-10.0-0.0-0.0-0.1-0.117","516","","j","","","","","","","","","","","","","key","j","7.041406542056231","768","428","j","true","img/C_ambi40.png","朋友","same",""
"","","","","","html-keyboard-response","377","716605","0.0-10.0-0.0-0.0-0.1-1.117","null","<span style='color:GreenYellow; font-size: 70px;'>正确! </span>","null","","","","","","","","","","","","","","","","","","","","","","","feedback_test"
"","","","","","psychophysics","378","718355","0.0-10.0-0.0-0.0-0.1-0.118","749","","j","","","","","","","","","","","","","key","j","7.115553278688314","768","428","j","true","img/S_ambi40.png","生人","same",""
"","","","","","html-keyboard-response","379","718857","0.0-10.0-0.0-0.0-0.1-1.118","null","<span style='color:GreenYellow; font-size: 70px;'>正确! </span>","null","","","","","","","","","","","","","","","","","","","","","","","feedback_test"
"","","","","","psychophysics","380","720634","0.0-10.0-0.0-0.0-0.1-0.119","775","","f","","","","","","","","","","","","","key","f","7.055366533864531","768","428","f","true","img/C_ambi40.png","自我","same",""
"","","","","","html-keyboard-response","381","721136","0.0-10.0-0.0-0.0-0.1-1.119","null","<span style='color:GreenYellow; font-size: 70px;'>正确! </span>","null","","","","","","","","","","","","","","","","","","","","","","","feedback_test"
"","","","","","psychophysics","382","722613","0.0-10.0-0.0-0.0-0.1-0.120","477","","j","","","","","","","","","","","","","key","j","7.010638095238357","768","428","j","true","img/H_ambi40.png","自我","same",""
"","","","","","html-keyboard-response","383","723115","0.0-10.0-0.0-0.0-0.1-1.120","null","<span style='color:GreenYellow; font-size: 70px;'>正确! </span>","null","","","","","","","","","","","","","","","","","","","","","","","feedback_test"
"","","","","","psychophysics","384","724630","0.0-10.0-0.0-0.0-0.1-0.121","515","","f","","","","","","","","","","","","","key","f","7.108495283018543","768","428","f","true","img/T_ambi40.png","をる","same",""
"","","","","","html-keyboard-response","385","725131","0.0-10.0-0.0-0.0-0.1-1.121","null","<span style='color:GreenYellow; font-size: 70px;'>正确! </span>","null","","","","","","","","","","","","","","","","","","","","","","","feedback_test"
"","","","","","psychophysics","386","726632","0.0-10.0-0.0-0.0-0.1-0.122","499","","f","","","","","","","","","","","","","key","f","6.977107476635627","768","428","f","true","img/T_ambi40.png","をる","same",""
"","","","","","html-keyboard-response","387","727133","0.0-10.0-0.0-0.0-0.1-1.122","null","<span style='color:GreenYellow; font-size: 70px;'>正确! </span>","null","","","","","","","","","","","","","","","","","","","","","","","feedback_test"
"","","","","","psychophysics","388","728845","0.0-10.0-0.0-0.0-0.1-0.123","712","","f","","","","","","","","","","","","","key","f","7.209644067796713","768","428","f","true","img/S_ambi40.png","自我","same",""
"","","","","","html-keyboard-response","389","729346","0.0-10.0-0.0-0.0-0.1-1.123","null","<span style='color:GreenYellow; font-size: 70px;'>正确! </span>","null","","","","","","","","","","","","","","","","","","","","","","","feedback_test"
"","","","","","psychophysics","390","730886","0.0-10.0-0.0-0.0-0.1-0.124","538","","j","","","","","","","","","","","","","key","j","6.972913242009528","768","428","j","true","img/H_ambi40.png","自我","same",""
"","","","","","html-keyboard-response","391","731387","0.0-10.0-0.0-0.0-0.1-1.124","null","<span style='color:GreenYellow; font-size: 70px;'>正确! </span>","null","","","","","","","","","","","","","","","","","","","","","","","feedback_test"
"","","","","","psychophysics","392","732907","0.0-10.0-0.0-0.0-0.1-0.125","519","","j","","","","","","","","","","","","","key","j","6.976649769585073","768","428","j","true","img/H_ambi40.png","自我","same",""
"","","","","","html-keyboard-response","393","733408","0.0-10.0-0.0-0.0-0.1-1.125","null","<span style='color:GreenYellow; font-size: 70px;'>正确! </span>","null","","","","","","","","","","","","","","","","","","","","","","","feedback_test"
"","","","","","psychophysics","394","734884","0.0-10.0-0.0-0.0-0.1-0.126","475","","j","","","","","","","","","","","","","key","j","6.9772464454977365","768","428","j","true","img/H_ambi40.png","自我","same",""
"","","","","","html-keyboard-response","395","735385","0.0-10.0-0.0-0.0-0.1-1.126","null","<span style='color:GreenYellow; font-size: 70px;'>正确! </span>","null","","","","","","","","","","","","","","","","","","","","","","","feedback_test"
"","","","","","psychophysics","396","737072","0.0-10.0-0.0-0.0-0.1-0.127","681","","j","","","","","","","","","","","","","key","j","6.973508333333302","768","428","j","true","img/C_ambi40.png","朋友","same",""
"","","","","","html-keyboard-response","397","737574","0.0-10.0-0.0-0.0-0.1-1.127","null","<span style='color:GreenYellow; font-size: 70px;'>正确! </span>","null","","","","","","","","","","","","","","","","","","","","","","","feedback_test"
"","","","","","psychophysics","398","739181","0.0-10.0-0.0-0.0-0.1-0.128","606","","j","","","","","","","","","","","","","key","j","7.036083700440492","768","428","j","true","img/S_ambi40.png","生人","same",""
"","","","","","html-keyboard-response","399","739682","0.0-10.0-0.0-0.0-0.1-1.128","null","<span style='color:GreenYellow; font-size: 70px;'>正确! </span>","null","","","","","","","","","","","","","","","","","","","","","","","feedback_test"
"","","","","","psychophysics","400","741401","0.0-10.0-0.0-0.0-0.1-0.129","718","","f","","","","","","","","","","","","","key","f","6.944475609756158","768","428","f","true","img/H_ambi40.png","生人","same",""
"","","","","","html-keyboard-response","401","741906","0.0-10.0-0.0-0.0-0.1-1.129","null","<span style='color:GreenYellow; font-size: 70px;'>正确! </span>","null","","","","","","","","","","","","","","","","","","","","","","","feedback_test"
"","","","","","psychophysics","402","743515","0.0-10.0-0.0-0.0-0.1-0.130","607","","f","","","","","","","","","","","","","key","f","7.0676150442476064","768","428","f","true","img/T_ambi40.png","をる","same",""
"","","","","","html-keyboard-response","403","744017","0.0-10.0-0.0-0.0-0.1-1.130","null","<span style='color:GreenYellow; font-size: 70px;'>正确! </span>","null","","","","","","","","","","","","","","","","","","","","","","","feedback_test"
"","","","","","psychophysics","404","745687","0.0-10.0-0.0-0.0-0.1-0.131","669","","j","","","","","","","","","","","","","key","j","7.003274261603674","768","428","j","true","img/S_ambi40.png","生人","same",""
"","","","","","html-keyboard-response","405","746188","0.0-10.0-0.0-0.0-0.1-1.131","null","<span style='color:GreenYellow; font-size: 70px;'>正确! </span>","null","","","","","","","","","","","","","","","","","","","","","","","feedback_test"
"","","","","","psychophysics","406","747815","0.0-10.0-0.0-0.0-0.1-0.132","625","","j","","","","","","","","","","","","","key","j","6.944729613733793","768","428","j","true","img/C_ambi40.png","朋友","same",""
"","","","","","html-keyboard-response","407","748316","0.0-10.0-0.0-0.0-0.1-1.132","null","<span style='color:GreenYellow; font-size: 70px;'>正确! </span>","null","","","","","","","","","","","","","","","","","","","","","","","feedback_test"
"","","","","","psychophysics","408","749967","0.0-10.0-0.0-0.0-0.1-0.133","650","","f","","","","","","","","","","","","","key","f","7.0648318965515875","768","428","f","true","img/S_ambi40.png","朋友","same",""
"","","","","","html-keyboard-response","409","750468","0.0-10.0-0.0-0.0-0.1-1.133","null","<span style='color:GreenYellow; font-size: 70px;'>正确! </span>","null","","","","","","","","","","","","","","","","","","","","","","","feedback_test"
"","","","","","psychophysics","410","752019","0.0-10.0-0.0-0.0-0.1-0.134","549","","f","","","","","","","","","","","","","key","f","7.039657534246299","768","428","f","true","img/T_ambi40.png","をる","same",""
"","","","","","html-keyboard-response","411","752521","0.0-10.0-0.0-0.0-0.1-1.134","null","<span style='color:GreenYellow; font-size: 70px;'>正确! </span>","null","","","","","","","","","","","","","","","","","","","","","","","feedback_test"
"","","","","","psychophysics","412","754145","0.0-10.0-0.0-0.0-0.1-0.135","624","","f","","","","","","","","","","","","","key","f","7.004434782608777","768","428","f","true","img/C_ambi40.png","生人","same",""
"","","","","","html-keyboard-response","413","754646","0.0-10.0-0.0-0.0-0.1-1.135","null","<span style='color:GreenYellow; font-size: 70px;'>正确! </span>","null","","","","","","","","","","","","","","","","","","","","","","","feedback_test"
"","","","","","psychophysics","414","756265","0.0-10.0-0.0-0.0-0.1-0.136","614","","j","","","","","","","","","","","","","key","j","6.941567099567007","768","428","j","true","img/C_ambi40.png","朋友","same",""
"","","","","","html-keyboard-response","415","756767","0.0-10.0-0.0-0.0-0.1-1.136","null","<span style='color:GreenYellow; font-size: 70px;'>正确! </span>","null","","","","","","","","","","","","","","","","","","","","","","","feedback_test"
"","","","","","psychophysics","416","758487","0.0-10.0-0.0-0.0-0.1-0.137","719","","j","","","","","","","","","","","","","key","j","6.973134693877334","768","428","j","true","img/S_ambi40.png","生人","same",""
"","","","","","html-keyboard-response","417","758990","0.0-10.0-0.0-0.0-0.1-1.137","null","<span style='color:GreenYellow; font-size: 70px;'>正确! </span>","null","","","","","","","","","","","","","","","","","","","","","","","feedback_test"
"","","","","","psychophysics","418","760766","0.0-10.0-0.0-0.0-0.1-0.138","775","","f","","","","","","","","","","","","","key","f","7.084506024095981","768","428","f","true","img/S_ambi40.png","自我","same",""
"","","","","","html-keyboard-response","419","761268","0.0-10.0-0.0-0.0-0.1-1.138","null","<span style='color:GreenYellow; font-size: 70px;'>正确! </span>","null","","","","","","","","","","","","","","","","","","","","","","","feedback_test"
"","","","","","psychophysics","420","762940","0.0-10.0-0.0-0.0-0.1-0.139","672","","f","","","","","","","","","","","","","key","f","7.0325485232064135","768","428","f","true","img/C_ambi40.png","自我","same",""
"","","","","","html-keyboard-response","421","763441","0.0-10.0-0.0-0.0-0.1-1.139","null","<span style='color:GreenYellow; font-size: 70px;'>正确! </span>","null","","","","","","","","","","","","","","","","","","","","","","","feedback_test"
"","","","","","psychophysics","422","764924","0.0-10.0-0.0-0.0-0.1-0.140","482","","j","","","","","","","","","","","","","key","j","6.977592417061598","768","428","j","true","img/H_ambi40.png","自我","same",""
"","","","","","html-keyboard-response","423","765425","0.0-10.0-0.0-0.0-0.1-1.140","null","<span style='color:GreenYellow; font-size: 70px;'>正确! </span>","null","","","","","","","","","","","","","","","","","","","","","","","feedback_test"
"","","","","","psychophysics","424","767097","0.0-10.0-0.0-0.0-0.1-0.141","670","","f","","","","","","","","","","","","","key","f","7.003763713080137","768","428","f","true","img/T_ambi40.png","をる","same",""
"","","","","","html-keyboard-response","425","767599","0.0-10.0-0.0-0.0-0.1-1.141","null","<span style='color:GreenYellow; font-size: 70px;'>正确! </span>","null","","","","","","","","","","","","","","","","","","","","","","","feedback_test"
"","","","","","psychophysics","426","769243","0.0-10.0-0.0-0.0-0.1-0.142","642","","f","","","","","","","","","","","","","key","f","7.004339055793736","768","428","f","true","img/H_ambi40.png","朋友","same",""
"","","","","","html-keyboard-response","427","769745","0.0-10.0-0.0-0.0-0.1-1.142","null","<span style='color:GreenYellow; font-size: 70px;'>正确! </span>","null","","","","","","","","","","","","","","","","","","","","","","","feedback_test"
"","","","","","psychophysics","428","771250","0.0-10.0-0.0-0.0-0.1-0.143","502","","j","","","","","","","","","","","","","key","j","7.042844339622567","768","428","j","true","img/H_ambi40.png","自我","same",""
"","","","","","html-keyboard-response","429","771751","0.0-10.0-0.0-0.0-0.1-1.143","null","<span style='color:GreenYellow; font-size: 70px;'>正确! </span>","null","","","","","","","","","","","","","","","","","","","","","","","feedback_test"
"","","","","","psychophysics","430","773305","0.0-10.0-0.0-0.0-0.1-0.144","553","","f","","","","","","","","","","","","","key","f","6.944441441441299","768","428","f","true","img/C_ambi40.png","自我","same",""
"","","","","","html-keyboard-response","431","773807","0.0-10.0-0.0-0.0-0.1-1.144","null","<span style='color:GreenYellow; font-size: 70px;'>正确! </span>","null","","","","","","","","","","","","","","","","","","","","","","","feedback_test"
"","","","","","psychophysics","432","775295","0.0-10.0-0.0-0.0-0.1-0.145","487","","f","","","","","","","","","","","","","key","f","6.945225352112602","768","428","f","true","img/T_ambi40.png","をる","same",""
"","","","","","html-keyboard-response","433","775796","0.0-10.0-0.0-0.0-0.1-1.145","null","<span style='color:GreenYellow; font-size: 70px;'>正确! </span>","null","","","","","","","","","","","","","","","","","","","","","","","feedback_test"
"","","","","","psychophysics","434","777548","0.0-10.0-0.0-0.0-0.1-0.146","751","","f","","","","","","","","","","","","","key","f","6.972304000000004","768","428","f","true","img/S_ambi40.png","朋友","same",""
"","","","","","html-keyboard-response","435","778050","0.0-10.0-0.0-0.0-0.1-1.146","null","<span style='color:GreenYellow; font-size: 70px;'>正确! </span>","null","","","","","","","","","","","","","","","","","","","","","","","feedback_test"
"","","","","","psychophysics","436","779517","0.0-10.0-0.0-0.0-0.1-0.147","466","","j","","","","","","","","","","","","","key","j","6.978172248803663","768","428","j","true","img/C_ambi40.png","朋友","same",""
"","","","","","html-keyboard-response","437","780018","0.0-10.0-0.0-0.0-0.1-1.147","null","<span style='color:GreenYellow; font-size: 70px;'>正确! </span>","null","","","","","","","","","","","","","","","","","","","","","","","feedback_test"
"","","","","","psychophysics","438","781630","0.0-10.0-0.0-0.0-0.1-0.148","610","","f","","","","","","","","","","","","","key","f","6.94520346320323","768","428","f","true","img/H_ambi40.png","朋友","same",""
"","","","","","html-keyboard-response","439","782132","0.0-10.0-0.0-0.0-0.1-1.148","null","<span style='color:GreenYellow; font-size: 70px;'>正确! </span>","null","","","","","","","","","","","","","","","","","","","","","","","feedback_test"
"","","","","","psychophysics","440","783654","0.0-10.0-0.0-0.0-0.1-0.149","521","","j","","","","","","","","","","","","","key","j","6.944766055046017","768","428","j","true","img/H_ambi40.png","自我","same",""
"","","","","","html-keyboard-response","441","784155","0.0-10.0-0.0-0.0-0.1-1.149","null","<span style='color:GreenYellow; font-size: 70px;'>正确! </span>","null","","","","","","","","","","","","","","","","","","","","","","","feedback_test"
"","","","","","psychophysics","442","785829","0.0-10.0-0.0-0.0-0.1-0.150","673","","j","","","","","","","","","","","","","key","j","6.973837500000082","768","428","j","true","img/S_ambi40.png","生人","same",""
"","","","","","html-keyboard-response","443","786329","0.0-10.0-0.0-0.0-0.1-1.150","null","<span style='color:GreenYellow; font-size: 70px;'>正确! </span>","null","","","","","","","","","","","","","","","","","","","","","","","feedback_test"
