"success","timeout","failed_images","failed_audio","failed_video","trial_type","trial_index","time_elapsed","internal_node_id","rt","stimulus","response","value","item_width_mm","item_height_mm","item_width_px","px2mm","view_dist_mm","item_width_deg","px2deg","scale_factor","win_width_deg","win_height_deg","view_history","response_type","key_press","avg_frame_time","center_x","center_y","correct_response","correct","Image","word","condition","screen_id"
"true","false","[]","[]","[]","preload","0","781","0.0-0.0","","","","","","","","","","","","","","","","","","","","","","","","","",""
"","","","","","html-keyboard-response","1","63776","0.0-1.0","62994","
     <p>您好，欢迎参加本次实验。</p>
     <p>为充分保障您的权利，请确保您已经知晓并同意《参与实验同意书》以及《数据公开知情同意书》。</p>
     <p>如果您未见过上述内容，请咨询实验员。</p>
     <p>如果您选择继续实验，则表示您已经清楚两份知情同意书的内容并同意。</p>
     <p> <div style = ""color: green""><按任意键至下页></div> </p>
     ","arrowdown","","","","","","","","","","","","","","","","","","","","","","",""
"","","","","","html-keyboard-response","2","65495","0.0-2.0","1719","
     <p>本实验首先需要您填写一些基本个人信息。</p>
     <p> <div style = ""color: green""><按任意键至下页></div></p>
     ","arrowdown","","","","","","","","","","","","","","","","","","","","","","",""
"","","","","","call-function","3","65497","0.0-3.0-0.0","","","","","","","","","","","","","","","","","","","","","","","","","",""
"","","","","","survey-html-form","4","72836","0.0-3.0-1.0","7337","","{""Q0"":""2""}","","","","","","","","","","","","","","","","","","","","","","",""
"","","","","","html-button-response","5","74691","0.0-3.0-2.0","1853","<p style = 'color : white'>您的性别</p>","0","","","","","","","","","","","","","","","","","","","","","","",""
"","","","","","survey-html-form","6","79659","0.0-3.0-3.0","4967","","{""Q0"":""2002""}","","","","","","","","","","","","","","","","","","","","","","",""
"","","","","","survey-html-form","7","84546","0.0-3.0-4.0","4886","","{""Q0"":""5""}","","","","","","","","","","","","","","","","","","","","","","",""
"","","","","","virtual-chinrest","8","168895","0.0-4.0","84347","","","","85.6","53.98","444.1963768454464","5.192295486098799","550.96","8.883927536908928","50","0.6663719368944564","22.64","12.52","","","","","","","","","","","",""
"true","","","","","fullscreen","9","172141","0.0-5.0","","","","","","","","","","","","","","","","","","","","","","","","","",""
"","","","","","instructions","10","227003","0.0-6.0","54860","","","","","","","","","","","","","","[{""page_index"":0,""viewing_time"":5289},{""page_index"":1,""viewing_time"":38695},{""page_index"":2,""viewing_time"":6017},{""page_index"":3,""viewing_time"":4858}]","","","","","","","","","","",""
"","","","","","psychophysics","11","229514","0.0-7.0-0.0","null","","null","","","","","","","","","","","","","key","null","6.2109354838709265","584.9142857142857","324.8","f","false","img/T_ambi40.png","をる","prac",""
"","","","","","html-keyboard-response","12","230021","0.0-7.0-1.0","null","<span class='add_' style='color:yellow; font-size: 70px;'> 太慢! </span>","null","","","","","","","","","","","","","","","","","","","","","","","feedback_test"
"","","","","","psychophysics","13","232524","0.0-7.0-0.1","null","","null","","","","","","","","","","","","","key","null","6.070921568627419","584.9142857142857","324.8","j","false","img/S_ambi40.png","生人","prac",""
"","","","","","html-keyboard-response","14","233036","0.0-7.0-1.1","null","<span class='add_' style='color:yellow; font-size: 70px;'> 太慢! </span>","null","","","","","","","","","","","","","","","","","","","","","","","feedback_test"
"","","","","","psychophysics","15","234850","0.0-7.0-0.2","809","","f","","","","","","","","","","","","","key","f","6.080979797979722","584.9142857142857","324.8","f","true","img/H_ambi40.png","生人","prac",""
"","","","","","html-keyboard-response","16","235363","0.0-7.0-1.2","null","<span style='color:GreenYellow; font-size: 70px;'>正确! </span>","null","","","","","","","","","","","","","","","","","","","","","","","feedback_test"
"","","","","","psychophysics","17","237865","0.0-7.0-0.3","null","","null","","","","","","","","","","","","","key","null","6.120061425061402","584.9142857142857","324.8","f","false","img/T_ambi40.png","をる","prac",""
"","","","","","html-keyboard-response","18","238367","0.0-7.0-1.3","null","<span class='add_' style='color:yellow; font-size: 70px;'> 太慢! </span>","null","","","","","","","","","","","","","","","","","","","","","","","feedback_test"
"","","","","","psychophysics","19","240325","0.0-7.0-0.4","957","","j","","","","","","","","","","","","","key","j","6.079556250000041","584.9142857142857","324.8","f","false","img/S_ambi40.png","自我","prac",""
"","","","","","html-keyboard-response","20","240834","0.0-7.0-1.4","null","<span style='color:red; font-size: 70px;'>错误! </span>","null","","","","","","","","","","","","","","","","","","","","","","","feedback_test"
"","","","","","psychophysics","21","243337","0.0-7.0-0.5","null","","null","","","","","","","","","","","","","key","null","6.105125000000008","584.9142857142857","324.8","j","false","img/H_ambi40.png","自我","prac",""
"","","","","","html-keyboard-response","22","243847","0.0-7.0-1.5","null","<span class='add_' style='color:yellow; font-size: 70px;'> 太慢! </span>","null","","","","","","","","","","","","","","","","","","","","","","","feedback_test"
"","","","","","psychophysics","23","246261","0.0-7.0-0.6","1409","","j","","","","","","","","","","","","","key","j","6.075886363636381","584.9142857142857","324.8","f","false","img/C_ambi40.png","朋友","prac",""
"","","","","","html-keyboard-response","24","246770","0.0-7.0-1.6","null","<span style='color:red; font-size: 70px;'>错误! </span>","null","","","","","","","","","","","","","","","","","","","","","","","feedback_test"
"","","","","","psychophysics","25","249260","0.0-7.0-0.7","1487","","f","","","","","","","","","","","","","key","f","6.1051474201473805","584.9142857142857","324.8","j","false","img/S_ambi40.png","朋友","prac",""
"","","","","","html-keyboard-response","26","249772","0.0-7.0-1.7","null","<span style='color:red; font-size: 70px;'>错误! </span>","null","","","","","","","","","","","","","","","","","","","","","","","feedback_test"
"","","","","","psychophysics","27","251845","0.0-7.0-0.8","1072","","f","","","","","","","","","","","","","key","f","6.1059583333332865","584.9142857142857","324.8","j","false","img/C_ambi40.png","生人","prac",""
"","","","","","html-keyboard-response","28","252353","0.0-7.0-1.8","null","<span style='color:red; font-size: 70px;'>错误! </span>","null","","","","","","","","","","","","","","","","","","","","","","","feedback_test"
"","","","","","psychophysics","29","254439","0.0-7.0-0.9","1084","","j","","","","","","","","","","","","","key","j","6.073208823529422","584.9142857142857","324.8","j","true","img/C_ambi40.png","自我","prac",""
"","","","","","html-keyboard-response","30","254950","0.0-7.0-1.9","null","<span style='color:GreenYellow; font-size: 70px;'>正确! </span>","null","","","","","","","","","","","","","","","","","","","","","","","feedback_test"
"","","","","","psychophysics","31","257458","0.0-7.0-0.10","null","","null","","","","","","","","","","","","","key","null","6.090097560975615","584.9142857142857","324.8","f","false","img/C_ambi40.png","朋友","prac",""
"","","","","","html-keyboard-response","32","257966","0.0-7.0-1.10","null","<span class='add_' style='color:yellow; font-size: 70px;'> 太慢! </span>","null","","","","","","","","","","","","","","","","","","","","","","","feedback_test"
"","","","","","psychophysics","33","260476","0.0-7.0-0.11","null","","null","","","","","","","","","","","","","key","null","6.104870415647904","584.9142857142857","324.8","f","false","img/T_ambi40.png","をる","prac",""
"","","","","","html-keyboard-response","34","260978","0.0-7.0-1.11","null","<span class='add_' style='color:yellow; font-size: 70px;'> 太慢! </span>","null","","","","","","","","","","","","","","","","","","","","","","","feedback_test"
"","","","","","psychophysics","35","263482","0.0-7.0-0.12","null","","null","","","","","","","","","","","","","key","null","6.075192682926895","584.9142857142857","324.8","f","false","img/T_ambi40.png","をる","prac",""
"","","","","","html-keyboard-response","36","263989","0.0-7.0-1.12","null","<span class='add_' style='color:yellow; font-size: 70px;'> 太慢! </span>","null","","","","","","","","","","","","","","","","","","","","","","","feedback_test"
"","","","","","psychophysics","37","266495","0.0-7.0-0.13","null","","null","","","","","","","","","","","","","key","null","6.076813106796109","584.9142857142857","324.8","f","false","img/H_ambi40.png","生人","prac",""
"","","","","","html-keyboard-response","38","266999","0.0-7.0-1.13","null","<span class='add_' style='color:yellow; font-size: 70px;'> 太慢! </span>","null","","","","","","","","","","","","","","","","","","","","","","","feedback_test"
"","","","","","psychophysics","39","269506","0.0-7.0-0.14","null","","null","","","","","","","","","","","","","key","null","6.090141463414596","584.9142857142857","324.8","j","false","img/H_ambi40.png","朋友","prac",""
"","","","","","html-keyboard-response","40","270017","0.0-7.0-1.14","null","<span class='add_' style='color:yellow; font-size: 70px;'> 太慢! </span>","null","","","","","","","","","","","","","","","","","","","","","","","feedback_test"
"","","","","","psychophysics","41","272443","0.0-7.0-0.15","1424","","j","","","","","","","","","","","","","key","j","6.075816582914544","584.9142857142857","324.8","f","false","img/S_ambi40.png","自我","prac",""
"","","","","","html-keyboard-response","42","272952","0.0-7.0-1.15","null","<span style='color:red; font-size: 70px;'>错误! </span>","null","","","","","","","","","","","","","","","","","","","","","","","feedback_test"
"","","","","","psychophysics","43","275385","0.0-7.0-0.16","1430","","j","","","","","","","","","","","","","key","j","6.090841708542637","584.9142857142857","324.8","j","true","img/S_ambi40.png","生人","prac",""
"","","","","","html-keyboard-response","44","275887","0.0-7.0-1.16","null","<span style='color:GreenYellow; font-size: 70px;'>正确! </span>","null","","","","","","","","","","","","","","","","","","","","","","","feedback_test"
"","","","","","psychophysics","45","278391","0.0-7.0-0.17","null","","null","","","","","","","","","","","","","key","null","6.075470731707386","584.9142857142857","324.8","f","false","img/T_ambi40.png","をる","prac",""
"","","","","","html-keyboard-response","46","278894","0.0-7.0-1.17","null","<span class='add_' style='color:yellow; font-size: 70px;'> 太慢! </span>","null","","","","","","","","","","","","","","","","","","","","","","","feedback_test"
"","","","","","psychophysics","47","281403","0.0-7.0-0.18","null","","null","","","","","","","","","","","","","key","null","6.075340632603469","584.9142857142857","324.8","f","false","img/S_ambi40.png","自我","prac",""
"","","","","","html-keyboard-response","48","281918","0.0-7.0-1.18","null","<span class='add_' style='color:yellow; font-size: 70px;'> 太慢! </span>","null","","","","","","","","","","","","","","","","","","","","","","","feedback_test"
"","","","","","psychophysics","49","284427","0.0-7.0-0.19","null","","null","","","","","","","","","","","","","key","null","6.105004889975657","584.9142857142857","324.8","j","false","img/S_ambi40.png","朋友","prac",""
"","","","","","html-keyboard-response","50","284930","0.0-7.0-1.19","null","<span class='add_' style='color:yellow; font-size: 70px;'> 太慢! </span>","null","","","","","","","","","","","","","","","","","","","","","","","feedback_test"
"","","","","","psychophysics","51","287433","0.0-7.0-0.20","null","","null","","","","","","","","","","","","","key","null","6.060574209245761","584.9142857142857","324.8","f","false","img/T_ambi40.png","をる","prac",""
"","","","","","html-keyboard-response","52","287936","0.0-7.0-1.20","null","<span class='add_' style='color:yellow; font-size: 70px;'> 太慢! </span>","null","","","","","","","","","","","","","","","","","","","","","","","feedback_test"
"","","","","","psychophysics","53","290446","0.0-7.0-0.21","null","","null","","","","","","","","","","","","","key","null","6.07681751824814","584.9142857142857","324.8","j","false","img/C_ambi40.png","生人","prac",""
"","","","","","html-keyboard-response","54","290948","0.0-7.0-1.21","null","<span class='add_' style='color:yellow; font-size: 70px;'> 太慢! </span>","null","","","","","","","","","","","","","","","","","","","","","","","feedback_test"
"","","","","","psychophysics","55","293457","0.0-7.0-0.22","null","","null","","","","","","","","","","","","","key","null","6.090134146341361","584.9142857142857","324.8","f","false","img/C_ambi40.png","朋友","prac",""
"","","","","","html-keyboard-response","56","293970","0.0-7.0-1.22","null","<span class='add_' style='color:yellow; font-size: 70px;'> 太慢! </span>","null","","","","","","","","","","","","","","","","","","","","","","","feedback_test"
"","","","","","psychophysics","57","296474","0.0-7.0-0.23","null","","null","","","","","","","","","","","","","key","null","6.090136585365867","584.9142857142857","324.8","j","false","img/C_ambi40.png","自我","prac",""
"","","","","","html-keyboard-response","58","296987","0.0-7.0-1.23","null","<span class='add_' style='color:yellow; font-size: 70px;'> 太慢! </span>","null","","","","","","","","","","","","","","","","","","","","","","","feedback_test"
"","","","","","psychophysics","59","299494","0.0-7.0-0.24","null","","null","","","","","","","","","","","","","key","null","6.08993658536588","584.9142857142857","324.8","j","false","img/H_ambi40.png","朋友","prac",""
"","","","","","html-keyboard-response","60","299999","0.0-7.0-1.24","null","<span class='add_' style='color:yellow; font-size: 70px;'> 太慢! </span>","null","","","","","","","","","","","","","","","","","","","","","","","feedback_test"
"","","","","","psychophysics","61","302502","0.0-7.0-0.25","null","","null","","","","","","","","","","","","","key","null","6.090451219512246","584.9142857142857","324.8","f","false","img/T_ambi40.png","をる","prac",""
"","","","","","html-keyboard-response","62","303016","0.0-7.0-1.25","null","<span class='add_' style='color:yellow; font-size: 70px;'> 太慢! </span>","null","","","","","","","","","","","","","","","","","","","","","","","feedback_test"
"","","","","","psychophysics","63","305524","0.0-7.0-0.26","null","","null","","","","","","","","","","","","","key","null","6.090048780487907","584.9142857142857","324.8","f","false","img/C_ambi40.png","朋友","prac",""
"","","","","","html-keyboard-response","64","306034","0.0-7.0-1.26","null","<span class='add_' style='color:yellow; font-size: 70px;'> 太慢! </span>","null","","","","","","","","","","","","","","","","","","","","","","","feedback_test"
"","","","","","psychophysics","65","308542","0.0-7.0-0.27","null","","null","","","","","","","","","","","","","key","null","6.0911707317073285","584.9142857142857","324.8","j","false","img/H_ambi40.png","自我","prac",""
"","","","","","html-keyboard-response","66","309052","0.0-7.0-1.27","null","<span class='add_' style='color:yellow; font-size: 70px;'> 太慢! </span>","null","","","","","","","","","","","","","","","","","","","","","","","feedback_test"
"","","","","","psychophysics","67","311566","0.0-7.0-0.28","null","","null","","","","","","","","","","","","","key","null","6.075430656934254","584.9142857142857","324.8","f","false","img/S_ambi40.png","自我","prac",""
"","","","","","html-keyboard-response","68","312073","0.0-7.0-1.28","null","<span class='add_' style='color:yellow; font-size: 70px;'> 太慢! </span>","null","","","","","","","","","","","","","","","","","","","","","","","feedback_test"
"","","","","","psychophysics","69","314579","0.0-7.0-0.29","null","","null","","","","","","","","","","","","","key","null","6.119660146699246","584.9142857142857","324.8","f","false","img/T_ambi40.png","をる","prac",""
"","","","","","html-keyboard-response","70","315081","0.0-7.0-1.29","null","<span class='add_' style='color:yellow; font-size: 70px;'> 太慢! </span>","null","","","","","","","","","","","","","","","","","","","","","","","feedback_test"
"","","","","","psychophysics","71","317585","0.0-7.0-0.30","null","","null","","","","","","","","","","","","","key","null","6.089870415647881","584.9142857142857","324.8","f","false","img/H_ambi40.png","生人","prac",""
"","","","","","html-keyboard-response","72","318095","0.0-7.0-1.30","null","<span class='add_' style='color:yellow; font-size: 70px;'> 太慢! </span>","null","","","","","","","","","","","","","","","","","","","","","","","feedback_test"
"","","","","","psychophysics","73","320497","0.0-7.0-0.31","1396","","j","","","","","","","","","","","","","key","j","6.091412213740576","584.9142857142857","324.8","f","false","img/H_ambi40.png","生人","prac",""
"","","","","","html-keyboard-response","74","320998","0.0-7.0-1.31","null","<span style='color:red; font-size: 70px;'>错误! </span>","null","","","","","","","","","","","","","","","","","","","","","","","feedback_test"
"","","","","","psychophysics","75","323506","0.0-8.0-0.0-0.0","null","","null","","","","","","","","","","","","","key","null","6.089902676399055","584.9142857142857","324.8","f","false","img/C_ambi40.png","朋友","prac",""
"","","","","","html-keyboard-response","76","324014","0.0-8.0-0.0-1.0","null","<span class='add_' style='color:yellow; font-size: 70px;'> 太慢! </span>","null","","","","","","","","","","","","","","","","","","","","","","","feedback_test"
"","","","","","psychophysics","77","326146","0.0-8.0-0.0-0.1","1126","","j","","","","","","","","","","","","","key","j","6.130473988439223","584.9142857142857","324.8","f","false","img/C_ambi40.png","朋友","prac",""
"","","","","","html-keyboard-response","78","326659","0.0-8.0-0.0-1.1","null","<span style='color:red; font-size: 70px;'>错误! </span>","null","","","","","","","","","","","","","","","","","","","","","","","feedback_test"
"","","","","","psychophysics","79","329160","0.0-8.0-0.0-0.2","null","","null","","","","","","","","","","","","","key","null","6.075282238442802","584.9142857142857","324.8","f","false","img/H_ambi40.png","生人","prac",""
"","","","","","html-keyboard-response","80","329669","0.0-8.0-0.0-1.2","null","<span class='add_' style='color:yellow; font-size: 70px;'> 太慢! </span>","null","","","","","","","","","","","","","","","","","","","","","","","feedback_test"
"","","","","","psychophysics","81","332178","0.0-8.0-0.0-0.3","null","","null","","","","","","","","","","","","","key","null","6.060419902912577","584.9142857142857","324.8","j","false","img/H_ambi40.png","自我","prac",""
"","","","","","html-keyboard-response","82","332684","0.0-8.0-0.0-1.3","null","<span class='add_' style='color:yellow; font-size: 70px;'> 太慢! </span>","null","","","","","","","","","","","","","","","","","","","","","","","feedback_test"
"","","","","","psychophysics","83","334638","0.0-8.0-0.0-0.4","951","","j","","","","","","","","","","","","","key","j","6.079368749999958","584.9142857142857","324.8","f","false","img/S_ambi40.png","自我","prac",""
"","","","","","html-keyboard-response","84","335153","0.0-8.0-0.0-1.4","null","<span style='color:red; font-size: 70px;'>错误! </span>","null","","","","","","","","","","","","","","","","","","","","","","","feedback_test"
"","","","","","psychophysics","85","337663","0.0-8.0-0.0-0.5","null","","null","","","","","","","","","","","","","key","null","6.104897310513426","584.9142857142857","324.8","f","false","img/T_ambi40.png","をる","prac",""
"","","","","","html-keyboard-response","86","338176","0.0-8.0-0.0-1.5","null","<span class='add_' style='color:yellow; font-size: 70px;'> 太慢! </span>","null","","","","","","","","","","","","","","","","","","","","","","","feedback_test"
"","","","","","psychophysics","87","340687","0.0-8.0-0.0-0.6","null","","null","","","","","","","","","","","","","key","null","6.0869633251833015","584.9142857142857","324.8","f","false","img/S_ambi40.png","自我","prac",""
"","","","","","html-keyboard-response","88","341202","0.0-8.0-0.0-1.6","null","<span class='add_' style='color:yellow; font-size: 70px;'> 太慢! </span>","null","","","","","","","","","","","","","","","","","","","","","","","feedback_test"
"","","","","","psychophysics","89","343705","0.0-8.0-0.0-0.7","null","","null","","","","","","","","","","","","","key","null","6.090317848410764","584.9142857142857","324.8","j","false","img/S_ambi40.png","生人","prac",""
"","","","","","html-keyboard-response","90","344220","0.0-8.0-0.0-1.7","null","<span class='add_' style='color:yellow; font-size: 70px;'> 太慢! </span>","null","","","","","","","","","","","","","","","","","","","","","","","feedback_test"
"","","","","","psychophysics","91","346723","0.0-8.0-0.0-0.8","null","","null","","","","","","","","","","","","","key","null","6.060727493917352","584.9142857142857","324.8","f","false","img/T_ambi40.png","をる","prac",""
"","","","","","html-keyboard-response","92","347225","0.0-8.0-0.0-1.8","null","<span class='add_' style='color:yellow; font-size: 70px;'> 太慢! </span>","null","","","","","","","","","","","","","","","","","","","","","","","feedback_test"
"","","","","","psychophysics","93","349735","0.0-8.0-0.0-0.9","null","","null","","","","","","","","","","","","","key","null","6.15755940594069","584.9142857142857","324.8","f","false","img/T_ambi40.png","をる","prac",""
"","","","","","html-keyboard-response","94","350241","0.0-8.0-0.0-1.9","null","<span class='add_' style='color:yellow; font-size: 70px;'> 太慢! </span>","null","","","","","","","","","","","","","","","","","","","","","","","feedback_test"
"","","","","","psychophysics","95","352745","0.0-8.0-0.0-0.10","null","","null","","","","","","","","","","","","","key","null","6.090099999999979","584.9142857142857","324.8","f","false","img/T_ambi40.png","をる","prac",""
"","","","","","html-keyboard-response","96","353259","0.0-8.0-0.0-1.10","null","<span class='add_' style='color:yellow; font-size: 70px;'> 太慢! </span>","null","","","","","","","","","","","","","","","","","","","","","","","feedback_test"
"","","","","","psychophysics","97","355217","0.0-8.0-0.0-0.11","955","","j","","","","","","","","","","","","","key","j","6.136965408805192","584.9142857142857","324.8","j","true","img/C_ambi40.png","自我","prac",""
"","","","","","html-keyboard-response","98","355726","0.0-8.0-0.0-1.11","null","<span style='color:GreenYellow; font-size: 70px;'>正确! </span>","null","","","","","","","","","","","","","","","","","","","","","","","feedback_test"
"","","","","","psychophysics","99","358232","0.0-8.0-0.0-0.12","null","","null","","","","","","","","","","","","","key","null","6.060429611650479","584.9142857142857","324.8","j","false","img/C_ambi40.png","生人","prac",""
"","","","","","html-keyboard-response","100","358747","0.0-8.0-0.0-1.12","null","<span class='add_' style='color:yellow; font-size: 70px;'> 太慢! </span>","null","","","","","","","","","","","","","","","","","","","","","","","feedback_test"
"","","","","","psychophysics","101","361250","0.0-8.0-0.0-0.13","null","","null","","","","","","","","","","","","","key","null","6.090198044009788","584.9142857142857","324.8","f","false","img/H_ambi40.png","生人","prac",""
"","","","","","html-keyboard-response","102","361759","0.0-8.0-0.0-1.13","null","<span class='add_' style='color:yellow; font-size: 70px;'> 太慢! </span>","null","","","","","","","","","","","","","","","","","","","","","","","feedback_test"
"","","","","","psychophysics","103","363753","0.0-8.0-0.0-0.14","988","","j","","","","","","","","","","","","","key","j","6.097913846153801","584.9142857142857","324.8","j","true","img/H_ambi40.png","朋友","prac",""
"","","","","","html-keyboard-response","104","364268","0.0-8.0-0.0-1.14","null","<span style='color:GreenYellow; font-size: 70px;'>正确! </span>","null","","","","","","","","","","","","","","","","","","","","","","","feedback_test"
"","","","","","psychophysics","105","366770","0.0-8.0-0.0-0.15","null","","null","","","","","","","","","","","","","key","null","6.119874692874811","584.9142857142857","324.8","j","false","img/S_ambi40.png","朋友","prac",""
"","","","","","html-keyboard-response","106","367283","0.0-8.0-0.0-1.15","null","<span class='add_' style='color:yellow; font-size: 70px;'> 太慢! </span>","null","","","","","","","","","","","","","","","","","","","","","","","feedback_test"
"","","","","","psychophysics","107","368850","0.0-8.0-0.0-0.16","563","","f","","","","","","","","","","","","","key","f","6.085414062499922","584.9142857142857","324.8","f","true","img/T_ambi40.png","をる","prac",""
"","","","","","html-keyboard-response","108","369358","0.0-8.0-0.0-1.16","null","<span style='color:GreenYellow; font-size: 70px;'>正确! </span>","null","","","","","","","","","","","","","","","","","","","","","","","feedback_test"
"","","","","","psychophysics","109","371455","0.0-8.0-0.0-0.17","1096","","f","","","","","","","","","","","","","key","f","6.072546783625693","584.9142857142857","324.8","f","true","img/H_ambi40.png","生人","prac",""
"","","","","","html-keyboard-response","110","371963","0.0-8.0-0.0-1.17","null","<span style='color:GreenYellow; font-size: 70px;'>正确! </span>","null","","","","","","","","","","","","","","","","","","","","","","","feedback_test"
"","","","","","psychophysics","111","373683","0.0-8.0-0.0-0.18","719","","j","","","","","","","","","","","","","key","j","6.074010714285707","584.9142857142857","324.8","j","true","img/C_ambi40.png","自我","prac",""
"","","","","","html-keyboard-response","112","374197","0.0-8.0-0.0-1.18","null","<span style='color:GreenYellow; font-size: 70px;'>正确! </span>","null","","","","","","","","","","","","","","","","","","","","","","","feedback_test"
"","","","","","psychophysics","113","375933","0.0-8.0-0.0-0.19","733","","f","","","","","","","","","","","","","key","f","6.146725978647621","584.9142857142857","324.8","j","false","img/H_ambi40.png","自我","prac",""
"","","","","","html-keyboard-response","114","376437","0.0-8.0-0.0-1.19","null","<span style='color:red; font-size: 70px;'>错误! </span>","null","","","","","","","","","","","","","","","","","","","","","","","feedback_test"
"","","","","","psychophysics","115","378944","0.0-8.0-0.0-0.20","null","","null","","","","","","","","","","","","","key","null","6.075350364963604","584.9142857142857","324.8","j","false","img/S_ambi40.png","生人","prac",""
"","","","","","html-keyboard-response","116","379455","0.0-8.0-0.0-1.20","null","<span class='add_' style='color:yellow; font-size: 70px;'> 太慢! </span>","null","","","","","","","","","","","","","","","","","","","","","","","feedback_test"
"","","","","","psychophysics","117","381304","0.0-8.0-0.0-0.21","849","","f","","","","","","","","","","","","","key","f","6.100483443708674","584.9142857142857","324.8","f","true","img/T_ambi40.png","をる","prac",""
"","","","","","html-keyboard-response","118","381818","0.0-8.0-0.0-1.21","null","<span style='color:GreenYellow; font-size: 70px;'>正确! </span>","null","","","","","","","","","","","","","","","","","","","","","","","feedback_test"
"","","","","","psychophysics","119","383690","0.0-8.0-0.0-0.22","871","","f","","","","","","","","","","","","","key","f","6.080359477124077","584.9142857142857","324.8","f","true","img/T_ambi40.png","をる","prac",""
"","","","","","html-keyboard-response","120","384201","0.0-8.0-0.0-1.22","null","<span style='color:GreenYellow; font-size: 70px;'>正确! </span>","null","","","","","","","","","","","","","","","","","","","","","","","feedback_test"
"","","","","","psychophysics","121","386258","0.0-8.0-0.0-0.23","1051","","f","","","","","","","","","","","","","key","f","6.096645833333328","584.9142857142857","324.8","f","true","img/C_ambi40.png","朋友","prac",""
"","","","","","html-keyboard-response","122","386761","0.0-8.0-0.0-1.23","null","<span style='color:GreenYellow; font-size: 70px;'>正确! </span>","null","","","","","","","","","","","","","","","","","","","","","","","feedback_test"
"","","","","","psychophysics","123","388670","0.0-8.0-0.0-0.24","906","","j","","","","","","","","","","","","","key","j","6.080156549520697","584.9142857142857","324.8","j","true","img/C_ambi40.png","生人","prac",""
"","","","","","html-keyboard-response","124","389172","0.0-8.0-0.0-1.24","null","<span style='color:GreenYellow; font-size: 70px;'>正确! </span>","null","","","","","","","","","","","","","","","","","","","","","","","feedback_test"
"","","","","","psychophysics","125","391132","0.0-8.0-0.0-0.25","955","","f","","","","","","","","","","","","","key","f","6.098565625000083","584.9142857142857","324.8","f","true","img/T_ambi40.png","をる","prac",""
"","","","","","html-keyboard-response","126","391634","0.0-8.0-0.0-1.25","null","<span style='color:GreenYellow; font-size: 70px;'>正确! </span>","null","","","","","","","","","","","","","","","","","","","","","","","feedback_test"
"","","","","","psychophysics","127","393483","0.0-8.0-0.0-0.26","845","","j","","","","","","","","","","","","","key","j","6.06061184210519","584.9142857142857","324.8","f","false","img/S_ambi40.png","自我","prac",""
"","","","","","html-keyboard-response","128","393986","0.0-8.0-0.0-1.26","null","<span style='color:red; font-size: 70px;'>错误! </span>","null","","","","","","","","","","","","","","","","","","","","","","","feedback_test"
"","","","","","psychophysics","129","396010","0.0-8.0-0.0-0.27","1021","","f","","","","","","","","","","","","","key","f","6.097184290030227","584.9142857142857","324.8","j","false","img/S_ambi40.png","朋友","prac",""
"","","","","","html-keyboard-response","130","396514","0.0-8.0-0.0-1.27","null","<span style='color:red; font-size: 70px;'>错误! </span>","null","","","","","","","","","","","","","","","","","","","","","","","feedback_test"
"","","","","","psychophysics","131","398671","0.0-8.0-0.0-0.28","1156","","f","","","","","","","","","","","","","key","f","6.095065340909059","584.9142857142857","324.8","j","false","img/H_ambi40.png","朋友","prac",""
"","","","","","html-keyboard-response","132","399180","0.0-8.0-0.0-1.28","null","<span style='color:red; font-size: 70px;'>错误! </span>","null","","","","","","","","","","","","","","","","","","","","","","","feedback_test"
"","","","","","psychophysics","133","401289","0.0-8.0-0.0-0.29","1106","","f","","","","","","","","","","","","","key","f","6.078272463768161","584.9142857142857","324.8","f","true","img/H_ambi40.png","生人","prac",""
"","","","","","html-keyboard-response","134","401797","0.0-8.0-0.0-1.29","null","<span style='color:GreenYellow; font-size: 70px;'>正确! </span>","null","","","","","","","","","","","","","","","","","","","","","","","feedback_test"
"","","","","","psychophysics","135","403693","0.0-8.0-0.0-0.30","892","","j","","","","","","","","","","","","","key","j","6.080086816720279","584.9142857142857","324.8","f","false","img/C_ambi40.png","朋友","prac",""
"","","","","","html-keyboard-response","136","404203","0.0-8.0-0.0-1.30","null","<span style='color:red; font-size: 70px;'>错误! </span>","null","","","","","","","","","","","","","","","","","","","","","","","feedback_test"
"","","","","","psychophysics","137","406338","0.0-8.0-0.0-0.31","1132","","j","","","","","","","","","","","","","key","j","6.095816618911181","584.9142857142857","324.8","f","false","img/S_ambi40.png","自我","prac",""
"","","","","","html-keyboard-response","138","406849","0.0-8.0-0.0-1.31","null","<span style='color:red; font-size: 70px;'>错误! </span>","null","","","","","","","","","","","","","","","","","","","","","","","feedback_test"
"","","","","","html-keyboard-response","139","408006","0.0-8.0-1.0-0.0","1155","<style>.context{color:white; font-size: 35px; line-height:40px}</style>                          <div><p class='context'>您正确回答了34% 的试次。</p ><p class='context'>您的平均反应时为914毫秒。</p >","j","","","","","","","","","","","","","","","","","","","","","","",""
"","","","","","instructions","140","441333","0.0-8.0-1.0-1.0","33326","","","","","","","","","","","","","","[{""page_index"":0,""viewing_time"":3428},{""page_index"":1,""viewing_time"":27448},{""page_index"":2,""viewing_time"":2449}]","","","","","","","","","","",""
"","","","","","psychophysics","141","443137","0.0-8.1-0.1-0.32","799","","f","","","","","","","","","","","","","key","f","6.0606993243243386","584.9142857142857","324.8","f","true","img/T_ambi40.png","をる","prac",""
"","","","","","html-keyboard-response","142","443646","0.0-8.1-0.1-1.32","null","<span style='color:GreenYellow; font-size: 70px;'>正确! </span>","null","","","","","","","","","","","","","","","","","","","","","","","feedback_test"
"","","","","","psychophysics","143","445922","0.0-8.1-0.1-0.33","1274","","j","","","","","","","","","","","","","key","j","6.070249999999926","584.9142857142857","324.8","f","false","img/C_ambi40.png","朋友","prac",""
"","","","","","html-keyboard-response","144","446430","0.0-8.1-0.1-1.33","null","<span style='color:red; font-size: 70px;'>错误! </span>","null","","","","","","","","","","","","","","","","","","","","","","","feedback_test"
"","","","","","psychophysics","145","448269","0.0-8.1-0.1-0.34","834","","j","","","","","","","","","","","","","key","j","6.060496688741783","584.9142857142857","324.8","f","false","img/H_ambi40.png","生人","prac",""
"","","","","","html-keyboard-response","146","448778","0.0-8.1-0.1-1.34","null","<span style='color:red; font-size: 70px;'>错误! </span>","null","","","","","","","","","","","","","","","","","","","","","","","feedback_test"
"","","","","","psychophysics","147","450892","0.0-8.1-0.1-0.35","1112","","f","","","","","","","","","","","","","key","f","6.060469740634027","584.9142857142857","324.8","j","false","img/S_ambi40.png","朋友","prac",""
"","","","","","html-keyboard-response","148","451397","0.0-8.1-0.1-1.35","null","<span style='color:red; font-size: 70px;'>错误! </span>","null","","","","","","","","","","","","","","","","","","","","","","","feedback_test"
"","","","","","psychophysics","149","453517","0.0-8.1-0.1-0.36","1118","","j","","","","","","","","","","","","","key","j","6.077994252873542","584.9142857142857","324.8","f","false","img/C_ambi40.png","朋友","prac",""
"","","","","","html-keyboard-response","150","454027","0.0-8.1-0.1-1.36","null","<span style='color:red; font-size: 70px;'>错误! </span>","null","","","","","","","","","","","","","","","","","","","","","","","feedback_test"
"","","","","","psychophysics","151","455984","0.0-8.1-0.1-0.37","955","","j","","","","","","","","","","","","","key","j","6.079464174454924","584.9142857142857","324.8","j","true","img/C_ambi40.png","生人","prac",""
"","","","","","html-keyboard-response","152","456489","0.0-8.1-0.1-1.37","null","<span style='color:GreenYellow; font-size: 70px;'>正确! </span>","null","","","","","","","","","","","","","","","","","","","","","","","feedback_test"
"","","","","","psychophysics","153","458664","0.0-8.1-0.1-0.38","1169","","f","","","","","","","","","","","","","key","f","6.0775702247192385","584.9142857142857","324.8","f","true","img/H_ambi40.png","生人","prac",""
"","","","","","html-keyboard-response","154","459165","0.0-8.1-0.1-1.38","null","<span style='color:GreenYellow; font-size: 70px;'>正确! </span>","null","","","","","","","","","","","","","","","","","","","","","","","feedback_test"
"","","","","","psychophysics","155","460935","0.0-8.1-0.1-0.39","767","","f","","","","","","","","","","","","","key","f","6.0812379310345115","584.9142857142857","324.8","f","true","img/T_ambi40.png","をる","prac",""
"","","","","","html-keyboard-response","156","461438","0.0-8.1-0.1-1.39","null","<span style='color:GreenYellow; font-size: 70px;'>正确! </span>","null","","","","","","","","","","","","","","","","","","","","","","","feedback_test"
"","","","","","psychophysics","157","463396","0.0-8.1-0.1-0.40","954","","j","","","","","","","","","","","","","key","j","6.155880126182933","584.9142857142857","324.8","j","true","img/S_ambi40.png","生人","prac",""
"","","","","","html-keyboard-response","158","463904","0.0-8.1-0.1-1.40","null","<span style='color:GreenYellow; font-size: 70px;'>正确! </span>","null","","","","","","","","","","","","","","","","","","","","","","","feedback_test"
"","","","","","psychophysics","159","465995","0.0-8.1-0.1-0.41","1087","","f","","","","","","","","","","","","","key","f","6.113612903225716","584.9142857142857","324.8","j","false","img/H_ambi40.png","朋友","prac",""
"","","","","","html-keyboard-response","160","466500","0.0-8.1-0.1-1.41","null","<span style='color:red; font-size: 70px;'>错误! </span>","null","","","","","","","","","","","","","","","","","","","","","","","feedback_test"
"","","","","","psychophysics","161","468202","0.0-8.1-0.1-0.42","700","","f","","","","","","","","","","","","","key","f","6.0527553956835485","584.9142857142857","324.8","f","true","img/T_ambi40.png","をる","prac",""
"","","","","","html-keyboard-response","162","468705","0.0-8.1-0.1-1.42","null","<span style='color:GreenYellow; font-size: 70px;'>正确! </span>","null","","","","","","","","","","","","","","","","","","","","","","","feedback_test"
"","","","","","psychophysics","163","470747","0.0-8.1-0.1-0.43","1039","","j","","","","","","","","","","","","","key","j","6.078570149253894","584.9142857142857","324.8","f","false","img/S_ambi40.png","自我","prac",""
"","","","","","html-keyboard-response","164","471252","0.0-8.1-0.1-1.43","null","<span style='color:red; font-size: 70px;'>错误! </span>","null","","","","","","","","","","","","","","","","","","","","","","","feedback_test"
"","","","","","psychophysics","165","472930","0.0-8.1-0.1-0.44","677","","f","","","","","","","","","","","","","key","f","6.098091911764641","584.9142857142857","324.8","f","true","img/T_ambi40.png","をる","prac",""
"","","","","","html-keyboard-response","166","473435","0.0-8.1-0.1-1.44","null","<span style='color:GreenYellow; font-size: 70px;'>正确! </span>","null","","","","","","","","","","","","","","","","","","","","","","","feedback_test"
"","","","","","psychophysics","167","475457","0.0-8.1-0.1-0.45","1021","","j","","","","","","","","","","","","","key","j","6.078981873111903","584.9142857142857","324.8","j","true","img/C_ambi40.png","自我","prac",""
"","","","","","html-keyboard-response","168","475965","0.0-8.1-0.1-1.45","null","<span style='color:GreenYellow; font-size: 70px;'>正确! </span>","null","","","","","","","","","","","","","","","","","","","","","","","feedback_test"
"","","","","","psychophysics","169","478309","0.0-8.1-0.1-0.46","1340","","j","","","","","","","","","","","","","key","j","6.107877284595251","584.9142857142857","324.8","j","true","img/H_ambi40.png","自我","prac",""
"","","","","","html-keyboard-response","170","478822","0.0-8.1-0.1-1.46","null","<span style='color:GreenYellow; font-size: 70px;'>正确! </span>","null","","","","","","","","","","","","","","","","","","","","","","","feedback_test"
"","","","","","psychophysics","171","480879","0.0-8.1-0.1-0.47","1051","","f","","","","","","","","","","","","","key","f","6.078459940652967","584.9142857142857","324.8","f","true","img/S_ambi40.png","自我","prac",""
"","","","","","html-keyboard-response","172","481386","0.0-8.1-0.1-1.47","null","<span style='color:GreenYellow; font-size: 70px;'>正确! </span>","null","","","","","","","","","","","","","","","","","","","","","","","feedback_test"
"","","","","","psychophysics","173","482986","0.0-8.1-0.1-0.48","593","","f","","","","","","","","","","","","","key","f","6.094942084941959","584.9142857142857","324.8","f","true","img/S_ambi40.png","自我","prac",""
"","","","","","html-keyboard-response","174","483495","0.0-8.1-0.1-1.48","null","<span style='color:GreenYellow; font-size: 70px;'>正确! </span>","null","","","","","","","","","","","","","","","","","","","","","","","feedback_test"
"","","","","","psychophysics","175","485271","0.0-8.1-0.1-0.49","775","","j","","","","","","","","","","","","","key","j","6.093479166666536","584.9142857142857","324.8","j","true","img/S_ambi40.png","生人","prac",""
"","","","","","html-keyboard-response","176","485779","0.0-8.1-0.1-1.49","null","<span style='color:GreenYellow; font-size: 70px;'>正确! </span>","null","","","","","","","","","","","","","","","","","","","","","","","feedback_test"
"","","","","","psychophysics","177","487276","0.0-8.1-0.1-0.50","495","","f","","","","","","","","","","","","","key","f","6.06062448979593","584.9142857142857","324.8","f","true","img/T_ambi40.png","をる","prac",""
"","","","","","html-keyboard-response","178","487788","0.0-8.1-0.1-1.50","null","<span style='color:GreenYellow; font-size: 70px;'>正确! </span>","null","","","","","","","","","","","","","","","","","","","","","","","feedback_test"
"","","","","","psychophysics","179","489792","0.0-8.1-0.1-0.51","1000","","j","","","","","","","","","","","","","key","j","6.079173780487753","584.9142857142857","324.8","f","false","img/H_ambi40.png","生人","prac",""
"","","","","","html-keyboard-response","180","490304","0.0-8.1-0.1-1.51","null","<span style='color:red; font-size: 70px;'>错误! </span>","null","","","","","","","","","","","","","","","","","","","","","","","feedback_test"
"","","","","","psychophysics","181","491913","0.0-8.1-0.1-0.52","604","","f","","","","","","","","","","","","","key","f","6.1299808429118325","584.9142857142857","324.8","f","true","img/T_ambi40.png","をる","prac",""
"","","","","","html-keyboard-response","182","492414","0.0-8.1-0.1-1.52","null","<span style='color:GreenYellow; font-size: 70px;'>正确! </span>","null","","","","","","","","","","","","","","","","","","","","","","","feedback_test"
"","","","","","psychophysics","183","494487","0.0-8.1-0.1-0.53","1071","","j","","","","","","","","","","","","","key","j","6.096230088495498","584.9142857142857","324.8","j","true","img/C_ambi40.png","自我","prac",""
"","","","","","html-keyboard-response","184","494999","0.0-8.1-0.1-1.53","null","<span style='color:GreenYellow; font-size: 70px;'>正确! </span>","null","","","","","","","","","","","","","","","","","","","","","","","feedback_test"
"","","","","","psychophysics","185","497166","0.0-8.1-0.1-0.54","1162","","f","","","","","","","","","","","","","key","f","6.061106741573077","584.9142857142857","324.8","f","true","img/H_ambi40.png","生人","prac",""
"","","","","","html-keyboard-response","186","497677","0.0-8.1-0.1-1.54","null","<span style='color:GreenYellow; font-size: 70px;'>正确! </span>","null","","","","","","","","","","","","","","","","","","","","","","","feedback_test"
"","","","","","psychophysics","187","499228","0.0-8.1-0.1-0.55","544","","f","","","","","","","","","","","","","key","f","6.157579999999841","584.9142857142857","324.8","f","true","img/T_ambi40.png","をる","prac",""
"","","","","","html-keyboard-response","188","499742","0.0-8.1-0.1-1.55","null","<span style='color:GreenYellow; font-size: 70px;'>正确! </span>","null","","","","","","","","","","","","","","","","","","","","","","","feedback_test"
"","","","","","psychophysics","189","501689","0.0-8.1-0.1-0.56","945","","j","","","","","","","","","","","","","key","j","6.079435736677014","584.9142857142857","324.8","j","true","img/H_ambi40.png","朋友","prac",""
"","","","","","html-keyboard-response","190","502192","0.0-8.1-0.1-1.56","null","<span style='color:GreenYellow; font-size: 70px;'>正确! </span>","null","","","","","","","","","","","","","","","","","","","","","","","feedback_test"
"","","","","","psychophysics","191","504280","0.0-8.1-0.1-0.57","1087","","f","","","","","","","","","","","","","key","f","6.078038011695774","584.9142857142857","324.8","f","true","img/C_ambi40.png","朋友","prac",""
"","","","","","html-keyboard-response","192","504786","0.0-8.1-0.1-1.57","null","<span style='color:GreenYellow; font-size: 70px;'>正确! </span>","null","","","","","","","","","","","","","","","","","","","","","","","feedback_test"
"","","","","","psychophysics","193","506975","0.0-8.1-0.1-0.58","1187","","j","","","","","","","","","","","","","key","j","6.09431564245814","584.9142857142857","324.8","j","true","img/H_ambi40.png","自我","prac",""
"","","","","","html-keyboard-response","194","507482","0.0-8.1-0.1-1.58","null","<span style='color:GreenYellow; font-size: 70px;'>正确! </span>","null","","","","","","","","","","","","","","","","","","","","","","","feedback_test"
"","","","","","psychophysics","195","509111","0.0-8.1-0.1-0.59","628","","f","","","","","","","","","","","","","key","f","6.07312830188685","584.9142857142857","324.8","f","true","img/T_ambi40.png","をる","prac",""
"","","","","","html-keyboard-response","196","509614","0.0-8.1-0.1-1.59","null","<span style='color:GreenYellow; font-size: 70px;'>正确! </span>","null","","","","","","","","","","","","","","","","","","","","","","","feedback_test"
"","","","","","psychophysics","197","511498","0.0-8.1-0.1-0.60","881","","j","","","","","","","","","","","","","key","j","6.119543973941406","584.9142857142857","324.8","j","true","img/S_ambi40.png","朋友","prac",""
"","","","","","html-keyboard-response","198","512011","0.0-8.1-0.1-1.60","null","<span style='color:GreenYellow; font-size: 70px;'>正确! </span>","null","","","","","","","","","","","","","","","","","","","","","","","feedback_test"
"","","","","","psychophysics","199","513872","0.0-8.1-0.1-0.61","860","","j","","","","","","","","","","","","","key","j","6.080459016393374","584.9142857142857","324.8","f","false","img/S_ambi40.png","自我","prac",""
"","","","","","html-keyboard-response","200","514380","0.0-8.1-0.1-1.61","null","<span style='color:red; font-size: 70px;'>错误! </span>","null","","","","","","","","","","","","","","","","","","","","","","","feedback_test"
"","","","","","psychophysics","201","516724","0.0-8.1-0.1-0.62","1342","","j","","","","","","","","","","","","","key","j","6.09228459530034","584.9142857142857","324.8","f","false","img/C_ambi40.png","朋友","prac",""
"","","","","","html-keyboard-response","202","517229","0.0-8.1-0.1-1.62","null","<span style='color:red; font-size: 70px;'>错误! </span>","null","","","","","","","","","","","","","","","","","","","","","","","feedback_test"
"","","","","","psychophysics","203","519201","0.0-8.1-0.1-0.63","966","","f","","","","","","","","","","","","","key","f","6.0793900928792","584.9142857142857","324.8","j","false","img/C_ambi40.png","生人","prac",""
"","","","","","html-keyboard-response","204","519713","0.0-8.1-0.1-1.63","null","<span style='color:red; font-size: 70px;'>错误! </span>","null","","","","","","","","","","","","","","","","","","","","","","","feedback_test"
"","","","","","html-keyboard-response","205","520707","0.0-8.1-1.1-0.1","991","<style>.context{color:white; font-size: 35px; line-height:40px}</style>                          <div><p class='context'>您正确回答了69% 的试次。</p ><p class='context'>您的平均反应时为882毫秒。</p >","j","","","","","","","","","","","","","","","","","","","","","","",""
"","","","","","instructions","206","531276","0.0-8.1-1.1-1.1","10567","","","","","","","","","","","","","","[{""page_index"":0,""viewing_time"":2703},{""page_index"":1,""viewing_time"":6694},{""page_index"":2,""viewing_time"":1169}]","","","","","","","","","","",""
"","","","","","psychophysics","207","533123","0.0-8.2-0.2-0.64","845","","f","","","","","","","","","","","","","key","f","6.060725165563034","584.9142857142857","324.8","j","false","img/C_ambi40.png","生人","prac",""
"","","","","","html-keyboard-response","208","533633","0.0-8.2-0.2-1.64","null","<span style='color:red; font-size: 70px;'>错误! </span>","null","","","","","","","","","","","","","","","","","","","","","","","feedback_test"
"","","","","","psychophysics","209","536079","0.0-8.2-0.2-0.65","1445","","f","","","","","","","","","","","","","key","f","6.083238095237948","584.9142857142857","324.8","j","false","img/H_ambi40.png","朋友","prac",""
"","","","","","html-keyboard-response","210","536589","0.0-8.2-0.2-1.65","null","<span style='color:red; font-size: 70px;'>错误! </span>","null","","","","","","","","","","","","","","","","","","","","","","","feedback_test"
"","","","","","psychophysics","211","538255","0.0-8.2-0.2-0.66","665","","f","","","","","","","","","","","","","key","f","6.060434306569373","584.9142857142857","324.8","f","true","img/T_ambi40.png","をる","prac",""
"","","","","","html-keyboard-response","212","538760","0.0-8.2-0.2-1.66","null","<span style='color:GreenYellow; font-size: 70px;'>正确! </span>","null","","","","","","","","","","","","","","","","","","","","","","","feedback_test"
"","","","","","psychophysics","213","540833","0.0-8.2-0.2-0.67","1071","","f","","","","","","","","","","","","","key","f","6.0552536873157194","584.9142857142857","324.8","j","false","img/C_ambi40.png","自我","prac",""
"","","","","","html-keyboard-response","214","541337","0.0-8.2-0.2-1.67","null","<span style='color:red; font-size: 70px;'>错误! </span>","null","","","","","","","","","","","","","","","","","","","","","","","feedback_test"
"","","","","","psychophysics","215","543255","0.0-8.2-0.2-0.68","917","","j","","","","","","","","","","","","","key","j","6.079894904458412","584.9142857142857","324.8","f","false","img/H_ambi40.png","生人","prac",""
"","","","","","html-keyboard-response","216","543757","0.0-8.2-0.2-1.68","null","<span style='color:red; font-size: 70px;'>错误! </span>","null","","","","","","","","","","","","","","","","","","","","","","","feedback_test"
"","","","","","psychophysics","217","546264","0.0-8.2-0.2-0.69","null","","null","","","","","","","","","","","","","key","null","6.075231143552413","584.9142857142857","324.8","f","false","img/S_ambi40.png","自我","prac",""
"","","","","","html-keyboard-response","218","546768","0.0-8.2-0.2-1.69","null","<span class='add_' style='color:yellow; font-size: 70px;'> 太慢! </span>","null","","","","","","","","","","","","","","","","","","","","","","","feedback_test"
"","","","","","psychophysics","219","548338","0.0-8.2-0.2-0.70","564","","f","","","","","","","","","","","","","key","f","6.107671875000051","584.9142857142857","324.8","f","true","img/T_ambi40.png","をる","prac",""
"","","","","","html-keyboard-response","220","548845","0.0-8.2-0.2-1.70","null","<span style='color:GreenYellow; font-size: 70px;'>正确! </span>","null","","","","","","","","","","","","","","","","","","","","","","","feedback_test"
"","","","","","psychophysics","221","550680","0.0-8.2-0.2-0.71","834","","j","","","","","","","","","","","","","key","j","6.093600671141074","584.9142857142857","324.8","j","true","img/H_ambi40.png","自我","prac",""
"","","","","","html-keyboard-response","222","551192","0.0-8.2-0.2-1.71","null","<span style='color:GreenYellow; font-size: 70px;'>正确! </span>","null","","","","","","","","","","","","","","","","","","","","","","","feedback_test"
"","","","","","psychophysics","223","553098","0.0-8.2-0.2-0.72","900","","f","","","","","","","","","","","","","key","f","6.099572347267082","584.9142857142857","324.8","j","false","img/S_ambi40.png","生人","prac",""
"","","","","","html-keyboard-response","224","553609","0.0-8.2-0.2-1.72","null","<span style='color:red; font-size: 70px;'>错误! </span>","null","","","","","","","","","","","","","","","","","","","","","","","feedback_test"
"","","","","","psychophysics","225","555682","0.0-8.2-0.2-0.73","1072","","j","","","","","","","","","","","","","key","j","6.096411242603721","584.9142857142857","324.8","j","true","img/S_ambi40.png","朋友","prac",""
"","","","","","html-keyboard-response","226","556187","0.0-8.2-0.2-1.73","null","<span style='color:GreenYellow; font-size: 70px;'>正确! </span>","null","","","","","","","","","","","","","","","","","","","","","","","feedback_test"
"","","","","","psychophysics","227","558111","0.0-8.2-0.2-0.74","920","","f","","","","","","","","","","","","","key","f","6.098882165605093","584.9142857142857","324.8","f","true","img/C_ambi40.png","朋友","prac",""
"","","","","","html-keyboard-response","228","558622","0.0-8.2-0.2-1.74","null","<span style='color:GreenYellow; font-size: 70px;'>正确! </span>","null","","","","","","","","","","","","","","","","","","","","","","","feedback_test"
"","","","","","psychophysics","229","560255","0.0-8.2-0.2-0.75","626","","f","","","","","","","","","","","","","key","f","6.060626865671722","584.9142857142857","324.8","f","true","img/T_ambi40.png","をる","prac",""
"","","","","","html-keyboard-response","230","560764","0.0-8.2-0.2-1.75","null","<span style='color:GreenYellow; font-size: 70px;'>正确! </span>","null","","","","","","","","","","","","","","","","","","","","","","","feedback_test"
"","","","","","psychophysics","231","562466","0.0-8.2-0.2-0.76","699","","f","","","","","","","","","","","","","key","f","6.14834782608702","584.9142857142857","324.8","f","true","img/T_ambi40.png","をる","prac",""
"","","","","","html-keyboard-response","232","562973","0.0-8.2-0.2-1.76","null","<span style='color:GreenYellow; font-size: 70px;'>正确! </span>","null","","","","","","","","","","","","","","","","","","","","","","","feedback_test"
"","","","","","psychophysics","233","564978","0.0-8.2-0.2-0.77","1003","","j","","","","","","","","","","","","","key","j","6.09760244648344","584.9142857142857","324.8","f","false","img/S_ambi40.png","自我","prac",""
"","","","","","html-keyboard-response","234","565483","0.0-8.2-0.2-1.77","null","<span style='color:red; font-size: 70px;'>错误! </span>","null","","","","","","","","","","","","","","","","","","","","","","","feedback_test"
"","","","","","psychophysics","235","567582","0.0-8.2-0.2-0.78","1094","","f","","","","","","","","","","","","","key","f","6.078238372092994","584.9142857142857","324.8","f","true","img/H_ambi40.png","生人","prac",""
"","","","","","html-keyboard-response","236","568085","0.0-8.2-0.2-1.78","null","<span style='color:GreenYellow; font-size: 70px;'>正确! </span>","null","","","","","","","","","","","","","","","","","","","","","","","feedback_test"
"","","","","","psychophysics","237","569942","0.0-8.2-0.2-0.79","854","","j","","","","","","","","","","","","","key","j","6.080348684210835","584.9142857142857","324.8","f","false","img/C_ambi40.png","朋友","prac",""
"","","","","","html-keyboard-response","238","570456","0.0-8.2-0.2-1.79","null","<span style='color:red; font-size: 70px;'>错误! </span>","null","","","","","","","","","","","","","","","","","","","","","","","feedback_test"
"","","","","","psychophysics","239","572432","0.0-8.2-0.2-0.80","974","","f","","","","","","","","","","","","","key","f","6.094370716510738","584.9142857142857","324.8","f","true","img/S_ambi40.png","自我","prac",""
"","","","","","html-keyboard-response","240","572948","0.0-8.2-0.2-1.80","null","<span style='color:GreenYellow; font-size: 70px;'>正确! </span>","null","","","","","","","","","","","","","","","","","","","","","","","feedback_test"
"","","","","","psychophysics","241","574723","0.0-8.2-0.2-0.81","774","","j","","","","","","","","","","","","","key","j","6.0716332179928445","584.9142857142857","324.8","j","true","img/H_ambi40.png","自我","prac",""
"","","","","","html-keyboard-response","242","575231","0.0-8.2-0.2-1.81","null","<span style='color:GreenYellow; font-size: 70px;'>正确! </span>","null","","","","","","","","","","","","","","","","","","","","","","","feedback_test"
"","","","","","psychophysics","243","577177","0.0-8.2-0.2-0.82","944","","f","","","","","","","","","","","","","key","f","6.079689655172329","584.9142857142857","324.8","f","true","img/T_ambi40.png","をる","prac",""
"","","","","","html-keyboard-response","244","577684","0.0-8.2-0.2-1.82","null","<span style='color:GreenYellow; font-size: 70px;'>正确! </span>","null","","","","","","","","","","","","","","","","","","","","","","","feedback_test"
"","","","","","psychophysics","245","579598","0.0-8.2-0.2-0.83","910","","j","","","","","","","","","","","","","key","j","6.099095846645343","584.9142857142857","324.8","f","false","img/H_ambi40.png","生人","prac",""
"","","","","","html-keyboard-response","246","580111","0.0-8.2-0.2-1.83","null","<span style='color:red; font-size: 70px;'>错误! </span>","null","","","","","","","","","","","","","","","","","","","","","","","feedback_test"
"","","","","","psychophysics","247","582266","0.0-8.2-0.2-0.84","1154","","j","","","","","","","","","","","","","key","j","6.078541076487186","584.9142857142857","324.8","j","true","img/S_ambi40.png","朋友","prac",""
"","","","","","html-keyboard-response","248","582767","0.0-8.2-0.2-1.84","null","<span style='color:GreenYellow; font-size: 70px;'>正确! </span>","null","","","","","","","","","","","","","","","","","","","","","","","feedback_test"
"","","","","","psychophysics","249","584790","0.0-8.2-0.2-0.85","1017","","f","","","","","","","","","","","","","key","f","6.07902114803613","584.9142857142857","324.8","f","true","img/H_ambi40.png","生人","prac",""
"","","","","","html-keyboard-response","250","585297","0.0-8.2-0.2-1.85","null","<span style='color:GreenYellow; font-size: 70px;'>正确! </span>","null","","","","","","","","","","","","","","","","","","","","","","","feedback_test"
"","","","","","psychophysics","251","586903","0.0-8.2-0.2-0.86","603","","f","","","","","","","","","","","","","key","f","6.10782824427499","584.9142857142857","324.8","f","true","img/T_ambi40.png","をる","prac",""
"","","","","","html-keyboard-response","252","587410","0.0-8.2-0.2-1.86","null","<span style='color:GreenYellow; font-size: 70px;'>正确! </span>","null","","","","","","","","","","","","","","","","","","","","","","","feedback_test"
"","","","","","psychophysics","253","589432","0.0-8.2-0.2-0.87","1017","","j","","","","","","","","","","","","","key","j","6.115781155015033","584.9142857142857","324.8","f","false","img/C_ambi40.png","朋友","prac",""
"","","","","","html-keyboard-response","254","589934","0.0-8.2-0.2-1.87","null","<span style='color:red; font-size: 70px;'>错误! </span>","null","","","","","","","","","","","","","","","","","","","","","","","feedback_test"
"","","","","","psychophysics","255","592080","0.0-8.2-0.2-0.88","1144","","j","","","","","","","","","","","","","key","j","6.095039886040043","584.9142857142857","324.8","j","true","img/C_ambi40.png","自我","prac",""
"","","","","","html-keyboard-response","256","592584","0.0-8.2-0.2-1.88","null","<span style='color:GreenYellow; font-size: 70px;'>正确! </span>","null","","","","","","","","","","","","","","","","","","","","","","","feedback_test"
"","","","","","psychophysics","257","594194","0.0-8.2-0.2-0.89","609","","f","","","","","","","","","","","","","key","f","6.060325757575673","584.9142857142857","324.8","f","true","img/T_ambi40.png","をる","prac",""
"","","","","","html-keyboard-response","258","594707","0.0-8.2-0.2-1.89","null","<span style='color:GreenYellow; font-size: 70px;'>正确! </span>","null","","","","","","","","","","","","","","","","","","","","","","","feedback_test"
"","","","","","psychophysics","259","596919","0.0-8.2-0.2-0.90","1210","","j","","","","","","","","","","","","","key","j","6.094292817679452","584.9142857142857","324.8","f","false","img/C_ambi40.png","朋友","prac",""
"","","","","","html-keyboard-response","260","597436","0.0-8.2-0.2-1.90","null","<span style='color:red; font-size: 70px;'>错误! </span>","null","","","","","","","","","","","","","","","","","","","","","","","feedback_test"
"","","","","","psychophysics","261","599479","0.0-8.2-0.2-0.91","1039","","j","","","","","","","","","","","","","key","j","6.07840597014909","584.9142857142857","324.8","j","true","img/H_ambi40.png","朋友","prac",""
"","","","","","html-keyboard-response","262","599985","0.0-8.2-0.2-1.91","null","<span style='color:GreenYellow; font-size: 70px;'>正确! </span>","null","","","","","","","","","","","","","","","","","","","","","","","feedback_test"
"","","","","","psychophysics","263","602014","0.0-8.2-0.2-0.92","1029","","j","","","","","","","","","","","","","key","j","6.078825301204946","584.9142857142857","324.8","j","true","img/C_ambi40.png","生人","prac",""
"","","","","","html-keyboard-response","264","602529","0.0-8.2-0.2-1.92","null","<span style='color:GreenYellow; font-size: 70px;'>正确! </span>","null","","","","","","","","","","","","","","","","","","","","","","","feedback_test"
"","","","","","psychophysics","265","604841","0.0-8.2-0.2-0.93","1311","","j","","","","","","","","","","","","","key","j","6.092531746031628","584.9142857142857","324.8","j","true","img/S_ambi40.png","生人","prac",""
"","","","","","html-keyboard-response","266","605354","0.0-8.2-0.2-1.93","null","<span style='color:GreenYellow; font-size: 70px;'>正确! </span>","null","","","","","","","","","","","","","","","","","","","","","","","feedback_test"
"","","","","","psychophysics","267","606879","0.0-8.2-0.2-0.94","520","","f","","","","","","","","","","","","","key","f","6.084983935742826","584.9142857142857","324.8","f","true","img/T_ambi40.png","をる","prac",""
"","","","","","html-keyboard-response","268","607387","0.0-8.2-0.2-1.94","null","<span style='color:GreenYellow; font-size: 70px;'>正确! </span>","null","","","","","","","","","","","","","","","","","","","","","","","feedback_test"
"","","","","","psychophysics","269","609581","0.0-8.2-0.2-0.95","1185","","f","","","","","","","","","","","","","key","f","6.060494444444582","584.9142857142857","324.8","f","true","img/S_ambi40.png","自我","prac",""
"","","","","","html-keyboard-response","270","610091","0.0-8.2-0.2-1.95","null","<span style='color:GreenYellow; font-size: 70px;'>正确! </span>","null","","","","","","","","","","","","","","","","","","","","","","","feedback_test"
"","","","","","html-keyboard-response","271","610866","0.0-8.2-1.2-0.2","772","<style>.context{color:white; font-size: 35px; line-height:40px}</style>                          <div><p class='context'>您正确回答了66% 的试次。</p ><p class='context'>您的平均反应时为894毫秒。</p >","j","","","","","","","","","","","","","","","","","","","","","","",""
"","","","","","instructions","272","622719","0.0-8.2-1.2-1.2","11851","","","","","","","","","","","","","","[{""page_index"":0,""viewing_time"":1771},{""page_index"":1,""viewing_time"":8544},{""page_index"":2,""viewing_time"":1536}]","","","","","","","","","","",""
"","","","","","psychophysics","273","624740","0.0-8.3-0.3-0.96","1017","","j","","","","","","","","","","","","","key","j","6.078951367781438","584.9142857142857","324.8","j","true","img/C_ambi40.png","生人","prac",""
"","","","","","html-keyboard-response","274","625252","0.0-8.3-0.3-1.96","null","<span style='color:GreenYellow; font-size: 70px;'>正确! </span>","null","","","","","","","","","","","","","","","","","","","","","","","feedback_test"
"","","","","","psychophysics","275","627174","0.0-8.3-0.3-0.97","918","","j","","","","","","","","","","","","","key","j","6.079771428571142","584.9142857142857","324.8","j","true","img/C_ambi40.png","自我","prac",""
"","","","","","html-keyboard-response","276","627682","0.0-8.3-0.3-1.97","null","<span style='color:GreenYellow; font-size: 70px;'>正确! </span>","null","","","","","","","","","","","","","","","","","","","","","","","feedback_test"
"","","","","","psychophysics","277","630024","0.0-8.3-0.3-0.98","1337","","f","","","","","","","","","","","","","key","f","6.093248041775552","584.9142857142857","324.8","f","true","img/H_ambi40.png","生人","prac",""
"","","","","","html-keyboard-response","278","630530","0.0-8.3-0.3-1.98","null","<span style='color:GreenYellow; font-size: 70px;'>正确! </span>","null","","","","","","","","","","","","","","","","","","","","","","","feedback_test"
"","","","","","psychophysics","279","632405","0.0-8.3-0.3-0.99","870","","j","","","","","","","","","","","","","key","j","6.1000392156865395","584.9142857142857","324.8","f","false","img/S_ambi40.png","自我","prac",""
"","","","","","html-keyboard-response","280","632907","0.0-8.3-0.3-1.99","null","<span style='color:red; font-size: 70px;'>错误! </span>","null","","","","","","","","","","","","","","","","","","","","","","","feedback_test"
"","","","","","psychophysics","281","634503","0.0-8.3-0.3-0.100","593","","f","","","","","","","","","","","","","key","f","6.0606335877860325","584.9142857142857","324.8","f","true","img/S_ambi40.png","自我","prac",""
"","","","","","html-keyboard-response","282","635008","0.0-8.3-0.3-1.100","null","<span style='color:GreenYellow; font-size: 70px;'>正确! </span>","null","","","","","","","","","","","","","","","","","","","","","","","feedback_test"
"","","","","","psychophysics","283","637334","0.0-8.3-0.3-0.101","1320","","j","","","","","","","","","","","","","key","j","6.140931034482897","584.9142857142857","324.8","j","true","img/H_ambi40.png","朋友","prac",""
"","","","","","html-keyboard-response","284","637846","0.0-8.3-0.3-1.101","null","<span style='color:GreenYellow; font-size: 70px;'>正确! </span>","null","","","","","","","","","","","","","","","","","","","","","","","feedback_test"
"","","","","","psychophysics","285","639781","0.0-8.3-0.3-0.102","930","","j","","","","","","","","","","","","","key","j","6.079618296529789","584.9142857142857","324.8","j","true","img/S_ambi40.png","朋友","prac",""
"","","","","","html-keyboard-response","286","640296","0.0-8.3-0.3-1.102","null","<span style='color:GreenYellow; font-size: 70px;'>正确! </span>","null","","","","","","","","","","","","","","","","","","","","","","","feedback_test"
"","","","","","psychophysics","287","641931","0.0-8.3-0.3-0.103","632","","f","","","","","","","","","","","","","key","f","6.060604477611825","584.9142857142857","324.8","f","true","img/T_ambi40.png","をる","prac",""
"","","","","","html-keyboard-response","288","642434","0.0-8.3-0.3-1.103","null","<span style='color:GreenYellow; font-size: 70px;'>正确! </span>","null","","","","","","","","","","","","","","","","","","","","","","","feedback_test"
"","","","","","psychophysics","289","644677","0.0-8.3-0.3-0.104","1239","","f","","","","","","","","","","","","","key","f","6.076994565217477","584.9142857142857","324.8","f","true","img/H_ambi40.png","生人","prac",""
"","","","","","html-keyboard-response","290","645184","0.0-8.3-0.3-1.104","null","<span style='color:GreenYellow; font-size: 70px;'>正确! </span>","null","","","","","","","","","","","","","","","","","","","","","","","feedback_test"
"","","","","","psychophysics","291","647479","0.0-8.3-0.3-0.105","1290","","f","","","","","","","","","","","","","key","f","6.060400530504154","584.9142857142857","324.8","f","true","img/C_ambi40.png","朋友","prac",""
"","","","","","html-keyboard-response","292","647990","0.0-8.3-0.3-1.105","null","<span style='color:GreenYellow; font-size: 70px;'>正确! </span>","null","","","","","","","","","","","","","","","","","","","","","","","feedback_test"
"","","","","","psychophysics","293","649694","0.0-8.3-0.3-0.106","699","","f","","","","","","","","","","","","","key","f","6.104097122302205","584.9142857142857","324.8","f","true","img/C_ambi40.png","朋友","prac",""
"","","","","","html-keyboard-response","294","650197","0.0-8.3-0.3-1.106","null","<span style='color:GreenYellow; font-size: 70px;'>正确! </span>","null","","","","","","","","","","","","","","","","","","","","","","","feedback_test"
"","","","","","psychophysics","295","652228","0.0-8.3-0.3-0.107","1030","","j","","","","","","","","","","","","","key","j","6.115468277945535","584.9142857142857","324.8","j","true","img/S_ambi40.png","生人","prac",""
"","","","","","html-keyboard-response","296","652735","0.0-8.3-0.3-1.107","null","<span style='color:GreenYellow; font-size: 70px;'>正确! </span>","null","","","","","","","","","","","","","","","","","","","","","","","feedback_test"
"","","","","","psychophysics","297","654326","0.0-8.3-0.3-0.108","586","","f","","","","","","","","","","","","","key","f","6.107359073359005","584.9142857142857","324.8","f","true","img/T_ambi40.png","をる","prac",""
"","","","","","html-keyboard-response","298","654833","0.0-8.3-0.3-1.108","null","<span style='color:GreenYellow; font-size: 70px;'>正确! </span>","null","","","","","","","","","","","","","","","","","","","","","","","feedback_test"
"","","","","","psychophysics","299","656441","0.0-8.3-0.3-0.109","604","","f","","","","","","","","","","","","","key","f","6.08350950570338","584.9142857142857","324.8","f","true","img/T_ambi40.png","をる","prac",""
"","","","","","html-keyboard-response","300","656944","0.0-8.3-0.3-1.109","null","<span style='color:GreenYellow; font-size: 70px;'>正确! </span>","null","","","","","","","","","","","","","","","","","","","","","","","feedback_test"
"","","","","","psychophysics","301","658800","0.0-8.3-0.3-0.110","853","","j","","","","","","","","","","","","","key","j","6.141132890365545","584.9142857142857","324.8","j","true","img/H_ambi40.png","自我","prac",""
"","","","","","html-keyboard-response","302","659314","0.0-8.3-0.3-1.110","null","<span style='color:GreenYellow; font-size: 70px;'>正确! </span>","null","","","","","","","","","","","","","","","","","","","","","","","feedback_test"
"","","","","","psychophysics","303","660711","0.0-8.3-0.3-0.111","394","","f","","","","","","","","","","","","","key","f","6.08706986899569","584.9142857142857","324.8","f","true","img/T_ambi40.png","をる","prac",""
"","","","","","html-keyboard-response","304","661224","0.0-8.3-0.3-1.111","null","<span style='color:GreenYellow; font-size: 70px;'>正确! </span>","null","","","","","","","","","","","","","","","","","","","","","","","feedback_test"
"","","","","","psychophysics","305","663239","0.0-8.3-0.3-0.112","1013","","j","","","","","","","","","","","","","key","j","6.070414634146046","584.9142857142857","324.8","f","false","img/C_ambi40.png","朋友","prac",""
"","","","","","html-keyboard-response","306","663741","0.0-8.3-0.3-1.112","null","<span style='color:red; font-size: 70px;'>错误! </span>","null","","","","","","","","","","","","","","","","","","","","","","","feedback_test"
"","","","","","psychophysics","307","665574","0.0-8.3-0.3-0.113","832","","j","","","","","","","","","","","","","key","j","6.080743333333327","584.9142857142857","324.8","f","false","img/H_ambi40.png","生人","prac",""
"","","","","","html-keyboard-response","308","666084","0.0-8.3-0.3-1.113","null","<span style='color:red; font-size: 70px;'>错误! </span>","null","","","","","","","","","","","","","","","","","","","","","","","feedback_test"
"","","","","","psychophysics","309","667645","0.0-8.3-0.3-0.114","559","","f","","","","","","","","","","","","","key","f","6.107905882352726","584.9142857142857","324.8","f","true","img/T_ambi40.png","をる","prac",""
"","","","","","html-keyboard-response","310","668152","0.0-8.3-0.3-1.114","null","<span style='color:GreenYellow; font-size: 70px;'>正确! </span>","null","","","","","","","","","","","","","","","","","","","","","","","feedback_test"
"","","","","","psychophysics","311","670392","0.0-8.3-0.3-0.115","1239","","f","","","","","","","","","","","","","key","f","6.070800546448248","584.9142857142857","324.8","j","false","img/S_ambi40.png","朋友","prac",""
"","","","","","html-keyboard-response","312","670901","0.0-8.3-0.3-1.115","null","<span style='color:red; font-size: 70px;'>错误! </span>","null","","","","","","","","","","","","","","","","","","","","","","","feedback_test"
"","","","","","psychophysics","313","672473","0.0-8.3-0.3-0.116","568","","f","","","","","","","","","","","","","key","f","6.084552529182807","584.9142857142857","324.8","f","true","img/T_ambi40.png","をる","prac",""
"","","","","","html-keyboard-response","314","672983","0.0-8.3-0.3-1.116","null","<span style='color:GreenYellow; font-size: 70px;'>正确! </span>","null","","","","","","","","","","","","","","","","","","","","","","","feedback_test"
"","","","","","psychophysics","315","674919","0.0-8.3-0.3-0.117","934","","f","","","","","","","","","","","","","key","f","6.079618296530157","584.9142857142857","324.8","f","true","img/H_ambi40.png","生人","prac",""
"","","","","","html-keyboard-response","316","675428","0.0-8.3-0.3-1.117","null","<span style='color:GreenYellow; font-size: 70px;'>正确! </span>","null","","","","","","","","","","","","","","","","","","","","","","","feedback_test"
"","","","","","psychophysics","317","677191","0.0-8.3-0.3-0.118","759","","j","","","","","","","","","","","","","key","j","6.081332179930812","584.9142857142857","324.8","j","true","img/H_ambi40.png","自我","prac",""
"","","","","","html-keyboard-response","318","677700","0.0-8.3-0.3-1.118","null","<span style='color:GreenYellow; font-size: 70px;'>正确! </span>","null","","","","","","","","","","","","","","","","","","","","","","","feedback_test"
"","","","","","psychophysics","319","679552","0.0-8.3-0.3-0.119","848","","f","","","","","","","","","","","","","key","f","6.080475247525011","584.9142857142857","324.8","f","true","img/S_ambi40.png","自我","prac",""
"","","","","","html-keyboard-response","320","680057","0.0-8.3-0.3-1.119","null","<span style='color:GreenYellow; font-size: 70px;'>正确! </span>","null","","","","","","","","","","","","","","","","","","","","","","","feedback_test"
"","","","","","psychophysics","321","681874","0.0-8.3-0.3-0.120","812","","f","","","","","","","","","","","","","key","f","6.080750841750866","584.9142857142857","324.8","f","true","img/T_ambi40.png","をる","prac",""
"","","","","","html-keyboard-response","322","682383","0.0-8.3-0.3-1.120","null","<span style='color:GreenYellow; font-size: 70px;'>正确! </span>","null","","","","","","","","","","","","","","","","","","","","","","","feedback_test"
"","","","","","psychophysics","323","684297","0.0-8.3-0.3-0.121","907","","f","","","","","","","","","","","","","key","f","6.138580645161546","584.9142857142857","324.8","j","false","img/S_ambi40.png","生人","prac",""
"","","","","","html-keyboard-response","324","684808","0.0-8.3-0.3-1.121","null","<span style='color:red; font-size: 70px;'>错误! </span>","null","","","","","","","","","","","","","","","","","","","","","","","feedback_test"
"","","","","","psychophysics","325","686575","0.0-8.3-0.3-0.122","766","","f","","","","","","","","","","","","","key","f","6.0816124567474406","584.9142857142857","324.8","f","true","img/S_ambi40.png","自我","prac",""
"","","","","","html-keyboard-response","326","687088","0.0-8.3-0.3-1.122","null","<span style='color:GreenYellow; font-size: 70px;'>正确! </span>","null","","","","","","","","","","","","","","","","","","","","","","","feedback_test"
"","","","","","psychophysics","327","688908","0.0-8.3-0.3-0.123","815","","j","","","","","","","","","","","","","key","j","6.060551839464821","584.9142857142857","324.8","j","true","img/C_ambi40.png","生人","prac",""
"","","","","","html-keyboard-response","328","689418","0.0-8.3-0.3-1.123","null","<span style='color:GreenYellow; font-size: 70px;'>正确! </span>","null","","","","","","","","","","","","","","","","","","","","","","","feedback_test"
"","","","","","psychophysics","329","691461","0.0-8.3-0.3-0.124","1041","","j","","","","","","","","","","","","","key","j","6.107833836857916","584.9142857142857","324.8","f","false","img/C_ambi40.png","朋友","prac",""
"","","","","","html-keyboard-response","330","691968","0.0-8.3-0.3-1.124","null","<span style='color:red; font-size: 70px;'>错误! </span>","null","","","","","","","","","","","","","","","","","","","","","","","feedback_test"
"","","","","","psychophysics","331","693538","0.0-8.3-0.3-0.125","567","","f","","","","","","","","","","","","","key","f","6.084089843750007","584.9142857142857","324.8","f","true","img/T_ambi40.png","をる","prac",""
"","","","","","html-keyboard-response","332","694052","0.0-8.3-0.3-1.125","null","<span style='color:GreenYellow; font-size: 70px;'>正确! </span>","null","","","","","","","","","","","","","","","","","","","","","","","feedback_test"
"","","","","","psychophysics","333","695844","0.0-8.3-0.3-0.126","789","","f","","","","","","","","","","","","","key","f","6.081200680272182","584.9142857142857","324.8","j","false","img/C_ambi40.png","自我","prac",""
"","","","","","html-keyboard-response","334","696355","0.0-8.3-0.3-1.126","null","<span style='color:red; font-size: 70px;'>错误! </span>","null","","","","","","","","","","","","","","","","","","","","","","","feedback_test"
"","","","","","psychophysics","335","698217","0.0-8.3-0.3-0.127","858","","j","","","","","","","","","","","","","key","j","6.080154098360418","584.9142857142857","324.8","j","true","img/H_ambi40.png","朋友","prac",""
"","","","","","html-keyboard-response","336","698719","0.0-8.3-0.3-1.127","null","<span style='color:GreenYellow; font-size: 70px;'>正确! </span>","null","","","","","","","","","","","","","","","","","","","","","","","feedback_test"
"","","","","","html-keyboard-response","337","707325","0.0-9.0","8603","<style>.context{color:white; font-size: 35px; line-height:40px}</style>                          <div><p class='context'>您正确回答了78% 的试次。</p ><p class='context'>您的平均反应时为837毫秒。</p ><p class='context'>恭喜您完成练习。按任意键进入正式实验。</p ><p class='footer' style='font-size: 35px; line-height:40px;'>请在进入正式实验实验之前将您的<span style='color: lightgreen;'>食指</span>放在电脑键盘的相应键位上进行按键。</p >","j","","","","","","","","","","","","","","","","","","","","","","",""
"","","","","","psychophysics","338","709158","0.0-10.0-0.0-0.0-0.0-0.0","824","","f","","","","","","","","","","","","","key","f","6.0604817275746115","584.9142857142857","324.8","j","false","img/C_ambi40.png","自我","same",""
"","","","","","html-keyboard-response","339","709667","0.0-10.0-0.0-0.0-0.0-1.0","null","<span style='color:red; font-size: 70px;'>错误! </span>","null","","","","","","","","","","","","","","","","","","","","","","","feedback_test"
"","","","","","psychophysics","340","711268","0.0-10.0-0.0-0.0-0.0-0.1","600","","f","","","","","","","","","","","","","key","f","6.1315482625482485","584.9142857142857","324.8","f","true","img/S_ambi40.png","自我","same",""
"","","","","","html-keyboard-response","341","711769","0.0-10.0-0.0-0.0-0.0-1.1","null","<span style='color:GreenYellow; font-size: 70px;'>正确! </span>","null","","","","","","","","","","","","","","","","","","","","","","","feedback_test"
"","","","","","psychophysics","342","713563","0.0-10.0-0.0-0.0-0.0-0.2","793","","j","","","","","","","","","","","","","key","j","6.052552901024043","584.9142857142857","324.8","j","true","img/S_ambi40.png","生人","same",""
"","","","","","html-keyboard-response","343","714071","0.0-10.0-0.0-0.0-0.0-1.2","null","<span style='color:GreenYellow; font-size: 70px;'>正确! </span>","null","","","","","","","","","","","","","","","","","","","","","","","feedback_test"
"","","","","","psychophysics","344","715657","0.0-10.0-0.0-0.0-0.0-0.3","583","","f","","","","","","","","","","","","","key","f","6.054289575289975","584.9142857142857","324.8","f","true","img/T_ambi40.png","をる","same",""
"","","","","","html-keyboard-response","345","716173","0.0-10.0-0.0-0.0-0.0-1.3","null","<span style='color:GreenYellow; font-size: 70px;'>正确! </span>","null","","","","","","","","","","","","","","","","","","","","","","","feedback_test"
"","","","","","psychophysics","346","718206","0.0-10.0-0.0-0.0-0.0-0.4","1030","","j","","","","","","","","","","","","","key","j","6.097156626506181","584.9142857142857","324.8","j","true","img/H_ambi40.png","朋友","same",""
"","","","","","html-keyboard-response","347","718714","0.0-10.0-0.0-0.0-0.0-1.4","null","<span style='color:GreenYellow; font-size: 70px;'>正确! </span>","null","","","","","","","","","","","","","","","","","","","","","","","feedback_test"
"","","","","","psychophysics","348","720766","0.0-10.0-0.0-0.0-0.0-0.5","1050","","j","","","","","","","","","","","","","key","j","6.096698507462601","584.9142857142857","324.8","j","true","img/S_ambi40.png","朋友","same",""
"","","","","","html-keyboard-response","349","721277","0.0-10.0-0.0-0.0-0.0-1.5","null","<span style='color:GreenYellow; font-size: 70px;'>正确! </span>","null","","","","","","","","","","","","","","","","","","","","","","","feedback_test"
"","","","","","psychophysics","350","723019","0.0-10.0-0.0-0.0-0.0-0.6","740","","f","","","","","","","","","","","","","key","f","6.082017482517668","584.9142857142857","324.8","f","true","img/C_ambi40.png","朋友","same",""
"","","","","","html-keyboard-response","351","723530","0.0-10.0-0.0-0.0-0.0-1.6","null","<span style='color:GreenYellow; font-size: 70px;'>正确! </span>","null","","","","","","","","","","","","","","","","","","","","","","","feedback_test"
"","","","","","psychophysics","352","725101","0.0-10.0-0.0-0.0-0.0-0.7","568","","f","","","","","","","","","","","","","key","f","6.083906614786043","584.9142857142857","324.8","f","true","img/T_ambi40.png","をる","same",""
"","","","","","html-keyboard-response","353","725610","0.0-10.0-0.0-0.0-0.0-1.7","null","<span style='color:GreenYellow; font-size: 70px;'>正确! </span>","null","","","","","","","","","","","","","","","","","","","","","","","feedback_test"
"","","","","","psychophysics","354","727589","0.0-10.0-0.0-0.0-0.0-0.8","977","","f","","","","","","","","","","","","","key","f","6.074074303405504","584.9142857142857","324.8","f","true","img/H_ambi40.png","生人","same",""
"","","","","","html-keyboard-response","355","728102","0.0-10.0-0.0-0.0-0.0-1.8","null","<span style='color:GreenYellow; font-size: 70px;'>正确! </span>","null","","","","","","","","","","","","","","","","","","","","","","","feedback_test"
"","","","","","psychophysics","356","729968","0.0-10.0-0.0-0.0-0.0-0.9","865","","j","","","","","","","","","","","","","key","j","6.080314754098501","584.9142857142857","324.8","j","true","img/H_ambi40.png","自我","same",""
"","","","","","html-keyboard-response","357","730480","0.0-10.0-0.0-0.0-0.0-1.9","null","<span style='color:GreenYellow; font-size: 70px;'>正确! </span>","null","","","","","","","","","","","","","","","","","","","","","","","feedback_test"
"","","","","","psychophysics","358","732343","0.0-10.0-0.0-0.0-0.0-0.10","858","","f","","","","","","","","","","","","","key","f","6.080468852458842","584.9142857142857","324.8","f","true","img/C_ambi40.png","朋友","same",""
"","","","","","html-keyboard-response","359","732846","0.0-10.0-0.0-0.0-0.0-1.10","null","<span style='color:GreenYellow; font-size: 70px;'>正确! </span>","null","","","","","","","","","","","","","","","","","","","","","","","feedback_test"
"","","","","","psychophysics","360","734582","0.0-10.0-0.0-0.0-0.0-0.11","734","","j","","","","","","","","","","","","","key","j","6.117978647686839","584.9142857142857","324.8","j","true","img/C_ambi40.png","自我","same",""
"","","","","","html-keyboard-response","361","735096","0.0-10.0-0.0-0.0-0.0-1.11","null","<span style='color:GreenYellow; font-size: 70px;'>正确! </span>","null","","","","","","","","","","","","","","","","","","","","","","","feedback_test"
"","","","","","psychophysics","362","736640","0.0-10.0-0.0-0.0-0.0-0.12","543","","f","","","","","","","","","","","","","key","f","6.0843968253969845","584.9142857142857","324.8","f","true","img/S_ambi40.png","自我","same",""
"","","","","","html-keyboard-response","363","737142","0.0-10.0-0.0-0.0-0.0-1.12","null","<span style='color:GreenYellow; font-size: 70px;'>正确! </span>","null","","","","","","","","","","","","","","","","","","","","","","","feedback_test"
"","","","","","psychophysics","364","738802","0.0-10.0-0.0-0.0-0.0-0.13","657","","j","","","","","","","","","","","","","key","j","6.105372693726872","584.9142857142857","324.8","j","true","img/S_ambi40.png","生人","same",""
"","","","","","html-keyboard-response","365","739303","0.0-10.0-0.0-0.0-0.0-1.13","null","<span style='color:GreenYellow; font-size: 70px;'>正确! </span>","null","","","","","","","","","","","","","","","","","","","","","","","feedback_test"
"","","","","","psychophysics","366","741142","0.0-10.0-0.0-0.0-0.0-0.14","838","","f","","","","","","","","","","","","","key","f","6.080634551495236","584.9142857142857","324.8","f","true","img/H_ambi40.png","生人","same",""
"","","","","","html-keyboard-response","367","741644","0.0-10.0-0.0-0.0-0.0-1.14","null","<span style='color:GreenYellow; font-size: 70px;'>正确! </span>","null","","","","","","","","","","","","","","","","","","","","","","","feedback_test"
"","","","","","psychophysics","368","743560","0.0-10.0-0.0-0.0-0.0-0.15","912","","j","","","","","","","","","","","","","key","j","6.0797707006367885","584.9142857142857","324.8","j","true","img/H_ambi40.png","朋友","same",""
"","","","","","html-keyboard-response","369","744075","0.0-10.0-0.0-0.0-0.0-1.15","null","<span style='color:GreenYellow; font-size: 70px;'>正确! </span>","null","","","","","","","","","","","","","","","","","","","","","","","feedback_test"
"","","","","","psychophysics","370","745633","0.0-10.0-0.0-0.0-0.0-0.16","555","","f","","","","","","","","","","","","","key","f","6.084208661417191","584.9142857142857","324.8","f","true","img/T_ambi40.png","をる","same",""
"","","","","","html-keyboard-response","371","746136","0.0-10.0-0.0-0.0-0.0-1.16","null","<span style='color:GreenYellow; font-size: 70px;'>正确! </span>","null","","","","","","","","","","","","","","","","","","","","","","","feedback_test"
"","","","","","psychophysics","372","747998","0.0-10.0-0.0-0.0-0.0-0.17","859","","j","","","","","","","","","","","","","key","j","6.100516447368519","584.9142857142857","324.8","j","true","img/C_ambi40.png","生人","same",""
"","","","","","html-keyboard-response","373","748500","0.0-10.0-0.0-0.0-0.0-1.17","null","<span style='color:GreenYellow; font-size: 70px;'>正确! </span>","null","","","","","","","","","","","","","","","","","","","","","","","feedback_test"
"","","","","","psychophysics","374","750355","0.0-10.0-0.0-0.0-0.0-0.18","851","","j","","","","","","","","","","","","","key","j","6.094794019933734","584.9142857142857","324.8","j","true","img/S_ambi40.png","生人","same",""
"","","","","","html-keyboard-response","375","750860","0.0-10.0-0.0-0.0-0.0-1.18","null","<span style='color:GreenYellow; font-size: 70px;'>正确! </span>","null","","","","","","","","","","","","","","","","","","","","","","","feedback_test"
"","","","","","psychophysics","376","752404","0.0-10.0-0.0-0.0-0.0-0.19","538","","f","","","","","","","","","","","","","key","f","6.182846774193158","584.9142857142857","324.8","f","true","img/T_ambi40.png","をる","same",""
"","","","","","html-keyboard-response","377","752918","0.0-10.0-0.0-0.0-0.0-1.19","null","<span style='color:GreenYellow; font-size: 70px;'>正确! </span>","null","","","","","","","","","","","","","","","","","","","","","","","feedback_test"
"","","","","","psychophysics","378","754749","0.0-10.0-0.0-0.0-0.0-0.20","828","","f","","","","","","","","","","","","","key","f","6.080610000000258","584.9142857142857","324.8","f","true","img/H_ambi40.png","生人","same",""
"","","","","","html-keyboard-response","379","755251","0.0-10.0-0.0-0.0-0.0-1.20","null","<span style='color:GreenYellow; font-size: 70px;'>正确! </span>","null","","","","","","","","","","","","","","","","","","","","","","","feedback_test"
"","","","","","psychophysics","380","756867","0.0-10.0-0.0-0.0-0.0-0.21","613","","j","","","","","","","","","","","","","key","j","6.129528517110234","584.9142857142857","324.8","j","true","img/H_ambi40.png","自我","same",""
"","","","","","html-keyboard-response","381","757375","0.0-10.0-0.0-0.0-0.0-1.21","null","<span style='color:GreenYellow; font-size: 70px;'>正确! </span>","null","","","","","","","","","","","","","","","","","","","","","","","feedback_test"
"","","","","","psychophysics","382","758916","0.0-10.0-0.0-0.0-0.0-0.22","535","","f","","","","","","","","","","","","","key","f","6.0848174603172716","584.9142857142857","324.8","f","true","img/T_ambi40.png","をる","same",""
"","","","","","html-keyboard-response","383","759428","0.0-10.0-0.0-0.0-0.0-1.22","null","<span style='color:GreenYellow; font-size: 70px;'>正确! </span>","null","","","","","","","","","","","","","","","","","","","","","","","feedback_test"
"","","","","","psychophysics","384","761098","0.0-10.0-0.0-0.0-0.0-0.23","669","","j","","","","","","","","","","","","","key","j","6.082681318681479","584.9142857142857","324.8","f","false","img/C_ambi40.png","朋友","same",""
"","","","","","html-keyboard-response","385","761603","0.0-10.0-0.0-0.0-0.0-1.23","null","<span style='color:red; font-size: 70px;'>错误! </span>","null","","","","","","","","","","","","","","","","","","","","","","","feedback_test"
"","","","","","psychophysics","386","763406","0.0-10.0-0.0-0.0-0.0-0.24","801","","j","","","","","","","","","","","","","key","j","6.094730375426799","584.9142857142857","324.8","j","true","img/C_ambi40.png","自我","same",""
"","","","","","html-keyboard-response","387","763914","0.0-10.0-0.0-0.0-0.0-1.24","null","<span style='color:GreenYellow; font-size: 70px;'>正确! </span>","null","","","","","","","","","","","","","","","","","","","","","","","feedback_test"
"","","","","","psychophysics","388","766188","0.0-10.0-0.0-0.0-0.0-0.25","1273","","f","","","","","","","","","","","","","key","f","6.076815013404831","584.9142857142857","324.8","j","false","img/C_ambi40.png","自我","same",""
"","","","","","html-keyboard-response","389","766693","0.0-10.0-0.0-0.0-0.0-1.25","null","<span style='color:red; font-size: 70px;'>错误! </span>","null","","","","","","","","","","","","","","","","","","","","","","","feedback_test"
"","","","","","psychophysics","390","768335","0.0-10.0-0.0-0.0-0.0-0.26","639","","f","","","","","","","","","","","","","key","f","6.105835820895311","584.9142857142857","324.8","f","true","img/S_ambi40.png","自我","same",""
"","","","","","html-keyboard-response","391","768850","0.0-10.0-0.0-0.0-0.0-1.26","null","<span style='color:GreenYellow; font-size: 70px;'>正确! </span>","null","","","","","","","","","","","","","","","","","","","","","","","feedback_test"
"","","","","","psychophysics","392","770553","0.0-10.0-0.0-0.0-0.0-0.27","700","","f","","","","","","","","","","","","","key","f","6.082363309352508","584.9142857142857","324.8","f","true","img/S_ambi40.png","自我","same",""
"","","","","","html-keyboard-response","393","771056","0.0-10.0-0.0-0.0-0.0-1.27","null","<span style='color:GreenYellow; font-size: 70px;'>正确! </span>","null","","","","","","","","","","","","","","","","","","","","","","","feedback_test"
"","","","","","psychophysics","394","772848","0.0-10.0-0.0-0.0-0.0-0.28","789","","j","","","","","","","","","","","","","key","j","6.060498305084579","584.9142857142857","324.8","j","true","img/C_ambi40.png","生人","same",""
"","","","","","html-keyboard-response","395","773363","0.0-10.0-0.0-0.0-0.0-1.28","null","<span style='color:GreenYellow; font-size: 70px;'>正确! </span>","null","","","","","","","","","","","","","","","","","","","","","","","feedback_test"
"","","","","","psychophysics","396","775184","0.0-10.0-0.0-0.0-0.0-0.29","821","","j","","","","","","","","","","","","","key","j","6.080637583892711","584.9142857142857","324.8","j","true","img/H_ambi40.png","朋友","same",""
"","","","","","html-keyboard-response","397","775698","0.0-10.0-0.0-0.0-0.0-1.29","null","<span style='color:GreenYellow; font-size: 70px;'>正确! </span>","null","","","","","","","","","","","","","","","","","","","","","","","feedback_test"
"","","","","","psychophysics","398","777263","0.0-10.0-0.0-0.0-0.0-0.30","561","","f","","","","","","","","","","","","","key","f","6.060696498054199","584.9142857142857","324.8","f","true","img/T_ambi40.png","をる","same",""
"","","","","","html-keyboard-response","399","777769","0.0-10.0-0.0-0.0-0.0-1.30","null","<span style='color:GreenYellow; font-size: 70px;'>正确! </span>","null","","","","","","","","","","","","","","","","","","","","","","","feedback_test"
"","","","","","psychophysics","400","779529","0.0-10.0-0.0-0.0-0.0-0.31","760","","j","","","","","","","","","","","","","key","j","6.0814513888888335","584.9142857142857","324.8","j","true","img/H_ambi40.png","朋友","same",""
"","","","","","html-keyboard-response","401","780033","0.0-10.0-0.0-0.0-0.0-1.31","null","<span style='color:GreenYellow; font-size: 70px;'>正确! </span>","null","","","","","","","","","","","","","","","","","","","","","","","feedback_test"
"","","","","","psychophysics","402","781959","0.0-10.0-0.0-0.0-0.0-0.32","924","","f","","","","","","","","","","","","","key","f","6.072490445859834","584.9142857142857","324.8","f","true","img/C_ambi40.png","朋友","same",""
"","","","","","html-keyboard-response","403","782465","0.0-10.0-0.0-0.0-0.0-1.32","null","<span style='color:GreenYellow; font-size: 70px;'>正确! </span>","null","","","","","","","","","","","","","","","","","","","","","","","feedback_test"
"","","","","","psychophysics","404","784555","0.0-10.0-0.0-0.0-0.0-0.33","1089","","j","","","","","","","","","","","","","key","j","6.1319321533922615","584.9142857142857","324.8","j","true","img/S_ambi40.png","生人","same",""
"","","","","","html-keyboard-response","405","785058","0.0-10.0-0.0-0.0-0.0-1.33","null","<span style='color:GreenYellow; font-size: 70px;'>正确! </span>","null","","","","","","","","","","","","","","","","","","","","","","","feedback_test"
"","","","","","psychophysics","406","786960","0.0-10.0-0.0-0.0-0.0-0.34","901","","j","","","","","","","","","","","","","key","j","6.092760517799543","584.9142857142857","324.8","j","true","img/S_ambi40.png","朋友","same",""
"","","","","","html-keyboard-response","407","787461","0.0-10.0-0.0-0.0-0.0-1.34","null","<span style='color:GreenYellow; font-size: 70px;'>正确! </span>","null","","","","","","","","","","","","","","","","","","","","","","","feedback_test"
"","","","","","psychophysics","408","789325","0.0-10.0-0.0-0.0-0.0-0.35","859","","f","","","","","","","","","","","","","key","f","6.060620915032452","584.9142857142857","324.8","f","true","img/H_ambi40.png","生人","same",""
"","","","","","html-keyboard-response","409","789833","0.0-10.0-0.0-0.0-0.0-1.35","null","<span style='color:GreenYellow; font-size: 70px;'>正确! </span>","null","","","","","","","","","","","","","","","","","","","","","","","feedback_test"
"","","","","","psychophysics","410","791546","0.0-10.0-0.0-0.0-0.0-0.36","711","","j","","","","","","","","","","","","","key","j","6.147913669064732","584.9142857142857","324.8","j","true","img/H_ambi40.png","朋友","same",""
"","","","","","html-keyboard-response","411","792051","0.0-10.0-0.0-0.0-0.0-1.36","null","<span style='color:GreenYellow; font-size: 70px;'>正确! </span>","null","","","","","","","","","","","","","","","","","","","","","","","feedback_test"
"","","","","","psychophysics","412","793974","0.0-10.0-0.0-0.0-0.0-0.37","921","","f","","","","","","","","","","","","","key","f","6.091621794871828","584.9142857142857","324.8","f","true","img/S_ambi40.png","自我","same",""
"","","","","","html-keyboard-response","413","794480","0.0-10.0-0.0-0.0-0.0-1.37","null","<span style='color:GreenYellow; font-size: 70px;'>正确! </span>","null","","","","","","","","","","","","","","","","","","","","","","","feedback_test"
"","","","","","psychophysics","414","796261","0.0-10.0-0.0-0.0-0.0-0.38","778","","j","","","","","","","","","","","","","key","j","6.081876288659797","584.9142857142857","324.8","j","true","img/C_ambi40.png","生人","same",""
"","","","","","html-keyboard-response","415","796773","0.0-10.0-0.0-0.0-0.0-1.38","null","<span style='color:GreenYellow; font-size: 70px;'>正确! </span>","null","","","","","","","","","","","","","","","","","","","","","","","feedback_test"
"","","","","","psychophysics","416","798608","0.0-10.0-0.0-0.0-0.0-0.39","834","","f","","","","","","","","","","","","","key","f","6.070969899665458","584.9142857142857","324.8","f","true","img/H_ambi40.png","生人","same",""
"","","","","","html-keyboard-response","417","799114","0.0-10.0-0.0-0.0-0.0-1.39","null","<span style='color:GreenYellow; font-size: 70px;'>正确! </span>","null","","","","","","","","","","","","","","","","","","","","","","","feedback_test"
"","","","","","psychophysics","418","801099","0.0-10.0-0.0-0.0-0.0-0.40","980","","j","","","","","","","","","","","","","key","j","6.097836419753156","584.9142857142857","324.8","j","true","img/C_ambi40.png","自我","same",""
"","","","","","html-keyboard-response","419","801601","0.0-10.0-0.0-0.0-0.0-1.40","null","<span style='color:GreenYellow; font-size: 70px;'>正确! </span>","null","","","","","","","","","","","","","","","","","","","","","","","feedback_test"
"","","","","","psychophysics","420","803320","0.0-10.0-0.0-0.0-0.0-0.41","715","","f","","","","","","","","","","","","","key","f","6.082021352313409","584.9142857142857","324.8","f","true","img/S_ambi40.png","自我","same",""
"","","","","","html-keyboard-response","421","803821","0.0-10.0-0.0-0.0-0.0-1.41","null","<span style='color:GreenYellow; font-size: 70px;'>正确! </span>","null","","","","","","","","","","","","","","","","","","","","","","","feedback_test"
"","","","","","psychophysics","422","805558","0.0-10.0-0.0-0.0-0.0-0.42","736","","j","","","","","","","","","","","","","key","j","6.060270175438685","584.9142857142857","324.8","j","true","img/H_ambi40.png","朋友","same",""
"","","","","","html-keyboard-response","423","806063","0.0-10.0-0.0-0.0-0.0-1.42","null","<span style='color:GreenYellow; font-size: 70px;'>正确! </span>","null","","","","","","","","","","","","","","","","","","","","","","","feedback_test"
"","","","","","psychophysics","424","807646","0.0-10.0-0.0-0.0-0.0-0.43","581","","f","","","","","","","","","","","","","key","f","6.074571984435942","584.9142857142857","324.8","f","true","img/T_ambi40.png","をる","same",""
"","","","","","html-keyboard-response","425","808153","0.0-10.0-0.0-0.0-0.0-1.43","null","<span style='color:GreenYellow; font-size: 70px;'>正确! </span>","null","","","","","","","","","","","","","","","","","","","","","","","feedback_test"
"","","","","","psychophysics","426","809703","0.0-10.0-0.0-0.0-0.0-0.44","547","","f","","","","","","","","","","","","","key","f","6.157216000000015","584.9142857142857","324.8","f","true","img/T_ambi40.png","をる","same",""
"","","","","","html-keyboard-response","427","810217","0.0-10.0-0.0-0.0-0.0-1.44","null","<span style='color:GreenYellow; font-size: 70px;'>正确! </span>","null","","","","","","","","","","","","","","","","","","","","","","","feedback_test"
"","","","","","psychophysics","428","811999","0.0-10.0-0.0-0.0-0.0-0.45","777","","j","","","","","","","","","","","","","key","j","6.1656076388891154","584.9142857142857","324.8","j","true","img/C_ambi40.png","自我","same",""
"","","","","","html-keyboard-response","429","812499","0.0-10.0-0.0-0.0-0.0-1.45","null","<span style='color:GreenYellow; font-size: 70px;'>正确! </span>","null","","","","","","","","","","","","","","","","","","","","","","","feedback_test"
"","","","","","psychophysics","430","814063","0.0-10.0-0.0-0.0-0.0-0.46","562","","f","","","","","","","","","","","","","key","f","6.0751220472441165","584.9142857142857","324.8","j","false","img/S_ambi40.png","生人","same",""
"","","","","","html-keyboard-response","431","814574","0.0-10.0-0.0-0.0-0.0-1.46","null","<span style='color:red; font-size: 70px;'>错误! </span>","null","","","","","","","","","","","","","","","","","","","","","","","feedback_test"
"","","","","","psychophysics","432","816098","0.0-10.0-0.0-0.0-0.0-0.47","518","","f","","","","","","","","","","","","","key","f","6.084947791164666","584.9142857142857","324.8","f","true","img/H_ambi40.png","生人","same",""
"","","","","","html-keyboard-response","433","816607","0.0-10.0-0.0-0.0-0.0-1.47","null","<span style='color:GreenYellow; font-size: 70px;'>正确! </span>","null","","","","","","","","","","","","","","","","","","","","","","","feedback_test"
"","","","","","psychophysics","434","818147","0.0-10.0-0.0-0.0-0.0-0.48","537","","f","","","","","","","","","","","","","key","f","6.158895582329561","584.9142857142857","324.8","f","true","img/T_ambi40.png","をる","same",""
