"success","timeout","failed_images","failed_audio","failed_video","trial_type","trial_index","time_elapsed","internal_node_id","rt","stimulus","response","value","item_width_mm","item_height_mm","item_width_px","px2mm","view_dist_mm","item_width_deg","px2deg","scale_factor","win_width_deg","win_height_deg","view_history","response_type","key_press","avg_frame_time","center_x","center_y","correct_response","correct","Image","word","condition","screen_id"
"true","false","[]","[]","[]","preload","0","405","0.0-0.0","","","","","","","","","","","","","","","","","","","","","","","","","",""
"","","","","","html-keyboard-response","1","67323","0.0-1.0","66914","
     <p>您好，欢迎参加本次实验。</p>
     <p>为充分保障您的权利，请确保您已经知晓并同意《参与实验同意书》以及《数据公开知情同意书》。</p>
     <p>如果您未见过上述内容，请咨询实验员。</p>
     <p>如果您选择继续实验，则表示您已经清楚两份知情同意书的内容并同意。</p>
     <p> <div style = ""color: green""><按任意键至下页></div> </p>
     "," ","","","","","","","","","","","","","","","","","","","","","","",""
"","","","","","html-keyboard-response","2","69461","0.0-2.0","2137","
     <p>本实验首先需要您填写一些基本个人信息。</p>
     <p> <div style = ""color: green""><按任意键至下页></div></p>
     "," ","","","","","","","","","","","","","","","","","","","","","","",""
"","","","","","call-function","3","69464","0.0-3.0-0.0","","","","","","","","","","","","","","","","","","","","","","","","","",""
"","","","","","survey-html-form","4","74347","0.0-3.0-1.0","4870","","{""Q0"":""22""}","","","","","","","","","","","","","","","","","","","","","","",""
"","","","","","html-button-response","5","75774","0.0-3.0-2.0","1425","<p style = 'color : white'>您的性别</p>","1","","","","","","","","","","","","","","","","","","","","","","",""
"","","","","","survey-html-form","6","82678","0.0-3.0-3.0","6903","","{""Q0"":""2004""}","","","","","","","","","","","","","","","","","","","","","","",""
"","","","","","survey-html-form","7","87086","0.0-3.0-4.0","4407","","{""Q0"":""5""}","","","","","","","","","","","","","","","","","","","","","","",""
"","","","","","virtual-chinrest","8","368783","0.0-4.0","281695","","","","85.6","53.98","466.73901401985574","5.448957828769543","524.24","9.334780280397114","50","0.9084305945377055","34.14","16.14","","","","","","","","","","","",""
"true","","","","","fullscreen","9","372919","0.0-5.0","","","","","","","","","","","","","","","","","","","","","","","","","",""
"","","","","","instructions","10","456487","0.0-6.0","83567","","","","","","","","","","","","","","[{""page_index"":0,""viewing_time"":8184},{""page_index"":1,""viewing_time"":39398},{""page_index"":2,""viewing_time"":9760},{""page_index"":1,""viewing_time"":10025},{""page_index"":2,""viewing_time"":4119},{""page_index"":1,""viewing_time"":2183},{""page_index"":2,""viewing_time"":1624},{""page_index"":3,""viewing_time"":8272}]","","","","","","","","","","",""
"","","","","","psychophysics","11","459000","0.0-7.0-0.0-0.0","null","","null","","","","","","","","","","","","","key","null","6.45251162790706","853.3333333333334","476","f","false","img/C_ambi40.png","生人","prac",""
"","","","","","html-keyboard-response","12","459506","0.0-7.0-0.0-1.0","null","<span class='add_' style='color:yellow; font-size: 70px;'> 太慢! </span>","null","","","","","","","","","","","","","","","","","","","","","","","feedback_test"
"","","","","","psychophysics","13","460763","0.0-7.0-0.0-0.1","256","","f","","","","","","","","","","","","","key","f","6.3375685279187275","853.3333333333334","476","f","true","img/S_ambi40.png","自我","prac",""
"","","","","","html-keyboard-response","14","461278","0.0-7.0-0.0-1.1","null","<span style='color:GreenYellow; font-size: 70px;'>正确! </span>","null","","","","","","","","","","","","","","","","","","","","","","","feedback_test"
"","","","","","psychophysics","15","463782","0.0-7.0-0.0-0.2","null","","null","","","","","","","","","","","","","key","null","6.181009925558277","853.3333333333334","476","j","false","img/T_ambi40.png","をる","prac",""
"","","","","","html-keyboard-response","16","464287","0.0-7.0-0.0-1.2","null","<span class='add_' style='color:yellow; font-size: 70px;'> 太慢! </span>","null","","","","","","","","","","","","","","","","","","","","","","","feedback_test"
"","","","","","psychophysics","17","465726","0.0-7.0-0.0-0.3","437","","f","","","","","","","","","","","","","key","f","6.27309210526322","853.3333333333334","476","f","true","img/C_ambi40.png","生人","prac",""
"","","","","","html-keyboard-response","18","466234","0.0-7.0-0.0-1.3","null","<span style='color:GreenYellow; font-size: 70px;'>正确! </span>","null","","","","","","","","","","","","","","","","","","","","","","","feedback_test"
"","","","","","psychophysics","19","467708","0.0-7.0-0.0-0.4","471","","f","","","","","","","","","","","","","key","f","6.267786324786373","853.3333333333334","476","j","false","img/C_ambi40.png","朋友","prac",""
"","","","","","html-keyboard-response","20","468212","0.0-7.0-0.0-1.4","null","<span style='color:red; font-size: 70px;'>错误! </span>","null","","","","","","","","","","","","","","","","","","","","","","","feedback_test"
"","","","","","psychophysics","21","469692","0.0-7.0-0.0-0.5","478","","j","","","","","","","","","","","","","key","j","6.320819742489224","853.3333333333334","476","j","true","img/T_ambi40.png","をる","prac",""
"","","","","","html-keyboard-response","22","470203","0.0-7.0-0.0-1.5","null","<span style='color:GreenYellow; font-size: 70px;'>正确! </span>","null","","","","","","","","","","","","","","","","","","","","","","","feedback_test"
"","","","","","psychophysics","23","471726","0.0-7.0-0.0-0.6","520","","f","","","","","","","","","","","","","key","f","6.23504526748963","853.3333333333334","476","f","true","img/H_ambi40.png","朋友","prac",""
"","","","","","html-keyboard-response","24","472230","0.0-7.0-0.0-1.6","null","<span style='color:GreenYellow; font-size: 70px;'>正确! </span>","null","","","","","","","","","","","","","","","","","","","","","","","feedback_test"
"","","","","","psychophysics","25","473583","0.0-7.0-0.0-0.7","351","","j","","","","","","","","","","","","","key","j","6.087117647058678","853.3333333333334","476","f","false","img/S_ambi40.png","自我","prac",""
"","","","","","html-keyboard-response","26","474087","0.0-7.0-0.0-1.7","null","<span style='color:red; font-size: 70px;'>错误! </span>","null","","","","","","","","","","","","","","","","","","","","","","","feedback_test"
"","","","","","psychophysics","27","475619","0.0-7.0-0.0-0.8","530","","j","","","","","","","","","","","","","key","j","6.336639004149397","853.3333333333334","476","j","true","img/T_ambi40.png","をる","prac",""
"","","","","","html-keyboard-response","28","476134","0.0-7.0-0.0-1.8","null","<span style='color:GreenYellow; font-size: 70px;'>正确! </span>","null","","","","","","","","","","","","","","","","","","","","","","","feedback_test"
"","","","","","psychophysics","29","477774","0.0-7.0-0.0-0.9","639","","j","","","","","","","","","","","","","key","j","6.152916981132244","853.3333333333334","476","j","true","img/H_ambi40.png","生人","prac",""
"","","","","","html-keyboard-response","30","478281","0.0-7.0-0.0-1.9","null","<span style='color:GreenYellow; font-size: 70px;'>正确! </span>","null","","","","","","","","","","","","","","","","","","","","","","","feedback_test"
"","","","","","psychophysics","31","479855","0.0-7.0-0.0-0.10","570","","f","","","","","","","","","","","","","key","f","6.230565737051689","853.3333333333334","476","j","false","img/C_ambi40.png","自我","prac",""
"","","","","","html-keyboard-response","32","480368","0.0-7.0-0.0-1.10","null","<span style='color:red; font-size: 70px;'>错误! </span>","null","","","","","","","","","","","","","","","","","","","","","","","feedback_test"
"","","","","","psychophysics","33","481830","0.0-7.0-0.0-0.11","461","","j","","","","","","","","","","","","","key","j","6.1045169491524085","853.3333333333334","476","f","false","img/H_ambi40.png","朋友","prac",""
"","","","","","html-keyboard-response","34","482345","0.0-7.0-0.0-1.11","null","<span style='color:red; font-size: 70px;'>错误! </span>","null","","","","","","","","","","","","","","","","","","","","","","","feedback_test"
"","","","","","psychophysics","35","483814","0.0-7.0-0.0-0.12","467","","j","","","","","","","","","","","","","key","j","6.111351464435197","853.3333333333334","476","j","true","img/T_ambi40.png","をる","prac",""
"","","","","","html-keyboard-response","36","484328","0.0-7.0-0.0-1.12","null","<span style='color:GreenYellow; font-size: 70px;'>正确! </span>","null","","","","","","","","","","","","","","","","","","","","","","","feedback_test"
"","","","","","psychophysics","37","485782","0.0-7.0-0.0-0.13","451","","f","","","","","","","","","","","","","key","f","6.18967521367505","853.3333333333334","476","j","false","img/H_ambi40.png","自我","prac",""
"","","","","","html-keyboard-response","38","486292","0.0-7.0-0.0-1.13","null","<span style='color:red; font-size: 70px;'>错误! </span>","null","","","","","","","","","","","","","","","","","","","","","","","feedback_test"
"","","","","","psychophysics","39","487786","0.0-7.0-0.0-0.14","493","","f","","","","","","","","","","","","","key","f","6.239550420167971","853.3333333333334","476","j","false","img/S_ambi40.png","生人","prac",""
"","","","","","html-keyboard-response","40","488288","0.0-7.0-0.0-1.14","null","<span style='color:red; font-size: 70px;'>错误! </span>","null","","","","","","","","","","","","","","","","","","","","","","","feedback_test"
"","","","","","psychophysics","41","489803","0.0-7.0-0.0-0.15","514","","f","","","","","","","","","","","","","key","f","6.341432773109238","853.3333333333334","476","j","false","img/S_ambi40.png","朋友","prac",""
"","","","","","html-keyboard-response","42","490313","0.0-7.0-0.0-1.15","null","<span style='color:red; font-size: 70px;'>错误! </span>","null","","","","","","","","","","","","","","","","","","","","","","","feedback_test"
"","","","","","psychophysics","43","491919","0.0-7.0-0.0-0.16","600","","f","","","","","","","","","","","","","key","f","6.343087999999989","853.3333333333334","476","f","true","img/S_ambi40.png","自我","prac",""
"","","","","","html-keyboard-response","44","492431","0.0-7.0-0.0-1.16","null","<span style='color:GreenYellow; font-size: 70px;'>正确! </span>","null","","","","","","","","","","","","","","","","","","","","","","","feedback_test"
"","","","","","psychophysics","45","493712","0.0-7.0-0.0-0.17","276","","j","","","","","","","","","","","","","key","j","6.209375609755914","853.3333333333334","476","j","true","img/H_ambi40.png","生人","prac",""
"","","","","","html-keyboard-response","46","494225","0.0-7.0-0.0-1.17","null","<span style='color:GreenYellow; font-size: 70px;'>正确! </span>","null","","","","","","","","","","","","","","","","","","","","","","","feedback_test"
"","","","","","psychophysics","47","495599","0.0-7.0-0.0-0.18","371","","j","","","","","","","","","","","","","key","j","6.402075117370857","853.3333333333334","476","j","true","img/T_ambi40.png","をる","prac",""
"","","","","","html-keyboard-response","48","496112","0.0-7.0-0.0-1.18","null","<span style='color:GreenYellow; font-size: 70px;'>正确! </span>","null","","","","","","","","","","","","","","","","","","","","","","","feedback_test"
"","","","","","psychophysics","49","497738","0.0-7.0-0.0-0.19","623","","j","","","","","","","","","","","","","key","j","6.346694117647084","853.3333333333334","476","f","false","img/C_ambi40.png","生人","prac",""
"","","","","","html-keyboard-response","50","498246","0.0-7.0-0.0-1.19","null","<span style='color:red; font-size: 70px;'>错误! </span>","null","","","","","","","","","","","","","","","","","","","","","","","feedback_test"
"","","","","","psychophysics","51","499967","0.0-7.0-0.0-0.20","719","","j","","","","","","","","","","","","","key","j","6.2146739130434785","853.3333333333334","476","j","true","img/C_ambi40.png","朋友","prac",""
"","","","","","html-keyboard-response","52","500475","0.0-7.0-0.0-1.20","null","<span style='color:GreenYellow; font-size: 70px;'>正确! </span>","null","","","","","","","","","","","","","","","","","","","","","","","feedback_test"
"","","","","","psychophysics","53","502064","0.0-7.0-0.0-0.21","587","","j","","","","","","","","","","","","","key","j","6.203043137254723","853.3333333333334","476","f","false","img/H_ambi40.png","朋友","prac",""
"","","","","","html-keyboard-response","54","502578","0.0-7.0-0.0-1.21","null","<span style='color:red; font-size: 70px;'>错误! </span>","null","","","","","","","","","","","","","","","","","","","","","","","feedback_test"
"","","","","","psychophysics","55","504071","0.0-7.0-0.0-0.22","492","","j","","","","","","","","","","","","","key","j","6.346307692307537","853.3333333333334","476","j","true","img/T_ambi40.png","をる","prac",""
"","","","","","html-keyboard-response","56","504587","0.0-7.0-0.0-1.22","null","<span style='color:GreenYellow; font-size: 70px;'>正确! </span>","null","","","","","","","","","","","","","","","","","","","","","","","feedback_test"
"","","","","","psychophysics","57","506378","0.0-7.0-0.0-0.23","787","","j","","","","","","","","","","","","","key","j","6.209101398601449","853.3333333333334","476","j","true","img/C_ambi40.png","自我","prac",""
"","","","","","html-keyboard-response","58","506889","0.0-7.0-0.0-1.23","null","<span style='color:GreenYellow; font-size: 70px;'>正确! </span>","null","","","","","","","","","","","","","","","","","","","","","","","feedback_test"
"","","","","","psychophysics","59","508585","0.0-7.0-0.0-0.24","694","","f","","","","","","","","","","","","","key","f","6.262814126393998","853.3333333333334","476","j","false","img/S_ambi40.png","生人","prac",""
"","","","","","html-keyboard-response","60","509089","0.0-7.0-0.0-1.24","null","<span style='color:red; font-size: 70px;'>错误! </span>","null","","","","","","","","","","","","","","","","","","","","","","","feedback_test"
"","","","","","psychophysics","61","510866","0.0-7.0-0.0-0.25","776","","f","","","","","","","","","","","","","key","f","6.187241258741384","853.3333333333334","476","f","true","img/H_ambi40.png","朋友","prac",""
"","","","","","html-keyboard-response","62","511377","0.0-7.0-0.0-1.25","null","<span style='color:GreenYellow; font-size: 70px;'>正确! </span>","null","","","","","","","","","","","","","","","","","","","","","","","feedback_test"
"","","","","","psychophysics","63","513071","0.0-7.0-0.0-0.26","690","","j","","","","","","","","","","","","","key","j","6.217590405904074","853.3333333333334","476","f","false","img/S_ambi40.png","自我","prac",""
"","","","","","html-keyboard-response","64","513574","0.0-7.0-0.0-1.26","null","<span style='color:red; font-size: 70px;'>错误! </span>","null","","","","","","","","","","","","","","","","","","","","","","","feedback_test"
"","","","","","psychophysics","65","515015","0.0-7.0-0.0-0.27","439","","j","","","","","","","","","","","","","key","j","6.165930735930806","853.3333333333334","476","j","true","img/T_ambi40.png","をる","prac",""
"","","","","","html-keyboard-response","66","515522","0.0-7.0-0.0-1.27","null","<span style='color:GreenYellow; font-size: 70px;'>正确! </span>","null","","","","","","","","","","","","","","","","","","","","","","","feedback_test"
"","","","","","psychophysics","67","517206","0.0-7.0-0.0-0.28","680","","j","","","","","","","","","","","","","key","j","6.28837827715346","853.3333333333334","476","f","false","img/C_ambi40.png","生人","prac",""
"","","","","","html-keyboard-response","68","517720","0.0-7.0-0.0-1.28","null","<span style='color:red; font-size: 70px;'>错误! </span>","null","","","","","","","","","","","","","","","","","","","","","","","feedback_test"
"","","","","","psychophysics","69","519302","0.0-7.0-0.0-0.29","581","","j","","","","","","","","","","","","","key","j","6.228281746031754","853.3333333333334","476","j","true","img/T_ambi40.png","をる","prac",""
"","","","","","html-keyboard-response","70","519807","0.0-7.0-0.0-1.29","null","<span style='color:GreenYellow; font-size: 70px;'>正确! </span>","null","","","","","","","","","","","","","","","","","","","","","","","feedback_test"
"","","","","","psychophysics","71","521407","0.0-7.0-0.0-0.30","598","","f","","","","","","","","","","","","","key","f","6.1789302325581","853.3333333333334","476","j","false","img/S_ambi40.png","朋友","prac",""
"","","","","","html-keyboard-response","72","521915","0.0-7.0-0.0-1.30","null","<span style='color:red; font-size: 70px;'>错误! </span>","null","","","","","","","","","","","","","","","","","","","","","","","feedback_test"
"","","","","","psychophysics","73","523582","0.0-7.0-0.0-0.31","666","","j","","","","","","","","","","","","","key","j","6.17307434944249","853.3333333333334","476","j","true","img/H_ambi40.png","自我","prac",""
"","","","","","html-keyboard-response","74","524097","0.0-7.0-0.0-1.31","null","<span style='color:GreenYellow; font-size: 70px;'>正确! </span>","null","","","","","","","","","","","","","","","","","","","","","","","feedback_test"
"","","","","","html-keyboard-response","75","541939","0.0-7.0-1.0-0.0","17839","<style>.context{color:white; font-size: 35px; line-height:40px}</style>                          <div><p class='context'>您正确回答了53% 的试次。</p ><p class='context'>您的平均反应时为531毫秒。</p >"," ","","","","","","","","","","","","","","","","","","","","","","",""
"","","","","","instructions","76","559758","0.0-7.0-1.0-1.0","17817","","","","","","","","","","","","","","[{""page_index"":0,""viewing_time"":9458},{""page_index"":1,""viewing_time"":4471},{""page_index"":2,""viewing_time"":3888}]","","","","","","","","","","",""
"","","","","","psychophysics","77","561970","0.0-7.1-0.1-0.32","1208","","j","","","","","","","","","","","","","key","j","6.285413105412919","853.3333333333334","476","f","false","img/H_ambi40.png","朋友","prac",""
"","","","","","html-keyboard-response","78","562484","0.0-7.1-0.1-1.32","null","<span style='color:red; font-size: 70px;'>错误! </span>","null","","","","","","","","","","","","","","","","","","","","","","","feedback_test"
"","","","","","psychophysics","79","564275","0.0-7.1-0.1-0.33","787","","j","","","","","","","","","","","","","key","j","6.432104693140687","853.3333333333334","476","f","false","img/C_ambi40.png","生人","prac",""
"","","","","","html-keyboard-response","80","564791","0.0-7.1-0.1-1.33","null","<span style='color:red; font-size: 70px;'>错误! </span>","null","","","","","","","","","","","","","","","","","","","","","","","feedback_test"
"","","","","","psychophysics","81","566367","0.0-7.1-0.1-0.34","574","","f","","","","","","","","","","","","","key","f","6.220836000000126","853.3333333333334","476","j","false","img/H_ambi40.png","自我","prac",""
"","","","","","html-keyboard-response","82","566869","0.0-7.1-0.1-1.34","null","<span style='color:red; font-size: 70px;'>错误! </span>","null","","","","","","","","","","","","","","","","","","","","","","","feedback_test"
"","","","","","psychophysics","83","568466","0.0-7.1-0.1-0.35","594","","f","","","","","","","","","","","","","key","f","6.25092549019621","853.3333333333334","476","j","false","img/C_ambi40.png","朋友","prac",""
"","","","","","html-keyboard-response","84","568978","0.0-7.1-0.1-1.35","null","<span style='color:red; font-size: 70px;'>错误! </span>","null","","","","","","","","","","","","","","","","","","","","","","","feedback_test"
"","","","","","psychophysics","85","570466","0.0-7.1-0.1-0.36","486","","j","","","","","","","","","","","","","key","j","6.1798523206751055","853.3333333333334","476","j","true","img/T_ambi40.png","をる","prac",""
"","","","","","html-keyboard-response","86","570972","0.0-7.1-0.1-1.36","null","<span style='color:GreenYellow; font-size: 70px;'>正确! </span>","null","","","","","","","","","","","","","","","","","","","","","","","feedback_test"
"","","","","","psychophysics","87","572333","0.0-7.1-0.1-0.37","359","","j","","","","","","","","","","","","","key","j","6.255875576036973","853.3333333333334","476","j","true","img/T_ambi40.png","をる","prac",""
"","","","","","html-keyboard-response","88","572838","0.0-7.1-0.1-1.37","null","<span style='color:GreenYellow; font-size: 70px;'>正确! </span>","null","","","","","","","","","","","","","","","","","","","","","","","feedback_test"
"","","","","","psychophysics","89","574307","0.0-7.1-0.1-0.38","467","","f","","","","","","","","","","","","","key","f","6.2952413793105295","853.3333333333334","476","f","true","img/S_ambi40.png","自我","prac",""
"","","","","","html-keyboard-response","90","574813","0.0-7.1-0.1-1.38","null","<span style='color:GreenYellow; font-size: 70px;'>正确! </span>","null","","","","","","","","","","","","","","","","","","","","","","","feedback_test"
"","","","","","psychophysics","91","576415","0.0-7.1-0.1-0.39","601","","j","","","","","","","","","","","","","key","j","6.275551181102325","853.3333333333334","476","j","true","img/S_ambi40.png","生人","prac",""
"","","","","","html-keyboard-response","92","576923","0.0-7.1-0.1-1.39","null","<span style='color:GreenYellow; font-size: 70px;'>正确! </span>","null","","","","","","","","","","","","","","","","","","","","","","","feedback_test"
"","","","","","psychophysics","93","578796","0.0-7.1-0.1-0.40","871","","j","","","","","","","","","","","","","key","j","6.371539249146872","853.3333333333334","476","j","true","img/C_ambi40.png","自我","prac",""
"","","","","","html-keyboard-response","94","579311","0.0-7.1-0.1-1.40","null","<span style='color:GreenYellow; font-size: 70px;'>正确! </span>","null","","","","","","","","","","","","","","","","","","","","","","","feedback_test"
"","","","","","psychophysics","95","580871","0.0-7.1-0.1-0.41","558","","f","","","","","","","","","","","","","key","f","6.359586065574015","853.3333333333334","476","f","true","img/S_ambi40.png","自我","prac",""
"","","","","","html-keyboard-response","96","581386","0.0-7.1-0.1-1.41","null","<span style='color:GreenYellow; font-size: 70px;'>正确! </span>","null","","","","","","","","","","","","","","","","","","","","","","","feedback_test"
"","","","","","psychophysics","97","583431","0.0-7.1-0.1-0.42","1045","","j","","","","","","","","","","","","","key","j","6.097005988024022","853.3333333333334","476","j","true","img/S_ambi40.png","朋友","prac",""
"","","","","","html-keyboard-response","98","583943","0.0-7.1-0.1-1.42","null","<span style='color:GreenYellow; font-size: 70px;'>正确! </span>","null","","","","","","","","","","","","","","","","","","","","","","","feedback_test"
"","","","","","psychophysics","99","585648","0.0-7.1-0.1-0.43","703","","j","","","","","","","","","","","","","key","j","6.19243065693397","853.3333333333334","476","f","false","img/H_ambi40.png","朋友","prac",""
"","","","","","html-keyboard-response","100","586159","0.0-7.1-0.1-1.43","null","<span style='color:red; font-size: 70px;'>错误! </span>","null","","","","","","","","","","","","","","","","","","","","","","","feedback_test"
"","","","","","psychophysics","101","587766","0.0-7.1-0.1-0.44","605","","j","","","","","","","","","","","","","key","j","6.299393700787295","853.3333333333334","476","j","true","img/H_ambi40.png","生人","prac",""
"","","","","","html-keyboard-response","102","588278","0.0-7.1-0.1-1.44","null","<span style='color:GreenYellow; font-size: 70px;'>正确! </span>","null","","","","","","","","","","","","","","","","","","","","","","","feedback_test"
"","","","","","psychophysics","103","589832","0.0-7.1-0.1-0.45","553","","j","","","","","","","","","","","","","key","j","6.254396761133645","853.3333333333334","476","j","true","img/T_ambi40.png","をる","prac",""
"","","","","","html-keyboard-response","104","590347","0.0-7.1-0.1-1.45","null","<span style='color:GreenYellow; font-size: 70px;'>正确! </span>","null","","","","","","","","","","","","","","","","","","","","","","","feedback_test"
"","","","","","psychophysics","105","591758","0.0-7.1-0.1-0.46","408","","j","","","","","","","","","","","","","key","j","6.222746666666741","853.3333333333334","476","j","true","img/T_ambi40.png","をる","prac",""
"","","","","","html-keyboard-response","106","592271","0.0-7.1-0.1-1.46","null","<span style='color:GreenYellow; font-size: 70px;'>正确! </span>","null","","","","","","","","","","","","","","","","","","","","","","","feedback_test"
"","","","","","psychophysics","107","594046","0.0-7.1-0.1-0.47","772","","j","","","","","","","","","","","","","key","j","6.232144876325243","853.3333333333334","476","f","false","img/C_ambi40.png","生人","prac",""
"","","","","","html-keyboard-response","108","594561","0.0-7.1-0.1-1.47","null","<span style='color:red; font-size: 70px;'>错误! </span>","null","","","","","","","","","","","","","","","","","","","","","","","feedback_test"
"","","","","","psychophysics","109","596323","0.0-7.1-0.1-0.48","759","","j","","","","","","","","","","","","","key","j","6.181180851063806","853.3333333333334","476","j","true","img/C_ambi40.png","朋友","prac",""
"","","","","","html-keyboard-response","110","596825","0.0-7.1-0.1-1.48","null","<span style='color:GreenYellow; font-size: 70px;'>正确! </span>","null","","","","","","","","","","","","","","","","","","","","","","","feedback_test"
"","","","","","psychophysics","111","598324","0.0-7.1-0.1-0.49","496","","f","","","","","","","","","","","","","key","f","6.291649789029226","853.3333333333334","476","j","false","img/S_ambi40.png","生人","prac",""
"","","","","","html-keyboard-response","112","598835","0.0-7.1-0.1-1.49","null","<span style='color:red; font-size: 70px;'>错误! </span>","null","","","","","","","","","","","","","","","","","","","","","","","feedback_test"
"","","","","","psychophysics","113","600682","0.0-7.1-0.1-0.50","843","","f","","","","","","","","","","","","","key","f","6.2042533783784855","853.3333333333334","476","j","false","img/C_ambi40.png","自我","prac",""
"","","","","","html-keyboard-response","114","601188","0.0-7.1-0.1-1.50","null","<span style='color:red; font-size: 70px;'>错误! </span>","null","","","","","","","","","","","","","","","","","","","","","","","feedback_test"
"","","","","","psychophysics","115","602658","0.0-7.1-0.1-0.51","468","","j","","","","","","","","","","","","","key","j","6.269442060085457","853.3333333333334","476","j","true","img/T_ambi40.png","をる","prac",""
"","","","","","html-keyboard-response","116","603168","0.0-7.1-0.1-1.51","null","<span style='color:GreenYellow; font-size: 70px;'>正确! </span>","null","","","","","","","","","","","","","","","","","","","","","","","feedback_test"
"","","","","","psychophysics","117","605015","0.0-7.1-0.1-0.52","843","","j","","","","","","","","","","","","","key","j","6.354650519031364","853.3333333333334","476","j","true","img/S_ambi40.png","朋友","prac",""
"","","","","","html-keyboard-response","118","605522","0.0-7.1-0.1-1.52","null","<span style='color:GreenYellow; font-size: 70px;'>正确! </span>","null","","","","","","","","","","","","","","","","","","","","","","","feedback_test"
"","","","","","psychophysics","119","607298","0.0-7.1-0.1-0.53","774","","j","","","","","","","","","","","","","key","j","6.298540925266954","853.3333333333334","476","j","true","img/H_ambi40.png","自我","prac",""
"","","","","","html-keyboard-response","120","607803","0.0-7.1-0.1-1.53","null","<span style='color:GreenYellow; font-size: 70px;'>正确! </span>","null","","","","","","","","","","","","","","","","","","","","","","","feedback_test"
"","","","","","psychophysics","121","609459","0.0-7.1-0.1-0.54","655","","f","","","","","","","","","","","","","key","f","6.2451628787878715","853.3333333333334","476","f","true","img/S_ambi40.png","自我","prac",""
"","","","","","html-keyboard-response","122","609974","0.0-7.1-0.1-1.54","null","<span style='color:GreenYellow; font-size: 70px;'>正确! </span>","null","","","","","","","","","","","","","","","","","","","","","","","feedback_test"
"","","","","","psychophysics","123","611474","0.0-7.1-0.1-0.55","499","","j","","","","","","","","","","","","","key","j","6.372424892703963","853.3333333333334","476","f","false","img/H_ambi40.png","朋友","prac",""
"","","","","","html-keyboard-response","124","611987","0.0-7.1-0.1-1.55","null","<span style='color:red; font-size: 70px;'>错误! </span>","null","","","","","","","","","","","","","","","","","","","","","","","feedback_test"
"","","","","","psychophysics","125","613430","0.0-7.1-0.1-0.56","440","","j","","","","","","","","","","","","","key","j","6.356911111110821","853.3333333333334","476","j","true","img/T_ambi40.png","をる","prac",""
"","","","","","html-keyboard-response","126","613934","0.0-7.1-0.1-1.56","null","<span style='color:GreenYellow; font-size: 70px;'>正确! </span>","null","","","","","","","","","","","","","","","","","","","","","","","feedback_test"
"","","","","","psychophysics","127","615599","0.0-7.1-0.1-0.57","664","","f","","","","","","","","","","","","","key","f","6.387092307692645","853.3333333333334","476","j","false","img/H_ambi40.png","生人","prac",""
"","","","","","html-keyboard-response","128","616105","0.0-7.1-0.1-1.57","null","<span style='color:red; font-size: 70px;'>错误! </span>","null","","","","","","","","","","","","","","","","","","","","","","","feedback_test"
"","","","","","psychophysics","129","617552","0.0-7.1-0.1-0.58","444","","j","","","","","","","","","","","","","key","j","6.212743478260792","853.3333333333334","476","f","false","img/C_ambi40.png","生人","prac",""
"","","","","","html-keyboard-response","130","618066","0.0-7.1-0.1-1.58","null","<span style='color:red; font-size: 70px;'>错误! </span>","null","","","","","","","","","","","","","","","","","","","","","","","feedback_test"
"","","","","","psychophysics","131","619794","0.0-7.1-0.1-0.59","725","","j","","","","","","","","","","","","","key","j","6.304912087911801","853.3333333333334","476","f","false","img/H_ambi40.png","朋友","prac",""
"","","","","","html-keyboard-response","132","620306","0.0-7.1-0.1-1.59","null","<span style='color:red; font-size: 70px;'>错误! </span>","null","","","","","","","","","","","","","","","","","","","","","","","feedback_test"
"","","","","","psychophysics","133","622053","0.0-7.1-0.1-0.60","746","","f","","","","","","","","","","","","","key","f","6.223464028777055","853.3333333333334","476","f","true","img/C_ambi40.png","生人","prac",""
"","","","","","html-keyboard-response","134","622567","0.0-7.1-0.1-1.60","null","<span style='color:GreenYellow; font-size: 70px;'>正确! </span>","null","","","","","","","","","","","","","","","","","","","","","","","feedback_test"
"","","","","","psychophysics","135","624085","0.0-7.1-0.1-0.61","515","","f","","","","","","","","","","","","","key","f","6.237427385892484","853.3333333333334","476","f","true","img/S_ambi40.png","自我","prac",""
"","","","","","html-keyboard-response","136","624594","0.0-7.1-0.1-1.61","null","<span style='color:GreenYellow; font-size: 70px;'>正确! </span>","null","","","","","","","","","","","","","","","","","","","","","","","feedback_test"
"","","","","","psychophysics","137","626084","0.0-7.1-0.1-0.62","489","","j","","","","","","","","","","","","","key","j","6.239590717299806","853.3333333333334","476","j","true","img/T_ambi40.png","をる","prac",""
"","","","","","html-keyboard-response","138","626589","0.0-7.1-0.1-1.62","null","<span style='color:GreenYellow; font-size: 70px;'>正确! </span>","null","","","","","","","","","","","","","","","","","","","","","","","feedback_test"
"","","","","","psychophysics","139","628008","0.0-7.1-0.1-0.63","417","","j","","","","","","","","","","","","","key","j","6.304379464285636","853.3333333333334","476","j","true","img/T_ambi40.png","をる","prac",""
"","","","","","html-keyboard-response","140","628523","0.0-7.1-0.1-1.63","null","<span style='color:GreenYellow; font-size: 70px;'>正确! </span>","null","","","","","","","","","","","","","","","","","","","","","","","feedback_test"
"","","","","","html-keyboard-response","141","632384","0.0-7.1-1.1-0.1","3859","<style>.context{color:white; font-size: 35px; line-height:40px}</style>                          <div><p class='context'>您正确回答了63% 的试次。</p ><p class='context'>您的平均反应时为603毫秒。</p >"," ","","","","","","","","","","","","","","","","","","","","","","",""
"","","","","","instructions","142","635447","0.0-7.1-1.1-1.1","3060","","","","","","","","","","","","","","[{""page_index"":0,""viewing_time"":821},{""page_index"":1,""viewing_time"":1271},{""page_index"":2,""viewing_time"":968}]","","","","","","","","","","",""
"","","","","","psychophysics","143","637395","0.0-7.2-0.2-0.64","946","","j","","","","","","","","","","","","","key","j","6.256319354838812","853.3333333333334","476","j","true","img/S_ambi40.png","生人","prac",""
"","","","","","html-keyboard-response","144","637911","0.0-7.2-0.2-1.64","null","<span style='color:GreenYellow; font-size: 70px;'>正确! </span>","null","","","","","","","","","","","","","","","","","","","","","","","feedback_test"
"","","","","","psychophysics","145","639458","0.0-7.2-0.2-0.65","545","","f","","","","","","","","","","","","","key","f","6.148357429718842","853.3333333333334","476","f","true","img/S_ambi40.png","自我","prac",""
"","","","","","html-keyboard-response","146","639967","0.0-7.2-0.2-1.65","null","<span style='color:GreenYellow; font-size: 70px;'>正确! </span>","null","","","","","","","","","","","","","","","","","","","","","","","feedback_test"
"","","","","","psychophysics","147","641692","0.0-7.2-0.2-0.66","723","","j","","","","","","","","","","","","","key","j","6.214170289855194","853.3333333333334","476","j","true","img/C_ambi40.png","朋友","prac",""
"","","","","","html-keyboard-response","148","642198","0.0-7.2-0.2-1.66","null","<span style='color:GreenYellow; font-size: 70px;'>正确! </span>","null","","","","","","","","","","","","","","","","","","","","","","","feedback_test"
"","","","","","psychophysics","149","643679","0.0-7.2-0.2-0.67","479","","j","","","","","","","","","","","","","key","j","6.162481171548051","853.3333333333334","476","j","true","img/T_ambi40.png","をる","prac",""
"","","","","","html-keyboard-response","150","644194","0.0-7.2-0.2-1.67","null","<span style='color:GreenYellow; font-size: 70px;'>正确! </span>","null","","","","","","","","","","","","","","","","","","","","","","","feedback_test"
"","","","","","psychophysics","151","645771","0.0-7.2-0.2-0.68","576","","f","","","","","","","","","","","","","key","f","6.30565725806434","853.3333333333334","476","f","true","img/H_ambi40.png","朋友","prac",""
"","","","","","html-keyboard-response","152","646281","0.0-7.2-0.2-1.68","null","<span style='color:GreenYellow; font-size: 70px;'>正确! </span>","null","","","","","","","","","","","","","","","","","","","","","","","feedback_test"
"","","","","","psychophysics","153","647875","0.0-7.2-0.2-0.69","593","","f","","","","","","","","","","","","","key","f","6.122634241245107","853.3333333333334","476","f","true","img/C_ambi40.png","生人","prac",""
"","","","","","html-keyboard-response","154","648385","0.0-7.2-0.2-1.69","null","<span style='color:GreenYellow; font-size: 70px;'>正确! </span>","null","","","","","","","","","","","","","","","","","","","","","","","feedback_test"
"","","","","","psychophysics","155","649878","0.0-7.2-0.2-0.70","491","","j","","","","","","","","","","","","","key","j","6.187066666666457","853.3333333333334","476","j","true","img/T_ambi40.png","をる","prac",""
"","","","","","html-keyboard-response","156","650395","0.0-7.2-0.2-1.70","null","<span style='color:GreenYellow; font-size: 70px;'>正确! </span>","null","","","","","","","","","","","","","","","","","","","","","","","feedback_test"
"","","","","","psychophysics","157","651938","0.0-7.2-0.2-0.71","540","","j","","","","","","","","","","","","","key","j","6.284048979591616","853.3333333333334","476","j","true","img/T_ambi40.png","をる","prac",""
"","","","","","html-keyboard-response","158","652442","0.0-7.2-0.2-1.71","null","<span style='color:GreenYellow; font-size: 70px;'>正确! </span>","null","","","","","","","","","","","","","","","","","","","","","","","feedback_test"
"","","","","","psychophysics","159","654151","0.0-7.2-0.2-0.72","707","","f","","","","","","","","","","","","","key","f","6.354746268656879","853.3333333333334","476","j","false","img/H_ambi40.png","生人","prac",""
"","","","","","html-keyboard-response","160","654664","0.0-7.2-0.2-1.72","null","<span style='color:red; font-size: 70px;'>错误! </span>","null","","","","","","","","","","","","","","","","","","","","","","","feedback_test"
"","","","","","psychophysics","161","656452","0.0-7.2-0.2-0.73","785","","j","","","","","","","","","","","","","key","j","6.365086021505573","853.3333333333334","476","j","true","img/S_ambi40.png","朋友","prac",""
"","","","","","html-keyboard-response","162","656958","0.0-7.2-0.2-1.73","null","<span style='color:GreenYellow; font-size: 70px;'>正确! </span>","null","","","","","","","","","","","","","","","","","","","","","","","feedback_test"
"","","","","","psychophysics","163","658552","0.0-7.2-0.2-0.74","590","","f","","","","","","","","","","","","","key","f","6.481954918032584","853.3333333333334","476","f","true","img/S_ambi40.png","自我","prac",""
"","","","","","html-keyboard-response","164","659068","0.0-7.2-0.2-1.74","null","<span style='color:GreenYellow; font-size: 70px;'>正确! </span>","null","","","","","","","","","","","","","","","","","","","","","","","feedback_test"
"","","","","","psychophysics","165","660896","0.0-7.2-0.2-0.75","827","","f","","","","","","","","","","","","","key","f","6.22076551724137","853.3333333333334","476","f","true","img/C_ambi40.png","生人","prac",""
"","","","","","html-keyboard-response","166","661401","0.0-7.2-0.2-1.75","null","<span style='color:GreenYellow; font-size: 70px;'>正确! </span>","null","","","","","","","","","","","","","","","","","","","","","","","feedback_test"
"","","","","","psychophysics","167","662963","0.0-7.2-0.2-0.76","559","","j","","","","","","","","","","","","","key","j","6.281769230769031","853.3333333333334","476","j","true","img/T_ambi40.png","をる","prac",""
"","","","","","html-keyboard-response","168","663473","0.0-7.2-0.2-1.76","null","<span style='color:GreenYellow; font-size: 70px;'>正确! </span>","null","","","","","","","","","","","","","","","","","","","","","","","feedback_test"
"","","","","","psychophysics","169","664999","0.0-7.2-0.2-0.77","521","","f","","","","","","","","","","","","","key","f","6.285809917355241","853.3333333333334","476","f","true","img/H_ambi40.png","朋友","prac",""
"","","","","","html-keyboard-response","170","665501","0.0-7.2-0.2-1.77","null","<span style='color:GreenYellow; font-size: 70px;'>正确! </span>","null","","","","","","","","","","","","","","","","","","","","","","","feedback_test"
"","","","","","psychophysics","171","667336","0.0-7.2-0.2-0.78","833","","j","","","","","","","","","","","","","key","j","6.269202749140855","853.3333333333334","476","j","true","img/C_ambi40.png","自我","prac",""
"","","","","","html-keyboard-response","172","667842","0.0-7.2-0.2-1.78","null","<span style='color:GreenYellow; font-size: 70px;'>正确! </span>","null","","","","","","","","","","","","","","","","","","","","","","","feedback_test"
"","","","","","psychophysics","173","669260","0.0-7.2-0.2-0.79","416","","f","","","","","","","","","","","","","key","f","6.477669724770565","853.3333333333334","476","j","false","img/H_ambi40.png","自我","prac",""
"","","","","","html-keyboard-response","174","669767","0.0-7.2-0.2-1.79","null","<span style='color:red; font-size: 70px;'>错误! </span>","null","","","","","","","","","","","","","","","","","","","","","","","feedback_test"
"","","","","","psychophysics","175","671190","0.0-7.2-0.2-0.80","421","","j","","","","","","","","","","","","","key","j","6.416245454545556","853.3333333333334","476","j","true","img/T_ambi40.png","をる","prac",""
"","","","","","html-keyboard-response","176","671700","0.0-7.2-0.2-1.80","null","<span style='color:GreenYellow; font-size: 70px;'>正确! </span>","null","","","","","","","","","","","","","","","","","","","","","","","feedback_test"
"","","","","","psychophysics","177","673147","0.0-7.2-0.2-0.81","445","","j","","","","","","","","","","","","","key","j","6.299548245614125","853.3333333333334","476","j","true","img/T_ambi40.png","をる","prac",""
"","","","","","html-keyboard-response","178","673657","0.0-7.2-0.2-1.81","null","<span style='color:GreenYellow; font-size: 70px;'>正确! </span>","null","","","","","","","","","","","","","","","","","","","","","","","feedback_test"
"","","","","","psychophysics","179","675332","0.0-7.2-0.2-0.82","674","","f","","","","","","","","","","","","","key","f","6.242093632958676","853.3333333333334","476","j","false","img/H_ambi40.png","生人","prac",""
"","","","","","html-keyboard-response","180","675834","0.0-7.2-0.2-1.82","null","<span style='color:red; font-size: 70px;'>错误! </span>","null","","","","","","","","","","","","","","","","","","","","","","","feedback_test"
"","","","","","psychophysics","181","677446","0.0-7.2-0.2-0.83","610","","f","","","","","","","","","","","","","key","f","6.398406374501992","853.3333333333334","476","j","false","img/S_ambi40.png","朋友","prac",""
"","","","","","html-keyboard-response","182","677963","0.0-7.2-0.2-1.83","null","<span style='color:red; font-size: 70px;'>错误! </span>","null","","","","","","","","","","","","","","","","","","","","","","","feedback_test"
"","","","","","psychophysics","183","680019","0.0-7.2-0.2-0.84","1055","","f","","","","","","","","","","","","","key","f","6.226404255319041","853.3333333333334","476","f","true","img/C_ambi40.png","生人","prac",""
"","","","","","html-keyboard-response","184","680534","0.0-7.2-0.2-1.84","null","<span style='color:GreenYellow; font-size: 70px;'>正确! </span>","null","","","","","","","","","","","","","","","","","","","","","","","feedback_test"
"","","","","","psychophysics","185","682038","0.0-7.2-0.2-0.85","502","","j","","","","","","","","","","","","","key","j","6.10974999999992","853.3333333333334","476","j","true","img/T_ambi40.png","をる","prac",""
"","","","","","html-keyboard-response","186","682547","0.0-7.2-0.2-1.85","null","<span style='color:GreenYellow; font-size: 70px;'>正确! </span>","null","","","","","","","","","","","","","","","","","","","","","","","feedback_test"
"","","","","","psychophysics","187","684964","0.0-7.2-0.2-0.86","1415","","j","","","","","","","","","","","","","key","j","6.261597911227256","853.3333333333334","476","j","true","img/C_ambi40.png","朋友","prac",""
"","","","","","html-keyboard-response","188","685477","0.0-7.2-0.2-1.86","null","<span style='color:GreenYellow; font-size: 70px;'>正确! </span>","null","","","","","","","","","","","","","","","","","","","","","","","feedback_test"
"","","","","","psychophysics","189","687068","0.0-7.2-0.2-0.87","589","","f","","","","","","","","","","","","","key","f","6.178324218749822","853.3333333333334","476","f","true","img/S_ambi40.png","自我","prac",""
"","","","","","html-keyboard-response","190","687583","0.0-7.2-0.2-1.87","null","<span style='color:GreenYellow; font-size: 70px;'>正确! </span>","null","","","","","","","","","","","","","","","","","","","","","","","feedback_test"
"","","","","","psychophysics","191","689395","0.0-7.2-0.2-0.88","810","","f","","","","","","","","","","","","","key","f","6.27156249999987","853.3333333333334","476","f","true","img/C_ambi40.png","生人","prac",""
"","","","","","html-keyboard-response","192","689910","0.0-7.2-0.2-1.88","null","<span style='color:GreenYellow; font-size: 70px;'>正确! </span>","null","","","","","","","","","","","","","","","","","","","","","","","feedback_test"
"","","","","","psychophysics","193","691447","0.0-7.2-0.2-0.89","535","","j","","","","","","","","","","","","","key","j","6.2775785123966905","853.3333333333334","476","j","true","img/T_ambi40.png","をる","prac",""
"","","","","","html-keyboard-response","194","691953","0.0-7.2-0.2-1.89","null","<span style='color:GreenYellow; font-size: 70px;'>正确! </span>","null","","","","","","","","","","","","","","","","","","","","","","","feedback_test"
"","","","","","psychophysics","195","693603","0.0-7.2-0.2-0.90","648","","f","","","","","","","","","","","","","key","f","6.215797709923625","853.3333333333334","476","f","true","img/H_ambi40.png","朋友","prac",""
"","","","","","html-keyboard-response","196","694118","0.0-7.2-0.2-1.90","null","<span style='color:GreenYellow; font-size: 70px;'>正确! </span>","null","","","","","","","","","","","","","","","","","","","","","","","feedback_test"
"","","","","","psychophysics","197","695807","0.0-7.2-0.2-0.91","687","","f","","","","","","","","","","","","","key","f","6.171393382353178","853.3333333333334","476","f","true","img/H_ambi40.png","朋友","prac",""
"","","","","","html-keyboard-response","198","696317","0.0-7.2-0.2-1.91","null","<span style='color:GreenYellow; font-size: 70px;'>正确! </span>","null","","","","","","","","","","","","","","","","","","","","","","","feedback_test"
"","","","","","psychophysics","199","698091","0.0-7.2-0.2-0.92","773","","f","","","","","","","","","","","","","key","f","6.134251748251979","853.3333333333334","476","j","false","img/S_ambi40.png","生人","prac",""
"","","","","","html-keyboard-response","200","698596","0.0-7.2-0.2-1.92","null","<span style='color:red; font-size: 70px;'>错误! </span>","null","","","","","","","","","","","","","","","","","","","","","","","feedback_test"
"","","","","","psychophysics","201","700235","0.0-7.2-0.2-0.93","637","","f","","","","","","","","","","","","","key","f","6.216685823754539","853.3333333333334","476","j","false","img/H_ambi40.png","自我","prac",""
"","","","","","html-keyboard-response","202","700753","0.0-7.2-0.2-1.93","null","<span style='color:red; font-size: 70px;'>错误! </span>","null","","","","","","","","","","","","","","","","","","","","","","","feedback_test"
"","","","","","psychophysics","203","702700","0.0-7.2-0.2-0.94","945","","j","","","","","","","","","","","","","key","j","6.377261589403844","853.3333333333334","476","j","true","img/C_ambi40.png","自我","prac",""
"","","","","","html-keyboard-response","204","703216","0.0-7.2-0.2-1.94","null","<span style='color:GreenYellow; font-size: 70px;'>正确! </span>","null","","","","","","","","","","","","","","","","","","","","","","","feedback_test"
"","","","","","psychophysics","205","704832","0.0-7.2-0.2-0.95","614","","f","","","","","","","","","","","","","key","f","6.322775590551126","853.3333333333334","476","f","true","img/S_ambi40.png","自我","prac",""
"","","","","","html-keyboard-response","206","705338","0.0-7.2-0.2-1.95","null","<span style='color:GreenYellow; font-size: 70px;'>正确! </span>","null","","","","","","","","","","","","","","","","","","","","","","","feedback_test"
"","","","","","html-keyboard-response","207","715006","0.0-8.0","9666","<style>.context{color:white; font-size: 35px; line-height:40px}</style>                          <div><p class='context'>您正确回答了81% 的试次。</p ><p class='context'>您的平均反应时为680毫秒。</p ><p class='context'>恭喜您完成练习。按任意键进入正式实验。</p ><p class='footer' style='font-size: 35px; line-height:40px;'>请在进入正式实验实验之前将您的<span style='color: lightgreen;'>食指</span>放在电脑键盘的相应键位上进行按键。</p >"," ","","","","","","","","","","","","","","","","","","","","","","",""
"","","","","","psychophysics","208","717513","0.0-9.0-0.0-0.0-0.0-0.0","null","","null","","","","","","","","","","","","","key","null","6.304816120906771","853.3333333333334","476","f","false","img/H_ambi40.png","朋友","same",""
"","","","","","html-keyboard-response","209","718016","0.0-9.0-0.0-0.0-0.0-1.0","null","<span class='add_' style='color:yellow; font-size: 70px;'> 太慢! </span>","null","","","","","","","","","","","","","","","","","","","","","","","feedback_test"
"","","","","","psychophysics","210","719679","0.0-9.0-0.0-0.0-0.0-0.1","657","","f","","","","","","","","","","","","","key","f","6.36342692307707","853.3333333333334","476","f","true","img/H_ambi40.png","朋友","same",""
"","","","","","html-keyboard-response","211","720192","0.0-9.0-0.0-0.0-0.0-1.1","null","<span style='color:GreenYellow; font-size: 70px;'>正确! </span>","null","","","","","","","","","","","","","","","","","","","","","","","feedback_test"
"","","","","","psychophysics","212","722005","0.0-9.0-0.0-0.0-0.0-0.2","808","","j","","","","","","","","","","","","","key","j","6.315209790209872","853.3333333333334","476","f","false","img/C_ambi40.png","生人","same",""
"","","","","","html-keyboard-response","213","722515","0.0-9.0-0.0-0.0-0.0-1.2","null","<span style='color:red; font-size: 70px;'>错误! </span>","null","","","","","","","","","","","","","","","","","","","","","","","feedback_test"
"","","","","","psychophysics","214","724084","0.0-9.0-0.0-0.0-0.0-0.3","567","","f","","","","","","","","","","","","","key","f","6.279927419354921","853.3333333333334","476","f","true","img/S_ambi40.png","自我","same",""
"","","","","","html-keyboard-response","215","724587","0.0-9.0-0.0-0.0-0.0-1.3","null","<span style='color:GreenYellow; font-size: 70px;'>正确! </span>","null","","","","","","","","","","","","","","","","","","","","","","","feedback_test"
"","","","","","psychophysics","216","726039","0.0-9.0-0.0-0.0-0.0-0.4","450","","j","","","","","","","","","","","","","key","j","6.382765486725685","853.3333333333334","476","j","true","img/T_ambi40.png","をる","same",""
"","","","","","html-keyboard-response","217","726552","0.0-9.0-0.0-0.0-0.0-1.4","null","<span style='color:GreenYellow; font-size: 70px;'>正确! </span>","null","","","","","","","","","","","","","","","","","","","","","","","feedback_test"
"","","","","","psychophysics","218","728084","0.0-9.0-0.0-0.0-0.0-0.5","530","","f","","","","","","","","","","","","","key","f","6.284905349794074","853.3333333333334","476","f","true","img/S_ambi40.png","自我","same",""
"","","","","","html-keyboard-response","219","728597","0.0-9.0-0.0-0.0-0.0-1.5","null","<span style='color:GreenYellow; font-size: 70px;'>正确! </span>","null","","","","","","","","","","","","","","","","","","","","","","","feedback_test"
"","","","","","psychophysics","220","730139","0.0-9.0-0.0-0.0-0.0-0.6","541","","f","","","","","","","","","","","","","key","f","6.284815573770473","853.3333333333334","476","j","false","img/S_ambi40.png","朋友","same",""
"","","","","","html-keyboard-response","221","730655","0.0-9.0-0.0-0.0-0.0-1.6","null","<span style='color:red; font-size: 70px;'>错误! </span>","null","","","","","","","","","","","","","","","","","","","","","","","feedback_test"
"","","","","","psychophysics","222","732429","0.0-9.0-0.0-0.0-0.0-0.7","772","","j","","","","","","","","","","","","","key","j","6.3852509090905505","853.3333333333334","476","j","true","img/C_ambi40.png","朋友","same",""
"","","","","","html-keyboard-response","223","732945","0.0-9.0-0.0-0.0-0.0-1.7","null","<span style='color:GreenYellow; font-size: 70px;'>正确! </span>","null","","","","","","","","","","","","","","","","","","","","","","","feedback_test"
"","","","","","psychophysics","224","734667","0.0-9.0-0.0-0.0-0.0-0.8","721","","f","","","","","","","","","","","","","key","f","6.2381927272723985","853.3333333333334","476","j","false","img/H_ambi40.png","生人","same",""
"","","","","","html-keyboard-response","225","735173","0.0-9.0-0.0-0.0-0.0-1.8","null","<span style='color:red; font-size: 70px;'>错误! </span>","null","","","","","","","","","","","","","","","","","","","","","","","feedback_test"
"","","","","","psychophysics","226","736659","0.0-9.0-0.0-0.0-0.0-0.9","484","","f","","","","","","","","","","","","","key","f","6.240610169491462","853.3333333333334","476","j","false","img/C_ambi40.png","自我","same",""
"","","","","","html-keyboard-response","227","737167","0.0-9.0-0.0-0.0-0.0-1.9","null","<span style='color:red; font-size: 70px;'>错误! </span>","null","","","","","","","","","","","","","","","","","","","","","","","feedback_test"
"","","","","","psychophysics","228","739255","0.0-9.0-0.0-0.0-0.0-0.10","1085","","f","","","","","","","","","","","","","key","f","6.150245562129993","853.3333333333334","476","f","true","img/C_ambi40.png","生人","same",""
"","","","","","html-keyboard-response","229","739771","0.0-9.0-0.0-0.0-0.0-1.10","null","<span style='color:GreenYellow; font-size: 70px;'>正确! </span>","null","","","","","","","","","","","","","","","","","","","","","","","feedback_test"
"","","","","","psychophysics","230","741507","0.0-9.0-0.0-0.0-0.0-0.11","734","","j","","","","","","","","","","","","","key","j","6.3451402214024135","853.3333333333334","476","j","true","img/S_ambi40.png","生人","same",""
"","","","","","html-keyboard-response","231","742014","0.0-9.0-0.0-0.0-0.0-1.11","null","<span style='color:GreenYellow; font-size: 70px;'>正确! </span>","null","","","","","","","","","","","","","","","","","","","","","","","feedback_test"
"","","","","","psychophysics","232","743787","0.0-9.0-0.0-0.0-0.0-0.12","772","","f","","","","","","","","","","","","","key","f","6.091899305555368","853.3333333333334","476","f","true","img/H_ambi40.png","朋友","same",""
"","","","","","html-keyboard-response","233","744293","0.0-9.0-0.0-0.0-0.0-1.12","null","<span style='color:GreenYellow; font-size: 70px;'>正确! </span>","null","","","","","","","","","","","","","","","","","","","","","","","feedback_test"
"","","","","","psychophysics","234","746111","0.0-9.0-0.0-0.0-0.0-0.13","811","","j","","","","","","","","","","","","","key","j","6.250614583333016","853.3333333333334","476","f","false","img/C_ambi40.png","生人","same",""
"","","","","","html-keyboard-response","235","746624","0.0-9.0-0.0-0.0-0.0-1.13","null","<span style='color:red; font-size: 70px;'>错误! </span>","null","","","","","","","","","","","","","","","","","","","","","","","feedback_test"
"","","","","","psychophysics","236","748323","0.0-9.0-0.0-0.0-0.0-0.14","698","","j","","","","","","","","","","","","","key","j","6.060881720430228","853.3333333333334","476","j","true","img/H_ambi40.png","自我","same",""
"","","","","","html-keyboard-response","237","748828","0.0-9.0-0.0-0.0-0.0-1.14","null","<span style='color:GreenYellow; font-size: 70px;'>正确! </span>","null","","","","","","","","","","","","","","","","","","","","","","","feedback_test"
"","","","","","psychophysics","238","750327","0.0-9.0-0.0-0.0-0.0-0.15","495","","j","","","","","","","","","","","","","key","j","6.212320833333069","853.3333333333334","476","j","true","img/T_ambi40.png","をる","same",""
"","","","","","html-keyboard-response","239","750838","0.0-9.0-0.0-0.0-0.0-1.15","null","<span style='color:GreenYellow; font-size: 70px;'>正确! </span>","null","","","","","","","","","","","","","","","","","","","","","","","feedback_test"
"","","","","","psychophysics","240","752587","0.0-9.0-0.0-0.0-0.0-0.16","748","","f","","","","","","","","","","","","","key","f","6.211982142857076","853.3333333333334","476","f","true","img/S_ambi40.png","自我","same",""
"","","","","","html-keyboard-response","241","753102","0.0-9.0-0.0-0.0-0.0-1.16","null","<span style='color:GreenYellow; font-size: 70px;'>正确! </span>","null","","","","","","","","","","","","","","","","","","","","","","","feedback_test"
"","","","","","psychophysics","242","754622","0.0-9.0-0.0-0.0-0.0-0.17","516","","j","","","","","","","","","","","","","key","j","6.210229508197088","853.3333333333334","476","j","true","img/T_ambi40.png","をる","same",""
"","","","","","html-keyboard-response","243","755129","0.0-9.0-0.0-0.0-0.0-1.17","null","<span style='color:GreenYellow; font-size: 70px;'>正确! </span>","null","","","","","","","","","","","","","","","","","","","","","","","feedback_test"
"","","","","","psychophysics","244","756667","0.0-9.0-0.0-0.0-0.0-0.18","534","","f","","","","","","","","","","","","","key","f","6.233938775509976","853.3333333333334","476","f","true","img/S_ambi40.png","自我","same",""
"","","","","","html-keyboard-response","245","757172","0.0-9.0-0.0-0.0-0.0-1.18","null","<span style='color:GreenYellow; font-size: 70px;'>正确! </span>","null","","","","","","","","","","","","","","","","","","","","","","","feedback_test"
"","","","","","psychophysics","246","759421","0.0-9.0-0.0-0.0-0.0-0.19","1246","","f","","","","","","","","","","","","","key","f","6.299008426966088","853.3333333333334","476","f","true","img/S_ambi40.png","自我","same",""
"","","","","","html-keyboard-response","247","759930","0.0-9.0-0.0-0.0-0.0-1.19","null","<span style='color:GreenYellow; font-size: 70px;'>正确! </span>","null","","","","","","","","","","","","","","","","","","","","","","","feedback_test"
"","","","","","psychophysics","248","762434","0.0-9.0-0.0-0.0-0.0-0.20","null","","null","","","","","","","","","","","","","key","null","6.338587786259696","853.3333333333334","476","f","false","img/H_ambi40.png","朋友","same",""
"","","","","","html-keyboard-response","249","762939","0.0-9.0-0.0-0.0-0.0-1.20","null","<span class='add_' style='color:yellow; font-size: 70px;'> 太慢! </span>","null","","","","","","","","","","","","","","","","","","","","","","","feedback_test"
"","","","","","psychophysics","250","764887","0.0-9.0-0.0-0.0-0.0-0.21","946","","j","","","","","","","","","","","","","key","j","6.21560383386599","853.3333333333334","476","j","true","img/S_ambi40.png","生人","same",""
"","","","","","html-keyboard-response","251","765399","0.0-9.0-0.0-0.0-0.0-1.21","null","<span style='color:GreenYellow; font-size: 70px;'>正确! </span>","null","","","","","","","","","","","","","","","","","","","","","","","feedback_test"
"","","","","","psychophysics","252","767259","0.0-9.0-0.0-0.0-0.0-0.22","855","","f","","","","","","","","","","","","","key","f","6.507789473684112","853.3333333333334","476","f","true","img/C_ambi40.png","生人","same",""
"","","","","","html-keyboard-response","253","767767","0.0-9.0-0.0-0.0-0.0-1.22","null","<span style='color:GreenYellow; font-size: 70px;'>正确! </span>","null","","","","","","","","","","","","","","","","","","","","","","","feedback_test"
"","","","","","psychophysics","254","769452","0.0-9.0-0.0-0.0-0.0-0.23","685","","f","","","","","","","","","","","","","key","f","6.287340823969933","853.3333333333334","476","f","true","img/C_ambi40.png","生人","same",""
"","","","","","html-keyboard-response","255","769967","0.0-9.0-0.0-0.0-0.0-1.23","null","<span style='color:GreenYellow; font-size: 70px;'>正确! </span>","null","","","","","","","","","","","","","","","","","","","","","","","feedback_test"
"","","","","","psychophysics","256","771736","0.0-9.0-0.0-0.0-0.0-0.24","766","","j","","","","","","","","","","","","","key","j","6.209855633802568","853.3333333333334","476","j","true","img/H_ambi40.png","自我","same",""
"","","","","","html-keyboard-response","257","772247","0.0-9.0-0.0-0.0-0.0-1.24","null","<span style='color:GreenYellow; font-size: 70px;'>正确! </span>","null","","","","","","","","","","","","","","","","","","","","","","","feedback_test"
"","","","","","psychophysics","258","774275","0.0-9.0-0.0-0.0-0.0-0.25","1024","","j","","","","","","","","","","","","","key","j","6.3869018987339885","853.3333333333334","476","j","true","img/H_ambi40.png","生人","same",""
"","","","","","html-keyboard-response","259","774787","0.0-9.0-0.0-0.0-0.0-1.25","null","<span style='color:GreenYellow; font-size: 70px;'>正确! </span>","null","","","","","","","","","","","","","","","","","","","","","","","feedback_test"
"","","","","","psychophysics","260","776471","0.0-9.0-0.0-0.0-0.0-0.26","681","","j","","","","","","","","","","","","","key","j","6.482416988416974","853.3333333333334","476","j","true","img/C_ambi40.png","朋友","same",""
"","","","","","html-keyboard-response","261","776972","0.0-9.0-0.0-0.0-0.0-1.26","null","<span style='color:GreenYellow; font-size: 70px;'>正确! </span>","null","","","","","","","","","","","","","","","","","","","","","","","feedback_test"
"","","","","","psychophysics","262","778498","0.0-9.0-0.0-0.0-0.0-0.27","525","","f","","","","","","","","","","","","","key","f","6.288687500000136","853.3333333333334","476","f","true","img/S_ambi40.png","自我","same",""
"","","","","","html-keyboard-response","263","779010","0.0-9.0-0.0-0.0-0.0-1.27","null","<span style='color:GreenYellow; font-size: 70px;'>正确! </span>","null","","","","","","","","","","","","","","","","","","","","","","","feedback_test"
"","","","","","psychophysics","264","780624","0.0-9.0-0.0-0.0-0.0-0.28","613","","f","","","","","","","","","","","","","key","f","6.225957198443565","853.3333333333334","476","f","true","img/H_ambi40.png","朋友","same",""
"","","","","","html-keyboard-response","265","781137","0.0-9.0-0.0-0.0-0.0-1.28","null","<span style='color:GreenYellow; font-size: 70px;'>正确! </span>","null","","","","","","","","","","","","","","","","","","","","","","","feedback_test"
"","","","","","psychophysics","266","782619","0.0-9.0-0.0-0.0-0.0-0.29","478","","f","","","","","","","","","","","","","key","f","6.161502092049913","853.3333333333334","476","f","true","img/C_ambi40.png","生人","same",""
"","","","","","html-keyboard-response","267","783120","0.0-9.0-0.0-0.0-0.0-1.29","null","<span style='color:GreenYellow; font-size: 70px;'>正确! </span>","null","","","","","","","","","","","","","","","","","","","","","","","feedback_test"
"","","","","","psychophysics","268","784823","0.0-9.0-0.0-0.0-0.0-0.30","701","","j","","","","","","","","","","","","","key","j","6.285807407407211","853.3333333333334","476","j","true","img/C_ambi40.png","自我","same",""
"","","","","","html-keyboard-response","269","785335","0.0-9.0-0.0-0.0-0.0-1.30","null","<span style='color:GreenYellow; font-size: 70px;'>正确! </span>","null","","","","","","","","","","","","","","","","","","","","","","","feedback_test"
"","","","","","psychophysics","270","786971","0.0-9.0-0.0-0.0-0.0-0.31","635","","f","","","","","","","","","","","","","key","f","6.129113207547486","853.3333333333334","476","j","false","img/S_ambi40.png","朋友","same",""
"","","","","","html-keyboard-response","271","787484","0.0-9.0-0.0-0.0-0.0-1.31","null","<span style='color:red; font-size: 70px;'>错误! </span>","null","","","","","","","","","","","","","","","","","","","","","","","feedback_test"
"","","","","","psychophysics","272","788960","0.0-9.0-0.0-0.0-0.0-0.32","475","","j","","","","","","","","","","","","","key","j","6.08578099173586","853.3333333333334","476","j","true","img/T_ambi40.png","をる","same",""
"","","","","","html-keyboard-response","273","789466","0.0-9.0-0.0-0.0-0.0-1.32","null","<span style='color:GreenYellow; font-size: 70px;'>正确! </span>","null","","","","","","","","","","","","","","","","","","","","","","","feedback_test"
"","","","","","psychophysics","274","790952","0.0-9.0-0.0-0.0-0.0-0.33","484","","j","","","","","","","","","","","","","key","j","6.0853991769546445","853.3333333333334","476","j","true","img/T_ambi40.png","をる","same",""
"","","","","","html-keyboard-response","275","791464","0.0-9.0-0.0-0.0-0.0-1.33","null","<span style='color:GreenYellow; font-size: 70px;'>正确! </span>","null","","","","","","","","","","","","","","","","","","","","","","","feedback_test"
"","","","","","psychophysics","276","793039","0.0-9.0-0.0-0.0-0.0-0.34","572","","f","","","","","","","","","","","","","key","f","6.22869444444419","853.3333333333334","476","f","true","img/H_ambi40.png","朋友","same",""
"","","","","","html-keyboard-response","277","793542","0.0-9.0-0.0-0.0-0.0-1.34","null","<span style='color:GreenYellow; font-size: 70px;'>正确! </span>","null","","","","","","","","","","","","","","","","","","","","","","","feedback_test"
"","","","","","psychophysics","278","795019","0.0-9.0-0.0-0.0-0.0-0.35","474","","j","","","","","","","","","","","","","key","j","6.136364016736464","853.3333333333334","476","j","true","img/T_ambi40.png","をる","same",""
"","","","","","html-keyboard-response","279","795521","0.0-9.0-0.0-0.0-0.0-1.35","null","<span style='color:GreenYellow; font-size: 70px;'>正确! </span>","null","","","","","","","","","","","","","","","","","","","","","","","feedback_test"
"","","","","","psychophysics","280","797303","0.0-9.0-0.0-0.0-0.0-0.36","779","","j","","","","","","","","","","","","","key","j","6.138905923345081","853.3333333333334","476","j","true","img/S_ambi40.png","生人","same",""
"","","","","","html-keyboard-response","281","797818","0.0-9.0-0.0-0.0-0.0-1.36","null","<span style='color:GreenYellow; font-size: 70px;'>正确! </span>","null","","","","","","","","","","","","","","","","","","","","","","","feedback_test"
"","","","","","psychophysics","282","799627","0.0-9.0-0.0-0.0-0.0-0.37","807","","f","","","","","","","","","","","","","key","f","6.095425170068202","853.3333333333334","476","f","true","img/C_ambi40.png","生人","same",""
"","","","","","html-keyboard-response","283","800135","0.0-9.0-0.0-0.0-0.0-1.37","null","<span style='color:GreenYellow; font-size: 70px;'>正确! </span>","null","","","","","","","","","","","","","","","","","","","","","","","feedback_test"
"","","","","","psychophysics","284","801939","0.0-9.0-0.0-0.0-0.0-0.38","803","","j","","","","","","","","","","","","","key","j","6.1023945578233","853.3333333333334","476","j","true","img/C_ambi40.png","朋友","same",""
"","","","","","html-keyboard-response","285","802443","0.0-9.0-0.0-0.0-0.0-1.38","null","<span style='color:GreenYellow; font-size: 70px;'>正确! </span>","null","","","","","","","","","","","","","","","","","","","","","","","feedback_test"
"","","","","","psychophysics","286","804347","0.0-9.0-0.0-0.0-0.0-0.39","901","","f","","","","","","","","","","","","","key","f","6.303236666666732","853.3333333333334","476","f","true","img/C_ambi40.png","生人","same",""
"","","","","","html-keyboard-response","287","804859","0.0-9.0-0.0-0.0-0.0-1.39","null","<span style='color:GreenYellow; font-size: 70px;'>正确! </span>","null","","","","","","","","","","","","","","","","","","","","","","","feedback_test"
"","","","","","psychophysics","288","806527","0.0-9.0-0.0-0.0-0.0-0.40","665","","j","","","","","","","","","","","","","key","j","6.291798479087516","853.3333333333334","476","j","true","img/C_ambi40.png","自我","same",""
"","","","","","html-keyboard-response","289","807032","0.0-9.0-0.0-0.0-0.0-1.40","null","<span style='color:GreenYellow; font-size: 70px;'>正确! </span>","null","","","","","","","","","","","","","","","","","","","","","","","feedback_test"
"","","","","","psychophysics","290","808524","0.0-9.0-0.0-0.0-0.0-0.41","490","","j","","","","","","","","","","","","","key","j","6.318025531915036","853.3333333333334","476","j","true","img/T_ambi40.png","をる","same",""
"","","","","","html-keyboard-response","291","809036","0.0-9.0-0.0-0.0-0.0-1.41","null","<span style='color:GreenYellow; font-size: 70px;'>正确! </span>","null","","","","","","","","","","","","","","","","","","","","","","","feedback_test"
"","","","","","psychophysics","292","810831","0.0-9.0-0.0-0.0-0.0-0.42","794","","j","","","","","","","","","","","","","key","j","6.317890459363918","853.3333333333334","476","j","true","img/H_ambi40.png","自我","same",""
"","","","","","html-keyboard-response","293","811345","0.0-9.0-0.0-0.0-0.0-1.42","null","<span style='color:GreenYellow; font-size: 70px;'>正确! </span>","null","","","","","","","","","","","","","","","","","","","","","","","feedback_test"
"","","","","","psychophysics","294","813032","0.0-9.0-0.0-0.0-0.0-0.43","684","","f","","","","","","","","","","","","","key","f","6.279260377358768","853.3333333333334","476","f","true","img/S_ambi40.png","自我","same",""
"","","","","","html-keyboard-response","295","813541","0.0-9.0-0.0-0.0-0.0-1.43","null","<span style='color:GreenYellow; font-size: 70px;'>正确! </span>","null","","","","","","","","","","","","","","","","","","","","","","","feedback_test"
"","","","","","psychophysics","296","815212","0.0-9.0-0.0-0.0-0.0-0.44","668","","f","","","","","","","","","","","","","key","f","6.1953470149253835","853.3333333333334","476","f","true","img/H_ambi40.png","朋友","same",""
"","","","","","html-keyboard-response","297","815724","0.0-9.0-0.0-0.0-0.0-1.44","null","<span style='color:GreenYellow; font-size: 70px;'>正确! </span>","null","","","","","","","","","","","","","","","","","","","","","","","feedback_test"
"","","","","","psychophysics","298","817384","0.0-9.0-0.0-0.0-0.0-0.45","658","","j","","","","","","","","","","","","","key","j","6.490633858267427","853.3333333333334","476","j","true","img/S_ambi40.png","朋友","same",""
"","","","","","html-keyboard-response","299","817893","0.0-9.0-0.0-0.0-0.0-1.45","null","<span style='color:GreenYellow; font-size: 70px;'>正确! </span>","null","","","","","","","","","","","","","","","","","","","","","","","feedback_test"
"","","","","","psychophysics","300","819587","0.0-9.0-0.0-0.0-0.0-0.46","691","","f","","","","","","","","","","","","","key","f","6.357392452830308","853.3333333333334","476","f","true","img/H_ambi40.png","朋友","same",""
"","","","","","html-keyboard-response","301","820092","0.0-9.0-0.0-0.0-0.0-1.46","null","<span style='color:GreenYellow; font-size: 70px;'>正确! </span>","null","","","","","","","","","","","","","","","","","","","","","","","feedback_test"
"","","","","","psychophysics","302","821851","0.0-9.0-0.0-0.0-0.0-0.47","757","","f","","","","","","","","","","","","","key","f","6.255300000000196","853.3333333333334","476","f","true","img/H_ambi40.png","朋友","same",""
"","","","","","html-keyboard-response","303","822354","0.0-9.0-0.0-0.0-0.0-1.47","null","<span style='color:GreenYellow; font-size: 70px;'>正确! </span>","null","","","","","","","","","","","","","","","","","","","","","","","feedback_test"
"","","","","","psychophysics","304","823919","0.0-9.0-0.0-0.0-0.0-0.48","562","","f","","","","","","","","","","","","","key","f","6.281020161290202","853.3333333333334","476","f","true","img/S_ambi40.png","自我","same",""
"","","","","","html-keyboard-response","305","824423","0.0-9.0-0.0-0.0-0.0-1.48","null","<span style='color:GreenYellow; font-size: 70px;'>正确! </span>","null","","","","","","","","","","","","","","","","","","","","","","","feedback_test"
"","","","","","psychophysics","306","825843","0.0-9.0-0.0-0.0-0.0-0.49","419","","j","","","","","","","","","","","","","key","j","6.220881057268271","853.3333333333334","476","j","true","img/T_ambi40.png","をる","same",""
"","","","","","html-keyboard-response","307","826358","0.0-9.0-0.0-0.0-0.0-1.49","null","<span style='color:GreenYellow; font-size: 70px;'>正确! </span>","null","","","","","","","","","","","","","","","","","","","","","","","feedback_test"
"","","","","","psychophysics","308","828339","0.0-9.0-0.0-0.0-0.0-0.50","981","","f","","","","","","","","","","","","","key","f","6.228374603174494","853.3333333333334","476","f","true","img/C_ambi40.png","生人","same",""
"","","","","","html-keyboard-response","309","828850","0.0-9.0-0.0-0.0-0.0-1.50","null","<span style='color:GreenYellow; font-size: 70px;'>正确! </span>","null","","","","","","","","","","","","","","","","","","","","","","","feedback_test"
"","","","","","psychophysics","310","830636","0.0-9.0-0.0-0.0-0.0-0.51","780","","j","","","","","","","","","","","","","key","j","6.2307824561400995","853.3333333333334","476","j","true","img/H_ambi40.png","生人","same",""
"","","","","","html-keyboard-response","311","831148","0.0-9.0-0.0-0.0-0.0-1.51","null","<span style='color:GreenYellow; font-size: 70px;'>正确! </span>","null","","","","","","","","","","","","","","","","","","","","","","","feedback_test"
"","","","","","psychophysics","312","832699","0.0-9.0-0.0-0.0-0.0-0.52","550","","f","","","","","","","","","","","","","key","f","6.206594377510197","853.3333333333334","476","f","true","img/S_ambi40.png","自我","same",""
"","","","","","html-keyboard-response","313","833206","0.0-9.0-0.0-0.0-0.0-1.52","null","<span style='color:GreenYellow; font-size: 70px;'>正确! </span>","null","","","","","","","","","","","","","","","","","","","","","","","feedback_test"
"","","","","","psychophysics","314","834672","0.0-9.0-0.0-0.0-0.0-0.53","465","","j","","","","","","","","","","","","","key","j","6.12822033898309","853.3333333333334","476","j","true","img/T_ambi40.png","をる","same",""
"","","","","","html-keyboard-response","315","835186","0.0-9.0-0.0-0.0-0.0-1.53","null","<span style='color:GreenYellow; font-size: 70px;'>正确! </span>","null","","","","","","","","","","","","","","","","","","","","","","","feedback_test"
"","","","","","psychophysics","316","836911","0.0-9.0-0.0-0.0-0.0-0.54","722","","j","","","","","","","","","","","","","key","j","6.234065454545515","853.3333333333334","476","j","true","img/S_ambi40.png","生人","same",""
"","","","","","html-keyboard-response","317","837426","0.0-9.0-0.0-0.0-0.0-1.54","null","<span style='color:GreenYellow; font-size: 70px;'>正确! </span>","null","","","","","","","","","","","","","","","","","","","","","","","feedback_test"
"","","","","","psychophysics","318","838959","0.0-9.0-0.0-0.0-0.0-0.55","533","","f","","","","","","","","","","","","","key","f","6.059793650793533","853.3333333333334","476","f","true","img/S_ambi40.png","自我","same",""
"","","","","","html-keyboard-response","319","839468","0.0-9.0-0.0-0.0-0.0-1.55","null","<span style='color:GreenYellow; font-size: 70px;'>正确! </span>","null","","","","","","","","","","","","","","","","","","","","","","","feedback_test"
"","","","","","psychophysics","320","841152","0.0-9.0-0.0-0.0-0.0-0.56","675","","f","","","","","","","","","","","","","key","f","6.1727195571952524","853.3333333333334","476","f","true","img/H_ambi40.png","朋友","same",""
"","","","","","html-keyboard-response","321","841663","0.0-9.0-0.0-0.0-0.0-1.56","null","<span style='color:GreenYellow; font-size: 70px;'>正确! </span>","null","","","","","","","","","","","","","","","","","","","","","","","feedback_test"
"","","","","","psychophysics","322","843347","0.0-9.0-0.0-0.0-0.0-0.57","684","","f","","","","","","","","","","","","","key","f","6.1495919117647535","853.3333333333334","476","f","true","img/S_ambi40.png","自我","same",""
"","","","","","html-keyboard-response","323","843863","0.0-9.0-0.0-0.0-0.0-1.57","null","<span style='color:GreenYellow; font-size: 70px;'>正确! </span>","null","","","","","","","","","","","","","","","","","","","","","","","feedback_test"
"","","","","","psychophysics","324","845332","0.0-9.0-0.0-0.0-0.0-0.58","469","","j","","","","","","","","","","","","","key","j","6.163569620253424","853.3333333333334","476","j","true","img/T_ambi40.png","をる","same",""
"","","","","","html-keyboard-response","325","845848","0.0-9.0-0.0-0.0-0.0-1.58","null","<span style='color:GreenYellow; font-size: 70px;'>正确! </span>","null","","","","","","","","","","","","","","","","","","","","","","","feedback_test"
"","","","","","psychophysics","326","847472","0.0-9.0-0.0-0.0-0.0-0.59","623","","f","","","","","","","","","","","","","key","f","6.239789883268214","853.3333333333334","476","f","true","img/S_ambi40.png","自我","same",""
"","","","","","html-keyboard-response","327","847987","0.0-9.0-0.0-0.0-0.0-1.59","null","<span style='color:GreenYellow; font-size: 70px;'>正确! </span>","null","","","","","","","","","","","","","","","","","","","","","","","feedback_test"
"","","","","","psychophysics","328","849791","0.0-9.0-0.0-0.0-0.0-0.60","802","","j","","","","","","","","","","","","","key","j","6.1650684931505255","853.3333333333334","476","j","true","img/C_ambi40.png","自我","same",""
"","","","","","html-keyboard-response","329","850296","0.0-9.0-0.0-0.0-0.0-1.60","null","<span style='color:GreenYellow; font-size: 70px;'>正确! </span>","null","","","","","","","","","","","","","","","","","","","","","","","feedback_test"
"","","","","","psychophysics","330","852102","0.0-9.0-0.0-0.0-0.0-0.61","804","","j","","","","","","","","","","","","","key","j","6.405462633451742","853.3333333333334","476","j","true","img/S_ambi40.png","朋友","same",""
"","","","","","html-keyboard-response","331","852604","0.0-9.0-0.0-0.0-0.0-1.61","null","<span style='color:GreenYellow; font-size: 70px;'>正确! </span>","null","","","","","","","","","","","","","","","","","","","","","","","feedback_test"
"","","","","","psychophysics","332","854192","0.0-9.0-0.0-0.0-0.0-0.62","579","","j","","","","","","","","","","","","","key","j","6.253011857707462","853.3333333333334","476","j","true","img/H_ambi40.png","生人","same",""
"","","","","","html-keyboard-response","333","854705","0.0-9.0-0.0-0.0-0.0-1.62","null","<span style='color:GreenYellow; font-size: 70px;'>正确! </span>","null","","","","","","","","","","","","","","","","","","","","","","","feedback_test"
"","","","","","psychophysics","334","856255","0.0-9.0-0.0-0.0-0.0-0.63","549","","j","","","","","","","","","","","","","key","j","6.2324696356277","853.3333333333334","476","j","true","img/T_ambi40.png","をる","same",""
"","","","","","html-keyboard-response","335","856761","0.0-9.0-0.0-0.0-0.0-1.63","null","<span style='color:GreenYellow; font-size: 70px;'>正确! </span>","null","","","","","","","","","","","","","","","","","","","","","","","feedback_test"
"","","","","","psychophysics","336","858527","0.0-9.0-0.0-0.0-0.0-0.64","764","","j","","","","","","","","","","","","","key","j","6.2758071428572295","853.3333333333334","476","j","true","img/H_ambi40.png","自我","same",""
"","","","","","html-keyboard-response","337","859032","0.0-9.0-0.0-0.0-0.0-1.64","null","<span style='color:GreenYellow; font-size: 70px;'>正确! </span>","null","","","","","","","","","","","","","","","","","","","","","","","feedback_test"
"","","","","","psychophysics","338","860759","0.0-9.0-0.0-0.0-0.0-0.65","725","","f","","","","","","","","","","","","","key","f","6.257432727272707","853.3333333333334","476","f","true","img/C_ambi40.png","生人","same",""
"","","","","","html-keyboard-response","339","861263","0.0-9.0-0.0-0.0-0.0-1.65","null","<span style='color:GreenYellow; font-size: 70px;'>正确! </span>","null","","","","","","","","","","","","","","","","","","","","","","","feedback_test"
"","","","","","psychophysics","340","862756","0.0-9.0-0.0-0.0-0.0-0.66","491","","j","","","","","","","","","","","","","key","j","6.212907949790834","853.3333333333334","476","j","true","img/T_ambi40.png","をる","same",""
"","","","","","html-keyboard-response","341","863260","0.0-9.0-0.0-0.0-0.0-1.66","null","<span style='color:GreenYellow; font-size: 70px;'>正确! </span>","null","","","","","","","","","","","","","","","","","","","","","","","feedback_test"
"","","","","","psychophysics","342","865027","0.0-9.0-0.0-0.0-0.0-0.67","764","","f","","","","","","","","","","","","","key","f","6.2920431654675015","853.3333333333334","476","f","true","img/H_ambi40.png","朋友","same",""
"","","","","","html-keyboard-response","343","865535","0.0-9.0-0.0-0.0-0.0-1.67","null","<span style='color:GreenYellow; font-size: 70px;'>正确! </span>","null","","","","","","","","","","","","","","","","","","","","","","","feedback_test"
"","","","","","psychophysics","344","867488","0.0-9.0-0.0-0.0-0.0-0.68","948","","j","","","","","","","","","","","","","key","j","6.2552057877815574","853.3333333333334","476","j","true","img/C_ambi40.png","朋友","same",""
"","","","","","html-keyboard-response","345","868004","0.0-9.0-0.0-0.0-0.0-1.68","null","<span style='color:GreenYellow; font-size: 70px;'>正确! </span>","null","","","","","","","","","","","","","","","","","","","","","","","feedback_test"
"","","","","","psychophysics","346","869731","0.0-9.0-0.0-0.0-0.0-0.69","724","","f","","","","","","","","","","","","","key","f","6.169573476702462","853.3333333333334","476","f","true","img/H_ambi40.png","朋友","same",""
"","","","","","html-keyboard-response","347","870235","0.0-9.0-0.0-0.0-0.0-1.69","null","<span style='color:GreenYellow; font-size: 70px;'>正确! </span>","null","","","","","","","","","","","","","","","","","","","","","","","feedback_test"
"","","","","","psychophysics","348","871852","0.0-9.0-0.0-0.0-0.0-0.70","614","","j","","","","","","","","","","","","","key","j","6.2643372549018","853.3333333333334","476","f","false","img/C_ambi40.png","生人","same",""
"","","","","","html-keyboard-response","349","872363","0.0-9.0-0.0-0.0-0.0-1.70","null","<span style='color:red; font-size: 70px;'>错误! </span>","null","","","","","","","","","","","","","","","","","","","","","","","feedback_test"
"","","","","","psychophysics","350","873995","0.0-9.0-0.0-0.0-0.0-0.71","630","","f","","","","","","","","","","","","","key","f","6.165091954022682","853.3333333333334","476","f","true","img/C_ambi40.png","生人","same",""
"","","","","","html-keyboard-response","351","874507","0.0-9.0-0.0-0.0-0.0-1.71","null","<span style='color:GreenYellow; font-size: 70px;'>正确! </span>","null","","","","","","","","","","","","","","","","","","","","","","","feedback_test"
"","","","","","psychophysics","352","876172","0.0-9.0-0.0-0.0-0.0-0.72","662","","f","","","","","","","","","","","","","key","f","6.150684014869833","853.3333333333334","476","f","true","img/C_ambi40.png","生人","same",""
"","","","","","html-keyboard-response","353","876678","0.0-9.0-0.0-0.0-0.0-1.72","null","<span style='color:GreenYellow; font-size: 70px;'>正确! </span>","null","","","","","","","","","","","","","","","","","","","","","","","feedback_test"
"","","","","","psychophysics","354","878395","0.0-9.0-0.0-0.0-0.0-0.73","715","","f","","","","","","","","","","","","","key","f","6.259627737226406","853.3333333333334","476","f","true","img/C_ambi40.png","生人","same",""
"","","","","","html-keyboard-response","355","878907","0.0-9.0-0.0-0.0-0.0-1.73","null","<span style='color:GreenYellow; font-size: 70px;'>正确! </span>","null","","","","","","","","","","","","","","","","","","","","","","","feedback_test"
"","","","","","psychophysics","356","880613","0.0-9.0-0.0-0.0-0.0-0.74","703","","j","","","","","","","","","","","","","key","j","6.2167252747251585","853.3333333333334","476","j","true","img/H_ambi40.png","自我","same",""
"","","","","","html-keyboard-response","357","881121","0.0-9.0-0.0-0.0-0.0-1.74","null","<span style='color:GreenYellow; font-size: 70px;'>正确! </span>","null","","","","","","","","","","","","","","","","","","","","","","","feedback_test"
"","","","","","psychophysics","358","882788","0.0-9.0-0.0-0.0-0.0-0.75","664","","f","","","","","","","","","","","","","key","f","6.281977099236296","853.3333333333334","476","j","false","img/H_ambi40.png","生人","same",""
"","","","","","html-keyboard-response","359","883300","0.0-9.0-0.0-0.0-0.0-1.75","null","<span style='color:red; font-size: 70px;'>错误! </span>","null","","","","","","","","","","","","","","","","","","","","","","","feedback_test"
"","","","","","psychophysics","360","884759","0.0-9.0-0.0-0.0-0.0-0.76","457","","j","","","","","","","","","","","","","key","j","6.163355932203497","853.3333333333334","476","j","true","img/T_ambi40.png","をる","same",""
"","","","","","html-keyboard-response","361","885264","0.0-9.0-0.0-0.0-0.0-1.76","null","<span style='color:GreenYellow; font-size: 70px;'>正确! </span>","null","","","","","","","","","","","","","","","","","","","","","","","feedback_test"
"","","","","","psychophysics","362","887023","0.0-9.0-0.0-0.0-0.0-0.77","756","","f","","","","","","","","","","","","","key","f","6.34667028985543","853.3333333333334","476","f","true","img/H_ambi40.png","朋友","same",""
"","","","","","html-keyboard-response","363","887525","0.0-9.0-0.0-0.0-0.0-1.77","null","<span style='color:GreenYellow; font-size: 70px;'>正确! </span>","null","","","","","","","","","","","","","","","","","","","","","","","feedback_test"
"","","","","","psychophysics","364","889188","0.0-9.0-0.0-0.0-0.0-0.78","661","","f","","","","","","","","","","","","","key","f","6.267723484848499","853.3333333333334","476","f","true","img/C_ambi40.png","生人","same",""
"","","","","","html-keyboard-response","365","889697","0.0-9.0-0.0-0.0-0.0-1.78","null","<span style='color:GreenYellow; font-size: 70px;'>正确! </span>","null","","","","","","","","","","","","","","","","","","","","","","","feedback_test"
"","","","","","psychophysics","366","891339","0.0-9.0-0.0-0.0-0.0-0.79","640","","f","","","","","","","","","","","","","key","f","6.24624137931068","853.3333333333334","476","f","true","img/H_ambi40.png","朋友","same",""
"","","","","","html-keyboard-response","367","891849","0.0-9.0-0.0-0.0-0.0-1.79","null","<span style='color:GreenYellow; font-size: 70px;'>正确! </span>","null","","","","","","","","","","","","","","","","","","","","","","","feedback_test"
"","","","","","psychophysics","368","893395","0.0-9.0-0.0-0.0-0.0-0.80","544","","f","","","","","","","","","","","","","key","f","6.08467984189723","853.3333333333334","476","f","true","img/S_ambi40.png","自我","same",""
"","","","","","html-keyboard-response","369","893908","0.0-9.0-0.0-0.0-0.0-1.80","null","<span style='color:GreenYellow; font-size: 70px;'>正确! </span>","null","","","","","","","","","","","","","","","","","","","","","","","feedback_test"
"","","","","","psychophysics","370","895511","0.0-9.0-0.0-0.0-0.0-0.81","602","","f","","","","","","","","","","","","","key","f","6.1960627450982075","853.3333333333334","476","f","true","img/H_ambi40.png","朋友","same",""
"","","","","","html-keyboard-response","371","896015","0.0-9.0-0.0-0.0-0.0-1.81","null","<span style='color:GreenYellow; font-size: 70px;'>正确! </span>","null","","","","","","","","","","","","","","","","","","","","","","","feedback_test"
"","","","","","psychophysics","372","897515","0.0-9.0-0.0-0.0-0.0-0.82","497","","f","","","","","","","","","","","","","key","f","6.238025104602172","853.3333333333334","476","j","false","img/C_ambi40.png","自我","same",""
"","","","","","html-keyboard-response","373","898027","0.0-9.0-0.0-0.0-0.0-1.82","null","<span style='color:red; font-size: 70px;'>错误! </span>","null","","","","","","","","","","","","","","","","","","","","","","","feedback_test"
"","","","","","psychophysics","374","899575","0.0-9.0-0.0-0.0-0.0-0.83","545","","f","","","","","","","","","","","","","key","f","6.258036585365672","853.3333333333334","476","j","false","img/C_ambi40.png","朋友","same",""
"","","","","","html-keyboard-response","375","900085","0.0-9.0-0.0-0.0-0.0-1.83","null","<span style='color:red; font-size: 70px;'>错误! </span>","null","","","","","","","","","","","","","","","","","","","","","","","feedback_test"
"","","","","","psychophysics","376","901567","0.0-9.0-0.0-0.0-0.0-0.84","477","","j","","","","","","","","","","","","","key","j","6.266702127659773","853.3333333333334","476","j","true","img/T_ambi40.png","をる","same",""
"","","","","","html-keyboard-response","377","902071","0.0-9.0-0.0-0.0-0.0-1.84","null","<span style='color:GreenYellow; font-size: 70px;'>正确! </span>","null","","","","","","","","","","","","","","","","","","","","","","","feedback_test"
"","","","","","psychophysics","378","903659","0.0-9.0-0.0-0.0-0.0-0.85","587","","f","","","","","","","","","","","","","key","f","6.270240000000223","853.3333333333334","476","f","true","img/S_ambi40.png","自我","same",""
"","","","","","html-keyboard-response","379","904165","0.0-9.0-0.0-0.0-0.0-1.85","null","<span style='color:GreenYellow; font-size: 70px;'>正确! </span>","null","","","","","","","","","","","","","","","","","","","","","","","feedback_test"
"","","","","","psychophysics","380","905992","0.0-9.0-0.0-0.0-0.0-0.86","824","","j","","","","","","","","","","","","","key","j","6.334895470383243","853.3333333333334","476","j","true","img/S_ambi40.png","生人","same",""
"","","","","","html-keyboard-response","381","906501","0.0-9.0-0.0-0.0-0.0-1.86","null","<span style='color:GreenYellow; font-size: 70px;'>正确! </span>","null","","","","","","","","","","","","","","","","","","","","","","","feedback_test"
"","","","","","psychophysics","382","908195","0.0-9.0-0.0-0.0-0.0-0.87","691","","j","","","","","","","","","","","","","key","j","6.216577205882298","853.3333333333334","476","j","true","img/S_ambi40.png","朋友","same",""
"","","","","","html-keyboard-response","383","908704","0.0-9.0-0.0-0.0-0.0-1.87","null","<span style='color:GreenYellow; font-size: 70px;'>正确! </span>","null","","","","","","","","","","","","","","","","","","","","","","","feedback_test"
"","","","","","psychophysics","384","910367","0.0-9.0-0.0-0.0-0.0-0.88","657","","j","","","","","","","","","","","","","key","j","6.315613026819923","853.3333333333334","476","j","true","img/T_ambi40.png","をる","same",""
"","","","","","html-keyboard-response","385","910873","0.0-9.0-0.0-0.0-0.0-1.88","null","<span style='color:GreenYellow; font-size: 70px;'>正确! </span>","null","","","","","","","","","","","","","","","","","","","","","","","feedback_test"
"","","","","","psychophysics","386","912489","0.0-9.0-0.0-0.0-0.0-0.89","614","","f","","","","","","","","","","","","","key","f","6.4497349397592565","853.3333333333334","476","f","true","img/S_ambi40.png","自我","same",""
"","","","","","html-keyboard-response","387","913005","0.0-9.0-0.0-0.0-0.0-1.89","null","<span style='color:GreenYellow; font-size: 70px;'>正确! </span>","null","","","","","","","","","","","","","","","","","","","","","","","feedback_test"
"","","","","","psychophysics","388","914696","0.0-9.0-0.0-0.0-0.0-0.90","689","","f","","","","","","","","","","","","","key","f","6.281661654135416","853.3333333333334","476","f","true","img/S_ambi40.png","自我","same",""
"","","","","","html-keyboard-response","389","915204","0.0-9.0-0.0-0.0-0.0-1.90","null","<span style='color:GreenYellow; font-size: 70px;'>正确! </span>","null","","","","","","","","","","","","","","","","","","","","","","","feedback_test"
"","","","","","psychophysics","390","916823","0.0-9.0-0.0-0.0-0.0-0.91","616","","f","","","","","","","","","","","","","key","f","6.243839843749811","853.3333333333334","476","f","true","img/C_ambi40.png","生人","same",""
"","","","","","html-keyboard-response","391","917326","0.0-9.0-0.0-0.0-0.0-1.91","null","<span style='color:GreenYellow; font-size: 70px;'>正确! </span>","null","","","","","","","","","","","","","","","","","","","","","","","feedback_test"
"","","","","","psychophysics","392","918880","0.0-9.0-0.0-0.0-0.0-0.92","553","","f","","","","","","","","","","","","","key","f","6.255508064516283","853.3333333333334","476","f","true","img/S_ambi40.png","自我","same",""
"","","","","","html-keyboard-response","393","919391","0.0-9.0-0.0-0.0-0.0-1.92","null","<span style='color:GreenYellow; font-size: 70px;'>正确! </span>","null","","","","","","","","","","","","","","","","","","","","","","","feedback_test"
"","","","","","psychophysics","394","921043","0.0-9.0-0.0-0.0-0.0-0.93","649","","f","","","","","","","","","","","","","key","f","6.3153448275864035","853.3333333333334","476","f","true","img/H_ambi40.png","朋友","same",""
"","","","","","html-keyboard-response","395","921556","0.0-9.0-0.0-0.0-0.0-1.93","null","<span style='color:GreenYellow; font-size: 70px;'>正确! </span>","null","","","","","","","","","","","","","","","","","","","","","","","feedback_test"
"","","","","","psychophysics","396","923216","0.0-9.0-0.0-0.0-0.0-0.94","658","","j","","","","","","","","","","","","","key","j","6.116552238805661","853.3333333333334","476","j","true","img/H_ambi40.png","自我","same",""
"","","","","","html-keyboard-response","397","923724","0.0-9.0-0.0-0.0-0.0-1.94","null","<span style='color:GreenYellow; font-size: 70px;'>正确! </span>","null","","","","","","","","","","","","","","","","","","","","","","","feedback_test"
"","","","","","psychophysics","398","925252","0.0-9.0-0.0-0.0-0.0-0.95","527","","f","","","","","","","","","","","","","key","f","6.08544000000041","853.3333333333334","476","f","true","img/C_ambi40.png","生人","same",""
"","","","","","html-keyboard-response","399","925764","0.0-9.0-0.0-0.0-0.0-1.95","null","<span style='color:GreenYellow; font-size: 70px;'>正确! </span>","null","","","","","","","","","","","","","","","","","","","","","","","feedback_test"
"","","","","","psychophysics","400","927195","0.0-9.0-0.0-0.0-0.0-0.96","426","","j","","","","","","","","","","","","","key","j","6.218995633187366","853.3333333333334","476","j","true","img/T_ambi40.png","をる","same",""
"","","","","","html-keyboard-response","401","927711","0.0-9.0-0.0-0.0-0.0-1.96","null","<span style='color:GreenYellow; font-size: 70px;'>正确! </span>","null","","","","","","","","","","","","","","","","","","","","","","","feedback_test"
"","","","","","psychophysics","402","929271","0.0-9.0-0.0-0.0-0.0-0.97","558","","f","","","","","","","","","","","","","key","f","6.256798387096722","853.3333333333334","476","j","false","img/S_ambi40.png","朋友","same",""
"","","","","","html-keyboard-response","403","929779","0.0-9.0-0.0-0.0-0.0-1.97","null","<span style='color:red; font-size: 70px;'>错误! </span>","null","","","","","","","","","","","","","","","","","","","","","","","feedback_test"
"","","","","","psychophysics","404","931416","0.0-9.0-0.0-0.0-0.0-0.98","634","","f","","","","","","","","","","","","","key","f","6.465296000000089","853.3333333333334","476","f","true","img/S_ambi40.png","自我","same",""
"","","","","","html-keyboard-response","405","931930","0.0-9.0-0.0-0.0-0.0-1.98","null","<span style='color:GreenYellow; font-size: 70px;'>正确! </span>","null","","","","","","","","","","","","","","","","","","","","","","","feedback_test"
"","","","","","psychophysics","406","933687","0.0-9.0-0.0-0.0-0.0-0.99","755","","j","","","","","","","","","","","","","key","j","6.369239999999885","853.3333333333334","476","j","true","img/C_ambi40.png","朋友","same",""
"","","","","","html-keyboard-response","407","934191","0.0-9.0-0.0-0.0-0.0-1.99","null","<span style='color:GreenYellow; font-size: 70px;'>正确! </span>","null","","","","","","","","","","","","","","","","","","","","","","","feedback_test"
"","","","","","psychophysics","408","935703","0.0-9.0-0.0-0.0-0.0-0.100","510","","j","","","","","","","","","","","","","key","j","6.316273109243396","853.3333333333334","476","j","true","img/T_ambi40.png","をる","same",""
"","","","","","html-keyboard-response","409","936217","0.0-9.0-0.0-0.0-0.0-1.100","null","<span style='color:GreenYellow; font-size: 70px;'>正确! </span>","null","","","","","","","","","","","","","","","","","","","","","","","feedback_test"
"","","","","","psychophysics","410","938063","0.0-9.0-0.0-0.0-0.0-0.101","841","","j","","","","","","","","","","","","","key","j","6.267450511945037","853.3333333333334","476","j","true","img/C_ambi40.png","自我","same",""
"","","","","","html-keyboard-response","411","938568","0.0-9.0-0.0-0.0-0.0-1.101","null","<span style='color:GreenYellow; font-size: 70px;'>正确! </span>","null","","","","","","","","","","","","","","","","","","","","","","","feedback_test"
"","","","","","psychophysics","412","940215","0.0-9.0-0.0-0.0-0.0-0.102","645","","f","","","","","","","","","","","","","key","f","6.197809885931467","853.3333333333334","476","f","true","img/C_ambi40.png","生人","same",""
"","","","","","html-keyboard-response","413","940719","0.0-9.0-0.0-0.0-0.0-1.102","null","<span style='color:GreenYellow; font-size: 70px;'>正确! </span>","null","","","","","","","","","","","","","","","","","","","","","","","feedback_test"
"","","","","","psychophysics","414","942515","0.0-9.0-0.0-0.0-0.0-0.103","794","","f","","","","","","","","","","","","","key","f","6.363403571428249","853.3333333333334","476","f","true","img/H_ambi40.png","朋友","same",""
"","","","","","html-keyboard-response","415","943027","0.0-9.0-0.0-0.0-0.0-1.103","null","<span style='color:GreenYellow; font-size: 70px;'>正确! </span>","null","","","","","","","","","","","","","","","","","","","","","","","feedback_test"
"","","","","","psychophysics","416","944606","0.0-9.0-0.0-0.0-0.0-0.104","576","","j","","","","","","","","","","","","","key","j","6.253392857142783","853.3333333333334","476","j","true","img/H_ambi40.png","生人","same",""
"","","","","","html-keyboard-response","417","945114","0.0-9.0-0.0-0.0-0.0-1.104","null","<span style='color:GreenYellow; font-size: 70px;'>正确! </span>","null","","","","","","","","","","","","","","","","","","","","","","","feedback_test"
"","","","","","psychophysics","418","947159","0.0-9.0-0.0-0.0-0.0-0.105","1043","","j","","","","","","","","","","","","","key","j","6.324313664596285","853.3333333333334","476","j","true","img/S_ambi40.png","生人","same",""
"","","","","","html-keyboard-response","419","947666","0.0-9.0-0.0-0.0-0.0-1.105","null","<span style='color:GreenYellow; font-size: 70px;'>正确! </span>","null","","","","","","","","","","","","","","","","","","","","","","","feedback_test"
"","","","","","psychophysics","420","949436","0.0-9.0-0.0-0.0-0.0-0.106","766","","f","","","","","","","","","","","","","key","f","6.300060931899865","853.3333333333334","476","f","true","img/H_ambi40.png","朋友","same",""
"","","","","","html-keyboard-response","421","949940","0.0-9.0-0.0-0.0-0.0-1.106","null","<span style='color:GreenYellow; font-size: 70px;'>正确! </span>","null","","","","","","","","","","","","","","","","","","","","","","","feedback_test"
"","","","","","psychophysics","422","951395","0.0-9.0-0.0-0.0-0.0-0.107","453","","j","","","","","","","","","","","","","key","j","6.296147826087216","853.3333333333334","476","j","true","img/T_ambi40.png","をる","same",""
"","","","","","html-keyboard-response","423","951901","0.0-9.0-0.0-0.0-0.0-1.107","null","<span style='color:GreenYellow; font-size: 70px;'>正确! </span>","null","","","","","","","","","","","","","","","","","","","","","","","feedback_test"
"","","","","","html-keyboard-response","424","955306","0.0-9.0-0.0-0.0-1.0","3402","<style>.context{color:white; font-size: 35px; line-height:40px}</style>                          <div><p class='context'>您正确回答了88% 的试次。</p><p class='context'>您的平均反应时为671毫秒。</p><p class='context'>请按任意键进入休息</p></div>"," ","","","","","","","","","","","","","","","","","","","","","","",""
"","","","","","html-button-response","425","988043","0.0-9.0-0.0-0.0-2.0","32734","
                    <p>您当前还剩余5组实验</p>
                    <p>现在是休息时间，当您结束休息后，您可以点击 结束休息 按钮 继续</p>
                    <p>建议休息时间还剩余<span id=""iii"">60</span>秒</p>","0","","","","","","","","","","","","","","","","","","","","","","",""
"","","","","","psychophysics","426","989679","0.0-9.0-0.0-0.0-0.1-0.108","631","","f","","","","","","","","","","","","","key","f","6.278509652509954","853.3333333333334","476","f","true","img/C_ambi40.png","生人","same",""
"","","","","","html-keyboard-response","427","990190","0.0-9.0-0.0-0.0-0.1-1.108","null","<span style='color:GreenYellow; font-size: 70px;'>正确! </span>","null","","","","","","","","","","","","","","","","","","","","","","","feedback_test"
"","","","","","psychophysics","428","991724","0.0-9.0-0.0-0.0-0.1-0.109","529","","j","","","","","","","","","","","","","key","j","6.4995617021276475","853.3333333333334","476","j","true","img/T_ambi40.png","をる","same",""
"","","","","","html-keyboard-response","429","992233","0.0-9.0-0.0-0.0-0.1-1.109","null","<span style='color:GreenYellow; font-size: 70px;'>正确! </span>","null","","","","","","","","","","","","","","","","","","","","","","","feedback_test"
"","","","","","psychophysics","430","993724","0.0-9.0-0.0-0.0-0.1-0.110","488","","j","","","","","","","","","","","","","key","j","6.2662838983050575","853.3333333333334","476","j","true","img/H_ambi40.png","生人","same",""
"","","","","","html-keyboard-response","431","994230","0.0-9.0-0.0-0.0-0.1-1.110","null","<span style='color:GreenYellow; font-size: 70px;'>正确! </span>","null","","","","","","","","","","","","","","","","","","","","","","","feedback_test"
"","","","","","psychophysics","432","995788","0.0-9.0-0.0-0.0-0.1-0.111","556","","j","","","","","","","","","","","","","key","j","6.256104838709542","853.3333333333334","476","f","false","img/H_ambi40.png","朋友","same",""
