"success","timeout","failed_images","failed_audio","failed_video","trial_type","trial_index","time_elapsed","internal_node_id","rt","stimulus","response","value","item_width_mm","item_height_mm","item_width_px","px2mm","view_dist_mm","item_width_deg","px2deg","scale_factor","win_width_deg","win_height_deg","view_history","response_type","key_press","avg_frame_time","center_x","center_y","correct_response","correct","Image","word","condition","screen_id"
"true","false","[]","[]","[]","preload","0","608","0.0-0.0","","","","","","","","","","","","","","","","","","","","","","","","","",""
"","","","","","html-keyboard-response","1","4250","0.0-1.0","3641","
     <p>您好，欢迎参加本次实验。</p>
     <p>为充分保障您的权利，请确保您已经知晓并同意《参与实验同意书》以及《数据公开知情同意书》。</p>
     <p>如果您未见过上述内容，请咨询实验员。</p>
     <p>如果您选择继续实验，则表示您已经清楚两份知情同意书的内容并同意。</p>
     <p> <div style = ""color: green""><按任意键至下页></div> </p>
     "," ","","","","","","","","","","","","","","","","","","","","","","",""
"","","","","","html-keyboard-response","2","11699","0.0-2.0","7448","
     <p>本实验首先需要您填写一些基本个人信息。</p>
     <p> <div style = ""color: green""><按任意键至下页></div></p>
     "," ","","","","","","","","","","","","","","","","","","","","","","",""
"","","","","","call-function","3","11699","0.0-3.0-0.0","","","","","","","","","","","","","","","","","","","","","","","","","",""
"","","","","","survey-html-form","4","17899","0.0-3.0-1.0","6198","","{""Q0"":""23""}","","","","","","","","","","","","","","","","","","","","","","",""
"","","","","","html-button-response","5","48964","0.0-3.0-2.0","31064","<p style = 'color : white'>您的性别</p>","0","","","","","","","","","","","","","","","","","","","","","","",""
"","","","","","survey-html-form","6","52115","0.0-3.0-3.0","3150","","{""Q0"":""2001""}","","","","","","","","","","","","","","","","","","","","","","",""
"","","","","","survey-html-form","7","54496","0.0-3.0-4.0","2380","","{""Q0"":""5""}","","","","","","","","","","","","","","","","","","","","","","",""
"","","","","","virtual-chinrest","8","90122","0.0-4.0","35626","","","","85.6","53.98","463.11540987122083","5.411268291810789","528.36","9.262308197424417","50","0.8075740777099141","30.72","16.7","","","","","","","","","","","",""
"true","","","","","fullscreen","9","92471","0.0-5.0","","","","","","","","","","","","","","","","","","","","","","","","","",""
"","","","","","instructions","10","139528","0.0-6.0","47057","","","","","","","","","","","","","","[{""page_index"":0,""viewing_time"":1886},{""page_index"":1,""viewing_time"":40776},{""page_index"":2,""viewing_time"":2272},{""page_index"":3,""viewing_time"":2123}]","","","","","","","","","","",""
"","","","","","psychophysics","11","141499","0.0-7.0-0.0-0.0","968","","j","","","","","","","","","","","","","key","j","6.27497435897441","768","476","f","false","img/C_ambi40.png","朋友","prac",""
"","","","","","html-keyboard-response","12","142015","0.0-7.0-0.0-1.0","null","<span style='color:red; font-size: 70px;'>错误! </span>","null","","","","","","","","","","","","","","","","","","","","","","","feedback_test"
"","","","","","psychophysics","13","143675","0.0-7.0-0.0-0.1","659","","j","","","","","","","","","","","","","key","j","6.268399239543643","768","476","j","true","img/T_ambi40.png","をる","prac",""
"","","","","","html-keyboard-response","14","144177","0.0-7.0-0.0-1.1","null","<span style='color:GreenYellow; font-size: 70px;'>正确! </span>","null","","","","","","","","","","","","","","","","","","","","","","","feedback_test"
"","","","","","psychophysics","15","145763","0.0-7.0-0.0-0.2","582","","j","","","","","","","","","","","","","key","j","6.378262096774227","768","476","j","true","img/T_ambi40.png","をる","prac",""
"","","","","","html-keyboard-response","16","146278","0.0-7.0-0.0-1.2","null","<span style='color:GreenYellow; font-size: 70px;'>正确! </span>","null","","","","","","","","","","","","","","","","","","","","","","","feedback_test"
"","","","","","psychophysics","17","148412","0.0-7.0-0.0-0.3","1133","","f","","","","","","","","","","","","","key","f","6.255964705882327","768","476","f","true","img/S_ambi40.png","生人","prac",""
"","","","","","html-keyboard-response","18","148913","0.0-7.0-0.0-1.3","null","<span style='color:GreenYellow; font-size: 70px;'>正确! </span>","null","","","","","","","","","","","","","","","","","","","","","","","feedback_test"
"","","","","","psychophysics","19","150972","0.0-7.0-0.0-0.4","1056","","f","","","","","","","","","","","","","key","f","6.36138509316773","768","476","f","true","img/H_ambi40.png","生人","prac",""
"","","","","","html-keyboard-response","20","151481","0.0-7.0-0.0-1.4","null","<span style='color:GreenYellow; font-size: 70px;'>正确! </span>","null","","","","","","","","","","","","","","","","","","","","","","","feedback_test"
"","","","","","psychophysics","21","153826","0.0-7.0-0.0-0.5","1344","","j","","","","","","","","","","","","","key","j","6.20296808510636","768","476","f","false","img/S_ambi40.png","自我","prac",""
"","","","","","html-keyboard-response","22","154341","0.0-7.0-0.0-1.5","null","<span style='color:red; font-size: 70px;'>错误! </span>","null","","","","","","","","","","","","","","","","","","","","","","","feedback_test"
"","","","","","psychophysics","23","156589","0.0-7.0-0.0-0.6","1246","","j","","","","","","","","","","","","","key","j","6.263198324022363","768","476","j","true","img/S_ambi40.png","朋友","prac",""
"","","","","","html-keyboard-response","24","157100","0.0-7.0-0.0-1.6","null","<span style='color:GreenYellow; font-size: 70px;'>正确! </span>","null","","","","","","","","","","","","","","","","","","","","","","","feedback_test"
"","","","","","psychophysics","25","159035","0.0-7.0-0.0-0.7","934","","f","","","","","","","","","","","","","key","f","6.340798679868043","768","476","f","true","img/H_ambi40.png","朋友","prac",""
"","","","","","html-keyboard-response","26","159549","0.0-7.0-0.0-1.7","null","<span style='color:GreenYellow; font-size: 70px;'>正确! </span>","null","","","","","","","","","","","","","","","","","","","","","","","feedback_test"
"","","","","","psychophysics","27","161171","0.0-7.0-0.0-0.8","621","","j","","","","","","","","","","","","","key","j","6.222247104247125","768","476","j","true","img/T_ambi40.png","をる","prac",""
"","","","","","html-keyboard-response","28","161680","0.0-7.0-0.0-1.8","null","<span style='color:GreenYellow; font-size: 70px;'>正确! </span>","null","","","","","","","","","","","","","","","","","","","","","","","feedback_test"
"","","","","","psychophysics","29","163923","0.0-7.0-0.0-0.9","1241","","j","","","","","","","","","","","","","key","j","6.227559888579436","768","476","j","true","img/C_ambi40.png","生人","prac",""
"","","","","","html-keyboard-response","30","164429","0.0-7.0-0.0-1.9","null","<span style='color:GreenYellow; font-size: 70px;'>正确! </span>","null","","","","","","","","","","","","","","","","","","","","","","","feedback_test"
"","","","","","psychophysics","31","166667","0.0-7.0-0.0-0.10","1233","","j","","","","","","","","","","","","","key","j","6.229832402234633","768","476","j","true","img/S_ambi40.png","朋友","prac",""
"","","","","","html-keyboard-response","32","167173","0.0-7.0-0.0-1.10","null","<span style='color:GreenYellow; font-size: 70px;'>正确! </span>","null","","","","","","","","","","","","","","","","","","","","","","","feedback_test"
"","","","","","psychophysics","33","168754","0.0-7.0-0.0-0.11","580","","j","","","","","","","","","","","","","key","j","6.30453815261039","768","476","j","true","img/T_ambi40.png","をる","prac",""
"","","","","","html-keyboard-response","34","169258","0.0-7.0-0.0-1.11","null","<span style='color:GreenYellow; font-size: 70px;'>正确! </span>","null","","","","","","","","","","","","","","","","","","","","","","","feedback_test"
"","","","","","psychophysics","35","171442","0.0-7.0-0.0-0.12","1183","","f","","","","","","","","","","","","","key","f","6.437073964497041","768","476","j","false","img/C_ambi40.png","生人","prac",""
"","","","","","html-keyboard-response","36","171949","0.0-7.0-0.0-1.12","null","<span style='color:red; font-size: 70px;'>错误! </span>","null","","","","","","","","","","","","","","","","","","","","","","","feedback_test"
"","","","","","psychophysics","37","173978","0.0-7.0-0.0-0.13","1028","","f","","","","","","","","","","","","","key","f","6.489106109324738","768","476","f","true","img/C_ambi40.png","自我","prac",""
"","","","","","html-keyboard-response","38","174485","0.0-7.0-0.0-1.13","null","<span style='color:GreenYellow; font-size: 70px;'>正确! </span>","null","","","","","","","","","","","","","","","","","","","","","","","feedback_test"
"","","","","","psychophysics","39","176299","0.0-7.0-0.0-0.14","811","","j","","","","","","","","","","","","","key","j","6.31473426573425","768","476","j","true","img/H_ambi40.png","自我","prac",""
"","","","","","html-keyboard-response","40","176804","0.0-7.0-0.0-1.14","null","<span style='color:GreenYellow; font-size: 70px;'>正确! </span>","null","","","","","","","","","","","","","","","","","","","","","","","feedback_test"
"","","","","","psychophysics","41","178732","0.0-7.0-0.0-0.15","928","","j","","","","","","","","","","","","","key","j","6.258110749185637","768","476","j","true","img/H_ambi40.png","自我","prac",""
"","","","","","html-keyboard-response","42","179241","0.0-7.0-0.0-1.15","null","<span style='color:GreenYellow; font-size: 70px;'>正确! </span>","null","","","","","","","","","","","","","","","","","","","","","","","feedback_test"
"","","","","","psychophysics","43","180898","0.0-7.0-0.0-0.16","656","","j","","","","","","","","","","","","","key","j","6.128832713754603","768","476","j","true","img/H_ambi40.png","自我","prac",""
"","","","","","html-keyboard-response","44","181404","0.0-7.0-0.0-1.16","null","<span style='color:GreenYellow; font-size: 70px;'>正确! </span>","null","","","","","","","","","","","","","","","","","","","","","","","feedback_test"
"","","","","","psychophysics","45","183411","0.0-7.0-0.0-0.17","1002","","f","","","","","","","","","","","","","key","f","6.269570532915413","768","476","f","true","img/S_ambi40.png","自我","prac",""
"","","","","","html-keyboard-response","46","183917","0.0-7.0-0.0-1.17","null","<span style='color:GreenYellow; font-size: 70px;'>正确! </span>","null","","","","","","","","","","","","","","","","","","","","","","","feedback_test"
"","","","","","psychophysics","47","185538","0.0-7.0-0.0-0.18","619","","j","","","","","","","","","","","","","key","j","6.20015708812264","768","476","j","true","img/T_ambi40.png","をる","prac",""
"","","","","","html-keyboard-response","48","186048","0.0-7.0-0.0-1.18","null","<span style='color:GreenYellow; font-size: 70px;'>正确! </span>","null","","","","","","","","","","","","","","","","","","","","","","","feedback_test"
"","","","","","psychophysics","49","187587","0.0-7.0-0.0-0.19","535","","j","","","","","","","","","","","","","key","j","6.418399159663856","768","476","j","true","img/T_ambi40.png","をる","prac",""
"","","","","","html-keyboard-response","50","188100","0.0-7.0-0.0-1.19","null","<span style='color:GreenYellow; font-size: 70px;'>正确! </span>","null","","","","","","","","","","","","","","","","","","","","","","","feedback_test"
"","","","","","psychophysics","51","190411","0.0-7.0-0.0-0.20","1310","","f","","","","","","","","","","","","","key","f","6.560327635327685","768","476","f","true","img/H_ambi40.png","朋友","prac",""
"","","","","","html-keyboard-response","52","190924","0.0-7.0-0.0-1.20","null","<span style='color:GreenYellow; font-size: 70px;'>正确! </span>","null","","","","","","","","","","","","","","","","","","","","","","","feedback_test"
"","","","","","psychophysics","53","193428","0.0-7.0-0.0-0.21","null","","null","","","","","","","","","","","","","key","null","6.417350515463919","768","476","f","false","img/H_ambi40.png","生人","prac",""
"","","","","","html-keyboard-response","54","193930","0.0-7.0-0.0-1.21","null","<span class='add_' style='color:yellow; font-size: 70px;'> 太慢! </span>","null","","","","","","","","","","","","","","","","","","","","","","","feedback_test"
"","","","","","psychophysics","55","196434","0.0-7.0-0.0-0.22","null","","null","","","","","","","","","","","","","key","null","6.436162790697708","768","476","f","false","img/S_ambi40.png","生人","prac",""
"","","","","","html-keyboard-response","56","196938","0.0-7.0-0.0-1.22","null","<span class='add_' style='color:yellow; font-size: 70px;'> 太慢! </span>","null","","","","","","","","","","","","","","","","","","","","","","","feedback_test"
"","","","","","psychophysics","57","199155","0.0-7.0-0.0-0.23","1212","","j","","","","","","","","","","","","","key","j","6.412671511627915","768","476","f","false","img/C_ambi40.png","朋友","prac",""
"","","","","","html-keyboard-response","58","199668","0.0-7.0-0.0-1.23","null","<span style='color:red; font-size: 70px;'>错误! </span>","null","","","","","","","","","","","","","","","","","","","","","","","feedback_test"
"","","","","","psychophysics","59","201242","0.0-7.0-0.0-0.24","572","","j","","","","","","","","","","","","","key","j","6.24933600000001","768","476","j","true","img/T_ambi40.png","をる","prac",""
"","","","","","html-keyboard-response","60","201747","0.0-7.0-0.0-1.24","null","<span style='color:GreenYellow; font-size: 70px;'>正确! </span>","null","","","","","","","","","","","","","","","","","","","","","","","feedback_test"
"","","","","","psychophysics","61","204139","0.0-7.0-0.0-0.25","1390","","j","","","","","","","","","","","","","key","j","6.281912928759898","768","476","j","true","img/C_ambi40.png","生人","prac",""
"","","","","","html-keyboard-response","62","204640","0.0-7.0-0.0-1.25","null","<span style='color:GreenYellow; font-size: 70px;'>正确! </span>","null","","","","","","","","","","","","","","","","","","","","","","","feedback_test"
"","","","","","psychophysics","63","206355","0.0-7.0-0.0-0.26","709","","j","","","","","","","","","","","","","key","j","6.354223880597018","768","476","j","true","img/C_ambi40.png","生人","prac",""
"","","","","","html-keyboard-response","64","206870","0.0-7.0-0.0-1.26","null","<span style='color:GreenYellow; font-size: 70px;'>正确! </span>","null","","","","","","","","","","","","","","","","","","","","","","","feedback_test"
"","","","","","psychophysics","65","208844","0.0-7.0-0.0-0.27","972","","f","","","","","","","","","","","","","key","f","6.1556332288401165","768","476","f","true","img/C_ambi40.png","自我","prac",""
"","","","","","html-keyboard-response","66","209352","0.0-7.0-0.0-1.27","null","<span style='color:GreenYellow; font-size: 70px;'>正确! </span>","null","","","","","","","","","","","","","","","","","","","","","","","feedback_test"
"","","","","","psychophysics","67","211539","0.0-7.0-0.0-0.28","1184","","j","","","","","","","","","","","","","key","j","6.39875659824054","768","476","j","true","img/S_ambi40.png","朋友","prac",""
"","","","","","html-keyboard-response","68","212054","0.0-7.0-0.0-1.28","null","<span style='color:GreenYellow; font-size: 70px;'>正确! </span>","null","","","","","","","","","","","","","","","","","","","","","","","feedback_test"
"","","","","","psychophysics","69","213859","0.0-7.0-0.0-0.29","801","","j","","","","","","","","","","","","","key","j","6.249791666666675","768","476","j","true","img/S_ambi40.png","朋友","prac",""
"","","","","","html-keyboard-response","70","214369","0.0-7.0-0.0-1.29","null","<span style='color:GreenYellow; font-size: 70px;'>正确! </span>","null","","","","","","","","","","","","","","","","","","","","","","","feedback_test"
"","","","","","psychophysics","71","216275","0.0-7.0-0.0-0.30","902","","j","","","","","","","","","","","","","key","j","6.260656765676542","768","476","j","true","img/H_ambi40.png","自我","prac",""
"","","","","","html-keyboard-response","72","216783","0.0-7.0-0.0-1.30","null","<span style='color:GreenYellow; font-size: 70px;'>正确! </span>","null","","","","","","","","","","","","","","","","","","","","","","","feedback_test"
"","","","","","psychophysics","73","218339","0.0-7.0-0.0-0.31","553","","j","","","","","","","","","","","","","key","j","6.332191836734644","768","476","j","true","img/T_ambi40.png","をる","prac",""
"","","","","","html-keyboard-response","74","218841","0.0-7.0-0.0-1.31","null","<span style='color:GreenYellow; font-size: 70px;'>正确! </span>","null","","","","","","","","","","","","","","","","","","","","","","","feedback_test"
"","","","","","html-keyboard-response","75","230762","0.0-8.0","11920","<style>.context{color:white; font-size: 35px; line-height:40px}</style>                          <div><p class='context'>您正确回答了81% 的试次。</p ><p class='context'>您的平均反应时为895毫秒。</p ><p class='context'>恭喜您完成练习。按任意键进入正式实验。</p ><p class='footer' style='font-size: 35px; line-height:40px;'>请在进入正式实验实验之前将您的<span style='color: lightgreen;'>食指</span>放在电脑键盘的相应键位上进行按键。</p >","j","","","","","","","","","","","","","","","","","","","","","","",""
"","","","","","psychophysics","76","232539","0.0-9.0-0.0-0.0-0.0-0.0","772","","j","","","","","","","","","","","","","key","j","6.188430069930082","768","476","j","true","img/H_ambi40.png","自我","same",""
"","","","","","html-keyboard-response","77","233045","0.0-9.0-0.0-0.0-0.0-1.0","null","<span style='color:GreenYellow; font-size: 70px;'>正确! </span>","null","","","","","","","","","","","","","","","","","","","","","","","feedback_test"
"","","","","","psychophysics","78","234939","0.0-9.0-0.0-0.0-0.0-0.1","891","","f","","","","","","","","","","","","","key","f","6.455243150684971","768","476","f","true","img/S_ambi40.png","自我","same",""
"","","","","","html-keyboard-response","79","235448","0.0-9.0-0.0-0.0-0.0-1.1","null","<span style='color:GreenYellow; font-size: 70px;'>正确! </span>","null","","","","","","","","","","","","","","","","","","","","","","","feedback_test"
"","","","","","psychophysics","80","237331","0.0-9.0-0.0-0.0-0.0-0.2","879","","j","","","","","","","","","","","","","key","j","6.100664495114038","768","476","f","false","img/S_ambi40.png","生人","same",""
"","","","","","html-keyboard-response","81","237843","0.0-9.0-0.0-0.0-0.0-1.2","null","<span style='color:red; font-size: 70px;'>错误! </span>","null","","","","","","","","","","","","","","","","","","","","","","","feedback_test"
"","","","","","psychophysics","82","239906","0.0-9.0-0.0-0.0-0.0-0.3","1060","","j","","","","","","","","","","","","","key","j","6.096875370919873","768","476","j","true","img/C_ambi40.png","生人","same",""
"","","","","","html-keyboard-response","83","240416","0.0-9.0-0.0-0.0-0.0-1.3","null","<span style='color:GreenYellow; font-size: 70px;'>正确! </span>","null","","","","","","","","","","","","","","","","","","","","","","","feedback_test"
"","","","","","psychophysics","84","242195","0.0-9.0-0.0-0.0-0.0-0.4","779","","f","","","","","","","","","","","","","key","f","6.231496478873223","768","476","f","true","img/H_ambi40.png","生人","same",""
"","","","","","html-keyboard-response","85","242699","0.0-9.0-0.0-0.0-0.0-1.4","null","<span style='color:GreenYellow; font-size: 70px;'>正确! </span>","null","","","","","","","","","","","","","","","","","","","","","","","feedback_test"
"","","","","","psychophysics","86","245139","0.0-9.0-0.0-0.0-0.0-0.5","1438","","f","","","","","","","","","","","","","key","f","6.1682455696202405","768","476","f","true","img/H_ambi40.png","朋友","same",""
"","","","","","html-keyboard-response","87","245644","0.0-9.0-0.0-0.0-0.0-1.5","null","<span style='color:GreenYellow; font-size: 70px;'>正确! </span>","null","","","","","","","","","","","","","","","","","","","","","","","feedback_test"
"","","","","","psychophysics","88","247946","0.0-9.0-0.0-0.0-0.0-0.6","1300","","j","","","","","","","","","","","","","key","j","6.174962365591425","768","476","j","true","img/C_ambi40.png","生人","same",""
"","","","","","html-keyboard-response","89","248460","0.0-9.0-0.0-0.0-0.0-1.6","null","<span style='color:GreenYellow; font-size: 70px;'>正确! </span>","null","","","","","","","","","","","","","","","","","","","","","","","feedback_test"
"","","","","","psychophysics","90","250242","0.0-9.0-0.0-0.0-0.0-0.7","778","","j","","","","","","","","","","","","","key","j","6.058576791808875","768","476","j","true","img/H_ambi40.png","自我","same",""
"","","","","","html-keyboard-response","91","250749","0.0-9.0-0.0-0.0-0.0-1.7","null","<span style='color:GreenYellow; font-size: 70px;'>正确! </span>","null","","","","","","","","","","","","","","","","","","","","","","","feedback_test"
"","","","","","psychophysics","92","252306","0.0-9.0-0.0-0.0-0.0-0.8","556","","j","","","","","","","","","","","","","key","j","6.06016470588237","768","476","j","true","img/T_ambi40.png","をる","same",""
"","","","","","html-keyboard-response","93","252814","0.0-9.0-0.0-0.0-0.0-1.8","null","<span style='color:GreenYellow; font-size: 70px;'>正确! </span>","null","","","","","","","","","","","","","","","","","","","","","","","feedback_test"
"","","","","","psychophysics","94","254651","0.0-9.0-0.0-0.0-0.0-0.9","835","","j","","","","","","","","","","","","","key","j","6.094040133779321","768","476","j","true","img/S_ambi40.png","朋友","same",""
"","","","","","html-keyboard-response","95","255168","0.0-9.0-0.0-0.0-0.0-1.9","null","<span style='color:GreenYellow; font-size: 70px;'>正确! </span>","null","","","","","","","","","","","","","","","","","","","","","","","feedback_test"
"","","","","","psychophysics","96","257011","0.0-9.0-0.0-0.0-0.0-0.10","842","","f","","","","","","","","","","","","","key","f","6.060589403973542","768","476","f","true","img/H_ambi40.png","生人","same",""
"","","","","","html-keyboard-response","97","257526","0.0-9.0-0.0-0.0-0.0-1.10","null","<span style='color:GreenYellow; font-size: 70px;'>正确! </span>","null","","","","","","","","","","","","","","","","","","","","","","","feedback_test"
"","","","","","psychophysics","98","259154","0.0-9.0-0.0-0.0-0.0-0.11","623","","j","","","","","","","","","","","","","key","j","6.152711026615972","768","476","f","false","img/C_ambi40.png","朋友","same",""
"","","","","","html-keyboard-response","99","259657","0.0-9.0-0.0-0.0-0.0-1.11","null","<span style='color:red; font-size: 70px;'>错误! </span>","null","","","","","","","","","","","","","","","","","","","","","","","feedback_test"
"","","","","","psychophysics","100","261867","0.0-9.0-0.0-0.0-0.0-0.12","1208","","j","","","","","","","","","","","","","key","j","6.074558011049618","768","476","f","false","img/C_ambi40.png","朋友","same",""
"","","","","","html-keyboard-response","101","262368","0.0-9.0-0.0-0.0-0.0-1.12","null","<span style='color:red; font-size: 70px;'>错误! </span>","null","","","","","","","","","","","","","","","","","","","","","","","feedback_test"
"","","","","","psychophysics","102","264540","0.0-9.0-0.0-0.0-0.0-0.13","1167","","f","","","","","","","","","","","","","key","f","6.111545197740178","768","476","f","true","img/C_ambi40.png","自我","same",""
"","","","","","html-keyboard-response","103","265052","0.0-9.0-0.0-0.0-0.0-1.13","null","<span style='color:GreenYellow; font-size: 70px;'>正确! </span>","null","","","","","","","","","","","","","","","","","","","","","","","feedback_test"
"","","","","","psychophysics","104","267092","0.0-9.0-0.0-0.0-0.0-0.14","1034","","j","","","","","","","","","","","","","key","j","6.152651515151515","768","476","j","true","img/S_ambi40.png","朋友","same",""
"","","","","","html-keyboard-response","105","267604","0.0-9.0-0.0-0.0-0.0-1.14","null","<span style='color:GreenYellow; font-size: 70px;'>正确! </span>","null","","","","","","","","","","","","","","","","","","","","","","","feedback_test"
"","","","","","psychophysics","106","269163","0.0-9.0-0.0-0.0-0.0-0.15","558","","j","","","","","","","","","","","","","key","j","6.156948412698555","768","476","j","true","img/T_ambi40.png","をる","same",""
"","","","","","html-keyboard-response","107","269670","0.0-9.0-0.0-0.0-0.0-1.15","null","<span style='color:GreenYellow; font-size: 70px;'>正确! </span>","null","","","","","","","","","","","","","","","","","","","","","","","feedback_test"
"","","","","","psychophysics","108","271139","0.0-9.0-0.0-0.0-0.0-0.16","467","","j","","","","","","","","","","","","","key","j","6.489862222222146","768","476","j","true","img/T_ambi40.png","をる","same",""
"","","","","","html-keyboard-response","109","271646","0.0-9.0-0.0-0.0-0.0-1.16","null","<span style='color:GreenYellow; font-size: 70px;'>正确! </span>","null","","","","","","","","","","","","","","","","","","","","","","","feedback_test"
"","","","","","psychophysics","110","273972","0.0-9.0-0.0-0.0-0.0-0.17","1325","","f","","","","","","","","","","","","","key","f","6.108654353561987","768","476","f","true","img/S_ambi40.png","自我","same",""
"","","","","","html-keyboard-response","111","274487","0.0-9.0-0.0-0.0-0.0-1.17","null","<span style='color:GreenYellow; font-size: 70px;'>正确! </span>","null","","","","","","","","","","","","","","","","","","","","","","","feedback_test"
"","","","","","psychophysics","112","276530","0.0-9.0-0.0-0.0-0.0-0.18","1041","","f","","","","","","","","","","","","","key","f","6.148045454545574","768","476","f","true","img/H_ambi40.png","生人","same",""
"","","","","","html-keyboard-response","113","277032","0.0-9.0-0.0-0.0-0.0-1.18","null","<span style='color:GreenYellow; font-size: 70px;'>正确! </span>","null","","","","","","","","","","","","","","","","","","","","","","","feedback_test"
"","","","","","psychophysics","114","278995","0.0-9.0-0.0-0.0-0.0-0.19","962","","f","","","","","","","","","","","","","key","f","6.397676470588278","768","476","f","true","img/H_ambi40.png","朋友","same",""
"","","","","","html-keyboard-response","115","279509","0.0-9.0-0.0-0.0-0.0-1.19","null","<span style='color:GreenYellow; font-size: 70px;'>正确! </span>","null","","","","","","","","","","","","","","","","","","","","","","","feedback_test"
"","","","","","psychophysics","116","281556","0.0-9.0-0.0-0.0-0.0-0.20","1046","","j","","","","","","","","","","","","","key","j","6.171239393939454","768","476","j","true","img/C_ambi40.png","生人","same",""
"","","","","","html-keyboard-response","117","282057","0.0-9.0-0.0-0.0-0.0-1.20","null","<span style='color:GreenYellow; font-size: 70px;'>正确! </span>","null","","","","","","","","","","","","","","","","","","","","","","","feedback_test"
"","","","","","psychophysics","118","283987","0.0-9.0-0.0-0.0-0.0-0.21","929","","f","","","","","","","","","","","","","key","f","6.099754777070169","768","476","f","true","img/H_ambi40.png","生人","same",""
"","","","","","html-keyboard-response","119","284501","0.0-9.0-0.0-0.0-0.0-1.21","null","<span style='color:GreenYellow; font-size: 70px;'>正确! </span>","null","","","","","","","","","","","","","","","","","","","","","","","feedback_test"
"","","","","","psychophysics","120","286452","0.0-9.0-0.0-0.0-0.0-0.22","945","","f","","","","","","","","","","","","","key","f","6.358518032786879","768","476","f","true","img/S_ambi40.png","自我","same",""
"","","","","","html-keyboard-response","121","286955","0.0-9.0-0.0-0.0-0.0-1.22","null","<span style='color:GreenYellow; font-size: 70px;'>正确! </span>","null","","","","","","","","","","","","","","","","","","","","","","","feedback_test"
"","","","","","psychophysics","122","288811","0.0-9.0-0.0-0.0-0.0-0.23","855","","f","","","","","","","","","","","","","key","f","6.202590604026758","768","476","f","true","img/C_ambi40.png","朋友","same",""
"","","","","","html-keyboard-response","123","289320","0.0-9.0-0.0-0.0-0.0-1.23","null","<span style='color:GreenYellow; font-size: 70px;'>正确! </span>","null","","","","","","","","","","","","","","","","","","","","","","","feedback_test"
"","","","","","psychophysics","124","291443","0.0-9.0-0.0-0.0-0.0-0.24","1118","","j","","","","","","","","","","","","","key","j","6.1488401162790725","768","476","j","true","img/C_ambi40.png","生人","same",""
"","","","","","html-keyboard-response","125","291948","0.0-9.0-0.0-0.0-0.0-1.24","null","<span style='color:GreenYellow; font-size: 70px;'>正确! </span>","null","","","","","","","","","","","","","","","","","","","","","","","feedback_test"
"","","","","","psychophysics","126","293780","0.0-9.0-0.0-0.0-0.0-0.25","831","","f","","","","","","","","","","","","","key","f","6.138770270270274","768","476","j","false","img/S_ambi40.png","朋友","same",""
"","","","","","html-keyboard-response","127","294291","0.0-9.0-0.0-0.0-0.0-1.25","null","<span style='color:red; font-size: 70px;'>错误! </span>","null","","","","","","","","","","","","","","","","","","","","","","","feedback_test"
"","","","","","psychophysics","128","296396","0.0-9.0-0.0-0.0-0.0-0.26","1101","","f","","","","","","","","","","","","","key","f","6.131649122807117","768","476","f","true","img/C_ambi40.png","朋友","same",""
"","","","","","html-keyboard-response","129","296908","0.0-9.0-0.0-0.0-0.0-1.26","null","<span style='color:GreenYellow; font-size: 70px;'>正确! </span>","null","","","","","","","","","","","","","","","","","","","","","","","feedback_test"
"","","","","","psychophysics","130","298450","0.0-9.0-0.0-0.0-0.0-0.27","539","","j","","","","","","","","","","","","","key","j","6.259840163934478","768","476","j","true","img/T_ambi40.png","をる","same",""
"","","","","","html-keyboard-response","131","298954","0.0-9.0-0.0-0.0-0.0-1.27","null","<span style='color:GreenYellow; font-size: 70px;'>正确! </span>","null","","","","","","","","","","","","","","","","","","","","","","","feedback_test"
"","","","","","psychophysics","132","300475","0.0-9.0-0.0-0.0-0.0-0.28","519","","j","","","","","","","","","","","","","key","j","6.206308641975196","768","476","j","true","img/T_ambi40.png","をる","same",""
"","","","","","html-keyboard-response","133","300990","0.0-9.0-0.0-0.0-0.0-1.28","null","<span style='color:GreenYellow; font-size: 70px;'>正确! </span>","null","","","","","","","","","","","","","","","","","","","","","","","feedback_test"
"","","","","","psychophysics","134","303494","0.0-9.0-0.0-0.0-0.0-0.29","null","","null","","","","","","","","","","","","","key","null","6.337173027989725","768","476","j","false","img/S_ambi40.png","朋友","same",""
"","","","","","html-keyboard-response","135","304004","0.0-9.0-0.0-0.0-0.0-1.29","null","<span class='add_' style='color:yellow; font-size: 70px;'> 太慢! </span>","null","","","","","","","","","","","","","","","","","","","","","","","feedback_test"
"","","","","","psychophysics","136","305836","0.0-9.0-0.0-0.0-0.0-0.30","831","","f","","","","","","","","","","","","","key","f","6.18376610169495","768","476","f","true","img/C_ambi40.png","自我","same",""
"","","","","","html-keyboard-response","137","306340","0.0-9.0-0.0-0.0-0.0-1.30","null","<span style='color:GreenYellow; font-size: 70px;'>正确! </span>","null","","","","","","","","","","","","","","","","","","","","","","","feedback_test"
"","","","","","psychophysics","138","308491","0.0-9.0-0.0-0.0-0.0-0.31","1148","","j","","","","","","","","","","","","","key","j","6.255230320699692","768","476","f","false","img/S_ambi40.png","自我","same",""
"","","","","","html-keyboard-response","139","309000","0.0-9.0-0.0-0.0-0.0-1.31","null","<span style='color:red; font-size: 70px;'>错误! </span>","null","","","","","","","","","","","","","","","","","","","","","","","feedback_test"
"","","","","","psychophysics","140","310651","0.0-9.0-0.0-0.0-0.0-0.32","647","","j","","","","","","","","","","","","","key","j","6.4161796874998345","768","476","j","true","img/T_ambi40.png","をる","same",""
"","","","","","html-keyboard-response","141","311162","0.0-9.0-0.0-0.0-0.0-1.32","null","<span style='color:GreenYellow; font-size: 70px;'>正确! </span>","null","","","","","","","","","","","","","","","","","","","","","","","feedback_test"
"","","","","","psychophysics","142","313194","0.0-9.0-0.0-0.0-0.0-0.33","1027","","f","","","","","","","","","","","","","key","f","6.323593749999963","768","476","j","false","img/H_ambi40.png","自我","same",""
"","","","","","html-keyboard-response","143","313697","0.0-9.0-0.0-0.0-0.0-1.33","null","<span style='color:red; font-size: 70px;'>错误! </span>","null","","","","","","","","","","","","","","","","","","","","","","","feedback_test"
"","","","","","psychophysics","144","315387","0.0-9.0-0.0-0.0-0.0-0.34","687","","j","","","","","","","","","","","","","key","j","6.4063498098859135","768","476","j","true","img/H_ambi40.png","自我","same",""
"","","","","","html-keyboard-response","145","315901","0.0-9.0-0.0-0.0-0.0-1.34","null","<span style='color:GreenYellow; font-size: 70px;'>正确! </span>","null","","","","","","","","","","","","","","","","","","","","","","","feedback_test"
"","","","","","psychophysics","146","317995","0.0-9.0-0.0-0.0-0.0-0.35","1088","","j","","","","","","","","","","","","","key","j","6.168520710059234","768","476","f","false","img/S_ambi40.png","生人","same",""
"","","","","","html-keyboard-response","147","318502","0.0-9.0-0.0-0.0-0.0-1.35","null","<span style='color:red; font-size: 70px;'>错误! </span>","null","","","","","","","","","","","","","","","","","","","","","","","feedback_test"
"","","","","","psychophysics","148","320602","0.0-9.0-0.0-0.0-0.0-0.36","1096","","f","","","","","","","","","","","","","key","f","6.204878338278915","768","476","f","true","img/C_ambi40.png","朋友","same",""
"","","","","","html-keyboard-response","149","321110","0.0-9.0-0.0-0.0-0.0-1.36","null","<span style='color:GreenYellow; font-size: 70px;'>正确! </span>","null","","","","","","","","","","","","","","","","","","","","","","","feedback_test"
"","","","","","psychophysics","150","323418","0.0-9.0-0.0-0.0-0.0-0.37","1306","","j","","","","","","","","","","","","","key","j","6.326857142857209","768","476","f","false","img/S_ambi40.png","自我","same",""
"","","","","","html-keyboard-response","151","323929","0.0-9.0-0.0-0.0-0.0-1.37","null","<span style='color:red; font-size: 70px;'>错误! </span>","null","","","","","","","","","","","","","","","","","","","","","","","feedback_test"
"","","","","","psychophysics","152","326082","0.0-9.0-0.0-0.0-0.0-0.38","1151","","j","","","","","","","","","","","","","key","j","6.218930434782659","768","476","j","true","img/S_ambi40.png","朋友","same",""
"","","","","","html-keyboard-response","153","326587","0.0-9.0-0.0-0.0-0.0-1.38","null","<span style='color:GreenYellow; font-size: 70px;'>正确! </span>","null","","","","","","","","","","","","","","","","","","","","","","","feedback_test"
"","","","","","psychophysics","154","328603","0.0-9.0-0.0-0.0-0.0-0.39","1012","","f","","","","","","","","","","","","","key","f","6.211164086687324","768","476","j","false","img/H_ambi40.png","自我","same",""
"","","","","","html-keyboard-response","155","329118","0.0-9.0-0.0-0.0-0.0-1.39","null","<span style='color:red; font-size: 70px;'>错误! </span>","null","","","","","","","","","","","","","","","","","","","","","","","feedback_test"
"","","","","","psychophysics","156","331619","0.0-9.0-0.0-0.0-0.0-0.40","1500","","f","","","","","","","","","","","","","key","f","6.302151898734266","768","476","f","true","img/C_ambi40.png","朋友","same",""
"","","","","","html-keyboard-response","157","332124","0.0-9.0-0.0-0.0-0.0-1.40","null","<span style='color:GreenYellow; font-size: 70px;'>正确! </span>","null","","","","","","","","","","","","","","","","","","","","","","","feedback_test"
"","","","","","psychophysics","158","333707","0.0-9.0-0.0-0.0-0.0-0.41","581","","j","","","","","","","","","","","","","key","j","6.098677042801502","768","476","j","true","img/T_ambi40.png","をる","same",""
"","","","","","html-keyboard-response","159","334213","0.0-9.0-0.0-0.0-0.0-1.41","null","<span style='color:GreenYellow; font-size: 70px;'>正确! </span>","null","","","","","","","","","","","","","","","","","","","","","","","feedback_test"
"","","","","","psychophysics","160","336292","0.0-9.0-0.0-0.0-0.0-0.42","1074","","j","","","","","","","","","","","","","key","j","6.358116564417131","768","476","j","true","img/S_ambi40.png","朋友","same",""
"","","","","","html-keyboard-response","161","336804","0.0-9.0-0.0-0.0-0.0-1.42","null","<span style='color:GreenYellow; font-size: 70px;'>正确! </span>","null","","","","","","","","","","","","","","","","","","","","","","","feedback_test"
"","","","","","psychophysics","162","338387","0.0-9.0-0.0-0.0-0.0-0.43","582","","j","","","","","","","","","","","","","key","j","6.303248995984016","768","476","j","true","img/T_ambi40.png","をる","same",""
"","","","","","html-keyboard-response","163","338902","0.0-9.0-0.0-0.0-0.0-1.43","null","<span style='color:GreenYellow; font-size: 70px;'>正确! </span>","null","","","","","","","","","","","","","","","","","","","","","","","feedback_test"
"","","","","","psychophysics","164","341404","0.0-9.0-0.0-0.0-0.0-0.44","null","","null","","","","","","","","","","","","","key","null","6.105139705882346","768","476","f","false","img/S_ambi40.png","生人","same",""
"","","","","","html-keyboard-response","165","341916","0.0-9.0-0.0-0.0-0.0-1.44","null","<span class='add_' style='color:yellow; font-size: 70px;'> 太慢! </span>","null","","","","","","","","","","","","","","","","","","","","","","","feedback_test"
"","","","","","psychophysics","166","343747","0.0-9.0-0.0-0.0-0.0-0.45","827","","f","","","","","","","","","","","","","key","f","6.312467128027731","768","476","f","true","img/H_ambi40.png","生人","same",""
"","","","","","html-keyboard-response","167","344260","0.0-9.0-0.0-0.0-0.0-1.45","null","<span style='color:GreenYellow; font-size: 70px;'>正确! </span>","null","","","","","","","","","","","","","","","","","","","","","","","feedback_test"
"","","","","","psychophysics","168","346154","0.0-9.0-0.0-0.0-0.0-0.46","893","","j","","","","","","","","","","","","","key","j","6.099854368931979","768","476","j","true","img/H_ambi40.png","自我","same",""
"","","","","","html-keyboard-response","169","346662","0.0-9.0-0.0-0.0-0.0-1.46","null","<span style='color:GreenYellow; font-size: 70px;'>正确! </span>","null","","","","","","","","","","","","","","","","","","","","","","","feedback_test"
"","","","","","psychophysics","170","348842","0.0-9.0-0.0-0.0-0.0-0.47","1178","","f","","","","","","","","","","","","","key","f","6.146124293785318","768","476","f","true","img/H_ambi40.png","朋友","same",""
"","","","","","html-keyboard-response","171","349348","0.0-9.0-0.0-0.0-0.0-1.47","null","<span style='color:GreenYellow; font-size: 70px;'>正确! </span>","null","","","","","","","","","","","","","","","","","","","","","","","feedback_test"
"","","","","","psychophysics","172","351851","0.0-9.0-0.0-0.0-0.0-0.48","1501","","j","","","","","","","","","","","","","key","j","6.271584382871435","768","476","j","true","img/C_ambi40.png","生人","same",""
"","","","","","html-keyboard-response","173","352367","0.0-9.0-0.0-0.0-0.0-1.48","null","<span class='add_' style='color:yellow; font-size: 70px;'> 太慢! </span>","null","","","","","","","","","","","","","","","","","","","","","","","feedback_test"
"","","","","","psychophysics","174","354722","0.0-9.0-0.0-0.0-0.0-0.49","1354","","f","","","","","","","","","","","","","key","f","6.204373015872931","768","476","j","false","img/C_ambi40.png","生人","same",""
"","","","","","html-keyboard-response","175","355229","0.0-9.0-0.0-0.0-0.0-1.49","null","<span style='color:red; font-size: 70px;'>错误! </span>","null","","","","","","","","","","","","","","","","","","","","","","","feedback_test"
"","","","","","psychophysics","176","356883","0.0-9.0-0.0-0.0-0.0-0.50","649","","j","","","","","","","","","","","","","key","j","6.174270676691838","768","476","f","false","img/S_ambi40.png","自我","same",""
"","","","","","html-keyboard-response","177","357394","0.0-9.0-0.0-0.0-0.0-1.50","null","<span style='color:red; font-size: 70px;'>错误! </span>","null","","","","","","","","","","","","","","","","","","","","","","","feedback_test"
"","","","","","psychophysics","178","359818","0.0-9.0-0.0-0.0-0.0-0.51","1421","","f","","","","","","","","","","","","","key","f","6.431172872340385","768","476","f","true","img/H_ambi40.png","生人","same",""
"","","","","","html-keyboard-response","179","360325","0.0-9.0-0.0-0.0-0.0-1.51","null","<span style='color:GreenYellow; font-size: 70px;'>正确! </span>","null","","","","","","","","","","","","","","","","","","","","","","","feedback_test"
"","","","","","psychophysics","180","362498","0.0-9.0-0.0-0.0-0.0-0.52","1171","","f","","","","","","","","","","","","","key","f","6.1994412607450995","768","476","f","true","img/C_ambi40.png","自我","same",""
"","","","","","html-keyboard-response","181","363006","0.0-9.0-0.0-0.0-0.0-1.52","null","<span style='color:GreenYellow; font-size: 70px;'>正确! </span>","null","","","","","","","","","","","","","","","","","","","","","","","feedback_test"
"","","","","","psychophysics","182","364956","0.0-9.0-0.0-0.0-0.0-0.53","946","","j","","","","","","","","","","","","","key","j","6.216692307692145","768","476","j","true","img/T_ambi40.png","をる","same",""
"","","","","","html-keyboard-response","183","365462","0.0-9.0-0.0-0.0-0.0-1.53","null","<span style='color:GreenYellow; font-size: 70px;'>正确! </span>","null","","","","","","","","","","","","","","","","","","","","","","","feedback_test"
"","","","","","psychophysics","184","367474","0.0-9.0-0.0-0.0-0.0-0.54","1010","","f","","","","","","","","","","","","","key","f","6.489551948051969","768","476","f","true","img/S_ambi40.png","自我","same",""
"","","","","","html-keyboard-response","185","367980","0.0-9.0-0.0-0.0-0.0-1.54","null","<span style='color:GreenYellow; font-size: 70px;'>正确! </span>","null","","","","","","","","","","","","","","","","","","","","","","","feedback_test"
"","","","","","psychophysics","186","370307","0.0-9.0-0.0-0.0-0.0-0.55","1325","","f","","","","","","","","","","","","","key","f","6.4658966480446045","768","476","f","true","img/S_ambi40.png","生人","same",""
"","","","","","html-keyboard-response","187","370813","0.0-9.0-0.0-0.0-0.0-1.55","null","<span style='color:GreenYellow; font-size: 70px;'>正确! </span>","null","","","","","","","","","","","","","","","","","","","","","","","feedback_test"
"","","","","","psychophysics","188","373053","0.0-9.0-0.0-0.0-0.0-0.56","1238","","j","","","","","","","","","","","","","key","j","6.317355932203341","768","476","j","true","img/C_ambi40.png","生人","same",""
"","","","","","html-keyboard-response","189","373558","0.0-9.0-0.0-0.0-0.0-1.56","null","<span style='color:GreenYellow; font-size: 70px;'>正确! </span>","null","","","","","","","","","","","","","","","","","","","","","","","feedback_test"
"","","","","","psychophysics","190","375195","0.0-9.0-0.0-0.0-0.0-0.57","634","","j","","","","","","","","","","","","","key","j","6.222984732824505","768","476","j","true","img/T_ambi40.png","をる","same",""
"","","","","","html-keyboard-response","191","375698","0.0-9.0-0.0-0.0-0.0-1.57","null","<span style='color:GreenYellow; font-size: 70px;'>正确! </span>","null","","","","","","","","","","","","","","","","","","","","","","","feedback_test"
"","","","","","psychophysics","192","377842","0.0-9.0-0.0-0.0-0.0-0.58","1142","","j","","","","","","","","","","","","","key","j","6.183699421965311","768","476","j","true","img/C_ambi40.png","生人","same",""
"","","","","","html-keyboard-response","193","378345","0.0-9.0-0.0-0.0-0.0-1.58","null","<span style='color:GreenYellow; font-size: 70px;'>正确! </span>","null","","","","","","","","","","","","","","","","","","","","","","","feedback_test"
"","","","","","psychophysics","194","380282","0.0-9.0-0.0-0.0-0.0-0.59","933","","f","","","","","","","","","","","","","key","f","6.217393548387073","768","476","f","true","img/C_ambi40.png","自我","same",""
"","","","","","html-keyboard-response","195","380791","0.0-9.0-0.0-0.0-0.0-1.59","null","<span style='color:GreenYellow; font-size: 70px;'>正确! </span>","null","","","","","","","","","","","","","","","","","","","","","","","feedback_test"
"","","","","","psychophysics","196","382707","0.0-9.0-0.0-0.0-0.0-0.60","915","","j","","","","","","","","","","","","","key","j","6.178733766233728","768","476","j","true","img/H_ambi40.png","自我","same",""
"","","","","","html-keyboard-response","197","383218","0.0-9.0-0.0-0.0-0.0-1.60","null","<span style='color:GreenYellow; font-size: 70px;'>正确! </span>","null","","","","","","","","","","","","","","","","","","","","","","","feedback_test"
"","","","","","psychophysics","198","385724","0.0-9.0-0.0-0.0-0.0-0.61","null","","null","","","","","","","","","","","","","key","null","6.306111392405037","768","476","f","false","img/C_ambi40.png","朋友","same",""
"","","","","","html-keyboard-response","199","386237","0.0-9.0-0.0-0.0-0.0-1.61","null","<span class='add_' style='color:yellow; font-size: 70px;'> 太慢! </span>","null","","","","","","","","","","","","","","","","","","","","","","","feedback_test"
"","","","","","psychophysics","200","388122","0.0-9.0-0.0-0.0-0.0-0.62","882","","j","","","","","","","","","","","","","key","j","6.30305369127516","768","476","j","true","img/H_ambi40.png","自我","same",""
"","","","","","html-keyboard-response","201","388630","0.0-9.0-0.0-0.0-0.0-1.62","null","<span style='color:GreenYellow; font-size: 70px;'>正确! </span>","null","","","","","","","","","","","","","","","","","","","","","","","feedback_test"
"","","","","","psychophysics","202","390187","0.0-9.0-0.0-0.0-0.0-0.63","553","","j","","","","","","","","","","","","","key","j","6.464754166666777","768","476","j","true","img/T_ambi40.png","をる","same",""
"","","","","","html-keyboard-response","203","390701","0.0-9.0-0.0-0.0-0.0-1.63","null","<span style='color:GreenYellow; font-size: 70px;'>正确! </span>","null","","","","","","","","","","","","","","","","","","","","","","","feedback_test"
"","","","","","psychophysics","204","392681","0.0-9.0-0.0-0.0-0.0-0.64","975","","f","","","","","","","","","","","","","key","f","6.2322088607595765","768","476","f","true","img/H_ambi40.png","生人","same",""
"","","","","","html-keyboard-response","205","393193","0.0-9.0-0.0-0.0-0.0-1.64","null","<span style='color:GreenYellow; font-size: 70px;'>正确! </span>","null","","","","","","","","","","","","","","","","","","","","","","","feedback_test"
"","","","","","psychophysics","206","395507","0.0-9.0-0.0-0.0-0.0-0.65","1308","","f","","","","","","","","","","","","","key","f","6.37960941828252","768","476","f","true","img/C_ambi40.png","朋友","same",""
"","","","","","html-keyboard-response","207","396018","0.0-9.0-0.0-0.0-0.0-1.65","null","<span style='color:GreenYellow; font-size: 70px;'>正确! </span>","null","","","","","","","","","","","","","","","","","","","","","","","feedback_test"
"","","","","","psychophysics","208","397778","0.0-9.0-0.0-0.0-0.0-0.66","755","","j","","","","","","","","","","","","","key","j","6.231540925266781","768","476","f","false","img/H_ambi40.png","朋友","same",""
"","","","","","html-keyboard-response","209","398290","0.0-9.0-0.0-0.0-0.0-1.66","null","<span style='color:red; font-size: 70px;'>错误! </span>","null","","","","","","","","","","","","","","","","","","","","","","","feedback_test"
"","","","","","psychophysics","210","400659","0.0-9.0-0.0-0.0-0.0-0.67","1365","","f","","","","","","","","","","","","","key","f","6.270045212765988","768","476","f","true","img/S_ambi40.png","自我","same",""
"","","","","","html-keyboard-response","211","401166","0.0-9.0-0.0-0.0-0.0-1.67","null","<span style='color:GreenYellow; font-size: 70px;'>正确! </span>","null","","","","","","","","","","","","","","","","","","","","","","","feedback_test"
"","","","","","psychophysics","212","402786","0.0-9.0-0.0-0.0-0.0-0.68","619","","j","","","","","","","","","","","","","key","j","6.245175781249827","768","476","j","true","img/T_ambi40.png","をる","same",""
"","","","","","html-keyboard-response","213","403296","0.0-9.0-0.0-0.0-0.0-1.68","null","<span style='color:GreenYellow; font-size: 70px;'>正确! </span>","null","","","","","","","","","","","","","","","","","","","","","","","feedback_test"
"","","","","","psychophysics","214","405674","0.0-9.0-0.0-0.0-0.0-0.69","1374","","j","","","","","","","","","","","","","key","j","6.171057291666632","768","476","j","true","img/S_ambi40.png","朋友","same",""
"","","","","","html-keyboard-response","215","406177","0.0-9.0-0.0-0.0-0.0-1.69","null","<span style='color:GreenYellow; font-size: 70px;'>正确! </span>","null","","","","","","","","","","","","","","","","","","","","","","","feedback_test"
"","","","","","psychophysics","216","408308","0.0-9.0-0.0-0.0-0.0-0.70","1128","","f","","","","","","","","","","","","","key","f","6.2013002915451105","768","476","f","true","img/H_ambi40.png","生人","same",""
"","","","","","html-keyboard-response","217","408809","0.0-9.0-0.0-0.0-0.0-1.70","null","<span style='color:GreenYellow; font-size: 70px;'>正确! </span>","null","","","","","","","","","","","","","","","","","","","","","","","feedback_test"
"","","","","","psychophysics","218","411312","0.0-9.0-0.0-0.0-0.0-0.71","null","","null","","","","","","","","","","","","","key","null","6.3703836317135725","768","476","j","false","img/S_ambi40.png","朋友","same",""
"","","","","","html-keyboard-response","219","411818","0.0-9.0-0.0-0.0-0.0-1.71","null","<span class='add_' style='color:yellow; font-size: 70px;'> 太慢! </span>","null","","","","","","","","","","","","","","","","","","","","","","","feedback_test"
"","","","","","psychophysics","220","413330","0.0-9.0-0.0-0.0-0.0-0.72","507","","j","","","","","","","","","","","","","key","j","6.237182572613957","768","476","j","true","img/T_ambi40.png","をる","same",""
"","","","","","html-keyboard-response","221","413839","0.0-9.0-0.0-0.0-0.0-1.72","null","<span style='color:GreenYellow; font-size: 70px;'>正确! </span>","null","","","","","","","","","","","","","","","","","","","","","","","feedback_test"
"","","","","","psychophysics","222","415842","0.0-9.0-0.0-0.0-0.0-0.73","1002","","f","","","","","","","","","","","","","key","f","6.228456249999908","768","476","f","true","img/S_ambi40.png","生人","same",""
"","","","","","html-keyboard-response","223","416355","0.0-9.0-0.0-0.0-0.0-1.73","null","<span style='color:GreenYellow; font-size: 70px;'>正确! </span>","null","","","","","","","","","","","","","","","","","","","","","","","feedback_test"
"","","","","","psychophysics","224","418858","0.0-9.0-0.0-0.0-0.0-0.74","null","","null","","","","","","","","","","","","","key","null","6.288496202531659","768","476","j","false","img/C_ambi40.png","生人","same",""
"","","","","","html-keyboard-response","225","419365","0.0-9.0-0.0-0.0-0.0-1.74","null","<span class='add_' style='color:yellow; font-size: 70px;'> 太慢! </span>","null","","","","","","","","","","","","","","","","","","","","","","","feedback_test"
"","","","","","psychophysics","226","421450","0.0-9.0-0.0-0.0-0.0-0.75","1083","","f","","","","","","","","","","","","","key","f","6.183271641791069","768","476","f","true","img/H_ambi40.png","朋友","same",""
"","","","","","html-keyboard-response","227","421955","0.0-9.0-0.0-0.0-0.0-1.75","null","<span style='color:GreenYellow; font-size: 70px;'>正确! </span>","null","","","","","","","","","","","","","","","","","","","","","","","feedback_test"
"","","","","","psychophysics","228","423554","0.0-9.0-0.0-0.0-0.0-0.76","593","","j","","","","","","","","","","","","","key","j","6.322705179282911","768","476","j","true","img/T_ambi40.png","をる","same",""
"","","","","","html-keyboard-response","229","424057","0.0-9.0-0.0-0.0-0.0-1.76","null","<span style='color:GreenYellow; font-size: 70px;'>正确! </span>","null","","","","","","","","","","","","","","","","","","","","","","","feedback_test"
"","","","","","psychophysics","230","426203","0.0-9.0-0.0-0.0-0.0-0.77","1145","","f","","","","","","","","","","","","","key","f","6.346014880952377","768","476","f","true","img/C_ambi40.png","朋友","same",""
"","","","","","html-keyboard-response","231","426711","0.0-9.0-0.0-0.0-0.0-1.77","null","<span style='color:GreenYellow; font-size: 70px;'>正确! </span>","null","","","","","","","","","","","","","","","","","","","","","","","feedback_test"
"","","","","","psychophysics","232","428996","0.0-9.0-0.0-0.0-0.0-0.78","1283","","f","","","","","","","","","","","","","key","f","6.416627118643998","768","476","f","true","img/H_ambi40.png","生人","same",""
"","","","","","html-keyboard-response","233","429509","0.0-9.0-0.0-0.0-0.0-1.78","null","<span style='color:GreenYellow; font-size: 70px;'>正确! </span>","null","","","","","","","","","","","","","","","","","","","","","","","feedback_test"
"","","","","","psychophysics","234","431666","0.0-9.0-0.0-0.0-0.0-0.79","1157","","j","","","","","","","","","","","","","key","j","6.364920118343176","768","476","j","true","img/T_ambi40.png","をる","same",""
"","","","","","html-keyboard-response","235","432171","0.0-9.0-0.0-0.0-0.0-1.79","null","<span style='color:GreenYellow; font-size: 70px;'>正确! </span>","null","","","","","","","","","","","","","","","","","","","","","","","feedback_test"
"","","","","","psychophysics","236","434459","0.0-9.0-0.0-0.0-0.0-0.80","1286","","j","","","","","","","","","","","","","key","j","6.420067796610246","768","476","j","true","img/H_ambi40.png","自我","same",""
"","","","","","html-keyboard-response","237","434970","0.0-9.0-0.0-0.0-0.0-1.80","null","<span style='color:GreenYellow; font-size: 70px;'>正确! </span>","null","","","","","","","","","","","","","","","","","","","","","","","feedback_test"
"","","","","","psychophysics","238","436715","0.0-9.0-0.0-0.0-0.0-0.81","742","","f","","","","","","","","","","","","","key","f","6.190138790035601","768","476","f","true","img/H_ambi40.png","生人","same",""
"","","","","","html-keyboard-response","239","437227","0.0-9.0-0.0-0.0-0.0-1.81","null","<span style='color:GreenYellow; font-size: 70px;'>正确! </span>","null","","","","","","","","","","","","","","","","","","","","","","","feedback_test"
"","","","","","psychophysics","240","439643","0.0-9.0-0.0-0.0-0.0-0.82","1415","","j","","","","","","","","","","","","","key","j","6.184460154241657","768","476","j","true","img/S_ambi40.png","朋友","same",""
"","","","","","html-keyboard-response","241","440146","0.0-9.0-0.0-0.0-0.0-1.82","null","<span style='color:GreenYellow; font-size: 70px;'>正确! </span>","null","","","","","","","","","","","","","","","","","","","","","","","feedback_test"
"","","","","","psychophysics","242","442299","0.0-9.0-0.0-0.0-0.0-0.83","1149","","j","","","","","","","","","","","","","key","j","6.2368546511627985","768","476","j","true","img/C_ambi40.png","生人","same",""
"","","","","","html-keyboard-response","243","442801","0.0-9.0-0.0-0.0-0.0-1.83","null","<span style='color:GreenYellow; font-size: 70px;'>正确! </span>","null","","","","","","","","","","","","","","","","","","","","","","","feedback_test"
"","","","","","psychophysics","244","444698","0.0-9.0-0.0-0.0-0.0-0.84","894","","j","","","","","","","","","","","","","key","j","6.198508196721449","768","476","j","true","img/S_ambi40.png","朋友","same",""
"","","","","","html-keyboard-response","245","445203","0.0-9.0-0.0-0.0-0.0-1.84","null","<span style='color:GreenYellow; font-size: 70px;'>正确! </span>","null","","","","","","","","","","","","","","","","","","","","","","","feedback_test"
"","","","","","psychophysics","246","446686","0.0-9.0-0.0-0.0-0.0-0.85","481","","j","","","","","","","","","","","","","key","j","6.375086580086661","768","476","j","true","img/H_ambi40.png","自我","same",""
"","","","","","html-keyboard-response","247","447195","0.0-9.0-0.0-0.0-0.0-1.85","null","<span style='color:GreenYellow; font-size: 70px;'>正确! </span>","null","","","","","","","","","","","","","","","","","","","","","","","feedback_test"
"","","","","","psychophysics","248","448994","0.0-9.0-0.0-0.0-0.0-0.86","797","","f","","","","","","","","","","","","","key","f","6.229204861111106","768","476","f","true","img/C_ambi40.png","自我","same",""
"","","","","","html-keyboard-response","249","449497","0.0-9.0-0.0-0.0-0.0-1.86","null","<span style='color:GreenYellow; font-size: 70px;'>正确! </span>","null","","","","","","","","","","","","","","","","","","","","","","","feedback_test"
"","","","","","psychophysics","250","451139","0.0-9.0-0.0-0.0-0.0-0.87","639","","f","","","","","","","","","","","","","key","f","6.293484615384547","768","476","f","true","img/S_ambi40.png","自我","same",""
"","","","","","html-keyboard-response","251","451654","0.0-9.0-0.0-0.0-0.0-1.87","null","<span style='color:GreenYellow; font-size: 70px;'>正确! </span>","null","","","","","","","","","","","","","","","","","","","","","","","feedback_test"
"","","","","","psychophysics","252","453626","0.0-9.0-0.0-0.0-0.0-0.88","967","","j","","","","","","","","","","","","","key","j","6.06061419753094","768","476","f","false","img/C_ambi40.png","朋友","same",""
"","","","","","html-keyboard-response","253","454139","0.0-9.0-0.0-0.0-0.0-1.88","null","<span style='color:red; font-size: 70px;'>错误! </span>","null","","","","","","","","","","","","","","","","","","","","","","","feedback_test"
"","","","","","psychophysics","254","456187","0.0-9.0-0.0-0.0-0.0-0.89","1044","","j","","","","","","","","","","","","","key","j","6.38485534591183","768","476","f","false","img/S_ambi40.png","自我","same",""
"","","","","","html-keyboard-response","255","456693","0.0-9.0-0.0-0.0-0.0-1.89","null","<span style='color:red; font-size: 70px;'>错误! </span>","null","","","","","","","","","","","","","","","","","","","","","","","feedback_test"
"","","","","","psychophysics","256","459035","0.0-9.0-0.0-0.0-0.0-0.90","1339","","j","","","","","","","","","","","","","key","j","6.531356741573035","768","476","j","true","img/S_ambi40.png","朋友","same",""
"","","","","","html-keyboard-response","257","459538","0.0-9.0-0.0-0.0-0.0-1.90","null","<span style='color:GreenYellow; font-size: 70px;'>正确! </span>","null","","","","","","","","","","","","","","","","","","","","","","","feedback_test"
"","","","","","psychophysics","258","461667","0.0-9.0-0.0-0.0-0.0-0.91","1125","","f","","","","","","","","","","","","","key","f","6.202798245614088","768","476","f","true","img/H_ambi40.png","生人","same",""
"","","","","","html-keyboard-response","259","462177","0.0-9.0-0.0-0.0-0.0-1.91","null","<span style='color:GreenYellow; font-size: 70px;'>正确! </span>","null","","","","","","","","","","","","","","","","","","","","","","","feedback_test"
"","","","","","psychophysics","260","464498","0.0-9.0-0.0-0.0-0.0-0.92","1319","","f","","","","","","","","","","","","","key","f","6.4490947075208265","768","476","f","true","img/H_ambi40.png","生人","same",""
"","","","","","html-keyboard-response","261","465002","0.0-9.0-0.0-0.0-0.0-1.92","null","<span style='color:GreenYellow; font-size: 70px;'>正确! </span>","null","","","","","","","","","","","","","","","","","","","","","","","feedback_test"
"","","","","","psychophysics","262","467507","0.0-9.0-0.0-0.0-0.0-0.93","null","","null","","","","","","","","","","","","","key","null","6.337741116751287","768","476","f","false","img/H_ambi40.png","朋友","same",""
"","","","","","html-keyboard-response","263","468018","0.0-9.0-0.0-0.0-0.0-1.93","null","<span class='add_' style='color:yellow; font-size: 70px;'> 太慢! </span>","null","","","","","","","","","","","","","","","","","","","","","","","feedback_test"
"","","","","","psychophysics","264","469995","0.0-9.0-0.0-0.0-0.0-0.94","974","","j","","","","","","","","","","","","","key","j","6.374546925566298","768","476","f","false","img/S_ambi40.png","自我","same",""
"","","","","","html-keyboard-response","265","470508","0.0-9.0-0.0-0.0-0.0-1.94","null","<span style='color:red; font-size: 70px;'>错误! </span>","null","","","","","","","","","","","","","","","","","","","","","","","feedback_test"
"","","","","","psychophysics","266","472051","0.0-9.0-0.0-0.0-0.0-0.95","538","","j","","","","","","","","","","","","","key","j","6.284340163934489","768","476","j","true","img/T_ambi40.png","をる","same",""
"","","","","","html-keyboard-response","267","472561","0.0-9.0-0.0-0.0-0.0-1.95","null","<span style='color:GreenYellow; font-size: 70px;'>正确! </span>","null","","","","","","","","","","","","","","","","","","","","","","","feedback_test"
"","","","","","psychophysics","268","474779","0.0-9.0-0.0-0.0-0.0-0.96","1217","","j","","","","","","","","","","","","","key","j","6.179602240896405","768","476","j","true","img/S_ambi40.png","朋友","same",""
"","","","","","html-keyboard-response","269","475284","0.0-9.0-0.0-0.0-0.0-1.96","null","<span style='color:GreenYellow; font-size: 70px;'>正确! </span>","null","","","","","","","","","","","","","","","","","","","","","","","feedback_test"
"","","","","","psychophysics","270","476802","0.0-9.0-0.0-0.0-0.0-0.97","514","","j","","","","","","","","","","","","","key","j","6.135016260162512","768","476","j","true","img/T_ambi40.png","をる","same",""
"","","","","","html-keyboard-response","271","477317","0.0-9.0-0.0-0.0-0.0-1.97","null","<span style='color:GreenYellow; font-size: 70px;'>正确! </span>","null","","","","","","","","","","","","","","","","","","","","","","","feedback_test"
"","","","","","psychophysics","272","479401","0.0-9.0-0.0-0.0-0.0-0.98","1082","","j","","","","","","","","","","","","","key","j","6.275203030302973","768","476","j","true","img/C_ambi40.png","生人","same",""
"","","","","","html-keyboard-response","273","479909","0.0-9.0-0.0-0.0-0.0-1.98","null","<span style='color:GreenYellow; font-size: 70px;'>正确! </span>","null","","","","","","","","","","","","","","","","","","","","","","","feedback_test"
"","","","","","psychophysics","274","482059","0.0-9.0-0.0-0.0-0.0-0.99","1147","","f","","","","","","","","","","","","","key","f","6.1116210826210935","768","476","f","true","img/C_ambi40.png","朋友","same",""
"","","","","","html-keyboard-response","275","482564","0.0-9.0-0.0-0.0-0.0-1.99","null","<span style='color:GreenYellow; font-size: 70px;'>正确! </span>","null","","","","","","","","","","","","","","","","","","","","","","","feedback_test"
"","","","","","psychophysics","276","484539","0.0-9.0-0.0-0.0-0.0-0.100","972","","f","","","","","","","","","","","","","key","f","6.272105095541375","768","476","f","true","img/C_ambi40.png","自我","same",""
"","","","","","html-keyboard-response","277","485041","0.0-9.0-0.0-0.0-0.0-1.100","null","<span style='color:GreenYellow; font-size: 70px;'>正确! </span>","null","","","","","","","","","","","","","","","","","","","","","","","feedback_test"
"","","","","","psychophysics","278","487025","0.0-9.0-0.0-0.0-0.0-0.101","979","","j","","","","","","","","","","","","","key","j","6.136000000000049","768","476","j","true","img/C_ambi40.png","生人","same",""
"","","","","","html-keyboard-response","279","487530","0.0-9.0-0.0-0.0-0.0-1.101","null","<span style='color:GreenYellow; font-size: 70px;'>正确! </span>","null","","","","","","","","","","","","","","","","","","","","","","","feedback_test"
"","","","","","psychophysics","280","489283","0.0-9.0-0.0-0.0-0.0-0.102","751","","j","","","","","","","","","","","","","key","j","6.1891843971632445","768","476","j","true","img/H_ambi40.png","自我","same",""
"","","","","","html-keyboard-response","281","489789","0.0-9.0-0.0-0.0-0.0-1.102","null","<span style='color:GreenYellow; font-size: 70px;'>正确! </span>","null","","","","","","","","","","","","","","","","","","","","","","","feedback_test"
"","","","","","psychophysics","282","491378","0.0-9.0-0.0-0.0-0.0-0.103","587","","j","","","","","","","","","","","","","key","j","6.398260162601662","768","476","j","true","img/T_ambi40.png","をる","same",""
"","","","","","html-keyboard-response","283","491879","0.0-9.0-0.0-0.0-0.0-1.103","null","<span style='color:GreenYellow; font-size: 70px;'>正确! </span>","null","","","","","","","","","","","","","","","","","","","","","","","feedback_test"
"","","","","","psychophysics","284","493970","0.0-9.0-0.0-0.0-0.0-0.104","1088","","f","","","","","","","","","","","","","key","f","6.203791666666629","768","476","f","true","img/C_ambi40.png","朋友","same",""
"","","","","","html-keyboard-response","285","494477","0.0-9.0-0.0-0.0-0.0-1.104","null","<span style='color:GreenYellow; font-size: 70px;'>正确! </span>","null","","","","","","","","","","","","","","","","","","","","","","","feedback_test"
"","","","","","psychophysics","286","496252","0.0-9.0-0.0-0.0-0.0-0.105","770","","j","","","","","","","","","","","","","key","j","6.210376760563493","768","476","j","true","img/H_ambi40.png","自我","same",""
"","","","","","html-keyboard-response","287","496761","0.0-9.0-0.0-0.0-0.0-1.105","null","<span style='color:GreenYellow; font-size: 70px;'>正确! </span>","null","","","","","","","","","","","","","","","","","","","","","","","feedback_test"
"","","","","","psychophysics","288","499265","0.0-9.0-0.0-0.0-0.0-0.106","null","","null","","","","","","","","","","","","","key","null","6.2582180451127325","768","476","f","false","img/S_ambi40.png","生人","same",""
"","","","","","html-keyboard-response","289","499779","0.0-9.0-0.0-0.0-0.0-1.106","null","<span class='add_' style='color:yellow; font-size: 70px;'> 太慢! </span>","null","","","","","","","","","","","","","","","","","","","","","","","feedback_test"
"","","","","","psychophysics","290","501818","0.0-9.0-0.0-0.0-0.0-0.107","1033","","f","","","","","","","","","","","","","key","f","6.246135384615403","768","476","f","true","img/S_ambi40.png","自我","same",""
"","","","","","html-keyboard-response","291","502328","0.0-9.0-0.0-0.0-0.0-1.107","null","<span style='color:GreenYellow; font-size: 70px;'>正确! </span>","null","","","","","","","","","","","","","","","","","","","","","","","feedback_test"
"","","","","","html-keyboard-response","292","508954","0.0-9.0-0.0-0.0-1.0","6625","<style>.context{color:white; font-size: 35px; line-height:40px}</style>                          <div><p class='context'>您正确回答了80% 的试次。</p><p class='context'>您的平均反应时为965毫秒。</p><p class='context'>请按任意键进入休息</p></div>","j","","","","","","","","","","","","","","","","","","","","","","",""
"","","","","","html-button-response","293","571380","0.0-9.0-0.0-0.0-2.0","62423","
                    <p>您当前还剩余5组实验</p>
                    <p>现在是休息时间，当您结束休息后，您可以点击 结束休息 按钮 继续</p>
                    <p>建议休息时间还剩余<span id=""iii"">60</span>秒</p>","0","","","","","","","","","","","","","","","","","","","","","","",""
"","","","","","psychophysics","294","573883","0.0-9.0-0.0-0.0-0.1-0.108","null","","null","","","","","","","","","","","","","key","null","6.1961985111661795","768","476","f","false","img/S_ambi40.png","自我","same",""
"","","","","","html-keyboard-response","295","574385","0.0-9.0-0.0-0.0-0.1-1.108","null","<span class='add_' style='color:yellow; font-size: 70px;'> 太慢! </span>","null","","","","","","","","","","","","","","","","","","","","","","","feedback_test"
"","","","","","psychophysics","296","576739","0.0-9.0-0.0-0.0-0.1-0.109","1352","","f","","","","","","","","","","","","","key","f","6.322137466307059","768","476","f","true","img/S_ambi40.png","自我","same",""
"","","","","","html-keyboard-response","297","577246","0.0-9.0-0.0-0.0-0.1-1.109","null","<span style='color:GreenYellow; font-size: 70px;'>正确! </span>","null","","","","","","","","","","","","","","","","","","","","","","","feedback_test"
"","","","","","psychophysics","298","579626","0.0-9.0-0.0-0.0-0.1-0.110","1373","","j","","","","","","","","","","","","","key","j","6.285848806366085","768","476","j","true","img/C_ambi40.png","生人","same",""
"","","","","","html-keyboard-response","299","580141","0.0-9.0-0.0-0.0-0.1-1.110","null","<span style='color:GreenYellow; font-size: 70px;'>正确! </span>","null","","","","","","","","","","","","","","","","","","","","","","","feedback_test"
"","","","","","psychophysics","300","582130","0.0-9.0-0.0-0.0-0.1-0.111","988","","j","","","","","","","","","","","","","key","j","6.2066635220127075","768","476","j","true","img/S_ambi40.png","朋友","same",""
"","","","","","html-keyboard-response","301","582638","0.0-9.0-0.0-0.0-0.1-1.111","null","<span style='color:GreenYellow; font-size: 70px;'>正确! </span>","null","","","","","","","","","","","","","","","","","","","","","","","feedback_test"
"","","","","","psychophysics","302","584187","0.0-9.0-0.0-0.0-0.1-0.112","547","","j","","","","","","","","","","","","","key","j","6.41388333333307","768","476","j","true","img/T_ambi40.png","をる","same",""
"","","","","","html-keyboard-response","303","584698","0.0-9.0-0.0-0.0-0.1-1.112","null","<span style='color:GreenYellow; font-size: 70px;'>正确! </span>","null","","","","","","","","","","","","","","","","","","","","","","","feedback_test"
"","","","","","psychophysics","304","586490","0.0-9.0-0.0-0.0-0.1-0.113","789","","j","","","","","","","","","","","","","key","j","6.385464285714469","768","476","j","true","img/S_ambi40.png","朋友","same",""
"","","","","","html-keyboard-response","305","587001","0.0-9.0-0.0-0.0-0.1-1.113","null","<span style='color:GreenYellow; font-size: 70px;'>正确! </span>","null","","","","","","","","","","","","","","","","","","","","","","","feedback_test"
"","","","","","psychophysics","306","588602","0.0-9.0-0.0-0.0-0.1-0.114","599","","j","","","","","","","","","","","","","key","j","6.453327935222473","768","476","j","true","img/T_ambi40.png","をる","same",""
"","","","","","html-keyboard-response","307","589108","0.0-9.0-0.0-0.0-0.1-1.114","null","<span style='color:GreenYellow; font-size: 70px;'>正确! </span>","null","","","","","","","","","","","","","","","","","","","","","","","feedback_test"
"","","","","","psychophysics","308","591179","0.0-9.0-0.0-0.0-0.1-0.115","1066","","f","","","","","","","","","","","","","key","f","6.207084337349333","768","476","f","true","img/C_ambi40.png","朋友","same",""
"","","","","","html-keyboard-response","309","591690","0.0-9.0-0.0-0.0-0.1-1.115","null","<span style='color:GreenYellow; font-size: 70px;'>正确! </span>","null","","","","","","","","","","","","","","","","","","","","","","","feedback_test"
"","","","","","psychophysics","310","593449","0.0-9.0-0.0-0.0-0.1-0.116","755","","j","","","","","","","","","","","","","key","j","6.0811388888889475","768","476","j","true","img/H_ambi40.png","自我","same",""
"","","","","","html-keyboard-response","311","593954","0.0-9.0-0.0-0.0-0.1-1.116","null","<span style='color:GreenYellow; font-size: 70px;'>正确! </span>","null","","","","","","","","","","","","","","","","","","","","","","","feedback_test"
"","","","","","psychophysics","312","596011","0.0-9.0-0.0-0.0-0.1-0.117","1055","","f","","","","","","","","","","","","","key","f","6.27853538461531","768","476","f","true","img/H_ambi40.png","生人","same",""
"","","","","","html-keyboard-response","313","596525","0.0-9.0-0.0-0.0-0.1-1.117","null","<span style='color:GreenYellow; font-size: 70px;'>正确! </span>","null","","","","","","","","","","","","","","","","","","","","","","","feedback_test"
"","","","","","psychophysics","314","598201","0.0-9.0-0.0-0.0-0.1-0.118","671","","j","","","","","","","","","","","","","key","j","6.058519999999977","768","476","f","false","img/S_ambi40.png","生人","same",""
"","","","","","html-keyboard-response","315","598717","0.0-9.0-0.0-0.0-0.1-1.118","null","<span style='color:red; font-size: 70px;'>错误! </span>","null","","","","","","","","","","","","","","","","","","","","","","","feedback_test"
"","","","","","psychophysics","316","600811","0.0-9.0-0.0-0.0-0.1-0.119","1092","","j","","","","","","","","","","","","","key","j","6.218523952095702","768","476","j","true","img/C_ambi40.png","生人","same",""
"","","","","","html-keyboard-response","317","601327","0.0-9.0-0.0-0.0-0.1-1.119","null","<span style='color:GreenYellow; font-size: 70px;'>正确! </span>","null","","","","","","","","","","","","","","","","","","","","","","","feedback_test"
"","","","","","psychophysics","318","603330","0.0-9.0-0.0-0.0-0.1-0.120","998","","f","","","","","","","","","","","","","key","f","6.409700964630276","768","476","f","true","img/H_ambi40.png","生人","same",""
"","","","","","html-keyboard-response","319","603843","0.0-9.0-0.0-0.0-0.1-1.120","null","<span style='color:GreenYellow; font-size: 70px;'>正确! </span>","null","","","","","","","","","","","","","","","","","","","","","","","feedback_test"
"","","","","","psychophysics","320","606002","0.0-9.0-0.0-0.0-0.1-0.121","1155","","j","","","","","","","","","","","","","key","j","6.095130311614747","768","476","j","true","img/H_ambi40.png","自我","same",""
"","","","","","html-keyboard-response","321","606508","0.0-9.0-0.0-0.0-0.1-1.121","null","<span style='color:GreenYellow; font-size: 70px;'>正确! </span>","null","","","","","","","","","","","","","","","","","","","","","","","feedback_test"
"","","","","","psychophysics","322","608683","0.0-9.0-0.0-0.0-0.1-0.122","1170","","f","","","","","","","","","","","","","key","f","6.2170632183906385","768","476","f","true","img/C_ambi40.png","朋友","same",""
"","","","","","html-keyboard-response","323","609186","0.0-9.0-0.0-0.0-0.1-1.122","null","<span style='color:GreenYellow; font-size: 70px;'>正确! </span>","null","","","","","","","","","","","","","","","","","","","","","","","feedback_test"
"","","","","","psychophysics","324","611450","0.0-9.0-0.0-0.0-0.1-0.123","1257","","f","","","","","","","","","","","","","key","f","6.159934426229409","768","476","f","true","img/C_ambi40.png","自我","same",""
"","","","","","html-keyboard-response","325","611955","0.0-9.0-0.0-0.0-0.1-1.123","null","<span style='color:GreenYellow; font-size: 70px;'>正确! </span>","null","","","","","","","","","","","","","","","","","","","","","","","feedback_test"
"","","","","","psychophysics","326","613891","0.0-9.0-0.0-0.0-0.1-0.124","934","","f","","","","","","","","","","","","","key","f","6.077545741325088","768","476","f","true","img/H_ambi40.png","朋友","same",""
"","","","","","html-keyboard-response","327","614400","0.0-9.0-0.0-0.0-0.1-1.124","null","<span style='color:GreenYellow; font-size: 70px;'>正确! </span>","null","","","","","","","","","","","","","","","","","","","","","","","feedback_test"
"","","","","","psychophysics","328","616114","0.0-9.0-0.0-0.0-0.1-0.125","711","","j","","","","","","","","","","","","","key","j","6.1479928057553686","768","476","j","true","img/T_ambi40.png","をる","same",""
"","","","","","html-keyboard-response","329","616622","0.0-9.0-0.0-0.0-0.1-1.125","null","<span style='color:GreenYellow; font-size: 70px;'>正确! </span>","null","","","","","","","","","","","","","","","","","","","","","","","feedback_test"
"","","","","","psychophysics","330","618618","0.0-9.0-0.0-0.0-0.1-0.126","992","","j","","","","","","","","","","","","","key","j","6.135191358024769","768","476","j","true","img/S_ambi40.png","朋友","same",""
"","","","","","html-keyboard-response","331","619120","0.0-9.0-0.0-0.0-0.1-1.126","null","<span style='color:GreenYellow; font-size: 70px;'>正确! </span>","null","","","","","","","","","","","","","","","","","","","","","","","feedback_test"
"","","","","","psychophysics","332","620875","0.0-9.0-0.0-0.0-0.1-0.127","750","","j","","","","","","","","","","","","","key","j","6.2120640569393855","768","476","j","true","img/S_ambi40.png","朋友","same",""
"","","","","","html-keyboard-response","333","621379","0.0-9.0-0.0-0.0-0.1-1.127","null","<span style='color:GreenYellow; font-size: 70px;'>正确! </span>","null","","","","","","","","","","","","","","","","","","","","","","","feedback_test"
"","","","","","psychophysics","334","623154","0.0-9.0-0.0-0.0-0.1-0.128","768","","f","","","","","","","","","","","","","key","f","6.431671532846895","768","476","f","true","img/C_ambi40.png","自我","same",""
"","","","","","html-keyboard-response","335","623666","0.0-9.0-0.0-0.0-0.1-1.128","null","<span style='color:GreenYellow; font-size: 70px;'>正确! </span>","null","","","","","","","","","","","","","","","","","","","","","","","feedback_test"
"","","","","","psychophysics","336","625411","0.0-9.0-0.0-0.0-0.1-0.129","741","","j","","","","","","","","","","","","","key","j","6.146402826854818","768","476","j","true","img/C_ambi40.png","生人","same",""
"","","","","","html-keyboard-response","337","625922","0.0-9.0-0.0-0.0-0.1-1.129","null","<span style='color:GreenYellow; font-size: 70px;'>正确! </span>","null","","","","","","","","","","","","","","","","","","","","","","","feedback_test"
"","","","","","psychophysics","338","627801","0.0-9.0-0.0-0.0-0.1-0.130","877","","f","","","","","","","","","","","","","key","f","6.57105964912314","768","476","f","true","img/H_ambi40.png","生人","same",""
"","","","","","html-keyboard-response","339","628307","0.0-9.0-0.0-0.0-0.1-1.130","null","<span style='color:GreenYellow; font-size: 70px;'>正确! </span>","null","","","","","","","","","","","","","","","","","","","","","","","feedback_test"
"","","","","","psychophysics","340","630226","0.0-9.0-0.0-0.0-0.1-0.131","914","","j","","","","","","","","","","","","","key","j","6.117801282051145","768","476","j","true","img/H_ambi40.png","自我","same",""
"","","","","","html-keyboard-response","341","630738","0.0-9.0-0.0-0.0-0.1-1.131","null","<span style='color:GreenYellow; font-size: 70px;'>正确! </span>","null","","","","","","","","","","","","","","","","","","","","","","","feedback_test"
"","","","","","psychophysics","342","632553","0.0-9.0-0.0-0.0-0.1-0.132","811","","f","","","","","","","","","","","","","key","f","6.227924137931028","768","476","f","true","img/C_ambi40.png","朋友","same",""
"","","","","","html-keyboard-response","343","633064","0.0-9.0-0.0-0.0-0.1-1.132","null","<span style='color:GreenYellow; font-size: 70px;'>正确! </span>","null","","","","","","","","","","","","","","","","","","","","","","","feedback_test"
"","","","","","psychophysics","344","634954","0.0-9.0-0.0-0.0-0.1-0.133","888","","f","","","","","","","","","","","","","key","f","6.323427609427478","768","476","f","true","img/H_ambi40.png","生人","same",""
"","","","","","html-keyboard-response","345","635462","0.0-9.0-0.0-0.0-0.1-1.133","null","<span style='color:GreenYellow; font-size: 70px;'>正确! </span>","null","","","","","","","","","","","","","","","","","","","","","","","feedback_test"
"","","","","","psychophysics","346","637081","0.0-9.0-0.0-0.0-0.1-0.134","615","","j","","","","","","","","","","","","","key","j","6.200526923076876","768","476","j","true","img/T_ambi40.png","をる","same",""
"","","","","","html-keyboard-response","347","637593","0.0-9.0-0.0-0.0-0.1-1.134","null","<span style='color:GreenYellow; font-size: 70px;'>正确! </span>","null","","","","","","","","","","","","","","","","","","","","","","","feedback_test"
"","","","","","psychophysics","348","639498","0.0-9.0-0.0-0.0-0.1-0.135","900","","j","","","","","","","","","","","","","key","j","6.199702614379264","768","476","j","true","img/H_ambi40.png","自我","same",""
"","","","","","html-keyboard-response","349","640011","0.0-9.0-0.0-0.0-0.1-1.135","null","<span style='color:GreenYellow; font-size: 70px;'>正确! </span>","null","","","","","","","","","","","","","","","","","","","","","","","feedback_test"
"","","","","","psychophysics","350","641963","0.0-9.0-0.0-0.0-0.1-0.136","947","","f","","","","","","","","","","","","","key","f","6.29669480519475","768","476","f","true","img/C_ambi40.png","朋友","same",""
"","","","","","html-keyboard-response","351","642473","0.0-9.0-0.0-0.0-0.1-1.136","null","<span style='color:GreenYellow; font-size: 70px;'>正确! </span>","null","","","","","","","","","","","","","","","","","","","","","","","feedback_test"
"","","","","","psychophysics","352","644601","0.0-9.0-0.0-0.0-0.1-0.137","1125","","j","","","","","","","","","","","","","key","j","6.3130505952379155","768","476","j","true","img/C_ambi40.png","生人","same",""
"","","","","","html-keyboard-response","353","645105","0.0-9.0-0.0-0.0-0.1-1.137","null","<span style='color:GreenYellow; font-size: 70px;'>正确! </span>","null","","","","","","","","","","","","","","","","","","","","","","","feedback_test"
"","","","","","psychophysics","354","647289","0.0-9.0-0.0-0.0-0.1-0.138","1183","","f","","","","","","","","","","","","","key","f","6.267141210374567","768","476","f","true","img/H_ambi40.png","朋友","same",""
"","","","","","html-keyboard-response","355","647796","0.0-9.0-0.0-0.0-0.1-1.138","null","<span style='color:GreenYellow; font-size: 70px;'>正确! </span>","null","","","","","","","","","","","","","","","","","","","","","","","feedback_test"
"","","","","","psychophysics","356","649963","0.0-9.0-0.0-0.0-0.1-0.139","1165","","f","","","","","","","","","","","","","key","f","6.178558739255126","768","476","f","true","img/S_ambi40.png","生人","same",""
"","","","","","html-keyboard-response","357","650476","0.0-9.0-0.0-0.0-0.1-1.139","null","<span style='color:GreenYellow; font-size: 70px;'>正确! </span>","null","","","","","","","","","","","","","","","","","","","","","","","feedback_test"
"","","","","","psychophysics","358","652050","0.0-9.0-0.0-0.0-0.1-0.140","573","","j","","","","","","","","","","","","","key","j","6.154350393701081","768","476","j","true","img/T_ambi40.png","をる","same",""
"","","","","","html-keyboard-response","359","652562","0.0-9.0-0.0-0.0-0.1-1.140","null","<span style='color:GreenYellow; font-size: 70px;'>正确! </span>","null","","","","","","","","","","","","","","","","","","","","","","","feedback_test"
"","","","","","psychophysics","360","654674","0.0-9.0-0.0-0.0-0.1-0.141","1111","","f","","","","","","","","","","","","","key","f","6.354039274924576","768","476","f","true","img/S_ambi40.png","自我","same",""
"","","","","","html-keyboard-response","361","655177","0.0-9.0-0.0-0.0-0.1-1.141","null","<span style='color:GreenYellow; font-size: 70px;'>正确! </span>","null","","","","","","","","","","","","","","","","","","","","","","","feedback_test"
"","","","","","psychophysics","362","656745","0.0-9.0-0.0-0.0-0.1-0.142","566","","j","","","","","","","","","","","","","key","j","6.205154761904389","768","476","j","true","img/T_ambi40.png","をる","same",""
"","","","","","html-keyboard-response","363","657250","0.0-9.0-0.0-0.0-0.1-1.142","null","<span style='color:GreenYellow; font-size: 70px;'>正确! </span>","null","","","","","","","","","","","","","","","","","","","","","","","feedback_test"
"","","","","","psychophysics","364","659521","0.0-9.0-0.0-0.0-0.1-0.143","1269","","f","","","","","","","","","","","","","key","f","6.291465181058654","768","476","f","true","img/S_ambi40.png","自我","same",""
"","","","","","html-keyboard-response","365","660032","0.0-9.0-0.0-0.0-0.1-1.143","null","<span style='color:GreenYellow; font-size: 70px;'>正确! </span>","null","","","","","","","","","","","","","","","","","","","","","","","feedback_test"
"","","","","","psychophysics","366","662177","0.0-9.0-0.0-0.0-0.1-0.144","1144","","f","","","","","","","","","","","","","key","f","6.198619186046376","768","476","f","true","img/C_ambi40.png","朋友","same",""
"","","","","","html-keyboard-response","367","662685","0.0-9.0-0.0-0.0-0.1-1.144","null","<span style='color:GreenYellow; font-size: 70px;'>正确! </span>","null","","","","","","","","","","","","","","","","","","","","","","","feedback_test"
"","","","","","psychophysics","368","664722","0.0-9.0-0.0-0.0-0.1-0.145","1035","","f","","","","","","","","","","","","","key","f","6.209373088685272","768","476","f","true","img/H_ambi40.png","朋友","same",""
"","","","","","html-keyboard-response","369","665236","0.0-9.0-0.0-0.0-0.1-1.145","null","<span style='color:GreenYellow; font-size: 70px;'>正确! </span>","null","","","","","","","","","","","","","","","","","","","","","","","feedback_test"
"","","","","","psychophysics","370","667507","0.0-9.0-0.0-0.0-0.1-0.146","1267","","f","","","","","","","","","","","","","key","f","6.349199438202417","768","476","f","true","img/H_ambi40.png","生人","same",""
"","","","","","html-keyboard-response","371","668016","0.0-9.0-0.0-0.0-0.1-1.146","null","<span style='color:GreenYellow; font-size: 70px;'>正确! </span>","null","","","","","","","","","","","","","","","","","","","","","","","feedback_test"
"","","","","","psychophysics","372","670009","0.0-9.0-0.0-0.0-0.1-0.147","986","","f","","","","","","","","","","","","","key","f","6.212827586206873","768","476","f","true","img/S_ambi40.png","生人","same",""
"","","","","","html-keyboard-response","373","670522","0.0-9.0-0.0-0.0-0.1-1.147","null","<span style='color:GreenYellow; font-size: 70px;'>正确! </span>","null","","","","","","","","","","","","","","","","","","","","","","","feedback_test"
"","","","","","psychophysics","374","672521","0.0-9.0-0.0-0.0-0.1-0.148","997","","f","","","","","","","","","","","","","key","f","6.330400000000003","768","476","f","true","img/C_ambi40.png","朋友","same",""
"","","","","","html-keyboard-response","375","673027","0.0-9.0-0.0-0.0-0.1-1.148","null","<span style='color:GreenYellow; font-size: 70px;'>正确! </span>","null","","","","","","","","","","","","","","","","","","","","","","","feedback_test"
"","","","","","psychophysics","376","674938","0.0-9.0-0.0-0.0-0.1-0.149","910","","f","","","","","","","","","","","","","key","f","6.424935810810672","768","476","f","true","img/S_ambi40.png","自我","same",""
"","","","","","html-keyboard-response","377","675448","0.0-9.0-0.0-0.0-0.1-1.149","null","<span style='color:GreenYellow; font-size: 70px;'>正确! </span>","null","","","","","","","","","","","","","","","","","","","","","","","feedback_test"
"","","","","","psychophysics","378","677250","0.0-9.0-0.0-0.0-0.1-0.150","800","","j","","","","","","","","","","","","","key","j","6.18627586206903","768","476","j","true","img/S_ambi40.png","朋友","same",""
"","","","","","html-keyboard-response","379","677760","0.0-9.0-0.0-0.0-0.1-1.150","null","<span style='color:GreenYellow; font-size: 70px;'>正确! </span>","null","","","","","","","","","","","","","","","","","","","","","","","feedback_test"
"","","","","","psychophysics","380","680009","0.0-9.0-0.0-0.0-0.1-0.151","1247","","j","","","","","","","","","","","","","key","j","6.3716723646725155","768","476","j","true","img/C_ambi40.png","生人","same",""
"","","","","","html-keyboard-response","381","680526","0.0-9.0-0.0-0.0-0.1-1.151","null","<span style='color:GreenYellow; font-size: 70px;'>正确! </span>","null","","","","","","","","","","","","","","","","","","","","","","","feedback_test"
"","","","","","psychophysics","382","682002","0.0-9.0-0.0-0.0-0.1-0.152","471","","j","","","","","","","","","","","","","key","j","6.2414297872341855","768","476","j","true","img/H_ambi40.png","自我","same",""
"","","","","","html-keyboard-response","383","682511","0.0-9.0-0.0-0.0-0.1-1.152","null","<span style='color:GreenYellow; font-size: 70px;'>正确! </span>","null","","","","","","","","","","","","","","","","","","","","","","","feedback_test"
"","","","","","psychophysics","384","684113","0.0-9.0-0.0-0.0-0.1-0.153","601","","j","","","","","","","","","","","","","key","j","6.36806799999997","768","476","j","true","img/T_ambi40.png","をる","same",""
"","","","","","html-keyboard-response","385","684626","0.0-9.0-0.0-0.0-0.1-1.153","null","<span style='color:GreenYellow; font-size: 70px;'>正确! </span>","null","","","","","","","","","","","","","","","","","","","","","","","feedback_test"
"","","","","","psychophysics","386","686153","0.0-9.0-0.0-0.0-0.1-0.154","526","","j","","","","","","","","","","","","","key","j","6.083155999999959","768","476","j","true","img/T_ambi40.png","をる","same",""
"","","","","","html-keyboard-response","387","686665","0.0-9.0-0.0-0.0-0.1-1.154","null","<span style='color:GreenYellow; font-size: 70px;'>正确! </span>","null","","","","","","","","","","","","","","","","","","","","","","","feedback_test"
"","","","","","psychophysics","388","688497","0.0-9.0-0.0-0.0-0.1-0.155","827","","j","","","","","","","","","","","","","key","j","6.2048435374147255","768","476","j","true","img/S_ambi40.png","朋友","same",""
"","","","","","html-keyboard-response","389","689004","0.0-9.0-0.0-0.0-0.1-1.155","null","<span style='color:GreenYellow; font-size: 70px;'>正确! </span>","null","","","","","","","","","","","","","","","","","","","","","","","feedback_test"
"","","","","","psychophysics","390","690652","0.0-9.0-0.0-0.0-0.1-0.156","643","","j","","","","","","","","","","","","","key","j","6.222026615969734","768","476","j","true","img/C_ambi40.png","生人","same",""
"","","","","","html-keyboard-response","391","691163","0.0-9.0-0.0-0.0-0.1-1.156","null","<span style='color:GreenYellow; font-size: 70px;'>正确! </span>","null","","","","","","","","","","","","","","","","","","","","","","","feedback_test"
"","","","","","psychophysics","392","692793","0.0-9.0-0.0-0.0-0.1-0.157","627","","f","","","","","","","","","","","","","key","f","6.247123076922994","768","476","f","true","img/S_ambi40.png","自我","same",""
"","","","","","html-keyboard-response","393","693309","0.0-9.0-0.0-0.0-0.1-1.157","null","<span style='color:GreenYellow; font-size: 70px;'>正确! </span>","null","","","","","","","","","","","","","","","","","","","","","","","feedback_test"
"","","","","","psychophysics","394","695625","0.0-9.0-0.0-0.0-0.1-0.158","1313","","f","","","","","","","","","","","","","key","f","6.361476584022079","768","476","f","true","img/H_ambi40.png","生人","same",""
"","","","","","html-keyboard-response","395","696132","0.0-9.0-0.0-0.0-0.1-1.158","null","<span style='color:GreenYellow; font-size: 70px;'>正确! </span>","null","","","","","","","","","","","","","","","","","","","","","","","feedback_test"
"","","","","","psychophysics","396","697881","0.0-9.0-0.0-0.0-0.1-0.159","743","","f","","","","","","","","","","","","","key","f","6.256726618705019","768","476","f","true","img/C_ambi40.png","自我","same",""
"","","","","","html-keyboard-response","397","698387","0.0-9.0-0.0-0.0-0.1-1.159","null","<span style='color:GreenYellow; font-size: 70px;'>正确! </span>","null","","","","","","","","","","","","","","","","","","","","","","","feedback_test"
"","","","","","psychophysics","398","700035","0.0-9.0-0.0-0.0-0.1-0.160","643","","j","","","","","","","","","","","","","key","j","6.342635658914819","768","476","j","true","img/T_ambi40.png","をる","same",""
"","","","","","html-keyboard-response","399","700550","0.0-9.0-0.0-0.0-0.1-1.160","null","<span style='color:GreenYellow; font-size: 70px;'>正确! </span>","null","","","","","","","","","","","","","","","","","","","","","","","feedback_test"
"","","","","","psychophysics","400","702811","0.0-9.0-0.0-0.0-0.1-0.161","1256","","j","","","","","","","","","","","","","key","j","6.2973351955307155","768","476","j","true","img/H_ambi40.png","自我","same",""
"","","","","","html-keyboard-response","401","703312","0.0-9.0-0.0-0.0-0.1-1.161","null","<span style='color:GreenYellow; font-size: 70px;'>正确! </span>","null","","","","","","","","","","","","","","","","","","","","","","","feedback_test"
"","","","","","psychophysics","402","705115","0.0-9.0-0.0-0.0-0.1-0.162","801","","f","","","","","","","","","","","","","key","f","6.338992932862388","768","476","f","true","img/C_ambi40.png","朋友","same",""
"","","","","","html-keyboard-response","403","705624","0.0-9.0-0.0-0.0-0.1-1.162","null","<span style='color:GreenYellow; font-size: 70px;'>正确! </span>","null","","","","","","","","","","","","","","","","","","","","","","","feedback_test"
"","","","","","psychophysics","404","707490","0.0-9.0-0.0-0.0-0.1-0.163","863","","f","","","","","","","","","","","","","key","f","6.243815436241633","768","476","f","true","img/H_ambi40.png","生人","same",""
"","","","","","html-keyboard-response","405","708000","0.0-9.0-0.0-0.0-0.1-1.163","null","<span style='color:GreenYellow; font-size: 70px;'>正确! </span>","null","","","","","","","","","","","","","","","","","","","","","","","feedback_test"
"","","","","","psychophysics","406","710097","0.0-9.0-0.0-0.0-0.1-0.164","1094","","f","","","","","","","","","","","","","key","f","6.13157771261002","768","476","f","true","img/H_ambi40.png","朋友","same",""
"","","","","","html-keyboard-response","407","710605","0.0-9.0-0.0-0.0-0.1-1.164","null","<span style='color:GreenYellow; font-size: 70px;'>正确! </span>","null","","","","","","","","","","","","","","","","","","","","","","","feedback_test"
"","","","","","psychophysics","408","712466","0.0-9.0-0.0-0.0-0.1-0.165","857","","j","","","","","","","","","","","","","key","j","6.182083333333333","768","476","j","true","img/S_ambi40.png","朋友","same",""
"","","","","","html-keyboard-response","409","712969","0.0-9.0-0.0-0.0-0.1-1.165","null","<span style='color:GreenYellow; font-size: 70px;'>正确! </span>","null","","","","","","","","","","","","","","","","","","","","","","","feedback_test"
"","","","","","psychophysics","410","715010","0.0-9.0-0.0-0.0-0.1-0.166","1038","","f","","","","","","","","","","","","","key","f","6.228067484662505","768","476","f","true","img/S_ambi40.png","生人","same",""
"","","","","","html-keyboard-response","411","715524","0.0-9.0-0.0-0.0-0.1-1.166","null","<span style='color:GreenYellow; font-size: 70px;'>正确! </span>","null","","","","","","","","","","","","","","","","","","","","","","","feedback_test"
"","","","","","psychophysics","412","717283","0.0-9.0-0.0-0.0-0.1-0.167","757","","j","","","","","","","","","","","","","key","j","6.124487719298013","768","476","j","true","img/H_ambi40.png","自我","same",""
"","","","","","html-keyboard-response","413","717795","0.0-9.0-0.0-0.0-0.1-1.167","null","<span style='color:GreenYellow; font-size: 70px;'>正确! </span>","null","","","","","","","","","","","","","","","","","","","","","","","feedback_test"
"","","","","","psychophysics","414","719353","0.0-9.0-0.0-0.0-0.1-0.168","556","","j","","","","","","","","","","","","","key","j","6.15665079365089","768","476","j","true","img/T_ambi40.png","をる","same",""
"","","","","","html-keyboard-response","415","719862","0.0-9.0-0.0-0.0-0.1-1.168","null","<span style='color:GreenYellow; font-size: 70px;'>正确! </span>","null","","","","","","","","","","","","","","","","","","","","","","","feedback_test"
"","","","","","psychophysics","416","721594","0.0-9.0-0.0-0.0-0.1-0.169","729","","j","","","","","","","","","","","","","key","j","6.060098245614126","768","476","j","true","img/S_ambi40.png","朋友","same",""
"","","","","","html-keyboard-response","417","722109","0.0-9.0-0.0-0.0-0.1-1.169","null","<span style='color:GreenYellow; font-size: 70px;'>正确! </span>","null","","","","","","","","","","","","","","","","","","","","","","","feedback_test"
"","","","","","psychophysics","418","723666","0.0-9.0-0.0-0.0-0.1-0.170","556","","j","","","","","","","","","","","","","key","j","6.1810358565739465","768","476","j","true","img/T_ambi40.png","をる","same",""
"","","","","","html-keyboard-response","419","724167","0.0-9.0-0.0-0.0-0.1-1.170","null","<span style='color:GreenYellow; font-size: 70px;'>正确! </span>","null","","","","","","","","","","","","","","","","","","","","","","","feedback_test"
"","","","","","psychophysics","420","726002","0.0-9.0-0.0-0.0-0.1-0.171","833","","f","","","","","","","","","","","","","key","f","6.080416666666666","768","476","f","true","img/C_ambi40.png","朋友","same",""
"","","","","","html-keyboard-response","421","726508","0.0-9.0-0.0-0.0-0.1-1.171","null","<span style='color:GreenYellow; font-size: 70px;'>正确! </span>","null","","","","","","","","","","","","","","","","","","","","","","","feedback_test"
"","","","","","psychophysics","422","728515","0.0-9.0-0.0-0.0-0.1-0.172","1001","","j","","","","","","","","","","","","","key","j","6.211083850931443","768","476","j","true","img/C_ambi40.png","生人","same",""
"","","","","","html-keyboard-response","423","729026","0.0-9.0-0.0-0.0-0.1-1.172","null","<span style='color:GreenYellow; font-size: 70px;'>正确! </span>","null","","","","","","","","","","","","","","","","","","","","","","","feedback_test"
"","","","","","psychophysics","424","730794","0.0-9.0-0.0-0.0-0.1-0.173","766","","j","","","","","","","","","","","","","key","j","6.1420664335662085","768","476","j","true","img/H_ambi40.png","自我","same",""
"","","","","","html-keyboard-response","425","731307","0.0-9.0-0.0-0.0-0.1-1.173","null","<span style='color:GreenYellow; font-size: 70px;'>正确! </span>","null","","","","","","","","","","","","","","","","","","","","","","","feedback_test"
"","","","","","psychophysics","426","732851","0.0-9.0-0.0-0.0-0.1-0.174","543","","j","","","","","","","","","","","","","key","j","6.1565421686744335","768","476","j","true","img/T_ambi40.png","をる","same",""
"","","","","","html-keyboard-response","427","733365","0.0-9.0-0.0-0.0-0.1-1.174","null","<span style='color:GreenYellow; font-size: 70px;'>正确! </span>","null","","","","","","","","","","","","","","","","","","","","","","","feedback_test"
"","","","","","psychophysics","428","735290","0.0-9.0-0.0-0.0-0.1-0.175","923","","j","","","","","","","","","","","","","key","j","6.258403908795031","768","476","j","true","img/C_ambi40.png","生人","same",""
"","","","","","html-keyboard-response","429","735801","0.0-9.0-0.0-0.0-0.1-1.175","null","<span style='color:GreenYellow; font-size: 70px;'>正确! </span>","null","","","","","","","","","","","","","","","","","","","","","","","feedback_test"
"","","","","","psychophysics","430","737555","0.0-9.0-0.0-0.0-0.1-0.176","750","","f","","","","","","","","","","","","","key","f","6.256620071684411","768","476","f","true","img/C_ambi40.png","自我","same",""
"","","","","","html-keyboard-response","431","738069","0.0-9.0-0.0-0.0-0.1-1.176","null","<span style='color:GreenYellow; font-size: 70px;'>正确! </span>","null","","","","","","","","","","","","","","","","","","","","","","","feedback_test"
"","","","","","psychophysics","432","740066","0.0-9.0-0.0-0.0-0.1-0.177","996","","j","","","","","","","","","","","","","key","j","6.224984326018867","768","476","f","false","img/S_ambi40.png","自我","same",""
"","","","","","html-keyboard-response","433","740570","0.0-9.0-0.0-0.0-0.1-1.177","null","<span style='color:red; font-size: 70px;'>错误! </span>","null","","","","","","","","","","","","","","","","","","","","","","","feedback_test"
"","","","","","psychophysics","434","742705","0.0-9.0-0.0-0.0-0.1-0.178","1132","","f","","","","","","","","","","","","","key","f","6.07799714285714","768","476","f","true","img/H_ambi40.png","生人","same",""
"","","","","","html-keyboard-response","435","743213","0.0-9.0-0.0-0.0-0.1-1.178","null","<span style='color:GreenYellow; font-size: 70px;'>正确! </span>","null","","","","","","","","","","","","","","","","","","","","","","","feedback_test"
"","","","","","psychophysics","436","745657","0.0-9.0-0.0-0.0-0.1-0.179","1441","","j","","","","","","","","","","","","","key","j","6.18402284263931","768","476","f","false","img/S_ambi40.png","自我","same",""
"","","","","","html-keyboard-response","437","746163","0.0-9.0-0.0-0.0-0.1-1.179","null","<span style='color:red; font-size: 70px;'>错误! </span>","null","","","","","","","","","","","","","","","","","","","","","","","feedback_test"
"","","","","","psychophysics","438","747753","0.0-9.0-0.0-0.0-0.1-0.180","586","","j","","","","","","","","","","","","","key","j","6.107760617760744","768","476","j","true","img/T_ambi40.png","をる","same",""
"","","","","","html-keyboard-response","439","748268","0.0-9.0-0.0-0.0-0.1-1.180","null","<span style='color:GreenYellow; font-size: 70px;'>正确! </span>","null","","","","","","","","","","","","","","","","","","","","","","","feedback_test"
"","","","","","psychophysics","440","750025","0.0-9.0-0.0-0.0-0.1-0.181","755","","f","","","","","","","","","","","","","key","f","6.059062283737085","768","476","f","true","img/C_ambi40.png","自我","same",""
