"success","timeout","failed_images","failed_audio","failed_video","trial_type","trial_index","time_elapsed","internal_node_id","rt","stimulus","response","value","item_width_mm","item_height_mm","item_width_px","px2mm","view_dist_mm","item_width_deg","px2deg","scale_factor","win_width_deg","win_height_deg","view_history","response_type","key_press","avg_frame_time","center_x","center_y","correct_response","correct","Image","word","condition","screen_id"
"true","false","[]","[]","[]","preload","0","108648","0.0-0.0","","","","","","","","","","","","","","","","","","","","","","","","","",""
"","","","","","html-keyboard-response","1","183593","0.0-1.0","74942","
     <p>您好，欢迎参加本次实验。</p>
     <p>为充分保障您的权利，请确保您已经知晓并同意《参与实验同意书》以及《数据公开知情同意书》。</p>
     <p>如果您未见过上述内容，请咨询实验员。</p>
     <p>如果您选择继续实验，则表示您已经清楚两份知情同意书的内容并同意。</p>
     <p> <div style = ""color: green""><按任意键至下页></div> </p>
     "," ","","","","","","","","","","","","","","","","","","","","","","",""
"","","","","","html-keyboard-response","2","185303","0.0-2.0","1710","
     <p>本实验首先需要您填写一些基本个人信息。</p>
     <p> <div style = ""color: green""><按任意键至下页></div></p>
     "," ","","","","","","","","","","","","","","","","","","","","","","",""
"","","","","","call-function","3","185306","0.0-3.0-0.0","","","","","","","","","","","","","","","","","","","","","","","","","",""
"","","","","","survey-html-form","4","190681","0.0-3.0-1.0","5363","","{""Q0"":""30""}","","","","","","","","","","","","","","","","","","","","","","",""
"","","","","","html-button-response","5","191845","0.0-3.0-2.0","1154","<p style = 'color : white'>您的性别</p>","1","","","","","","","","","","","","","","","","","","","","","","",""
"","","","","","survey-html-form","6","199108","0.0-3.0-3.0","7262","","{""Q0"":""2002""}","","","","","","","","","","","","","","","","","","","","","","",""
"","","","","","survey-html-form","7","202354","0.0-3.0-4.0","3241","","{""Q0"":""5""}","","","","","","","","","","","","","","","","","","","","","","",""
"","","","","","virtual-chinrest","8","384560","0.0-4.0","182201","","","","85.6","53.98","502.2227923392966","5.87234462917563","487.03","10.044455846785931","50","0.7646009019450745","30.72","14.3","","","","","","","","","","","",""
"true","","","","","fullscreen","9","388439","0.0-5.0","","","","","","","","","","","","","","","","","","","","","","","","","",""
"","","","","","instructions","10","434838","0.0-6.0","46397","","","","","","","","","","","","","","[{""page_index"":0,""viewing_time"":7050},{""page_index"":1,""viewing_time"":27932},{""page_index"":2,""viewing_time"":7972},{""page_index"":3,""viewing_time"":3442}]","","","","","","","","","","",""
"","","","","","psychophysics","11","437106","0.0-7.0-0.0-0.0","1248","","j","","","","","","","","","","","","","key","j","16.661842105263332","768","428","j","true","img/T_ambi40.png","をる","prac",""
"","","","","","html-keyboard-response","12","437608","0.0-7.0-0.0-1.0","null","<span style='color:GreenYellow; font-size: 70px;'>正确! </span>","null","","","","","","","","","","","","","","","","","","","","","","","feedback_test"
"","","","","","psychophysics","13","439730","0.0-7.0-0.0-0.1","1119","","f","","","","","","","","","","","","","key","f","16.661480314960873","768","428","f","true","img/H_ambi40.png","生人","prac",""
"","","","","","html-keyboard-response","14","440232","0.0-7.0-0.0-1.1","null","<span style='color:GreenYellow; font-size: 70px;'>正确! </span>","null","","","","","","","","","","","","","","","","","","","","","","","feedback_test"
"","","","","","psychophysics","15","442254","0.0-7.0-0.0-0.2","1019","","j","","","","","","","","","","","","","key","j","16.66532499999933","768","428","j","true","img/T_ambi40.png","をる","prac",""
"","","","","","html-keyboard-response","16","442758","0.0-7.0-0.0-1.2","null","<span style='color:GreenYellow; font-size: 70px;'>正确! </span>","null","","","","","","","","","","","","","","","","","","","","","","","feedback_test"
"","","","","","psychophysics","17","444438","0.0-7.0-0.0-0.3","676","","f","","","","","","","","","","","","","key","f","16.661359999999405","768","428","f","true","img/C_ambi40.png","自我","prac",""
"","","","","","html-keyboard-response","18","444942","0.0-7.0-0.0-1.3","null","<span style='color:GreenYellow; font-size: 70px;'>正确! </span>","null","","","","","","","","","","","","","","","","","","","","","","","feedback_test"
"","","","","","psychophysics","19","446732","0.0-7.0-0.0-0.4","787","","j","","","","","","","","","","","","","key","j","16.652509433961967","768","428","j","true","img/T_ambi40.png","をる","prac",""
"","","","","","html-keyboard-response","20","447244","0.0-7.0-0.0-1.4","null","<span style='color:GreenYellow; font-size: 70px;'>正确! </span>","null","","","","","","","","","","","","","","","","","","","","","","","feedback_test"
"","","","","","psychophysics","21","448895","0.0-7.0-0.0-0.5","647","","f","","","","","","","","","","","","","key","f","16.661484848485667","768","428","f","true","img/C_ambi40.png","自我","prac",""
"","","","","","html-keyboard-response","22","449397","0.0-7.0-0.0-1.5","null","<span style='color:GreenYellow; font-size: 70px;'>正确! </span>","null","","","","","","","","","","","","","","","","","","","","","","","feedback_test"
"","","","","","psychophysics","23","451006","0.0-7.0-0.0-0.6","606","","f","","","","","","","","","","","","","key","f","16.66497894736791","768","428","f","true","img/H_ambi40.png","生人","prac",""
"","","","","","html-keyboard-response","24","451509","0.0-7.0-0.0-1.6","null","<span style='color:GreenYellow; font-size: 70px;'>正确! </span>","null","","","","","","","","","","","","","","","","","","","","","","","feedback_test"
"","","","","","psychophysics","25","453351","0.0-7.0-0.0-0.7","840","","j","","","","","","","","","","","","","key","j","16.66133944954138","768","428","j","true","img/S_ambi40.png","自我","prac",""
"","","","","","html-keyboard-response","26","453853","0.0-7.0-0.0-1.7","null","<span style='color:GreenYellow; font-size: 70px;'>正确! </span>","null","","","","","","","","","","","","","","","","","","","","","","","feedback_test"
"","","","","","psychophysics","27","455765","0.0-7.0-0.0-0.8","909","","j","","","","","","","","","","","","","key","j","16.66209649122749","768","428","j","true","img/H_ambi40.png","自我","prac",""
"","","","","","html-keyboard-response","28","456267","0.0-7.0-0.0-1.8","null","<span style='color:GreenYellow; font-size: 70px;'>正确! </span>","null","","","","","","","","","","","","","","","","","","","","","","","feedback_test"
"","","","","","psychophysics","29","458178","0.0-7.0-0.0-0.9","909","","j","","","","","","","","","","","","","key","j","16.65920175438575","768","428","j","true","img/C_ambi40.png","朋友","prac",""
"","","","","","html-keyboard-response","30","458682","0.0-7.0-0.0-1.9","null","<span style='color:GreenYellow; font-size: 70px;'>正确! </span>","null","","","","","","","","","","","","","","","","","","","","","","","feedback_test"
"","","","","","psychophysics","31","460616","0.0-7.0-0.0-0.10","932","","f","","","","","","","","","","","","","key","f","16.661947826086543","768","428","f","true","img/S_ambi40.png","朋友","prac",""
"","","","","","html-keyboard-response","32","461116","0.0-7.0-0.0-1.10","null","<span style='color:GreenYellow; font-size: 70px;'>正确! </span>","null","","","","","","","","","","","","","","","","","","","","","","","feedback_test"
"","","","","","psychophysics","33","462965","0.0-7.0-0.0-0.11","846","","j","","","","","","","","","","","","","key","j","16.66182727272707","768","428","j","true","img/H_ambi40.png","朋友","prac",""
"","","","","","html-keyboard-response","34","463466","0.0-7.0-0.0-1.11","null","<span style='color:GreenYellow; font-size: 70px;'>正确! </span>","null","","","","","","","","","","","","","","","","","","","","","","","feedback_test"
"","","","","","psychophysics","35","465632","0.0-7.0-0.0-0.12","1165","","j","","","","","","","","","","","","","key","j","16.661922480619527","768","428","j","true","img/S_ambi40.png","生人","prac",""
"","","","","","html-keyboard-response","36","466133","0.0-7.0-0.0-1.12","null","<span style='color:GreenYellow; font-size: 70px;'>正确! </span>","null","","","","","","","","","","","","","","","","","","","","","","","feedback_test"
"","","","","","psychophysics","37","468076","0.0-7.0-0.0-0.13","941","","j","","","","","","","","","","","","","key","j","16.806704347826663","768","428","j","true","img/C_ambi40.png","生人","prac",""
"","","","","","html-keyboard-response","38","468577","0.0-7.0-0.0-1.13","null","<span style='color:GreenYellow; font-size: 70px;'>正确! </span>","null","","","","","","","","","","","","","","","","","","","","","","","feedback_test"
"","","","","","psychophysics","39","470266","0.0-7.0-0.0-0.14","686","","j","","","","","","","","","","","","","key","j","16.668420000000623","768","428","j","true","img/T_ambi40.png","をる","prac",""
"","","","","","html-keyboard-response","40","470768","0.0-7.0-0.0-1.14","null","<span style='color:GreenYellow; font-size: 70px;'>正确! </span>","null","","","","","","","","","","","","","","","","","","","","","","","feedback_test"
"","","","","","psychophysics","41","473274","0.0-7.0-0.0-0.15","null","","null","","","","","","","","","","","","","key","null","16.661221476510047","768","428","f","false","img/S_ambi40.png","朋友","prac",""
"","","","","","html-keyboard-response","42","473777","0.0-7.0-0.0-1.15","null","<span class='add_' style='color:yellow; font-size: 70px;'> 太慢! </span>","null","","","","","","","","","","","","","","","","","","","","","","","feedback_test"
"","","","","","psychophysics","43","475396","0.0-7.0-0.0-0.16","614","","j","","","","","","","","","","","","","key","j","16.667760416667686","768","428","j","true","img/T_ambi40.png","をる","prac",""
"","","","","","html-keyboard-response","44","475898","0.0-7.0-0.0-1.16","null","<span style='color:GreenYellow; font-size: 70px;'>正确! </span>","null","","","","","","","","","","","","","","","","","","","","","","","feedback_test"
"","","","","","psychophysics","45","477493","0.0-7.0-0.0-0.17","594","","j","","","","","","","","","","","","","key","j","16.661484210526474","768","428","j","true","img/T_ambi40.png","をる","prac",""
"","","","","","html-keyboard-response","46","477995","0.0-7.0-0.0-1.17","null","<span style='color:GreenYellow; font-size: 70px;'>正确! </span>","null","","","","","","","","","","","","","","","","","","","","","","","feedback_test"
"","","","","","psychophysics","47","480141","0.0-7.0-0.0-0.18","1144","","j","","","","","","","","","","","","","key","j","16.661234375000276","768","428","j","true","img/S_ambi40.png","自我","prac",""
"","","","","","html-keyboard-response","48","480644","0.0-7.0-0.0-1.18","null","<span style='color:GreenYellow; font-size: 70px;'>正确! </span>","null","","","","","","","","","","","","","","","","","","","","","","","feedback_test"
"","","","","","psychophysics","49","482356","0.0-7.0-0.0-0.19","703","","f","","","","","","","","","","","","","key","f","16.661303921568425","768","428","f","true","img/S_ambi40.png","朋友","prac",""
"","","","","","html-keyboard-response","50","482860","0.0-7.0-0.0-1.19","null","<span style='color:GreenYellow; font-size: 70px;'>正确! </span>","null","","","","","","","","","","","","","","","","","","","","","","","feedback_test"
"","","","","","psychophysics","51","484537","0.0-7.0-0.0-0.20","673","","j","","","","","","","","","","","","","key","j","16.66149000000092","768","428","j","true","img/S_ambi40.png","生人","prac",""
"","","","","","html-keyboard-response","52","485042","0.0-7.0-0.0-1.20","null","<span style='color:GreenYellow; font-size: 70px;'>正确! </span>","null","","","","","","","","","","","","","","","","","","","","","","","feedback_test"
"","","","","","psychophysics","53","486963","0.0-7.0-0.0-0.21","919","","j","","","","","","","","","","","","","key","j","16.66588596491196","768","428","j","true","img/H_ambi40.png","朋友","prac",""
"","","","","","html-keyboard-response","54","487465","0.0-7.0-0.0-1.21","null","<span style='color:GreenYellow; font-size: 70px;'>正确! </span>","null","","","","","","","","","","","","","","","","","","","","","","","feedback_test"
"","","","","","psychophysics","55","489319","0.0-7.0-0.0-0.22","849","","f","","","","","","","","","","","","","key","f","16.661436363636643","768","428","j","false","img/C_ambi40.png","生人","prac",""
"","","","","","html-keyboard-response","56","489826","0.0-7.0-0.0-1.22","null","<span style='color:red; font-size: 70px;'>错误! </span>","null","","","","","","","","","","","","","","","","","","","","","","","feedback_test"
"","","","","","psychophysics","57","491427","0.0-7.0-0.0-0.23","598","","j","","","","","","","","","","","","","key","j","16.66129473684184","768","428","j","true","img/T_ambi40.png","をる","prac",""
"","","","","","html-keyboard-response","58","491929","0.0-7.0-0.0-1.23","null","<span style='color:GreenYellow; font-size: 70px;'>正确! </span>","null","","","","","","","","","","","","","","","","","","","","","","","feedback_test"
"","","","","","psychophysics","59","494022","0.0-7.0-0.0-0.24","1091","","j","","","","","","","","","","","","","key","j","16.661887096774375","768","428","f","false","img/H_ambi40.png","生人","prac",""
"","","","","","html-keyboard-response","60","494525","0.0-7.0-0.0-1.24","null","<span style='color:red; font-size: 70px;'>错误! </span>","null","","","","","","","","","","","","","","","","","","","","","","","feedback_test"
"","","","","","psychophysics","61","496472","0.0-7.0-0.0-0.25","937","","j","","","","","","","","","","","","","key","j","16.95460526315851","768","428","j","true","img/C_ambi40.png","朋友","prac",""
"","","","","","html-keyboard-response","62","496975","0.0-7.0-0.0-1.25","null","<span style='color:GreenYellow; font-size: 70px;'>正确! </span>","null","","","","","","","","","","","","","","","","","","","","","","","feedback_test"
"","","","","","psychophysics","63","498729","0.0-7.0-0.0-0.26","753","","f","","","","","","","","","","","","","key","f","16.66153846153891","768","428","f","true","img/C_ambi40.png","自我","prac",""
"","","","","","html-keyboard-response","64","499232","0.0-7.0-0.0-1.26","null","<span style='color:GreenYellow; font-size: 70px;'>正确! </span>","null","","","","","","","","","","","","","","","","","","","","","","","feedback_test"
"","","","","","psychophysics","65","500773","0.0-7.0-0.0-0.27","539","","f","","","","","","","","","","","","","key","f","16.66152747252772","768","428","f","true","img/S_ambi40.png","朋友","prac",""
"","","","","","html-keyboard-response","66","501273","0.0-7.0-0.0-1.27","null","<span style='color:GreenYellow; font-size: 70px;'>正确! </span>","null","","","","","","","","","","","","","","","","","","","","","","","feedback_test"
"","","","","","psychophysics","67","503019","0.0-7.0-0.0-0.28","743","","f","","","","","","","","","","","","","key","f","16.661221153846082","768","428","f","true","img/C_ambi40.png","自我","prac",""
"","","","","","html-keyboard-response","68","503521","0.0-7.0-0.0-1.28","null","<span style='color:GreenYellow; font-size: 70px;'>正确! </span>","null","","","","","","","","","","","","","","","","","","","","","","","feedback_test"
"","","","","","psychophysics","69","505419","0.0-7.0-0.0-0.29","895","","j","","","","","","","","","","","","","key","j","16.661318584071243","768","428","f","false","img/H_ambi40.png","生人","prac",""
"","","","","","html-keyboard-response","70","505921","0.0-7.0-0.0-1.29","null","<span style='color:red; font-size: 70px;'>错误! </span>","null","","","","","","","","","","","","","","","","","","","","","","","feedback_test"
"","","","","","psychophysics","71","507740","0.0-7.0-0.0-0.30","815","","j","","","","","","","","","","","","","key","j","16.665398148147183","768","428","j","true","img/H_ambi40.png","自我","prac",""
"","","","","","html-keyboard-response","72","508242","0.0-7.0-0.0-1.30","null","<span style='color:GreenYellow; font-size: 70px;'>正确! </span>","null","","","","","","","","","","","","","","","","","","","","","","","feedback_test"
"","","","","","psychophysics","73","509841","0.0-7.0-0.0-0.31","596","","j","","","","","","","","","","","","","key","j","16.661351063829954","768","428","j","true","img/T_ambi40.png","をる","prac",""
"","","","","","html-keyboard-response","74","510343","0.0-7.0-0.0-1.31","null","<span style='color:GreenYellow; font-size: 70px;'>正确! </span>","null","","","","","","","","","","","","","","","","","","","","","","","feedback_test"
"","","","","","html-keyboard-response","75","526254","0.0-8.0","15907","<style>.context{color:white; font-size: 35px; line-height:40px}</style>                          <div><p class='context'>您正确回答了88% 的试次。</p ><p class='context'>您的平均反应时为820毫秒。</p ><p class='context'>恭喜您完成练习。按任意键进入正式实验。</p ><p class='footer' style='font-size: 35px; line-height:40px;'>请在进入正式实验实验之前将您的<span style='color: lightgreen;'>食指</span>放在电脑键盘的相应键位上进行按键。</p >"," ","","","","","","","","","","","","","","","","","","","","","","",""
"","","","","","psychophysics","76","528057","0.0-9.0-0.0-0.0-0.0-0.0","790","","f","","","","","","","","","","","","","key","f","16.981788461538738","768","428","f","true","img/C_ambi40.png","自我","same",""
"","","","","","html-keyboard-response","77","528563","0.0-9.0-0.0-0.0-0.0-1.0","null","<span style='color:GreenYellow; font-size: 70px;'>正确! </span>","null","","","","","","","","","","","","","","","","","","","","","","","feedback_test"
"","","","","","psychophysics","78","530157","0.0-9.0-0.0-0.0-0.0-0.1","592","","f","","","","","","","","","","","","","key","f","17.019559139785137","768","428","f","true","img/C_ambi40.png","自我","same",""
"","","","","","html-keyboard-response","79","530660","0.0-9.0-0.0-0.0-0.0-1.1","null","<span style='color:GreenYellow; font-size: 70px;'>正确! </span>","null","","","","","","","","","","","","","","","","","","","","","","","feedback_test"
"","","","","","psychophysics","80","532228","0.0-9.0-0.0-0.0-0.0-0.2","565","","j","","","","","","","","","","","","","key","j","16.66140860215115","768","428","j","true","img/T_ambi40.png","をる","same",""
"","","","","","html-keyboard-response","81","532730","0.0-9.0-0.0-0.0-0.0-1.2","null","<span style='color:GreenYellow; font-size: 70px;'>正确! </span>","null","","","","","","","","","","","","","","","","","","","","","","","feedback_test"
"","","","","","psychophysics","82","534439","0.0-9.0-0.0-0.0-0.0-0.3","707","","j","","","","","","","","","","","","","key","j","16.661568627450798","768","428","j","true","img/S_ambi40.png","自我","same",""
"","","","","","html-keyboard-response","83","534946","0.0-9.0-0.0-0.0-0.0-1.3","null","<span style='color:GreenYellow; font-size: 70px;'>正确! </span>","null","","","","","","","","","","","","","","","","","","","","","","","feedback_test"
"","","","","","psychophysics","84","536777","0.0-9.0-0.0-0.0-0.0-0.4","828","","j","","","","","","","","","","","","","key","j","16.66134862385267","768","428","j","true","img/S_ambi40.png","生人","same",""
"","","","","","html-keyboard-response","85","537281","0.0-9.0-0.0-0.0-0.0-1.4","null","<span style='color:GreenYellow; font-size: 70px;'>正确! </span>","null","","","","","","","","","","","","","","","","","","","","","","","feedback_test"
"","","","","","psychophysics","86","539183","0.0-9.0-0.0-0.0-0.0-0.5","901","","j","","","","","","","","","","","","","key","j","16.65251327433677","768","428","j","true","img/H_ambi40.png","自我","same",""
"","","","","","html-keyboard-response","87","539686","0.0-9.0-0.0-0.0-0.0-1.5","null","<span style='color:GreenYellow; font-size: 70px;'>正确! </span>","null","","","","","","","","","","","","","","","","","","","","","","","feedback_test"
"","","","","","psychophysics","88","541642","0.0-9.0-0.0-0.0-0.0-0.6","954","","f","","","","","","","","","","","","","key","f","16.661318965517147","768","428","f","true","img/S_ambi40.png","朋友","same",""
"","","","","","html-keyboard-response","89","542144","0.0-9.0-0.0-0.0-0.0-1.6","null","<span style='color:GreenYellow; font-size: 70px;'>正确! </span>","null","","","","","","","","","","","","","","","","","","","","","","","feedback_test"
"","","","","","psychophysics","90","543705","0.0-9.0-0.0-0.0-0.0-0.7","559","","j","","","","","","","","","","","","","key","j","16.661677419354447","768","428","j","true","img/T_ambi40.png","をる","same",""
"","","","","","html-keyboard-response","91","544207","0.0-9.0-0.0-0.0-0.0-1.7","null","<span style='color:GreenYellow; font-size: 70px;'>正确! </span>","null","","","","","","","","","","","","","","","","","","","","","","","feedback_test"
"","","","","","psychophysics","92","545935","0.0-9.0-0.0-0.0-0.0-0.8","726","","f","","","","","","","","","","","","","key","f","16.660660194174287","768","428","f","true","img/C_ambi40.png","自我","same",""
"","","","","","html-keyboard-response","93","546439","0.0-9.0-0.0-0.0-0.0-1.8","null","<span style='color:GreenYellow; font-size: 70px;'>正确! </span>","null","","","","","","","","","","","","","","","","","","","","","","","feedback_test"
"","","","","","psychophysics","94","548161","0.0-9.0-0.0-0.0-0.0-0.9","719","","j","","","","","","","","","","","","","key","j","16.661803921568207","768","428","j","true","img/C_ambi40.png","生人","same",""
"","","","","","html-keyboard-response","95","548662","0.0-9.0-0.0-0.0-0.0-1.9","null","<span style='color:GreenYellow; font-size: 70px;'>正确! </span>","null","","","","","","","","","","","","","","","","","","","","","","","feedback_test"
"","","","","","psychophysics","96","550223","0.0-9.0-0.0-0.0-0.0-0.10","554","","j","","","","","","","","","","","","","key","j","16.660021739131164","768","428","j","true","img/T_ambi40.png","をる","same",""
"","","","","","html-keyboard-response","97","550724","0.0-9.0-0.0-0.0-0.0-1.10","null","<span style='color:GreenYellow; font-size: 70px;'>正确! </span>","null","","","","","","","","","","","","","","","","","","","","","","","feedback_test"
"","","","","","psychophysics","98","552735","0.0-9.0-0.0-0.0-0.0-0.11","1009","","j","","","","","","","","","","","","","key","j","16.662000000000504","768","428","j","true","img/H_ambi40.png","朋友","same",""
"","","","","","html-keyboard-response","99","553240","0.0-9.0-0.0-0.0-0.0-1.11","null","<span style='color:GreenYellow; font-size: 70px;'>正确! </span>","null","","","","","","","","","","","","","","","","","","","","","","","feedback_test"
"","","","","","psychophysics","100","554993","0.0-9.0-0.0-0.0-0.0-0.12","751","","j","","","","","","","","","","","","","key","j","16.661798076923542","768","428","j","true","img/C_ambi40.png","朋友","same",""
"","","","","","html-keyboard-response","101","555494","0.0-9.0-0.0-0.0-0.0-1.12","null","<span style='color:GreenYellow; font-size: 70px;'>正确! </span>","null","","","","","","","","","","","","","","","","","","","","","","","feedback_test"
"","","","","","psychophysics","102","557197","0.0-9.0-0.0-0.0-0.0-0.13","702","","j","","","","","","","","","","","","","key","j","16.661702970296403","768","428","f","false","img/H_ambi40.png","生人","same",""
"","","","","","html-keyboard-response","103","557701","0.0-9.0-0.0-0.0-0.0-1.13","null","<span style='color:red; font-size: 70px;'>错误! </span>","null","","","","","","","","","","","","","","","","","","","","","","","feedback_test"
"","","","","","psychophysics","104","559670","0.0-9.0-0.0-0.0-0.0-0.14","967","","f","","","","","","","","","","","","","key","f","16.656170940170917","768","428","f","true","img/S_ambi40.png","朋友","same",""
"","","","","","html-keyboard-response","105","560173","0.0-9.0-0.0-0.0-0.0-1.14","null","<span style='color:GreenYellow; font-size: 70px;'>正确! </span>","null","","","","","","","","","","","","","","","","","","","","","","","feedback_test"
"","","","","","psychophysics","106","562091","0.0-9.0-0.0-0.0-0.0-0.15","915","","j","","","","","","","","","","","","","key","j","16.66157017543855","768","428","f","false","img/H_ambi40.png","生人","same",""
"","","","","","html-keyboard-response","107","562592","0.0-9.0-0.0-0.0-0.0-1.15","null","<span style='color:red; font-size: 70px;'>错误! </span>","null","","","","","","","","","","","","","","","","","","","","","","","feedback_test"
"","","","","","psychophysics","108","564285","0.0-9.0-0.0-0.0-0.0-0.16","692","","j","","","","","","","","","","","","","key","j","16.660890000000364","768","428","f","false","img/S_ambi40.png","朋友","same",""
"","","","","","html-keyboard-response","109","564787","0.0-9.0-0.0-0.0-0.0-1.16","null","<span style='color:red; font-size: 70px;'>错误! </span>","null","","","","","","","","","","","","","","","","","","","","","","","feedback_test"
"","","","","","psychophysics","110","566837","0.0-9.0-0.0-0.0-0.0-0.17","1046","","f","","","","","","","","","","","","","key","f","16.661467213113983","768","428","f","true","img/H_ambi40.png","生人","same",""
"","","","","","html-keyboard-response","111","567338","0.0-9.0-0.0-0.0-0.0-1.17","null","<span style='color:GreenYellow; font-size: 70px;'>正确! </span>","null","","","","","","","","","","","","","","","","","","","","","","","feedback_test"
"","","","","","psychophysics","112","569038","0.0-9.0-0.0-0.0-0.0-0.18","694","","f","","","","","","","","","","","","","key","f","16.66035999999964","768","428","j","false","img/C_ambi40.png","朋友","same",""
"","","","","","html-keyboard-response","113","569540","0.0-9.0-0.0-0.0-0.0-1.18","null","<span style='color:red; font-size: 70px;'>错误! </span>","null","","","","","","","","","","","","","","","","","","","","","","","feedback_test"
"","","","","","psychophysics","114","571615","0.0-9.0-0.0-0.0-0.0-0.19","1069","","f","","","","","","","","","","","","","key","f","16.657260162601574","768","428","f","true","img/H_ambi40.png","生人","same",""
"","","","","","html-keyboard-response","115","572116","0.0-9.0-0.0-0.0-0.0-1.19","null","<span style='color:GreenYellow; font-size: 70px;'>正确! </span>","null","","","","","","","","","","","","","","","","","","","","","","","feedback_test"
"","","","","","psychophysics","116","573660","0.0-9.0-0.0-0.0-0.0-0.20","541","","f","","","","","","","","","","","","","key","f","16.66645652173927","768","428","f","true","img/C_ambi40.png","自我","same",""
"","","","","","html-keyboard-response","117","574167","0.0-9.0-0.0-0.0-0.0-1.20","null","<span style='color:GreenYellow; font-size: 70px;'>正确! </span>","null","","","","","","","","","","","","","","","","","","","","","","","feedback_test"
"","","","","","psychophysics","118","576144","0.0-9.0-0.0-0.0-0.0-0.21","975","","f","","","","","","","","","","","","","key","f","16.661194915254796","768","428","f","true","img/H_ambi40.png","生人","same",""
"","","","","","html-keyboard-response","119","576646","0.0-9.0-0.0-0.0-0.0-1.21","null","<span style='color:GreenYellow; font-size: 70px;'>正确! </span>","null","","","","","","","","","","","","","","","","","","","","","","","feedback_test"
"","","","","","psychophysics","120","578619","0.0-9.0-0.0-0.0-0.0-0.22","970","","j","","","","","","","","","","","","","key","j","16.661016949152543","768","428","j","true","img/S_ambi40.png","自我","same",""
"","","","","","html-keyboard-response","121","579120","0.0-9.0-0.0-0.0-0.0-1.22","null","<span style='color:GreenYellow; font-size: 70px;'>正确! </span>","null","","","","","","","","","","","","","","","","","","","","","","","feedback_test"
"","","","","","psychophysics","122","580813","0.0-9.0-0.0-0.0-0.0-0.23","690","","f","","","","","","","","","","","","","key","f","16.65847000000067","768","428","j","false","img/C_ambi40.png","生人","same",""
"","","","","","html-keyboard-response","123","581315","0.0-9.0-0.0-0.0-0.0-1.23","null","<span style='color:red; font-size: 70px;'>错误! </span>","null","","","","","","","","","","","","","","","","","","","","","","","feedback_test"
"","","","","","psychophysics","124","582953","0.0-9.0-0.0-0.0-0.0-0.24","635","","j","","","","","","","","","","","","","key","j","16.661489795918378","768","428","j","true","img/T_ambi40.png","をる","same",""
"","","","","","html-keyboard-response","125","583456","0.0-9.0-0.0-0.0-0.0-1.24","null","<span style='color:GreenYellow; font-size: 70px;'>正确! </span>","null","","","","","","","","","","","","","","","","","","","","","","","feedback_test"
"","","","","","psychophysics","126","585285","0.0-9.0-0.0-0.0-0.0-0.25","827","","f","","","","","","","","","","","","","key","f","16.66175229357846","768","428","f","true","img/S_ambi40.png","朋友","same",""
"","","","","","html-keyboard-response","127","585787","0.0-9.0-0.0-0.0-0.0-1.25","null","<span style='color:GreenYellow; font-size: 70px;'>正确! </span>","null","","","","","","","","","","","","","","","","","","","","","","","feedback_test"
"","","","","","psychophysics","128","587624","0.0-9.0-0.0-0.0-0.0-0.26","834","","j","","","","","","","","","","","","","key","j","16.66151376146772","768","428","j","true","img/S_ambi40.png","生人","same",""
"","","","","","html-keyboard-response","129","588125","0.0-9.0-0.0-0.0-0.0-1.26","null","<span style='color:GreenYellow; font-size: 70px;'>正确! </span>","null","","","","","","","","","","","","","","","","","","","","","","","feedback_test"
"","","","","","psychophysics","130","589624","0.0-9.0-0.0-0.0-0.0-0.27","497","","j","","","","","","","","","","","","","key","j","16.651764044943633","768","428","j","true","img/T_ambi40.png","をる","same",""
"","","","","","html-keyboard-response","131","590127","0.0-9.0-0.0-0.0-0.0-1.27","null","<span style='color:GreenYellow; font-size: 70px;'>正确! </span>","null","","","","","","","","","","","","","","","","","","","","","","","feedback_test"
"","","","","","psychophysics","132","591938","0.0-9.0-0.0-0.0-0.0-0.28","809","","j","","","","","","","","","","","","","key","j","16.66200925925902","768","428","f","false","img/H_ambi40.png","生人","same",""
"","","","","","html-keyboard-response","133","592442","0.0-9.0-0.0-0.0-0.0-1.28","null","<span style='color:red; font-size: 70px;'>错误! </span>","null","","","","","","","","","","","","","","","","","","","","","","","feedback_test"
"","","","","","psychophysics","134","594062","0.0-9.0-0.0-0.0-0.0-0.29","618","","f","","","","","","","","","","","","","key","f","16.66193749999972","768","428","f","true","img/S_ambi40.png","朋友","same",""
"","","","","","html-keyboard-response","135","594564","0.0-9.0-0.0-0.0-0.0-1.29","null","<span style='color:GreenYellow; font-size: 70px;'>正确! </span>","null","","","","","","","","","","","","","","","","","","","","","","","feedback_test"
"","","","","","psychophysics","136","596161","0.0-9.0-0.0-0.0-0.0-0.30","595","","f","","","","","","","","","","","","","key","f","16.66175531914849","768","428","j","false","img/H_ambi40.png","自我","same",""
"","","","","","html-keyboard-response","137","596662","0.0-9.0-0.0-0.0-0.0-1.30","null","<span style='color:red; font-size: 70px;'>错误! </span>","null","","","","","","","","","","","","","","","","","","","","","","","feedback_test"
"","","","","","psychophysics","138","598414","0.0-9.0-0.0-0.0-0.0-0.31","750","","f","","","","","","","","","","","","","key","f","16.656365384615267","768","428","f","true","img/S_ambi40.png","朋友","same",""
"","","","","","html-keyboard-response","139","598925","0.0-9.0-0.0-0.0-0.0-1.31","null","<span style='color:GreenYellow; font-size: 70px;'>正确! </span>","null","","","","","","","","","","","","","","","","","","","","","","","feedback_test"
"","","","","","psychophysics","140","600490","0.0-9.0-0.0-0.0-0.0-0.32","562","","f","","","","","","","","","","","","","key","f","16.661817204301066","768","428","f","true","img/C_ambi40.png","自我","same",""
"","","","","","html-keyboard-response","141","600993","0.0-9.0-0.0-0.0-0.0-1.32","null","<span style='color:GreenYellow; font-size: 70px;'>正确! </span>","null","","","","","","","","","","","","","","","","","","","","","","","feedback_test"
"","","","","","psychophysics","142","602939","0.0-9.0-0.0-0.0-0.0-0.33","944","","f","","","","","","","","","","","","","key","f","16.666879310344893","768","428","j","false","img/H_ambi40.png","朋友","same",""
"","","","","","html-keyboard-response","143","603442","0.0-9.0-0.0-0.0-0.0-1.33","null","<span style='color:red; font-size: 70px;'>错误! </span>","null","","","","","","","","","","","","","","","","","","","","","","","feedback_test"
"","","","","","psychophysics","144","605103","0.0-9.0-0.0-0.0-0.0-0.34","659","","j","","","","","","","","","","","","","key","j","16.66175757575841","768","428","j","true","img/T_ambi40.png","をる","same",""
"","","","","","html-keyboard-response","145","605607","0.0-9.0-0.0-0.0-0.0-1.34","null","<span style='color:GreenYellow; font-size: 70px;'>正确! </span>","null","","","","","","","","","","","","","","","","","","","","","","","feedback_test"
"","","","","","psychophysics","146","607293","0.0-9.0-0.0-0.0-0.0-0.35","684","","f","","","","","","","","","","","","","key","f","16.661600000000327","768","428","f","true","img/C_ambi40.png","自我","same",""
"","","","","","html-keyboard-response","147","607796","0.0-9.0-0.0-0.0-0.0-1.35","null","<span style='color:GreenYellow; font-size: 70px;'>正确! </span>","null","","","","","","","","","","","","","","","","","","","","","","","feedback_test"
"","","","","","psychophysics","148","609823","0.0-9.0-0.0-0.0-0.0-0.36","1025","","j","","","","","","","","","","","","","key","j","16.943889830508112","768","428","j","true","img/S_ambi40.png","生人","same",""
"","","","","","html-keyboard-response","149","610324","0.0-9.0-0.0-0.0-0.0-1.36","null","<span style='color:GreenYellow; font-size: 70px;'>正确! </span>","null","","","","","","","","","","","","","","","","","","","","","","","feedback_test"
"","","","","","psychophysics","150","611934","0.0-9.0-0.0-0.0-0.0-0.37","608","","j","","","","","","","","","","","","","key","j","16.661557894736823","768","428","j","true","img/T_ambi40.png","をる","same",""
"","","","","","html-keyboard-response","151","612437","0.0-9.0-0.0-0.0-0.0-1.37","null","<span style='color:GreenYellow; font-size: 70px;'>正确! </span>","null","","","","","","","","","","","","","","","","","","","","","","","feedback_test"
"","","","","","psychophysics","152","614302","0.0-9.0-0.0-0.0-0.0-0.38","863","","j","","","","","","","","","","","","","key","j","16.662045045044728","768","428","j","true","img/H_ambi40.png","自我","same",""
"","","","","","html-keyboard-response","153","614804","0.0-9.0-0.0-0.0-0.0-1.38","null","<span style='color:GreenYellow; font-size: 70px;'>正确! </span>","null","","","","","","","","","","","","","","","","","","","","","","","feedback_test"
"","","","","","psychophysics","154","616345","0.0-9.0-0.0-0.0-0.0-0.39","538","","j","","","","","","","","","","","","","key","j","16.661391304347806","768","428","j","true","img/T_ambi40.png","をる","same",""
"","","","","","html-keyboard-response","155","616848","0.0-9.0-0.0-0.0-0.0-1.39","null","<span style='color:GreenYellow; font-size: 70px;'>正确! </span>","null","","","","","","","","","","","","","","","","","","","","","","","feedback_test"
"","","","","","psychophysics","156","618609","0.0-9.0-0.0-0.0-0.0-0.40","758","","f","","","","","","","","","","","","","key","f","16.66153333333343","768","428","f","true","img/C_ambi40.png","自我","same",""
"","","","","","html-keyboard-response","157","619112","0.0-9.0-0.0-0.0-0.0-1.40","null","<span style='color:GreenYellow; font-size: 70px;'>正确! </span>","null","","","","","","","","","","","","","","","","","","","","","","","feedback_test"
"","","","","","psychophysics","158","620869","0.0-9.0-0.0-0.0-0.0-0.41","755","","f","","","","","","","","","","","","","key","f","16.659346153846574","768","428","f","true","img/S_ambi40.png","朋友","same",""
"","","","","","html-keyboard-response","159","621371","0.0-9.0-0.0-0.0-0.0-1.41","null","<span style='color:GreenYellow; font-size: 70px;'>正确! </span>","null","","","","","","","","","","","","","","","","","","","","","","","feedback_test"
"","","","","","psychophysics","160","623133","0.0-9.0-0.0-0.0-0.0-0.42","760","","f","","","","","","","","","","","","","key","f","16.661278846154275","768","428","f","true","img/C_ambi40.png","自我","same",""
"","","","","","html-keyboard-response","161","623634","0.0-9.0-0.0-0.0-0.0-1.42","null","<span style='color:GreenYellow; font-size: 70px;'>正确! </span>","null","","","","","","","","","","","","","","","","","","","","","","","feedback_test"
"","","","","","psychophysics","162","625267","0.0-9.0-0.0-0.0-0.0-0.43","631","","f","","","","","","","","","","","","","key","f","16.6623402061853","768","428","f","true","img/S_ambi40.png","朋友","same",""
"","","","","","html-keyboard-response","163","625767","0.0-9.0-0.0-0.0-0.0-1.43","null","<span style='color:GreenYellow; font-size: 70px;'>正确! </span>","null","","","","","","","","","","","","","","","","","","","","","","","feedback_test"
"","","","","","psychophysics","164","627508","0.0-9.0-0.0-0.0-0.0-0.44","738","","f","","","","","","","","","","","","","key","f","16.823563106796588","768","428","j","false","img/C_ambi40.png","朋友","same",""
"","","","","","html-keyboard-response","165","628011","0.0-9.0-0.0-0.0-0.0-1.44","null","<span style='color:red; font-size: 70px;'>错误! </span>","null","","","","","","","","","","","","","","","","","","","","","","","feedback_test"
"","","","","","psychophysics","166","629724","0.0-9.0-0.0-0.0-0.0-0.45","712","","j","","","","","","","","","","","","","key","j","16.660666666665872","768","428","j","true","img/T_ambi40.png","をる","same",""
"","","","","","html-keyboard-response","167","630228","0.0-9.0-0.0-0.0-0.0-1.45","null","<span style='color:GreenYellow; font-size: 70px;'>正确! </span>","null","","","","","","","","","","","","","","","","","","","","","","","feedback_test"
"","","","","","psychophysics","168","632017","0.0-9.0-0.0-0.0-0.0-0.46","788","","j","","","","","","","","","","","","","key","j","16.659547169811425","768","428","j","true","img/S_ambi40.png","自我","same",""
"","","","","","html-keyboard-response","169","632519","0.0-9.0-0.0-0.0-0.0-1.46","null","<span style='color:GreenYellow; font-size: 70px;'>正确! </span>","null","","","","","","","","","","","","","","","","","","","","","","","feedback_test"
"","","","","","psychophysics","170","634198","0.0-9.0-0.0-0.0-0.0-0.47","677","","f","","","","","","","","","","","","","key","f","16.666262626263425","768","428","f","true","img/C_ambi40.png","自我","same",""
"","","","","","html-keyboard-response","171","634700","0.0-9.0-0.0-0.0-0.0-1.47","null","<span style='color:GreenYellow; font-size: 70px;'>正确! </span>","null","","","","","","","","","","","","","","","","","","","","","","","feedback_test"
"","","","","","psychophysics","172","636347","0.0-9.0-0.0-0.0-0.0-0.48","646","","f","","","","","","","","","","","","","key","f","16.655927835051546","768","428","f","true","img/S_ambi40.png","朋友","same",""
"","","","","","html-keyboard-response","173","636850","0.0-9.0-0.0-0.0-0.0-1.48","null","<span style='color:GreenYellow; font-size: 70px;'>正确! </span>","null","","","","","","","","","","","","","","","","","","","","","","","feedback_test"
"","","","","","psychophysics","174","638597","0.0-9.0-0.0-0.0-0.0-0.49","745","","j","","","","","","","","","","","","","key","j","16.66192233009779","768","428","f","false","img/H_ambi40.png","生人","same",""
"","","","","","html-keyboard-response","175","639098","0.0-9.0-0.0-0.0-0.0-1.49","null","<span style='color:red; font-size: 70px;'>错误! </span>","null","","","","","","","","","","","","","","","","","","","","","","","feedback_test"
"","","","","","psychophysics","176","640861","0.0-9.0-0.0-0.0-0.0-0.50","762","","f","","","","","","","","","","","","","key","f","16.66637499999958","768","428","f","true","img/H_ambi40.png","生人","same",""
"","","","","","html-keyboard-response","177","641362","0.0-9.0-0.0-0.0-0.0-1.50","null","<span style='color:GreenYellow; font-size: 70px;'>正确! </span>","null","","","","","","","","","","","","","","","","","","","","","","","feedback_test"
"","","","","","psychophysics","178","642933","0.0-9.0-0.0-0.0-0.0-0.51","567","","f","","","","","","","","","","","","","key","f","16.661591397849993","768","428","j","false","img/C_ambi40.png","生人","same",""
"","","","","","html-keyboard-response","179","643434","0.0-9.0-0.0-0.0-0.0-1.51","null","<span style='color:red; font-size: 70px;'>错误! </span>","null","","","","","","","","","","","","","","","","","","","","","","","feedback_test"
"","","","","","psychophysics","180","645630","0.0-9.0-0.0-0.0-0.0-0.52","1192","","f","","","","","","","","","","","","","key","f","16.660407692307714","768","428","f","true","img/H_ambi40.png","生人","same",""
"","","","","","html-keyboard-response","181","646131","0.0-9.0-0.0-0.0-0.0-1.52","null","<span style='color:GreenYellow; font-size: 70px;'>正确! </span>","null","","","","","","","","","","","","","","","","","","","","","","","feedback_test"
"","","","","","psychophysics","182","648051","0.0-9.0-0.0-0.0-0.0-0.53","917","","f","","","","","","","","","","","","","key","f","16.66463157894772","768","428","j","false","img/H_ambi40.png","朋友","same",""
"","","","","","html-keyboard-response","183","648554","0.0-9.0-0.0-0.0-0.0-1.53","null","<span style='color:red; font-size: 70px;'>错误! </span>","null","","","","","","","","","","","","","","","","","","","","","","","feedback_test"
"","","","","","psychophysics","184","650258","0.0-9.0-0.0-0.0-0.0-0.54","701","","f","","","","","","","","","","","","","key","f","16.658792079208503","768","428","f","true","img/C_ambi40.png","自我","same",""
"","","","","","html-keyboard-response","185","650760","0.0-9.0-0.0-0.0-0.0-1.54","null","<span style='color:GreenYellow; font-size: 70px;'>正确! </span>","null","","","","","","","","","","","","","","","","","","","","","","","feedback_test"
"","","","","","psychophysics","186","652320","0.0-9.0-0.0-0.0-0.0-0.55","557","","j","","","","","","","","","","","","","key","j","16.661279569893214","768","428","j","true","img/T_ambi40.png","をる","same",""
"","","","","","html-keyboard-response","187","652827","0.0-9.0-0.0-0.0-0.0-1.55","null","<span style='color:GreenYellow; font-size: 70px;'>正确! </span>","null","","","","","","","","","","","","","","","","","","","","","","","feedback_test"
"","","","","","psychophysics","188","654598","0.0-9.0-0.0-0.0-0.0-0.56","769","","f","","","","","","","","","","","","","key","f","16.64806666666686","768","428","f","true","img/S_ambi40.png","朋友","same",""
"","","","","","html-keyboard-response","189","655100","0.0-9.0-0.0-0.0-0.0-1.56","null","<span style='color:GreenYellow; font-size: 70px;'>正确! </span>","null","","","","","","","","","","","","","","","","","","","","","","","feedback_test"
"","","","","","psychophysics","190","657038","0.0-9.0-0.0-0.0-0.0-0.57","936","","f","","","","","","","","","","","","","key","f","16.66174782608717","768","428","j","false","img/S_ambi40.png","生人","same",""
"","","","","","html-keyboard-response","191","657539","0.0-9.0-0.0-0.0-0.0-1.57","null","<span style='color:red; font-size: 70px;'>错误! </span>","null","","","","","","","","","","","","","","","","","","","","","","","feedback_test"
"","","","","","psychophysics","192","659397","0.0-9.0-0.0-0.0-0.0-0.58","855","","j","","","","","","","","","","","","","key","j","16.66244144144107","768","428","j","true","img/S_ambi40.png","自我","same",""
"","","","","","html-keyboard-response","193","659901","0.0-9.0-0.0-0.0-0.0-1.58","null","<span style='color:GreenYellow; font-size: 70px;'>正确! </span>","null","","","","","","","","","","","","","","","","","","","","","","","feedback_test"
"","","","","","psychophysics","194","661620","0.0-9.0-0.0-0.0-0.0-0.59","716","","f","","","","","","","","","","","","","key","f","16.661617647058687","768","428","f","true","img/C_ambi40.png","自我","same",""
"","","","","","html-keyboard-response","195","662121","0.0-9.0-0.0-0.0-0.0-1.59","null","<span style='color:GreenYellow; font-size: 70px;'>正确! </span>","null","","","","","","","","","","","","","","","","","","","","","","","feedback_test"
"","","","","","psychophysics","196","664032","0.0-9.0-0.0-0.0-0.0-0.60","909","","j","","","","","","","","","","","","","key","j","16.661421052631596","768","428","j","true","img/C_ambi40.png","朋友","same",""
"","","","","","html-keyboard-response","197","664536","0.0-9.0-0.0-0.0-0.0-1.60","null","<span style='color:GreenYellow; font-size: 70px;'>正确! </span>","null","","","","","","","","","","","","","","","","","","","","","","","feedback_test"
"","","","","","psychophysics","198","666332","0.0-9.0-0.0-0.0-0.0-0.61","794","","f","","","","","","","","","","","","","key","f","16.66226168224266","768","428","f","true","img/H_ambi40.png","生人","same",""
"","","","","","html-keyboard-response","199","666838","0.0-9.0-0.0-0.0-0.0-1.61","null","<span style='color:GreenYellow; font-size: 70px;'>正确! </span>","null","","","","","","","","","","","","","","","","","","","","","","","feedback_test"
"","","","","","psychophysics","200","668471","0.0-9.0-0.0-0.0-0.0-0.62","631","","j","","","","","","","","","","","","","key","j","16.663618556701472","768","428","j","true","img/T_ambi40.png","をる","same",""
"","","","","","html-keyboard-response","201","668973","0.0-9.0-0.0-0.0-0.0-1.62","null","<span style='color:GreenYellow; font-size: 70px;'>正确! </span>","null","","","","","","","","","","","","","","","","","","","","","","","feedback_test"
"","","","","","psychophysics","202","670936","0.0-9.0-0.0-0.0-0.0-0.63","961","","f","","","","","","","","","","","","","key","f","16.67184482758628","768","428","f","true","img/S_ambi40.png","朋友","same",""
"","","","","","html-keyboard-response","203","671437","0.0-9.0-0.0-0.0-0.0-1.63","null","<span style='color:GreenYellow; font-size: 70px;'>正确! </span>","null","","","","","","","","","","","","","","","","","","","","","","","feedback_test"
"","","","","","psychophysics","204","673215","0.0-9.0-0.0-0.0-0.0-0.64","776","","j","","","","","","","","","","","","","key","j","16.661594339622237","768","428","j","true","img/C_ambi40.png","生人","same",""
"","","","","","html-keyboard-response","205","673716","0.0-9.0-0.0-0.0-0.0-1.64","null","<span style='color:GreenYellow; font-size: 70px;'>正确! </span>","null","","","","","","","","","","","","","","","","","","","","","","","feedback_test"
"","","","","","psychophysics","206","675641","0.0-9.0-0.0-0.0-0.0-0.65","921","","f","","","","","","","","","","","","","key","f","16.66188695652147","768","428","f","true","img/H_ambi40.png","生人","same",""
"","","","","","html-keyboard-response","207","676143","0.0-9.0-0.0-0.0-0.0-1.65","null","<span style='color:GreenYellow; font-size: 70px;'>正确! </span>","null","","","","","","","","","","","","","","","","","","","","","","","feedback_test"
"","","","","","psychophysics","208","677892","0.0-9.0-0.0-0.0-0.0-0.66","746","","f","","","","","","","","","","","","","key","f","16.66227884615364","768","428","f","true","img/S_ambi40.png","朋友","same",""
"","","","","","html-keyboard-response","209","678396","0.0-9.0-0.0-0.0-0.0-1.66","null","<span style='color:GreenYellow; font-size: 70px;'>正确! </span>","null","","","","","","","","","","","","","","","","","","","","","","","feedback_test"
"","","","","","psychophysics","210","680145","0.0-9.0-0.0-0.0-0.0-0.67","747","","j","","","","","","","","","","","","","key","j","16.661894230768667","768","428","j","true","img/H_ambi40.png","自我","same",""
"","","","","","html-keyboard-response","211","680647","0.0-9.0-0.0-0.0-0.0-1.67","null","<span style='color:GreenYellow; font-size: 70px;'>正确! </span>","null","","","","","","","","","","","","","","","","","","","","","","","feedback_test"
"","","","","","psychophysics","212","682526","0.0-9.0-0.0-0.0-0.0-0.68","876","","f","","","","","","","","","","","","","key","f","16.65754464285731","768","428","f","true","img/H_ambi40.png","生人","same",""
"","","","","","html-keyboard-response","213","683030","0.0-9.0-0.0-0.0-0.0-1.68","null","<span style='color:GreenYellow; font-size: 70px;'>正确! </span>","null","","","","","","","","","","","","","","","","","","","","","","","feedback_test"
"","","","","","psychophysics","214","684662","0.0-9.0-0.0-0.0-0.0-0.69","631","","f","","","","","","","","","","","","","key","f","16.661659793814252","768","428","f","true","img/C_ambi40.png","自我","same",""
"","","","","","html-keyboard-response","215","685165","0.0-9.0-0.0-0.0-0.0-1.69","null","<span style='color:GreenYellow; font-size: 70px;'>正确! </span>","null","","","","","","","","","","","","","","","","","","","","","","","feedback_test"
"","","","","","psychophysics","216","686745","0.0-9.0-0.0-0.0-0.0-0.70","578","","j","","","","","","","","","","","","","key","j","16.661170212766205","768","428","j","true","img/T_ambi40.png","をる","same",""
"","","","","","html-keyboard-response","217","687246","0.0-9.0-0.0-0.0-0.0-1.70","null","<span style='color:GreenYellow; font-size: 70px;'>正确! </span>","null","","","","","","","","","","","","","","","","","","","","","","","feedback_test"
"","","","","","psychophysics","218","688797","0.0-9.0-0.0-0.0-0.0-0.71","548","","f","","","","","","","","","","","","","key","f","16.66995652173975","768","428","j","false","img/H_ambi40.png","朋友","same",""
"","","","","","html-keyboard-response","219","689298","0.0-9.0-0.0-0.0-0.0-1.71","null","<span style='color:red; font-size: 70px;'>错误! </span>","null","","","","","","","","","","","","","","","","","","","","","","","feedback_test"
"","","","","","psychophysics","220","690962","0.0-9.0-0.0-0.0-0.0-0.72","661","","f","","","","","","","","","","","","","key","f","16.66155555555503","768","428","j","false","img/C_ambi40.png","生人","same",""
"","","","","","html-keyboard-response","221","691463","0.0-9.0-0.0-0.0-0.0-1.72","null","<span style='color:red; font-size: 70px;'>错误! </span>","null","","","","","","","","","","","","","","","","","","","","","","","feedback_test"
"","","","","","psychophysics","222","693027","0.0-9.0-0.0-0.0-0.0-0.73","562","","j","","","","","","","","","","","","","key","j","16.66062365591486","768","428","j","true","img/T_ambi40.png","をる","same",""
"","","","","","html-keyboard-response","223","693528","0.0-9.0-0.0-0.0-0.0-1.73","null","<span style='color:GreenYellow; font-size: 70px;'>正确! </span>","null","","","","","","","","","","","","","","","","","","","","","","","feedback_test"
"","","","","","psychophysics","224","695067","0.0-9.0-0.0-0.0-0.0-0.74","536","","j","","","","","","","","","","","","","key","j","16.663249999999685","768","428","j","true","img/T_ambi40.png","をる","same",""
"","","","","","html-keyboard-response","225","695569","0.0-9.0-0.0-0.0-0.0-1.74","null","<span style='color:GreenYellow; font-size: 70px;'>正确! </span>","null","","","","","","","","","","","","","","","","","","","","","","","feedback_test"
"","","","","","psychophysics","226","697281","0.0-9.0-0.0-0.0-0.0-0.75","709","","f","","","","","","","","","","","","","key","f","16.661623762376458","768","428","f","true","img/S_ambi40.png","朋友","same",""
"","","","","","html-keyboard-response","227","697782","0.0-9.0-0.0-0.0-0.0-1.75","null","<span style='color:GreenYellow; font-size: 70px;'>正确! </span>","null","","","","","","","","","","","","","","","","","","","","","","","feedback_test"
"","","","","","psychophysics","228","699378","0.0-9.0-0.0-0.0-0.0-0.76","595","","f","","","","","","","","","","","","","key","f","16.66162765957415","768","428","f","true","img/C_ambi40.png","自我","same",""
"","","","","","html-keyboard-response","229","699879","0.0-9.0-0.0-0.0-0.0-1.76","null","<span style='color:GreenYellow; font-size: 70px;'>正确! </span>","null","","","","","","","","","","","","","","","","","","","","","","","feedback_test"
"","","","","","psychophysics","230","701485","0.0-9.0-0.0-0.0-0.0-0.77","604","","f","","","","","","","","","","","","","key","f","16.6502947368414","768","428","f","true","img/H_ambi40.png","生人","same",""
"","","","","","html-keyboard-response","231","701989","0.0-9.0-0.0-0.0-0.0-1.77","null","<span style='color:GreenYellow; font-size: 70px;'>正确! </span>","null","","","","","","","","","","","","","","","","","","","","","","","feedback_test"
"","","","","","psychophysics","232","703606","0.0-9.0-0.0-0.0-0.0-0.78","614","","f","","","","","","","","","","","","","key","f","16.660708333332877","768","428","j","false","img/C_ambi40.png","朋友","same",""
"","","","","","html-keyboard-response","233","704107","0.0-9.0-0.0-0.0-0.0-1.78","null","<span style='color:red; font-size: 70px;'>错误! </span>","null","","","","","","","","","","","","","","","","","","","","","","","feedback_test"
"","","","","","psychophysics","234","705745","0.0-9.0-0.0-0.0-0.0-0.79","636","","f","","","","","","","","","","","","","key","f","16.662185567011097","768","428","f","true","img/H_ambi40.png","生人","same",""
"","","","","","html-keyboard-response","235","706248","0.0-9.0-0.0-0.0-0.0-1.79","null","<span style='color:GreenYellow; font-size: 70px;'>正确! </span>","null","","","","","","","","","","","","","","","","","","","","","","","feedback_test"
"","","","","","psychophysics","236","707843","0.0-9.0-0.0-0.0-0.0-0.80","593","","f","","","","","","","","","","","","","key","f","16.66169148936194","768","428","f","true","img/S_ambi40.png","朋友","same",""
"","","","","","html-keyboard-response","237","708344","0.0-9.0-0.0-0.0-0.0-1.80","null","<span style='color:GreenYellow; font-size: 70px;'>正确! </span>","null","","","","","","","","","","","","","","","","","","","","","","","feedback_test"
"","","","","","psychophysics","238","710045","0.0-9.0-0.0-0.0-0.0-0.81","699","","j","","","","","","","","","","","","","key","j","16.66127722772267","768","428","j","true","img/H_ambi40.png","朋友","same",""
"","","","","","html-keyboard-response","239","710548","0.0-9.0-0.0-0.0-0.0-1.81","null","<span style='color:GreenYellow; font-size: 70px;'>正确! </span>","null","","","","","","","","","","","","","","","","","","","","","","","feedback_test"
"","","","","","psychophysics","240","712159","0.0-9.0-0.0-0.0-0.0-0.82","610","","f","","","","","","","","","","","","","key","f","16.66129473684184","768","428","j","false","img/S_ambi40.png","自我","same",""
"","","","","","html-keyboard-response","241","712661","0.0-9.0-0.0-0.0-0.0-1.82","null","<span style='color:red; font-size: 70px;'>错误! </span>","null","","","","","","","","","","","","","","","","","","","","","","","feedback_test"
"","","","","","psychophysics","242","714368","0.0-9.0-0.0-0.0-0.0-0.83","703","","f","","","","","","","","","","","","","key","f","16.661643564356446","768","428","f","true","img/S_ambi40.png","朋友","same",""
"","","","","","html-keyboard-response","243","714871","0.0-9.0-0.0-0.0-0.0-1.83","null","<span style='color:GreenYellow; font-size: 70px;'>正确! </span>","null","","","","","","","","","","","","","","","","","","","","","","","feedback_test"
"","","","","","psychophysics","244","716955","0.0-9.0-0.0-0.0-0.0-0.84","1083","","j","","","","","","","","","","","","","key","j","16.66074193548411","768","428","j","true","img/H_ambi40.png","自我","same",""
"","","","","","html-keyboard-response","245","717456","0.0-9.0-0.0-0.0-0.0-1.84","null","<span style='color:GreenYellow; font-size: 70px;'>正确! </span>","null","","","","","","","","","","","","","","","","","","","","","","","feedback_test"
"","","","","","psychophysics","246","719247","0.0-9.0-0.0-0.0-0.0-0.85","788","","f","","","","","","","","","","","","","key","f","16.6614112149528","768","428","f","true","img/H_ambi40.png","生人","same",""
"","","","","","html-keyboard-response","247","719751","0.0-9.0-0.0-0.0-0.0-1.85","null","<span style='color:GreenYellow; font-size: 70px;'>正确! </span>","null","","","","","","","","","","","","","","","","","","","","","","","feedback_test"
"","","","","","psychophysics","248","721588","0.0-9.0-0.0-0.0-0.0-0.86","835","","f","","","","","","","","","","","","","key","f","16.661633027523088","768","428","j","false","img/S_ambi40.png","生人","same",""
"","","","","","html-keyboard-response","249","722093","0.0-9.0-0.0-0.0-0.0-1.86","null","<span style='color:red; font-size: 70px;'>错误! </span>","null","","","","","","","","","","","","","","","","","","","","","","","feedback_test"
"","","","","","psychophysics","250","723905","0.0-9.0-0.0-0.0-0.0-0.87","809","","j","","","","","","","","","","","","","key","j","16.66107476635501","768","428","j","true","img/T_ambi40.png","をる","same",""
"","","","","","html-keyboard-response","251","724407","0.0-9.0-0.0-0.0-0.0-1.87","null","<span style='color:GreenYellow; font-size: 70px;'>正确! </span>","null","","","","","","","","","","","","","","","","","","","","","","","feedback_test"
"","","","","","psychophysics","252","726031","0.0-9.0-0.0-0.0-0.0-0.88","622","","f","","","","","","","","","","","","","key","f","16.661802083333896","768","428","f","true","img/C_ambi40.png","自我","same",""
"","","","","","html-keyboard-response","253","726533","0.0-9.0-0.0-0.0-0.0-1.88","null","<span style='color:GreenYellow; font-size: 70px;'>正确! </span>","null","","","","","","","","","","","","","","","","","","","","","","","feedback_test"
"","","","","","psychophysics","254","728232","0.0-9.0-0.0-0.0-0.0-0.89","697","","f","","","","","","","","","","","","","key","f","16.657861386137636","768","428","f","true","img/C_ambi40.png","自我","same",""
"","","","","","html-keyboard-response","255","728733","0.0-9.0-0.0-0.0-0.0-1.89","null","<span style='color:GreenYellow; font-size: 70px;'>正确! </span>","null","","","","","","","","","","","","","","","","","","","","","","","feedback_test"
"","","","","","psychophysics","256","730307","0.0-9.0-0.0-0.0-0.0-0.90","572","","j","","","","","","","","","","","","","key","j","16.660840425532598","768","428","j","true","img/T_ambi40.png","をる","same",""
"","","","","","html-keyboard-response","257","730810","0.0-9.0-0.0-0.0-0.0-1.90","null","<span style='color:GreenYellow; font-size: 70px;'>正确! </span>","null","","","","","","","","","","","","","","","","","","","","","","","feedback_test"
"","","","","","psychophysics","258","732821","0.0-9.0-0.0-0.0-0.0-0.91","1009","","j","","","","","","","","","","","","","key","j","16.661613445377814","768","428","f","false","img/C_ambi40.png","自我","same",""
"","","","","","html-keyboard-response","259","733325","0.0-9.0-0.0-0.0-0.0-1.91","null","<span style='color:red; font-size: 70px;'>错误! </span>","null","","","","","","","","","","","","","","","","","","","","","","","feedback_test"
"","","","","","psychophysics","260","735252","0.0-9.0-0.0-0.0-0.0-0.92","924","","j","","","","","","","","","","","","","key","j","16.662017543859402","768","428","j","true","img/S_ambi40.png","自我","same",""
"","","","","","html-keyboard-response","261","735757","0.0-9.0-0.0-0.0-0.0-1.92","null","<span style='color:GreenYellow; font-size: 70px;'>正确! </span>","null","","","","","","","","","","","","","","","","","","","","","","","feedback_test"
"","","","","","psychophysics","262","737636","0.0-9.0-0.0-0.0-0.0-0.93","877","","j","","","","","","","","","","","","","key","j","16.6610630630633","768","428","j","true","img/H_ambi40.png","自我","same",""
"","","","","","html-keyboard-response","263","738137","0.0-9.0-0.0-0.0-0.0-1.93","null","<span style='color:GreenYellow; font-size: 70px;'>正确! </span>","null","","","","","","","","","","","","","","","","","","","","","","","feedback_test"
"","","","","","psychophysics","264","740281","0.0-9.0-0.0-0.0-0.0-0.94","1142","","j","","","","","","","","","","","","","key","j","16.66151968503965","768","428","j","true","img/C_ambi40.png","朋友","same",""
"","","","","","html-keyboard-response","265","740782","0.0-9.0-0.0-0.0-0.0-1.94","null","<span style='color:GreenYellow; font-size: 70px;'>正确! </span>","null","","","","","","","","","","","","","","","","","","","","","","","feedback_test"
"","","","","","psychophysics","266","742654","0.0-9.0-0.0-0.0-0.0-0.95","866","","f","","","","","","","","","","","","","key","f","16.661657657657816","768","428","j","false","img/H_ambi40.png","朋友","same",""
"","","","","","html-keyboard-response","267","743160","0.0-9.0-0.0-0.0-0.0-1.95","null","<span style='color:red; font-size: 70px;'>错误! </span>","null","","","","","","","","","","","","","","","","","","","","","","","feedback_test"
"","","","","","psychophysics","268","744783","0.0-9.0-0.0-0.0-0.0-0.96","621","","j","","","","","","","","","","","","","key","j","16.66192708333377","768","428","j","true","img/T_ambi40.png","をる","same",""
"","","","","","html-keyboard-response","269","745287","0.0-9.0-0.0-0.0-0.0-1.96","null","<span style='color:GreenYellow; font-size: 70px;'>正确! </span>","null","","","","","","","","","","","","","","","","","","","","","","","feedback_test"
"","","","","","psychophysics","270","747027","0.0-9.0-0.0-0.0-0.0-0.97","738","","f","","","","","","","","","","","","","key","f","16.661563106796713","768","428","f","true","img/S_ambi40.png","朋友","same",""
"","","","","","html-keyboard-response","271","747529","0.0-9.0-0.0-0.0-0.0-1.97","null","<span style='color:GreenYellow; font-size: 70px;'>正确! </span>","null","","","","","","","","","","","","","","","","","","","","","","","feedback_test"
"","","","","","psychophysics","272","749387","0.0-9.0-0.0-0.0-0.0-0.98","855","","j","","","","","","","","","","","","","key","j","16.66207207207199","768","428","f","false","img/H_ambi40.png","生人","same",""
"","","","","","html-keyboard-response","273","749890","0.0-9.0-0.0-0.0-0.0-1.98","null","<span style='color:red; font-size: 70px;'>错误! </span>","null","","","","","","","","","","","","","","","","","","","","","","","feedback_test"
"","","","","","psychophysics","274","751675","0.0-9.0-0.0-0.0-0.0-0.99","782","","f","","","","","","","","","","","","","key","f","17.151388349514498","768","428","f","true","img/H_ambi40.png","生人","same",""
"","","","","","html-keyboard-response","275","752178","0.0-9.0-0.0-0.0-0.0-1.99","null","<span style='color:GreenYellow; font-size: 70px;'>正确! </span>","null","","","","","","","","","","","","","","","","","","","","","","","feedback_test"
"","","","","","psychophysics","276","753660","0.0-9.0-0.0-0.0-0.0-0.100","479","","f","","","","","","","","","","","","","key","f","16.661420454544977","768","428","f","true","img/C_ambi40.png","自我","same",""
"","","","","","html-keyboard-response","277","754161","0.0-9.0-0.0-0.0-0.0-1.100","null","<span style='color:GreenYellow; font-size: 70px;'>正确! </span>","null","","","","","","","","","","","","","","","","","","","","","","","feedback_test"
"","","","","","psychophysics","278","755987","0.0-9.0-0.0-0.0-0.0-0.101","823","","j","","","","","","","","","","","","","key","j","16.663743119266037","768","428","j","true","img/C_ambi40.png","生人","same",""
"","","","","","html-keyboard-response","279","756491","0.0-9.0-0.0-0.0-0.0-1.101","null","<span style='color:GreenYellow; font-size: 70px;'>正确! </span>","null","","","","","","","","","","","","","","","","","","","","","","","feedback_test"
"","","","","","psychophysics","280","758052","0.0-9.0-0.0-0.0-0.0-0.102","560","","j","","","","","","","","","","","","","key","j","16.660763440860226","768","428","j","true","img/T_ambi40.png","をる","same",""
"","","","","","html-keyboard-response","281","758557","0.0-9.0-0.0-0.0-0.0-1.102","null","<span style='color:GreenYellow; font-size: 70px;'>正确! </span>","null","","","","","","","","","","","","","","","","","","","","","","","feedback_test"
"","","","","","psychophysics","282","760330","0.0-9.0-0.0-0.0-0.0-0.103","771","","f","","","","","","","","","","","","","key","f","16.66197142857127","768","428","f","true","img/S_ambi40.png","朋友","same",""
"","","","","","html-keyboard-response","283","760831","0.0-9.0-0.0-0.0-0.0-1.103","null","<span style='color:GreenYellow; font-size: 70px;'>正确! </span>","null","","","","","","","","","","","","","","","","","","","","","","","feedback_test"
"","","","","","psychophysics","284","762598","0.0-9.0-0.0-0.0-0.0-0.104","764","","f","","","","","","","","","","","","","key","f","16.66372380952373","768","428","f","true","img/H_ambi40.png","生人","same",""
"","","","","","html-keyboard-response","285","763101","0.0-9.0-0.0-0.0-0.0-1.104","null","<span style='color:GreenYellow; font-size: 70px;'>正确! </span>","null","","","","","","","","","","","","","","","","","","","","","","","feedback_test"
"","","","","","psychophysics","286","764904","0.0-9.0-0.0-0.0-0.0-0.105","801","","j","","","","","","","","","","","","","key","j","16.660738317757218","768","428","j","true","img/S_ambi40.png","生人","same",""
"","","","","","html-keyboard-response","287","765405","0.0-9.0-0.0-0.0-0.0-1.105","null","<span style='color:GreenYellow; font-size: 70px;'>正确! </span>","null","","","","","","","","","","","","","","","","","","","","","","","feedback_test"
"","","","","","psychophysics","288","767237","0.0-9.0-0.0-0.0-0.0-0.106","830","","f","","","","","","","","","","","","","key","f","16.661385321101054","768","428","f","true","img/S_ambi40.png","朋友","same",""
"","","","","","html-keyboard-response","289","767738","0.0-9.0-0.0-0.0-0.0-1.106","null","<span style='color:GreenYellow; font-size: 70px;'>正确! </span>","null","","","","","","","","","","","","","","","","","","","","","","","feedback_test"
"","","","","","psychophysics","290","769324","0.0-9.0-0.0-0.0-0.0-0.107","583","","f","","","","","","","","","","","","","key","f","16.661606382978633","768","428","f","true","img/C_ambi40.png","自我","same",""
"","","","","","html-keyboard-response","291","769827","0.0-9.0-0.0-0.0-0.0-1.107","null","<span style='color:GreenYellow; font-size: 70px;'>正确! </span>","null","","","","","","","","","","","","","","","","","","","","","","","feedback_test"
"","","","","","html-keyboard-response","292","773246","0.0-9.0-0.0-0.0-1.0","3417","<style>.context{color:white; font-size: 35px; line-height:40px}</style>                          <div><p class='context'>您正确回答了81% 的试次。</p><p class='context'>您的平均反应时为748毫秒。</p><p class='context'>请按任意键进入休息</p></div>"," ","","","","","","","","","","","","","","","","","","","","","","",""
"","","","","","html-button-response","293","851003","0.0-9.0-0.0-0.0-2.0","77751","
                    <p>您当前还剩余5组实验</p>
                    <p>现在是休息时间，当您结束休息后，您可以点击 结束休息 按钮 继续</p>
                    <p>建议休息时间还剩余<span id=""iii"">60</span>秒</p>","0","","","","","","","","","","","","","","","","","","","","","","",""
"","","","","","psychophysics","294","852763","0.0-9.0-0.0-0.0-0.1-0.108","755","","j","","","","","","","","","","","","","key","j","16.662259615384617","768","428","j","true","img/T_ambi40.png","をる","same",""
"","","","","","html-keyboard-response","295","853265","0.0-9.0-0.0-0.0-0.1-1.108","null","<span style='color:GreenYellow; font-size: 70px;'>正确! </span>","null","","","","","","","","","","","","","","","","","","","","","","","feedback_test"
"","","","","","psychophysics","296","855686","0.0-9.0-0.0-0.0-0.1-0.109","1419","","f","","","","","","","","","","","","","key","f","16.777664335664376","768","428","f","true","img/H_ambi40.png","生人","same",""
"","","","","","html-keyboard-response","297","856189","0.0-9.0-0.0-0.0-0.1-1.109","null","<span style='color:GreenYellow; font-size: 70px;'>正确! </span>","null","","","","","","","","","","","","","","","","","","","","","","","feedback_test"
"","","","","","psychophysics","298","858156","0.0-9.0-0.0-0.0-0.1-0.110","964","","j","","","","","","","","","","","","","key","j","16.6602393162395","768","428","j","true","img/H_ambi40.png","朋友","same",""
"","","","","","html-keyboard-response","299","858658","0.0-9.0-0.0-0.0-0.1-1.110","null","<span style='color:GreenYellow; font-size: 70px;'>正确! </span>","null","","","","","","","","","","","","","","","","","","","","","","","feedback_test"
"","","","","","psychophysics","300","860491","0.0-9.0-0.0-0.0-0.1-0.111","830","","f","","","","","","","","","","","","","key","f","16.66143119266073","768","428","f","true","img/S_ambi40.png","朋友","same",""
"","","","","","html-keyboard-response","301","860992","0.0-9.0-0.0-0.0-0.1-1.111","null","<span style='color:GreenYellow; font-size: 70px;'>正确! </span>","null","","","","","","","","","","","","","","","","","","","","","","","feedback_test"
"","","","","","psychophysics","302","862726","0.0-9.0-0.0-0.0-0.1-0.112","732","","j","","","","","","","","","","","","","key","j","16.661601941746625","768","428","j","true","img/C_ambi40.png","生人","same",""
"","","","","","html-keyboard-response","303","863227","0.0-9.0-0.0-0.0-0.1-1.112","null","<span style='color:GreenYellow; font-size: 70px;'>正确! </span>","null","","","","","","","","","","","","","","","","","","","","","","","feedback_test"
"","","","","","psychophysics","304","864995","0.0-9.0-0.0-0.0-0.1-0.113","767","","f","","","","","","","","","","","","","key","f","16.662180952380766","768","428","f","true","img/C_ambi40.png","自我","same",""
"","","","","","html-keyboard-response","305","865498","0.0-9.0-0.0-0.0-0.1-1.113","null","<span style='color:GreenYellow; font-size: 70px;'>正确! </span>","null","","","","","","","","","","","","","","","","","","","","","","","feedback_test"
"","","","","","psychophysics","306","867431","0.0-9.0-0.0-0.0-0.1-0.114","931","","f","","","","","","","","","","","","","key","f","16.660426086955702","768","428","f","true","img/H_ambi40.png","生人","same",""
"","","","","","html-keyboard-response","307","867934","0.0-9.0-0.0-0.0-0.1-1.114","null","<span style='color:GreenYellow; font-size: 70px;'>正确! </span>","null","","","","","","","","","","","","","","","","","","","","","","","feedback_test"
"","","","","","psychophysics","308","869595","0.0-9.0-0.0-0.0-0.1-0.115","658","","f","","","","","","","","","","","","","key","f","16.661010204081432","768","428","f","true","img/C_ambi40.png","自我","same",""
"","","","","","html-keyboard-response","309","870097","0.0-9.0-0.0-0.0-0.1-1.115","null","<span style='color:GreenYellow; font-size: 70px;'>正确! </span>","null","","","","","","","","","","","","","","","","","","","","","","","feedback_test"
"","","","","","psychophysics","310","871855","0.0-9.0-0.0-0.0-0.1-0.116","757","","f","","","","","","","","","","","","","key","f","16.662259615384617","768","428","f","true","img/C_ambi40.png","自我","same",""
"","","","","","html-keyboard-response","311","872356","0.0-9.0-0.0-0.0-0.1-1.116","null","<span style='color:GreenYellow; font-size: 70px;'>正确! </span>","null","","","","","","","","","","","","","","","","","","","","","","","feedback_test"
"","","","","","psychophysics","312","874473","0.0-9.0-0.0-0.0-0.1-0.117","1114","","f","","","","","","","","","","","","","key","f","16.662277777778126","768","428","f","true","img/S_ambi40.png","朋友","same",""
"","","","","","html-keyboard-response","313","874974","0.0-9.0-0.0-0.0-0.1-1.117","null","<span style='color:GreenYellow; font-size: 70px;'>正确! </span>","null","","","","","","","","","","","","","","","","","","","","","","","feedback_test"
"","","","","","psychophysics","314","876595","0.0-9.0-0.0-0.0-0.1-0.118","620","","j","","","","","","","","","","","","","key","j","16.667474226804075","768","428","j","true","img/T_ambi40.png","をる","same",""
"","","","","","html-keyboard-response","315","877097","0.0-9.0-0.0-0.0-0.1-1.118","null","<span style='color:GreenYellow; font-size: 70px;'>正确! </span>","null","","","","","","","","","","","","","","","","","","","","","","","feedback_test"
"","","","","","psychophysics","316","878858","0.0-9.0-0.0-0.0-0.1-0.119","757","","j","","","","","","","","","","","","","key","j","16.660500000000376","768","428","j","true","img/H_ambi40.png","自我","same",""
"","","","","","html-keyboard-response","317","879360","0.0-9.0-0.0-0.0-0.1-1.119","null","<span style='color:GreenYellow; font-size: 70px;'>正确! </span>","null","","","","","","","","","","","","","","","","","","","","","","","feedback_test"
"","","","","","psychophysics","318","881528","0.0-9.0-0.0-0.0-0.1-0.120","1166","","f","","","","","","","","","","","","","key","f","16.66275968992281","768","428","j","false","img/S_ambi40.png","生人","same",""
"","","","","","html-keyboard-response","319","882033","0.0-9.0-0.0-0.0-0.1-1.120","null","<span style='color:red; font-size: 70px;'>错误! </span>","null","","","","","","","","","","","","","","","","","","","","","","","feedback_test"
"","","","","","psychophysics","320","884138","0.0-9.0-0.0-0.0-0.1-0.121","1103","","j","","","","","","","","","","","","","key","j","16.658135999999942","768","428","j","true","img/C_ambi40.png","朋友","same",""
"","","","","","html-keyboard-response","321","884639","0.0-9.0-0.0-0.0-0.1-1.121","null","<span style='color:GreenYellow; font-size: 70px;'>正确! </span>","null","","","","","","","","","","","","","","","","","","","","","","","feedback_test"
"","","","","","psychophysics","322","886858","0.0-9.0-0.0-0.0-0.1-0.122","1217","","f","","","","","","","","","","","","","key","f","16.664598484849027","768","428","f","true","img/S_ambi40.png","朋友","same",""
"","","","","","html-keyboard-response","323","887361","0.0-9.0-0.0-0.0-0.1-1.122","null","<span style='color:GreenYellow; font-size: 70px;'>正确! </span>","null","","","","","","","","","","","","","","","","","","","","","","","feedback_test"
"","","","","","psychophysics","324","889502","0.0-9.0-0.0-0.0-0.1-0.123","1139","","j","","","","","","","","","","","","","key","j","16.66111023622055","768","428","f","false","img/H_ambi40.png","生人","same",""
"","","","","","html-keyboard-response","325","890004","0.0-9.0-0.0-0.0-0.1-1.123","null","<span style='color:red; font-size: 70px;'>错误! </span>","null","","","","","","","","","","","","","","","","","","","","","","","feedback_test"
"","","","","","psychophysics","326","891721","0.0-9.0-0.0-0.0-0.1-0.124","715","","j","","","","","","","","","","","","","key","j","16.66106930693109","768","428","j","true","img/S_ambi40.png","自我","same",""
"","","","","","html-keyboard-response","327","892223","0.0-9.0-0.0-0.0-0.1-1.124","null","<span style='color:GreenYellow; font-size: 70px;'>正确! </span>","null","","","","","","","","","","","","","","","","","","","","","","","feedback_test"
"","","","","","psychophysics","328","893812","0.0-9.0-0.0-0.0-0.1-0.125","586","","j","","","","","","","","","","","","","key","j","16.661117021276795","768","428","j","true","img/T_ambi40.png","をる","same",""
"","","","","","html-keyboard-response","329","894314","0.0-9.0-0.0-0.0-0.1-1.125","null","<span style='color:GreenYellow; font-size: 70px;'>正确! </span>","null","","","","","","","","","","","","","","","","","","","","","","","feedback_test"
"","","","","","psychophysics","330","896614","0.0-9.0-0.0-0.0-0.1-0.126","1296","","j","","","","","","","","","","","","","key","j","16.6588905109492","768","428","j","true","img/H_ambi40.png","朋友","same",""
"","","","","","html-keyboard-response","331","897115","0.0-9.0-0.0-0.0-0.1-1.126","null","<span style='color:GreenYellow; font-size: 70px;'>正确! </span>","null","","","","","","","","","","","","","","","","","","","","","","","feedback_test"
"","","","","","psychophysics","332","898697","0.0-9.0-0.0-0.0-0.1-0.127","580","","j","","","","","","","","","","","","","key","j","16.66125531914951","768","428","j","true","img/T_ambi40.png","をる","same",""
"","","","","","html-keyboard-response","333","899198","0.0-9.0-0.0-0.0-0.1-1.127","null","<span style='color:GreenYellow; font-size: 70px;'>正确! </span>","null","","","","","","","","","","","","","","","","","","","","","","","feedback_test"
"","","","","","psychophysics","334","901408","0.0-9.0-0.0-0.0-0.1-0.128","1207","","j","","","","","","","","","","","","","key","j","16.66085606060612","768","428","j","true","img/S_ambi40.png","生人","same",""
"","","","","","html-keyboard-response","335","901910","0.0-9.0-0.0-0.0-0.1-1.128","null","<span style='color:GreenYellow; font-size: 70px;'>正确! </span>","null","","","","","","","","","","","","","","","","","","","","","","","feedback_test"
"","","","","","psychophysics","336","903804","0.0-9.0-0.0-0.0-0.1-0.129","890","","j","","","","","","","","","","","","","key","j","16.65787610619543","768","428","j","true","img/C_ambi40.png","朋友","same",""
"","","","","","html-keyboard-response","337","904307","0.0-9.0-0.0-0.0-0.1-1.129","null","<span style='color:GreenYellow; font-size: 70px;'>正确! </span>","null","","","","","","","","","","","","","","","","","","","","","","","feedback_test"
"","","","","","psychophysics","338","906132","0.0-9.0-0.0-0.0-0.1-0.130","823","","f","","","","","","","","","","","","","key","f","16.664750000000588","768","428","f","true","img/H_ambi40.png","生人","same",""
"","","","","","html-keyboard-response","339","906632","0.0-9.0-0.0-0.0-0.1-1.130","null","<span style='color:GreenYellow; font-size: 70px;'>正确! </span>","null","","","","","","","","","","","","","","","","","","","","","","","feedback_test"
"","","","","","psychophysics","340","908393","0.0-9.0-0.0-0.0-0.1-0.131","760","","j","","","","","","","","","","","","","key","j","16.66346153846154","768","428","f","false","img/H_ambi40.png","生人","same",""
"","","","","","html-keyboard-response","341","908895","0.0-9.0-0.0-0.0-0.1-1.131","null","<span style='color:red; font-size: 70px;'>错误! </span>","null","","","","","","","","","","","","","","","","","","","","","","","feedback_test"
"","","","","","psychophysics","342","910539","0.0-9.0-0.0-0.0-0.1-0.132","642","","j","","","","","","","","","","","","","key","j","16.662214285714256","768","428","j","true","img/T_ambi40.png","をる","same",""
"","","","","","html-keyboard-response","343","911045","0.0-9.0-0.0-0.0-0.1-1.132","null","<span style='color:GreenYellow; font-size: 70px;'>正确! </span>","null","","","","","","","","","","","","","","","","","","","","","","","feedback_test"
"","","","","","psychophysics","344","912826","0.0-9.0-0.0-0.0-0.1-0.133","778","","j","","","","","","","","","","","","","key","j","16.661594339622237","768","428","j","true","img/H_ambi40.png","自我","same",""
"","","","","","html-keyboard-response","345","913328","0.0-9.0-0.0-0.0-0.1-1.133","null","<span style='color:GreenYellow; font-size: 70px;'>正确! </span>","null","","","","","","","","","","","","","","","","","","","","","","","feedback_test"
"","","","","","psychophysics","346","915182","0.0-9.0-0.0-0.0-0.1-0.134","852","","j","","","","","","","","","","","","","key","j","16.661954954954552","768","428","j","true","img/S_ambi40.png","自我","same",""
"","","","","","html-keyboard-response","347","915685","0.0-9.0-0.0-0.0-0.1-1.134","null","<span style='color:GreenYellow; font-size: 70px;'>正确! </span>","null","","","","","","","","","","","","","","","","","","","","","","","feedback_test"
"","","","","","psychophysics","348","917526","0.0-9.0-0.0-0.0-0.1-0.135","839","","j","","","","","","","","","","","","","key","j","16.665183486238575","768","428","j","true","img/C_ambi40.png","生人","same",""
"","","","","","html-keyboard-response","349","918028","0.0-9.0-0.0-0.0-0.1-1.135","null","<span style='color:GreenYellow; font-size: 70px;'>正确! </span>","null","","","","","","","","","","","","","","","","","","","","","","","feedback_test"
"","","","","","psychophysics","350","919998","0.0-9.0-0.0-0.0-0.1-0.136","969","","f","","","","","","","","","","","","","key","f","16.655957264957042","768","428","f","true","img/H_ambi40.png","生人","same",""
"","","","","","html-keyboard-response","351","920500","0.0-9.0-0.0-0.0-0.1-1.136","null","<span style='color:GreenYellow; font-size: 70px;'>正确! </span>","null","","","","","","","","","","","","","","","","","","","","","","","feedback_test"
"","","","","","psychophysics","352","922446","0.0-9.0-0.0-0.0-0.1-0.137","943","","f","","","","","","","","","","","","","key","f","16.660422413793576","768","428","f","true","img/S_ambi40.png","朋友","same",""
"","","","","","html-keyboard-response","353","922948","0.0-9.0-0.0-0.0-0.1-1.137","null","<span style='color:GreenYellow; font-size: 70px;'>正确! </span>","null","","","","","","","","","","","","","","","","","","","","","","","feedback_test"
"","","","","","psychophysics","354","924842","0.0-9.0-0.0-0.0-0.1-0.138","890","","f","","","","","","","","","","","","","key","f","16.654383928571146","768","428","f","true","img/S_ambi40.png","朋友","same",""
"","","","","","html-keyboard-response","355","925344","0.0-9.0-0.0-0.0-0.1-1.138","null","<span style='color:GreenYellow; font-size: 70px;'>正确! </span>","null","","","","","","","","","","","","","","","","","","","","","","","feedback_test"
"","","","","","psychophysics","356","927041","0.0-9.0-0.0-0.0-0.1-0.139","695","","f","","","","","","","","","","","","","key","f","16.661419999999925","768","428","f","true","img/S_ambi40.png","朋友","same",""
"","","","","","html-keyboard-response","357","927543","0.0-9.0-0.0-0.0-0.1-1.139","null","<span style='color:GreenYellow; font-size: 70px;'>正确! </span>","null","","","","","","","","","","","","","","","","","","","","","","","feedback_test"
"","","","","","psychophysics","358","929305","0.0-9.0-0.0-0.0-0.1-0.140","760","","f","","","","","","","","","","","","","key","f","16.66097115384652","768","428","f","true","img/C_ambi40.png","自我","same",""
"","","","","","html-keyboard-response","359","929809","0.0-9.0-0.0-0.0-0.1-1.140","null","<span style='color:GreenYellow; font-size: 70px;'>正确! </span>","null","","","","","","","","","","","","","","","","","","","","","","","feedback_test"
"","","","","","psychophysics","360","931442","0.0-9.0-0.0-0.0-0.1-0.141","632","","f","","","","","","","","","","","","","key","f","16.661343749999407","768","428","f","true","img/C_ambi40.png","自我","same",""
"","","","","","html-keyboard-response","361","931943","0.0-9.0-0.0-0.0-0.1-1.141","null","<span style='color:GreenYellow; font-size: 70px;'>正确! </span>","null","","","","","","","","","","","","","","","","","","","","","","","feedback_test"
"","","","","","psychophysics","362","933569","0.0-9.0-0.0-0.0-0.1-0.142","624","","j","","","","","","","","","","","","","key","j","16.661343749999407","768","428","j","true","img/T_ambi40.png","をる","same",""
"","","","","","html-keyboard-response","363","934070","0.0-9.0-0.0-0.0-0.1-1.142","null","<span style='color:GreenYellow; font-size: 70px;'>正确! </span>","null","","","","","","","","","","","","","","","","","","","","","","","feedback_test"
"","","","","","psychophysics","364","935704","0.0-9.0-0.0-0.0-0.1-0.143","632","","f","","","","","","","","","","","","","key","f","16.661639175257772","768","428","f","true","img/C_ambi40.png","自我","same",""
"","","","","","html-keyboard-response","365","936204","0.0-9.0-0.0-0.0-0.1-1.143","null","<span style='color:GreenYellow; font-size: 70px;'>正确! </span>","null","","","","","","","","","","","","","","","","","","","","","","","feedback_test"
"","","","","","psychophysics","366","937872","0.0-9.0-0.0-0.0-0.1-0.144","665","","j","","","","","","","","","","","","","key","j","16.663272727272624","768","428","j","true","img/H_ambi40.png","自我","same",""
"","","","","","html-keyboard-response","367","938373","0.0-9.0-0.0-0.0-0.1-1.144","null","<span style='color:GreenYellow; font-size: 70px;'>正确! </span>","null","","","","","","","","","","","","","","","","","","","","","","","feedback_test"
"","","","","","psychophysics","368","940013","0.0-9.0-0.0-0.0-0.1-0.145","637","","f","","","","","","","","","","","","","key","f","16.66148453608237","768","428","f","true","img/C_ambi40.png","自我","same",""
"","","","","","html-keyboard-response","369","940516","0.0-9.0-0.0-0.0-0.1-1.145","null","<span style='color:GreenYellow; font-size: 70px;'>正确! </span>","null","","","","","","","","","","","","","","","","","","","","","","","feedback_test"
"","","","","","psychophysics","370","942250","0.0-9.0-0.0-0.0-0.1-0.146","731","","f","","","","","","","","","","","","","key","f","16.660184466018958","768","428","f","true","img/H_ambi40.png","生人","same",""
"","","","","","html-keyboard-response","371","942755","0.0-9.0-0.0-0.0-0.1-1.146","null","<span style='color:GreenYellow; font-size: 70px;'>正确! </span>","null","","","","","","","","","","","","","","","","","","","","","","","feedback_test"
"","","","","","psychophysics","372","944396","0.0-9.0-0.0-0.0-0.1-0.147","639","","f","","","","","","","","","","","","","key","f","16.66801030927856","768","428","f","true","img/C_ambi40.png","自我","same",""
"","","","","","html-keyboard-response","373","944899","0.0-9.0-0.0-0.0-0.1-1.147","null","<span style='color:GreenYellow; font-size: 70px;'>正确! </span>","null","","","","","","","","","","","","","","","","","","","","","","","feedback_test"
"","","","","","psychophysics","374","946600","0.0-9.0-0.0-0.0-0.1-0.148","700","","f","","","","","","","","","","","","","key","f","16.667485148514537","768","428","f","true","img/S_ambi40.png","朋友","same",""
"","","","","","html-keyboard-response","375","947101","0.0-9.0-0.0-0.0-0.1-1.148","null","<span style='color:GreenYellow; font-size: 70px;'>正确! </span>","null","","","","","","","","","","","","","","","","","","","","","","","feedback_test"
"","","","","","psychophysics","376","948654","0.0-9.0-0.0-0.0-0.1-0.149","550","","j","","","","","","","","","","","","","key","j","16.661076086956715","768","428","j","true","img/T_ambi40.png","をる","same",""
"","","","","","html-keyboard-response","377","949157","0.0-9.0-0.0-0.0-0.1-1.149","null","<span style='color:GreenYellow; font-size: 70px;'>正确! </span>","null","","","","","","","","","","","","","","","","","","","","","","","feedback_test"
"","","","","","psychophysics","378","950962","0.0-9.0-0.0-0.0-0.1-0.150","802","","f","","","","","","","","","","","","","key","f","16.66171962616826","768","428","f","true","img/S_ambi40.png","朋友","same",""
"","","","","","html-keyboard-response","379","951463","0.0-9.0-0.0-0.0-0.1-1.150","null","<span style='color:GreenYellow; font-size: 70px;'>正确! </span>","null","","","","","","","","","","","","","","","","","","","","","","","feedback_test"
"","","","","","psychophysics","380","953494","0.0-9.0-0.0-0.0-0.1-0.151","1029","","j","","","","","","","","","","","","","key","j","16.661504132231535","768","428","j","true","img/C_ambi40.png","生人","same",""
"","","","","","html-keyboard-response","381","953995","0.0-9.0-0.0-0.0-0.1-1.151","null","<span style='color:GreenYellow; font-size: 70px;'>正确! </span>","null","","","","","","","","","","","","","","","","","","","","","","","feedback_test"
"","","","","","psychophysics","382","956026","0.0-9.0-0.0-0.0-0.1-0.152","1030","","f","","","","","","","","","","","","","key","f","16.66049586776894","768","428","f","true","img/H_ambi40.png","生人","same",""
"","","","","","html-keyboard-response","383","956527","0.0-9.0-0.0-0.0-0.1-1.152","null","<span style='color:GreenYellow; font-size: 70px;'>正确! </span>","null","","","","","","","","","","","","","","","","","","","","","","","feedback_test"
"","","","","","psychophysics","384","958293","0.0-9.0-0.0-0.0-0.1-0.153","763","","j","","","","","","","","","","","","","key","j","16.66202857142891","768","428","j","true","img/S_ambi40.png","自我","same",""
"","","","","","html-keyboard-response","385","958794","0.0-9.0-0.0-0.0-0.1-1.153","null","<span style='color:GreenYellow; font-size: 70px;'>正确! </span>","null","","","","","","","","","","","","","","","","","","","","","","","feedback_test"
"","","","","","psychophysics","386","960382","0.0-9.0-0.0-0.0-0.1-0.154","587","","j","","","","","","","","","","","","","key","j","16.66102127659511","768","428","j","true","img/T_ambi40.png","をる","same",""
"","","","","","html-keyboard-response","387","960883","0.0-9.0-0.0-0.0-0.1-1.154","null","<span style='color:GreenYellow; font-size: 70px;'>正确! </span>","null","","","","","","","","","","","","","","","","","","","","","","","feedback_test"
"","","","","","psychophysics","388","962661","0.0-9.0-0.0-0.0-0.1-0.155","775","","f","","","","","","","","","","","","","key","f","16.661523809524564","768","428","f","true","img/H_ambi40.png","生人","same",""
"","","","","","html-keyboard-response","389","963162","0.0-9.0-0.0-0.0-0.1-1.155","null","<span style='color:GreenYellow; font-size: 70px;'>正确! </span>","null","","","","","","","","","","","","","","","","","","","","","","","feedback_test"
"","","","","","psychophysics","390","964792","0.0-9.0-0.0-0.0-0.1-0.156","629","","f","","","","","","","","","","","","","key","f","16.661474226803527","768","428","f","true","img/C_ambi40.png","自我","same",""
"","","","","","html-keyboard-response","391","965294","0.0-9.0-0.0-0.0-0.1-1.156","null","<span style='color:GreenYellow; font-size: 70px;'>正确! </span>","null","","","","","","","","","","","","","","","","","","","","","","","feedback_test"
"","","","","","psychophysics","392","967108","0.0-9.0-0.0-0.0-0.1-0.157","813","","f","","","","","","","","","","","","","key","f","16.66149074074174","768","428","j","false","img/S_ambi40.png","生人","same",""
"","","","","","html-keyboard-response","393","967610","0.0-9.0-0.0-0.0-0.1-1.157","null","<span style='color:red; font-size: 70px;'>错误! </span>","null","","","","","","","","","","","","","","","","","","","","","","","feedback_test"
"","","","","","psychophysics","394","969217","0.0-9.0-0.0-0.0-0.1-0.158","606","","j","","","","","","","","","","","","","key","j","16.6668229166656","768","428","j","true","img/T_ambi40.png","をる","same",""
"","","","","","html-keyboard-response","395","969721","0.0-9.0-0.0-0.0-0.1-1.158","null","<span style='color:GreenYellow; font-size: 70px;'>正确! </span>","null","","","","","","","","","","","","","","","","","","","","","","","feedback_test"
"","","","","","psychophysics","396","971428","0.0-9.0-0.0-0.0-0.1-0.159","705","","f","","","","","","","","","","","","","key","f","16.661950495047957","768","428","j","false","img/C_ambi40.png","朋友","same",""
"","","","","","html-keyboard-response","397","971929","0.0-9.0-0.0-0.0-0.1-1.159","null","<span style='color:red; font-size: 70px;'>错误! </span>","null","","","","","","","","","","","","","","","","","","","","","","","feedback_test"
"","","","","","psychophysics","398","973867","0.0-9.0-0.0-0.0-0.1-0.160","936","","f","","","","","","","","","","","","","key","f","16.661721739130417","768","428","j","false","img/H_ambi40.png","朋友","same",""
"","","","","","html-keyboard-response","399","974371","0.0-9.0-0.0-0.0-0.1-1.160","null","<span style='color:red; font-size: 70px;'>错误! </span>","null","","","","","","","","","","","","","","","","","","","","","","","feedback_test"
"","","","","","psychophysics","400","976136","0.0-9.0-0.0-0.0-0.1-0.161","764","","f","","","","","","","","","","","","","key","f","16.66165714285647","768","428","f","true","img/S_ambi40.png","朋友","same",""
"","","","","","html-keyboard-response","401","976637","0.0-9.0-0.0-0.0-0.1-1.161","null","<span style='color:GreenYellow; font-size: 70px;'>正确! </span>","null","","","","","","","","","","","","","","","","","","","","","","","feedback_test"
"","","","","","psychophysics","402","978419","0.0-9.0-0.0-0.0-0.1-0.162","780","","f","","","","","","","","","","","","","key","f","16.656471698112206","768","428","f","true","img/H_ambi40.png","生人","same",""
"","","","","","html-keyboard-response","403","978920","0.0-9.0-0.0-0.0-0.1-1.162","null","<span style='color:GreenYellow; font-size: 70px;'>正确! </span>","null","","","","","","","","","","","","","","","","","","","","","","","feedback_test"
"","","","","","psychophysics","404","980555","0.0-9.0-0.0-0.0-0.1-0.163","631","","f","","","","","","","","","","","","","key","f","16.65829896907197","768","428","f","true","img/H_ambi40.png","生人","same",""
"","","","","","html-keyboard-response","405","981057","0.0-9.0-0.0-0.0-0.1-1.163","null","<span style='color:GreenYellow; font-size: 70px;'>正确! </span>","null","","","","","","","","","","","","","","","","","","","","","","","feedback_test"
"","","","","","psychophysics","406","982780","0.0-9.0-0.0-0.0-0.1-0.164","720","","j","","","","","","","","","","","","","key","j","16.66220388349679","768","428","j","true","img/T_ambi40.png","をる","same",""
"","","","","","html-keyboard-response","407","983282","0.0-9.0-0.0-0.0-0.1-1.164","null","<span style='color:GreenYellow; font-size: 70px;'>正确! </span>","null","","","","","","","","","","","","","","","","","","","","","","","feedback_test"
"","","","","","psychophysics","408","985550","0.0-9.0-0.0-0.0-0.1-0.165","1265","","j","","","","","","","","","","","","","key","j","16.661674074074945","768","428","f","false","img/S_ambi40.png","朋友","same",""
"","","","","","html-keyboard-response","409","986054","0.0-9.0-0.0-0.0-0.1-1.165","null","<span style='color:red; font-size: 70px;'>错误! </span>","null","","","","","","","","","","","","","","","","","","","","","","","feedback_test"
"","","","","","psychophysics","410","987967","0.0-9.0-0.0-0.0-0.1-0.166","911","","j","","","","","","","","","","","","","key","j","16.66175438596442","768","428","j","true","img/S_ambi40.png","生人","same",""
"","","","","","html-keyboard-response","411","988469","0.0-9.0-0.0-0.0-0.1-1.166","null","<span style='color:GreenYellow; font-size: 70px;'>正确! </span>","null","","","","","","","","","","","","","","","","","","","","","","","feedback_test"
"","","","","","psychophysics","412","990070","0.0-9.0-0.0-0.0-0.1-0.167","598","","j","","","","","","","","","","","","","key","j","16.661978723404513","768","428","j","true","img/T_ambi40.png","をる","same",""
"","","","","","html-keyboard-response","413","990571","0.0-9.0-0.0-0.0-0.1-1.167","null","<span style='color:GreenYellow; font-size: 70px;'>正确! </span>","null","","","","","","","","","","","","","","","","","","","","","","","feedback_test"
"","","","","","psychophysics","414","992402","0.0-9.0-0.0-0.0-0.1-0.168","830","","f","","","","","","","","","","","","","key","f","16.661449541284387","768","428","f","true","img/S_ambi40.png","朋友","same",""
"","","","","","html-keyboard-response","415","992904","0.0-9.0-0.0-0.0-0.1-1.168","null","<span style='color:GreenYellow; font-size: 70px;'>正确! </span>","null","","","","","","","","","","","","","","","","","","","","","","","feedback_test"
"","","","","","psychophysics","416","994402","0.0-9.0-0.0-0.0-0.1-0.169","496","","f","","","","","","","","","","","","","key","f","16.667471910112674","768","428","f","true","img/C_ambi40.png","自我","same",""
"","","","","","html-keyboard-response","417","994904","0.0-9.0-0.0-0.0-0.1-1.169","null","<span style='color:GreenYellow; font-size: 70px;'>正确! </span>","null","","","","","","","","","","","","","","","","","","","","","","","feedback_test"
"","","","","","psychophysics","418","996468","0.0-9.0-0.0-0.0-0.1-0.170","561","","f","","","","","","","","","","","","","key","f","16.65434782608645","768","428","f","true","img/H_ambi40.png","生人","same",""
"","","","","","html-keyboard-response","419","996968","0.0-9.0-0.0-0.0-0.1-1.170","null","<span style='color:GreenYellow; font-size: 70px;'>正确! </span>","null","","","","","","","","","","","","","","","","","","","","","","","feedback_test"
"","","","","","psychophysics","420","998735","0.0-9.0-0.0-0.0-0.1-0.171","765","","f","","","","","","","","","","","","","key","f","16.662133333333102","768","428","f","true","img/C_ambi40.png","自我","same",""
"","","","","","html-keyboard-response","421","999236","0.0-9.0-0.0-0.0-0.1-1.171","null","<span style='color:GreenYellow; font-size: 70px;'>正确! </span>","null","","","","","","","","","","","","","","","","","","","","","","","feedback_test"
"","","","","","psychophysics","422","1001151","0.0-9.0-0.0-0.0-0.1-0.172","914","","j","","","","","","","","","","","","","key","j","16.801205357143772","768","428","j","true","img/C_ambi40.png","生人","same",""
"","","","","","html-keyboard-response","423","1001652","0.0-9.0-0.0-0.0-0.1-1.172","null","<span style='color:GreenYellow; font-size: 70px;'>正确! </span>","null","","","","","","","","","","","","","","","","","","","","","","","feedback_test"
"","","","","","psychophysics","424","1003370","0.0-9.0-0.0-0.0-0.1-0.173","716","","f","","","","","","","","","","","","","key","f","16.64874257425787","768","428","f","true","img/C_ambi40.png","自我","same",""
"","","","","","html-keyboard-response","425","1003871","0.0-9.0-0.0-0.0-0.1-1.173","null","<span style='color:GreenYellow; font-size: 70px;'>正确! </span>","null","","","","","","","","","","","","","","","","","","","","","","","feedback_test"
"","","","","","psychophysics","426","1005750","0.0-9.0-0.0-0.0-0.1-0.174","875","","j","","","","","","","","","","","","","key","j","16.66154054053933","768","428","j","true","img/S_ambi40.png","自我","same",""
"","","","","","html-keyboard-response","427","1006250","0.0-9.0-0.0-0.0-0.1-1.174","null","<span style='color:GreenYellow; font-size: 70px;'>正确! </span>","null","","","","","","","","","","","","","","","","","","","","","","","feedback_test"
"","","","","","psychophysics","428","1008295","0.0-9.0-0.0-0.0-0.1-0.175","1044","","j","","","","","","","","","","","","","key","j","16.66127049180366","768","428","j","true","img/H_ambi40.png","自我","same",""
"","","","","","html-keyboard-response","429","1008797","0.0-9.0-0.0-0.0-0.1-1.175","null","<span style='color:GreenYellow; font-size: 70px;'>正确! </span>","null","","","","","","","","","","","","","","","","","","","","","","","feedback_test"
"","","","","","psychophysics","430","1010795","0.0-9.0-0.0-0.0-0.1-0.176","997","","j","","","","","","","","","","","","","key","j","16.66152941176527","768","428","j","true","img/C_ambi40.png","朋友","same",""
"","","","","","html-keyboard-response","431","1011296","0.0-9.0-0.0-0.0-0.1-1.176","null","<span style='color:GreenYellow; font-size: 70px;'>正确! </span>","null","","","","","","","","","","","","","","","","","","","","","","","feedback_test"
"","","","","","psychophysics","432","1012918","0.0-9.0-0.0-0.0-0.1-0.177","620","","j","","","","","","","","","","","","","key","j","17.015808510638653","768","428","j","true","img/T_ambi40.png","をる","same",""
"","","","","","html-keyboard-response","433","1013422","0.0-9.0-0.0-0.0-0.1-1.177","null","<span style='color:GreenYellow; font-size: 70px;'>正确! </span>","null","","","","","","","","","","","","","","","","","","","","","","","feedback_test"
"","","","","","psychophysics","434","1015429","0.0-9.0-0.0-0.0-0.1-0.178","1005","","j","","","","","","","","","","","","","key","j","16.662134453781466","768","428","j","true","img/H_ambi40.png","朋友","same",""
"","","","","","html-keyboard-response","435","1015929","0.0-9.0-0.0-0.0-0.1-1.178","null","<span style='color:GreenYellow; font-size: 70px;'>正确! </span>","null","","","","","","","","","","","","","","","","","","","","","","","feedback_test"
"","","","","","psychophysics","436","1017726","0.0-9.0-0.0-0.0-0.1-0.179","795","","f","","","","","","","","","","","","","key","f","16.662112149531804","768","428","f","true","img/S_ambi40.png","朋友","same",""
"","","","","","html-keyboard-response","437","1018229","0.0-9.0-0.0-0.0-0.1-1.179","null","<span style='color:GreenYellow; font-size: 70px;'>正确! </span>","null","","","","","","","","","","","","","","","","","","","","","","","feedback_test"
"","","","","","psychophysics","438","1020067","0.0-9.0-0.0-0.0-0.1-0.180","835","","f","","","","","","","","","","","","","key","f","16.662081818183122","768","428","f","true","img/S_ambi40.png","朋友","same",""
"","","","","","html-keyboard-response","439","1020570","0.0-9.0-0.0-0.0-0.1-1.180","null","<span style='color:GreenYellow; font-size: 70px;'>正确! </span>","null","","","","","","","","","","","","","","","","","","","","","","","feedback_test"
"","","","","","psychophysics","440","1022311","0.0-9.0-0.0-0.0-0.1-0.181","738","","f","","","","","","","","","","","","","key","f","16.661388349515903","768","428","f","true","img/C_ambi40.png","自我","same",""
"","","","","","html-keyboard-response","441","1022816","0.0-9.0-0.0-0.0-0.1-1.181","null","<span style='color:GreenYellow; font-size: 70px;'>正确! </span>","null","","","","","","","","","","","","","","","","","","","","","","","feedback_test"
