"success","timeout","failed_images","failed_audio","failed_video","trial_type","trial_index","time_elapsed","internal_node_id","rt","stimulus","response","value","item_width_mm","item_height_mm","item_width_px","px2mm","view_dist_mm","item_width_deg","px2deg","scale_factor","win_width_deg","win_height_deg","view_history","response_type","key_press","avg_frame_time","center_x","center_y","correct_response","correct","Image","word","condition","screen_id"
"true","false","[]","[]","[]","preload","0","4","0.0-0.0","","","","","","","","","","","","","","","","","","","","","","","","","",""
"","","","","","html-keyboard-response","1","1603","0.0-1.0","1599","
     <p>您好，欢迎参加本次实验。</p>
     <p>为充分保障您的权利，请确保您已经知晓并同意《参与实验同意书》以及《数据公开知情同意书》。</p>
     <p>如果您未见过上述内容，请咨询实验员。</p>
     <p>如果您选择继续实验，则表示您已经清楚两份知情同意书的内容并同意。</p>
     <p> <div style = ""color: green""><按任意键至下页></div> </p>
     "," ","","","","","","","","","","","","","","","","","","","","","","",""
"","","","","","html-keyboard-response","2","4054","0.0-2.0","2451","
     <p>本实验首先需要您填写一些基本个人信息。</p>
     <p> <div style = ""color: green""><按任意键至下页></div></p>
     "," ","","","","","","","","","","","","","","","","","","","","","","",""
"","","","","","call-function","3","4055","0.0-3.0-0.0","","","","","","","","","","","","","","","","","","","","","","","","","",""
"","","","","","survey-html-form","4","8046","0.0-3.0-1.0","3991","","{""Q0"":""26""}","","","","","","","","","","","","","","","","","","","","","","",""
"","","","","","html-button-response","5","9066","0.0-3.0-2.0","1020","<p style = 'color : white'>您的性别</p>","0","","","","","","","","","","","","","","","","","","","","","","",""
"","","","","","survey-html-form","6","13170","0.0-3.0-3.0","4103","","{""Q0"":""2002""}","","","","","","","","","","","","","","","","","","","","","","",""
"","","","","","survey-html-form","7","15539","0.0-3.0-4.0","2368","","{""Q0"":""5""}","","","","","","","","","","","","","","","","","","","","","","",""
"","","","","","virtual-chinrest","8","214179","0.0-4.0","198639","","","","85.6","53.98","451.62560557505935","5.272075767560094","541.86","9.032512111501186","50","1.0716841428503994","37.44","18.48","","","","","","","","","","","",""
"true","","","","","fullscreen","9","216991","0.0-5.0","","","","","","","","","","","","","","","","","","","","","","","","","",""
"","","","","","instructions","10","272556","0.0-6.0","55563","","","","","","","","","","","","","","[{""page_index"":0,""viewing_time"":6825},{""page_index"":1,""viewing_time"":36081},{""page_index"":2,""viewing_time"":2867},{""page_index"":3,""viewing_time"":9791}]","","","","","","","","","","",""
"","","","","","psychophysics","11","275069","0.0-7.0-0.0-0.0","null","","null","","","","","","","","","","","","","key","null","16.658288590603778","960","536","f","false","img/C_ambi40.png","朋友","prac",""
"","","","","","html-keyboard-response","12","275583","0.0-7.0-0.0-1.0","null","<span class='add_' style='color:yellow; font-size: 70px;'> 太慢! </span>","null","","","","","","","","","","","","","","","","","","","","","","","feedback_test"
"","","","","","psychophysics","13","277575","0.0-7.0-0.0-0.1","990","","f","","","","","","","","","","","","","key","f","16.66230508474578","960","536","f","true","img/S_ambi40.png","自我","prac",""
"","","","","","html-keyboard-response","14","278077","0.0-7.0-0.0-1.1","null","<span style='color:GreenYellow; font-size: 70px;'>正确! </span>","null","","","","","","","","","","","","","","","","","","","","","","","feedback_test"
"","","","","","psychophysics","15","280581","0.0-7.0-0.0-0.2","null","","null","","","","","","","","","","","","","key","null","16.66204026845618","960","536","f","false","img/S_ambi40.png","自我","prac",""
"","","","","","html-keyboard-response","16","281097","0.0-7.0-0.0-1.2","null","<span class='add_' style='color:yellow; font-size: 70px;'> 太慢! </span>","null","","","","","","","","","","","","","","","","","","","","","","","feedback_test"
"","","","","","psychophysics","17","282551","0.0-7.0-0.0-0.3","451","","f","","","","","","","","","","","","","key","f","16.65736046511623","960","536","j","false","img/C_ambi40.png","自我","prac",""
"","","","","","html-keyboard-response","18","283060","0.0-7.0-0.0-1.3","null","<span style='color:red; font-size: 70px;'>错误! </span>","null","","","","","","","","","","","","","","","","","","","","","","","feedback_test"
"","","","","","psychophysics","19","284555","0.0-7.0-0.0-0.4","491","","j","","","","","","","","","","","","","key","j","16.660168539325895","960","536","f","false","img/T_ambi40.png","をる","prac",""
"","","","","","html-keyboard-response","20","285056","0.0-7.0-0.0-1.4","null","<span style='color:red; font-size: 70px;'>错误! </span>","null","","","","","","","","","","","","","","","","","","","","","","","feedback_test"
"","","","","","psychophysics","21","286782","0.0-7.0-0.0-0.5","719","","f","","","","","","","","","","","","","key","f","16.672096153846585","960","536","f","true","img/T_ambi40.png","をる","prac",""
"","","","","","html-keyboard-response","22","287289","0.0-7.0-0.0-1.5","null","<span style='color:GreenYellow; font-size: 70px;'>正确! </span>","null","","","","","","","","","","","","","","","","","","","","","","","feedback_test"
"","","","","","psychophysics","23","288838","0.0-7.0-0.0-0.6","542","","j","","","","","","","","","","","","","key","j","16.659163043478063","960","536","j","true","img/C_ambi40.png","生人","prac",""
"","","","","","html-keyboard-response","24","289348","0.0-7.0-0.0-1.6","null","<span style='color:GreenYellow; font-size: 70px;'>正确! </span>","null","","","","","","","","","","","","","","","","","","","","","","","feedback_test"
"","","","","","psychophysics","25","290908","0.0-7.0-0.0-0.7","546","","f","","","","","","","","","","","","","key","f","16.659413043477915","960","536","j","false","img/S_ambi40.png","朋友","prac",""
"","","","","","html-keyboard-response","26","291422","0.0-7.0-0.0-1.7","null","<span style='color:red; font-size: 70px;'>错误! </span>","null","","","","","","","","","","","","","","","","","","","","","","","feedback_test"
"","","","","","psychophysics","27","293150","0.0-7.0-0.0-0.8","723","","j","","","","","","","","","","","","","key","j","16.658271844660437","960","536","j","true","img/S_ambi40.png","生人","prac",""
"","","","","","html-keyboard-response","28","293654","0.0-7.0-0.0-1.8","null","<span style='color:GreenYellow; font-size: 70px;'>正确! </span>","null","","","","","","","","","","","","","","","","","","","","","","","feedback_test"
"","","","","","psychophysics","29","295403","0.0-7.0-0.0-0.9","747","","f","","","","","","","","","","","","","key","f","16.666278846153894","960","536","f","true","img/C_ambi40.png","朋友","prac",""
"","","","","","html-keyboard-response","30","295919","0.0-7.0-0.0-1.9","null","<span style='color:GreenYellow; font-size: 70px;'>正确! </span>","null","","","","","","","","","","","","","","","","","","","","","","","feedback_test"
"","","","","","psychophysics","31","297815","0.0-7.0-0.0-0.10","888","","f","","","","","","","","","","","","","key","f","16.56704385964896","960","536","j","false","img/H_ambi40.png","自我","prac",""
"","","","","","html-keyboard-response","32","298322","0.0-7.0-0.0-1.10","null","<span style='color:red; font-size: 70px;'>错误! </span>","null","","","","","","","","","","","","","","","","","","","","","","","feedback_test"
"","","","","","psychophysics","33","299804","0.0-7.0-0.0-0.11","480","","j","","","","","","","","","","","","","key","j","16.77690909090862","960","536","j","true","img/H_ambi40.png","朋友","prac",""
"","","","","","html-keyboard-response","34","300320","0.0-7.0-0.0-1.11","null","<span style='color:GreenYellow; font-size: 70px;'>正确! </span>","null","","","","","","","","","","","","","","","","","","","","","","","feedback_test"
"","","","","","psychophysics","35","301807","0.0-7.0-0.0-0.12","484","","j","","","","","","","","","","","","","key","j","16.661325842696712","960","536","f","false","img/H_ambi40.png","生人","prac",""
"","","","","","html-keyboard-response","36","302313","0.0-7.0-0.0-1.12","null","<span style='color:red; font-size: 70px;'>错误! </span>","null","","","","","","","","","","","","","","","","","","","","","","","feedback_test"
"","","","","","psychophysics","37","304155","0.0-7.0-0.0-0.13","833","","f","","","","","","","","","","","","","key","f","16.617576576576898","960","536","f","true","img/T_ambi40.png","をる","prac",""
"","","","","","html-keyboard-response","38","304657","0.0-7.0-0.0-1.13","null","<span style='color:GreenYellow; font-size: 70px;'>正确! </span>","null","","","","","","","","","","","","","","","","","","","","","","","feedback_test"
"","","","","","psychophysics","39","306487","0.0-7.0-0.0-0.14","819","","f","","","","","","","","","","","","","key","f","16.659250000000206","960","536","f","true","img/H_ambi40.png","生人","prac",""
"","","","","","html-keyboard-response","40","306994","0.0-7.0-0.0-1.14","null","<span style='color:GreenYellow; font-size: 70px;'>正确! </span>","null","","","","","","","","","","","","","","","","","","","","","","","feedback_test"
"","","","","","psychophysics","41","308815","0.0-7.0-0.0-0.15","812","","j","","","","","","","","","","","","","key","j","16.659259259258828","960","536","f","false","img/T_ambi40.png","をる","prac",""
"","","","","","html-keyboard-response","42","309321","0.0-7.0-0.0-1.15","null","<span style='color:red; font-size: 70px;'>错误! </span>","null","","","","","","","","","","","","","","","","","","","","","","","feedback_test"
"","","","","","psychophysics","43","311154","0.0-7.0-0.0-0.16","820","","f","","","","","","","","","","","","","key","f","16.65687155963291","960","536","j","false","img/S_ambi40.png","朋友","prac",""
"","","","","","html-keyboard-response","44","311663","0.0-7.0-0.0-1.16","null","<span style='color:red; font-size: 70px;'>错误! </span>","null","","","","","","","","","","","","","","","","","","","","","","","feedback_test"
"","","","","","psychophysics","45","313466","0.0-7.0-0.0-0.17","802","","f","","","","","","","","","","","","","key","f","16.66276635513989","960","536","f","true","img/T_ambi40.png","をる","prac",""
"","","","","","html-keyboard-response","46","313972","0.0-7.0-0.0-1.17","null","<span style='color:GreenYellow; font-size: 70px;'>正确! </span>","null","","","","","","","","","","","","","","","","","","","","","","","feedback_test"
"","","","","","psychophysics","47","315851","0.0-7.0-0.0-0.18","874","","j","","","","","","","","","","","","","key","j","16.71930088495539","960","536","f","false","img/H_ambi40.png","生人","prac",""
"","","","","","html-keyboard-response","48","316367","0.0-7.0-0.0-1.18","null","<span style='color:red; font-size: 70px;'>错误! </span>","null","","","","","","","","","","","","","","","","","","","","","","","feedback_test"
"","","","","","psychophysics","49","318438","0.0-7.0-0.0-0.19","1071","","f","","","","","","","","","","","","","key","f","16.66020325203218","960","536","j","false","img/C_ambi40.png","自我","prac",""
"","","","","","html-keyboard-response","50","318948","0.0-7.0-0.0-1.19","null","<span style='color:red; font-size: 70px;'>错误! </span>","null","","","","","","","","","","","","","","","","","","","","","","","feedback_test"
"","","","","","psychophysics","51","321122","0.0-7.0-0.0-0.20","1173","","f","","","","","","","","","","","","","key","f","16.6590542635662","960","536","j","false","img/H_ambi40.png","朋友","prac",""
"","","","","","html-keyboard-response","52","321631","0.0-7.0-0.0-1.20","null","<span style='color:red; font-size: 70px;'>错误! </span>","null","","","","","","","","","","","","","","","","","","","","","","","feedback_test"
"","","","","","psychophysics","53","323398","0.0-7.0-0.0-0.21","752","","j","","","","","","","","","","","","","key","j","16.661704761904687","960","536","f","false","img/C_ambi40.png","朋友","prac",""
"","","","","","html-keyboard-response","54","323907","0.0-7.0-0.0-1.21","null","<span style='color:red; font-size: 70px;'>错误! </span>","null","","","","","","","","","","","","","","","","","","","","","","","feedback_test"
"","","","","","psychophysics","55","325847","0.0-7.0-0.0-0.22","933","","f","","","","","","","","","","","","","key","f","16.69177777777798","960","536","f","true","img/S_ambi40.png","自我","prac",""
"","","","","","html-keyboard-response","56","326356","0.0-7.0-0.0-1.22","null","<span style='color:GreenYellow; font-size: 70px;'>正确! </span>","null","","","","","","","","","","","","","","","","","","","","","","","feedback_test"
"","","","","","psychophysics","57","328055","0.0-7.0-0.0-0.23","694","","f","","","","","","","","","","","","","key","f","16.658722772277397","960","536","f","true","img/S_ambi40.png","自我","prac",""
"","","","","","html-keyboard-response","58","328569","0.0-7.0-0.0-1.23","null","<span style='color:GreenYellow; font-size: 70px;'>正确! </span>","null","","","","","","","","","","","","","","","","","","","","","","","feedback_test"
"","","","","","psychophysics","59","330587","0.0-7.0-0.0-0.24","1015","","j","","","","","","","","","","","","","key","j","16.663191666666535","960","536","f","false","img/T_ambi40.png","をる","prac",""
"","","","","","html-keyboard-response","60","331101","0.0-7.0-0.0-1.24","null","<span style='color:red; font-size: 70px;'>错误! </span>","null","","","","","","","","","","","","","","","","","","","","","","","feedback_test"
"","","","","","psychophysics","61","332643","0.0-7.0-0.0-0.25","541","","f","","","","","","","","","","","","","key","f","16.642817204301146","960","536","f","true","img/T_ambi40.png","をる","prac",""
"","","","","","html-keyboard-response","62","333147","0.0-7.0-0.0-1.25","null","<span style='color:GreenYellow; font-size: 70px;'>正确! </span>","null","","","","","","","","","","","","","","","","","","","","","","","feedback_test"
"","","","","","psychophysics","63","335178","0.0-7.0-0.0-0.26","1019","","f","","","","","","","","","","","","","key","f","16.658818181818216","960","536","j","false","img/S_ambi40.png","生人","prac",""
"","","","","","html-keyboard-response","64","335687","0.0-7.0-0.0-1.26","null","<span style='color:red; font-size: 70px;'>错误! </span>","null","","","","","","","","","","","","","","","","","","","","","","","feedback_test"
"","","","","","psychophysics","65","337982","0.0-7.0-0.0-0.27","1291","","f","","","","","","","","","","","","","key","f","16.663496350364788","960","536","f","true","img/C_ambi40.png","朋友","prac",""
"","","","","","html-keyboard-response","66","338498","0.0-7.0-0.0-1.27","null","<span style='color:GreenYellow; font-size: 70px;'>正确! </span>","null","","","","","","","","","","","","","","","","","","","","","","","feedback_test"
"","","","","","psychophysics","67","340194","0.0-7.0-0.0-0.28","688","","f","","","","","","","","","","","","","key","f","16.645088235294107","960","536","j","false","img/H_ambi40.png","自我","prac",""
"","","","","","html-keyboard-response","68","340702","0.0-7.0-0.0-1.28","null","<span style='color:red; font-size: 70px;'>错误! </span>","null","","","","","","","","","","","","","","","","","","","","","","","feedback_test"
"","","","","","psychophysics","69","343063","0.0-7.0-0.0-0.29","1357","","j","","","","","","","","","","","","","key","j","16.663418439716423","960","536","j","true","img/C_ambi40.png","生人","prac",""
"","","","","","html-keyboard-response","70","343572","0.0-7.0-0.0-1.29","null","<span style='color:GreenYellow; font-size: 70px;'>正确! </span>","null","","","","","","","","","","","","","","","","","","","","","","","feedback_test"
"","","","","","psychophysics","71","345374","0.0-7.0-0.0-0.30","789","","f","","","","","","","","","","","","","key","f","16.656542056074766","960","536","f","true","img/T_ambi40.png","をる","prac",""
"","","","","","html-keyboard-response","72","345881","0.0-7.0-0.0-1.30","null","<span style='color:GreenYellow; font-size: 70px;'>正确! </span>","null","","","","","","","","","","","","","","","","","","","","","","","feedback_test"
"","","","","","psychophysics","73","347909","0.0-7.0-0.0-0.31","1023","","j","","","","","","","","","","","","","key","j","16.662214876033275","960","536","f","false","img/H_ambi40.png","生人","prac",""
"","","","","","html-keyboard-response","74","348422","0.0-7.0-0.0-1.31","null","<span style='color:red; font-size: 70px;'>错误! </span>","null","","","","","","","","","","","","","","","","","","","","","","","feedback_test"
"","","","","","html-keyboard-response","75","359148","0.0-7.0-1.0-0.0","10724","<style>.context{color:white; font-size: 35px; line-height:40px}</style>                          <div><p class='context'>您正确回答了47% 的试次。</p ><p class='context'>您的平均反应时为817毫秒。</p >"," ","","","","","","","","","","","","","","","","","","","","","","",""
"","","","","","instructions","76","422182","0.0-7.0-1.0-1.0","63032","","","","","","","","","","","","","","[{""page_index"":0,""viewing_time"":22013},{""page_index"":1,""viewing_time"":37907},{""page_index"":2,""viewing_time"":3112}]","","","","","","","","","","",""
"","","","","","psychophysics","77","423730","0.0-7.1-0.1-0.32","544","","f","","","","","","","","","","","","","key","f","16.658934782609045","960","536","j","false","img/H_ambi40.png","自我","prac",""
"","","","","","html-keyboard-response","78","424238","0.0-7.1-0.1-1.32","null","<span style='color:red; font-size: 70px;'>错误! </span>","null","","","","","","","","","","","","","","","","","","","","","","","feedback_test"
"","","","","","psychophysics","79","425778","0.0-7.1-0.1-0.33","537","","f","","","","","","","","","","","","","key","f","16.65567032967062","960","536","j","false","img/S_ambi40.png","朋友","prac",""
"","","","","","html-keyboard-response","80","426283","0.0-7.1-0.1-1.33","null","<span style='color:red; font-size: 70px;'>错误! </span>","null","","","","","","","","","","","","","","","","","","","","","","","feedback_test"
"","","","","","psychophysics","81","428090","0.0-7.1-0.1-0.34","806","","j","","","","","","","","","","","","","key","j","16.654953271027647","960","536","f","false","img/H_ambi40.png","生人","prac",""
"","","","","","html-keyboard-response","82","428594","0.0-7.1-0.1-1.34","null","<span style='color:red; font-size: 70px;'>错误! </span>","null","","","","","","","","","","","","","","","","","","","","","","","feedback_test"
"","","","","","psychophysics","83","430171","0.0-7.1-0.1-0.35","571","","f","","","","","","","","","","","","","key","f","16.66910526315792","960","536","f","true","img/S_ambi40.png","自我","prac",""
"","","","","","html-keyboard-response","84","430685","0.0-7.1-0.1-1.35","null","<span style='color:GreenYellow; font-size: 70px;'>正确! </span>","null","","","","","","","","","","","","","","","","","","","","","","","feedback_test"
"","","","","","psychophysics","85","432430","0.0-7.1-0.1-0.36","744","","j","","","","","","","","","","","","","key","j","16.662834951456283","960","536","f","false","img/C_ambi40.png","朋友","prac",""
"","","","","","html-keyboard-response","86","432934","0.0-7.1-0.1-1.36","null","<span style='color:red; font-size: 70px;'>错误! </span>","null","","","","","","","","","","","","","","","","","","","","","","","feedback_test"
"","","","","","psychophysics","87","434533","0.0-7.1-0.1-0.37","585","","f","","","","","","","","","","","","","key","f","16.65788421052643","960","536","f","true","img/T_ambi40.png","をる","prac",""
"","","","","","html-keyboard-response","88","435046","0.0-7.1-0.1-1.37","null","<span style='color:GreenYellow; font-size: 70px;'>正确! </span>","null","","","","","","","","","","","","","","","","","","","","","","","feedback_test"
"","","","","","psychophysics","89","436624","0.0-7.1-0.1-0.38","576","","f","","","","","","","","","","","","","key","f","16.82894680851097","960","536","f","true","img/T_ambi40.png","をる","prac",""
"","","","","","html-keyboard-response","90","437140","0.0-7.1-0.1-1.38","null","<span style='color:GreenYellow; font-size: 70px;'>正确! </span>","null","","","","","","","","","","","","","","","","","","","","","","","feedback_test"
"","","","","","psychophysics","91","438698","0.0-7.1-0.1-0.39","552","","f","","","","","","","","","","","","","key","f","16.66707526881721","960","536","f","true","img/C_ambi40.png","朋友","prac",""
"","","","","","html-keyboard-response","92","439200","0.0-7.1-0.1-1.39","null","<span style='color:GreenYellow; font-size: 70px;'>正确! </span>","null","","","","","","","","","","","","","","","","","","","","","","","feedback_test"
"","","","","","psychophysics","93","440815","0.0-7.1-0.1-0.40","604","","f","","","","","","","","","","","","","key","f","16.660125000000335","960","536","f","true","img/T_ambi40.png","をる","prac",""
"","","","","","html-keyboard-response","94","441318","0.0-7.1-0.1-1.40","null","<span style='color:GreenYellow; font-size: 70px;'>正确! </span>","null","","","","","","","","","","","","","","","","","","","","","","","feedback_test"
"","","","","","psychophysics","95","442913","0.0-7.1-0.1-0.41","586","","j","","","","","","","","","","","","","key","j","16.66073684210546","960","536","j","true","img/S_ambi40.png","生人","prac",""
"","","","","","html-keyboard-response","96","443422","0.0-7.1-0.1-1.41","null","<span style='color:GreenYellow; font-size: 70px;'>正确! </span>","null","","","","","","","","","","","","","","","","","","","","","","","feedback_test"
"","","","","","psychophysics","97","445086","0.0-7.1-0.1-0.42","660","","j","","","","","","","","","","","","","key","j","16.65683000000019","960","536","f","false","img/H_ambi40.png","生人","prac",""
"","","","","","html-keyboard-response","98","445596","0.0-7.1-0.1-1.42","null","<span style='color:red; font-size: 70px;'>错误! </span>","null","","","","","","","","","","","","","","","","","","","","","","","feedback_test"
"","","","","","psychophysics","99","447326","0.0-7.1-0.1-0.43","719","","f","","","","","","","","","","","","","key","f","16.665884615384968","960","536","j","false","img/H_ambi40.png","朋友","prac",""
"","","","","","html-keyboard-response","100","447832","0.0-7.1-0.1-1.43","null","<span style='color:red; font-size: 70px;'>错误! </span>","null","","","","","","","","","","","","","","","","","","","","","","","feedback_test"
"","","","","","psychophysics","101","449434","0.0-7.1-0.1-0.44","593","","f","","","","","","","","","","","","","key","f","16.66011458333378","960","536","f","true","img/T_ambi40.png","をる","prac",""
"","","","","","html-keyboard-response","102","449936","0.0-7.1-0.1-1.44","null","<span style='color:GreenYellow; font-size: 70px;'>正确! </span>","null","","","","","","","","","","","","","","","","","","","","","","","feedback_test"
"","","","","","psychophysics","103","451867","0.0-7.1-0.1-0.45","925","","j","","","","","","","","","","","","","key","j","16.667672413793206","960","536","f","false","img/S_ambi40.png","自我","prac",""
"","","","","","html-keyboard-response","104","452367","0.0-7.1-0.1-1.45","null","<span style='color:red; font-size: 70px;'>错误! </span>","null","","","","","","","","","","","","","","","","","","","","","","","feedback_test"
"","","","","","psychophysics","105","454224","0.0-7.1-0.1-0.46","851","","j","","","","","","","","","","","","","key","j","16.659549549549737","960","536","j","true","img/C_ambi40.png","生人","prac",""
"","","","","","html-keyboard-response","106","454725","0.0-7.1-0.1-1.46","null","<span style='color:GreenYellow; font-size: 70px;'>正确! </span>","null","","","","","","","","","","","","","","","","","","","","","","","feedback_test"
"","","","","","psychophysics","107","456290","0.0-7.1-0.1-0.47","552","","f","","","","","","","","","","","","","key","f","16.65818279569841","960","536","j","false","img/C_ambi40.png","自我","prac",""
"","","","","","html-keyboard-response","108","456799","0.0-7.1-0.1-1.47","null","<span style='color:red; font-size: 70px;'>错误! </span>","null","","","","","","","","","","","","","","","","","","","","","","","feedback_test"
"","","","","","psychophysics","109","458434","0.0-7.1-0.1-0.48","631","","f","","","","","","","","","","","","","key","f","16.66623711340206","960","536","f","true","img/S_ambi40.png","自我","prac",""
"","","","","","html-keyboard-response","110","458939","0.0-7.1-0.1-1.48","null","<span style='color:GreenYellow; font-size: 70px;'>正确! </span>","null","","","","","","","","","","","","","","","","","","","","","","","feedback_test"
"","","","","","psychophysics","111","460659","0.0-7.1-0.1-0.49","708","","j","","","","","","","","","","","","","key","j","16.65451456310659","960","536","f","false","img/H_ambi40.png","生人","prac",""
"","","","","","html-keyboard-response","112","461170","0.0-7.1-0.1-1.49","null","<span style='color:red; font-size: 70px;'>错误! </span>","null","","","","","","","","","","","","","","","","","","","","","","","feedback_test"
"","","","","","psychophysics","113","462722","0.0-7.1-0.1-0.50","540","","f","","","","","","","","","","","","","key","f","16.6579565217392","960","536","f","true","img/T_ambi40.png","をる","prac",""
"","","","","","html-keyboard-response","114","463233","0.0-7.1-0.1-1.50","null","<span style='color:GreenYellow; font-size: 70px;'>正确! </span>","null","","","","","","","","","","","","","","","","","","","","","","","feedback_test"
"","","","","","psychophysics","115","464864","0.0-7.1-0.1-0.51","629","","f","","","","","","","","","","","","","key","f","16.65013541666667","960","536","f","true","img/H_ambi40.png","生人","prac",""
"","","","","","html-keyboard-response","116","465377","0.0-7.1-0.1-1.51","null","<span style='color:GreenYellow; font-size: 70px;'>正确! </span>","null","","","","","","","","","","","","","","","","","","","","","","","feedback_test"
"","","","","","psychophysics","117","466963","0.0-7.1-0.1-0.52","580","","f","","","","","","","","","","","","","key","f","16.659138297872058","960","536","f","true","img/T_ambi40.png","をる","prac",""
"","","","","","html-keyboard-response","118","467469","0.0-7.1-0.1-1.52","null","<span style='color:GreenYellow; font-size: 70px;'>正确! </span>","null","","","","","","","","","","","","","","","","","","","","","","","feedback_test"
"","","","","","psychophysics","119","469018","0.0-7.1-0.1-0.53","536","","f","","","","","","","","","","","","","key","f","16.658260869565193","960","536","j","false","img/C_ambi40.png","自我","prac",""
"","","","","","html-keyboard-response","120","469525","0.0-7.1-0.1-1.53","null","<span style='color:red; font-size: 70px;'>错误! </span>","null","","","","","","","","","","","","","","","","","","","","","","","feedback_test"
"","","","","","psychophysics","121","471166","0.0-7.1-0.1-0.54","639","","j","","","","","","","","","","","","","key","j","16.668757575757525","960","536","j","true","img/H_ambi40.png","自我","prac",""
"","","","","","html-keyboard-response","122","471678","0.0-7.1-0.1-1.54","null","<span style='color:GreenYellow; font-size: 70px;'>正确! </span>","null","","","","","","","","","","","","","","","","","","","","","","","feedback_test"
"","","","","","psychophysics","123","473271","0.0-7.1-0.1-0.55","590","","j","","","","","","","","","","","","","key","j","16.828926315789698","960","536","j","true","img/H_ambi40.png","朋友","prac",""
"","","","","","html-keyboard-response","124","473774","0.0-7.1-0.1-1.55","null","<span style='color:GreenYellow; font-size: 70px;'>正确! </span>","null","","","","","","","","","","","","","","","","","","","","","","","feedback_test"
"","","","","","psychophysics","125","475366","0.0-7.1-0.1-0.56","586","","f","","","","","","","","","","","","","key","f","16.65961052631518","960","536","f","true","img/S_ambi40.png","自我","prac",""
"","","","","","html-keyboard-response","126","475874","0.0-7.1-0.1-1.56","null","<span style='color:GreenYellow; font-size: 70px;'>正确! </span>","null","","","","","","","","","","","","","","","","","","","","","","","feedback_test"
"","","","","","psychophysics","127","477612","0.0-7.1-0.1-0.57","733","","j","","","","","","","","","","","","","key","j","16.670009615384444","960","536","j","true","img/S_ambi40.png","生人","prac",""
"","","","","","html-keyboard-response","128","478124","0.0-7.1-0.1-1.57","null","<span style='color:GreenYellow; font-size: 70px;'>正确! </span>","null","","","","","","","","","","","","","","","","","","","","","","","feedback_test"
"","","","","","psychophysics","129","479683","0.0-7.1-0.1-0.58","555","","f","","","","","","","","","","","","","key","f","16.6641612903225","960","536","j","false","img/S_ambi40.png","朋友","prac",""
"","","","","","html-keyboard-response","130","480184","0.0-7.1-0.1-1.58","null","<span style='color:red; font-size: 70px;'>错误! </span>","null","","","","","","","","","","","","","","","","","","","","","","","feedback_test"
"","","","","","psychophysics","131","482270","0.0-7.1-0.1-0.59","1077","","j","","","","","","","","","","","","","key","j","16.657661290322487","960","536","j","true","img/C_ambi40.png","生人","prac",""
"","","","","","html-keyboard-response","132","482774","0.0-7.1-0.1-1.59","null","<span style='color:GreenYellow; font-size: 70px;'>正确! </span>","null","","","","","","","","","","","","","","","","","","","","","","","feedback_test"
"","","","","","psychophysics","133","484327","0.0-7.1-0.1-0.60","550","","f","","","","","","","","","","","","","key","f","16.839709677419286","960","536","f","true","img/C_ambi40.png","朋友","prac",""
"","","","","","html-keyboard-response","134","484827","0.0-7.1-0.1-1.60","null","<span style='color:GreenYellow; font-size: 70px;'>正确! </span>","null","","","","","","","","","","","","","","","","","","","","","","","feedback_test"
"","","","","","psychophysics","135","486286","0.0-7.1-0.1-0.61","445","","f","","","","","","","","","","","","","key","f","16.653034883720508","960","536","f","true","img/C_ambi40.png","朋友","prac",""
"","","","","","html-keyboard-response","136","486803","0.0-7.1-0.1-1.61","null","<span style='color:GreenYellow; font-size: 70px;'>正确! </span>","null","","","","","","","","","","","","","","","","","","","","","","","feedback_test"
"","","","","","psychophysics","137","488382","0.0-7.1-0.1-0.62","576","","f","","","","","","","","","","","","","key","f","16.661255319148893","960","536","f","true","img/T_ambi40.png","をる","prac",""
"","","","","","html-keyboard-response","138","488883","0.0-7.1-0.1-1.62","null","<span style='color:GreenYellow; font-size: 70px;'>正确! </span>","null","","","","","","","","","","","","","","","","","","","","","","","feedback_test"
"","","","","","psychophysics","139","490424","0.0-7.1-0.1-0.63","534","","f","","","","","","","","","","","","","key","f","16.66001086956543","960","536","f","true","img/T_ambi40.png","をる","prac",""
"","","","","","html-keyboard-response","140","490928","0.0-7.1-0.1-1.63","null","<span style='color:GreenYellow; font-size: 70px;'>正确! </span>","null","","","","","","","","","","","","","","","","","","","","","","","feedback_test"
"","","","","","html-keyboard-response","141","493401","0.0-7.1-1.1-0.1","2472","<style>.context{color:white; font-size: 35px; line-height:40px}</style>                          <div><p class='context'>您正确回答了66% 的试次。</p ><p class='context'>您的平均反应时为620毫秒。</p >"," ","","","","","","","","","","","","","","","","","","","","","","",""
"","","","","","instructions","142","498381","0.0-7.1-1.1-1.1","4978","","","","","","","","","","","","","","[{""page_index"":0,""viewing_time"":1553},{""page_index"":1,""viewing_time"":1583},{""page_index"":2,""viewing_time"":1841}]","","","","","","","","","","",""
"","","","","","psychophysics","143","499826","0.0-7.2-0.2-0.64","441","","f","","","","","","","","","","","","","key","f","16.66330232558133","960","536","f","true","img/S_ambi40.png","自我","prac",""
"","","","","","html-keyboard-response","144","500339","0.0-7.2-0.2-1.64","null","<span style='color:GreenYellow; font-size: 70px;'>正确! </span>","null","","","","","","","","","","","","","","","","","","","","","","","feedback_test"
"","","","","","psychophysics","145","502019","0.0-7.2-0.2-0.65","668","","j","","","","","","","","","","","","","key","j","16.660530000000144","960","536","j","true","img/S_ambi40.png","生人","prac",""
"","","","","","html-keyboard-response","146","502522","0.0-7.2-0.2-1.65","null","<span style='color:GreenYellow; font-size: 70px;'>正确! </span>","null","","","","","","","","","","","","","","","","","","","","","","","feedback_test"
"","","","","","psychophysics","147","504223","0.0-7.2-0.2-0.66","691","","f","","","","","","","","","","","","","key","f","16.662574257425582","960","536","f","true","img/S_ambi40.png","自我","prac",""
"","","","","","html-keyboard-response","148","504738","0.0-7.2-0.2-1.66","null","<span style='color:GreenYellow; font-size: 70px;'>正确! </span>","null","","","","","","","","","","","","","","","","","","","","","","","feedback_test"
"","","","","","psychophysics","149","506443","0.0-7.2-0.2-0.67","693","","j","","","","","","","","","","","","","key","j","16.660784313725717","960","536","f","false","img/C_ambi40.png","朋友","prac",""
"","","","","","html-keyboard-response","150","506953","0.0-7.2-0.2-1.67","null","<span style='color:red; font-size: 70px;'>错误! </span>","null","","","","","","","","","","","","","","","","","","","","","","","feedback_test"
"","","","","","psychophysics","151","508906","0.0-7.2-0.2-0.68","941","","f","","","","","","","","","","","","","key","f","16.658922413793082","960","536","j","false","img/H_ambi40.png","自我","prac",""
"","","","","","html-keyboard-response","152","509420","0.0-7.2-0.2-1.68","null","<span style='color:red; font-size: 70px;'>错误! </span>","null","","","","","","","","","","","","","","","","","","","","","","","feedback_test"
"","","","","","psychophysics","153","510958","0.0-7.2-0.2-0.69","528","","f","","","","","","","","","","","","","key","f","16.66199999999966","960","536","f","true","img/T_ambi40.png","をる","prac",""
"","","","","","html-keyboard-response","154","511469","0.0-7.2-0.2-1.69","null","<span style='color:GreenYellow; font-size: 70px;'>正确! </span>","null","","","","","","","","","","","","","","","","","","","","","","","feedback_test"
"","","","","","psychophysics","155","513211","0.0-7.2-0.2-0.70","731","","j","","","","","","","","","","","","","key","j","16.656038834951318","960","536","j","true","img/H_ambi40.png","朋友","prac",""
"","","","","","html-keyboard-response","156","513715","0.0-7.2-0.2-1.70","null","<span style='color:GreenYellow; font-size: 70px;'>正确! </span>","null","","","","","","","","","","","","","","","","","","","","","","","feedback_test"
"","","","","","psychophysics","157","515579","0.0-7.2-0.2-0.71","860","","f","","","","","","","","","","","","","key","f","16.659758928571268","960","536","f","true","img/H_ambi40.png","生人","prac",""
"","","","","","html-keyboard-response","158","516080","0.0-7.2-0.2-1.71","null","<span style='color:GreenYellow; font-size: 70px;'>正确! </span>","null","","","","","","","","","","","","","","","","","","","","","","","feedback_test"
"","","","","","psychophysics","159","517667","0.0-7.2-0.2-0.72","573","","f","","","","","","","","","","","","","key","f","16.667305263158205","960","536","j","false","img/S_ambi40.png","朋友","prac",""
"","","","","","html-keyboard-response","160","518169","0.0-7.2-0.2-1.72","null","<span style='color:red; font-size: 70px;'>错误! </span>","null","","","","","","","","","","","","","","","","","","","","","","","feedback_test"
"","","","","","psychophysics","161","520382","0.0-7.2-0.2-0.73","1206","","j","","","","","","","","","","","","","key","j","16.6568333333337","960","536","j","true","img/C_ambi40.png","生人","prac",""
"","","","","","html-keyboard-response","162","520887","0.0-7.2-0.2-1.73","null","<span style='color:GreenYellow; font-size: 70px;'>正确! </span>","null","","","","","","","","","","","","","","","","","","","","","","","feedback_test"
"","","","","","psychophysics","163","522490","0.0-7.2-0.2-0.74","597","","f","","","","","","","","","","","","","key","f","16.660697916666322","960","536","j","false","img/C_ambi40.png","自我","prac",""
"","","","","","html-keyboard-response","164","523000","0.0-7.2-0.2-1.74","null","<span style='color:red; font-size: 70px;'>错误! </span>","null","","","","","","","","","","","","","","","","","","","","","","","feedback_test"
"","","","","","psychophysics","165","524531","0.0-7.2-0.2-0.75","523","","f","","","","","","","","","","","","","key","f","16.642771739129902","960","536","f","true","img/T_ambi40.png","をる","prac",""
"","","","","","html-keyboard-response","166","525034","0.0-7.2-0.2-1.75","null","<span style='color:GreenYellow; font-size: 70px;'>正确! </span>","null","","","","","","","","","","","","","","","","","","","","","","","feedback_test"
"","","","","","psychophysics","167","526629","0.0-7.2-0.2-0.76","589","","f","","","","","","","","","","","","","key","f","16.666572916667064","960","536","f","true","img/C_ambi40.png","朋友","prac",""
"","","","","","html-keyboard-response","168","527131","0.0-7.2-0.2-1.76","null","<span style='color:GreenYellow; font-size: 70px;'>正确! </span>","null","","","","","","","","","","","","","","","","","","","","","","","feedback_test"
"","","","","","psychophysics","169","528677","0.0-7.2-0.2-0.77","539","","f","","","","","","","","","","","","","key","f","16.6632043010748","960","536","f","true","img/T_ambi40.png","をる","prac",""
"","","","","","html-keyboard-response","170","529191","0.0-7.2-0.2-1.77","null","<span style='color:GreenYellow; font-size: 70px;'>正确! </span>","null","","","","","","","","","","","","","","","","","","","","","","","feedback_test"
"","","","","","psychophysics","171","530765","0.0-7.2-0.2-0.78","572","","f","","","","","","","","","","","","","key","f","16.664709677419033","960","536","f","true","img/T_ambi40.png","をる","prac",""
"","","","","","html-keyboard-response","172","531274","0.0-7.2-0.2-1.78","null","<span style='color:GreenYellow; font-size: 70px;'>正确! </span>","null","","","","","","","","","","","","","","","","","","","","","","","feedback_test"
"","","","","","psychophysics","173","533350","0.0-7.2-0.2-0.79","1063","","f","","","","","","","","","","","","","key","f","16.65691129032207","960","536","f","true","img/H_ambi40.png","生人","prac",""
"","","","","","html-keyboard-response","174","533855","0.0-7.2-0.2-1.79","null","<span style='color:GreenYellow; font-size: 70px;'>正确! </span>","null","","","","","","","","","","","","","","","","","","","","","","","feedback_test"
"","","","","","psychophysics","175","535803","0.0-7.2-0.2-0.80","936","","j","","","","","","","","","","","","","key","j","16.659732758621523","960","536","j","true","img/H_ambi40.png","自我","prac",""
"","","","","","html-keyboard-response","176","536318","0.0-7.2-0.2-1.80","null","<span style='color:GreenYellow; font-size: 70px;'>正确! </span>","null","","","","","","","","","","","","","","","","","","","","","","","feedback_test"
"","","","","","psychophysics","177","537998","0.0-7.2-0.2-0.81","679","","f","","","","","","","","","","","","","key","f","16.657249999999767","960","536","f","true","img/S_ambi40.png","自我","prac",""
"","","","","","html-keyboard-response","178","538508","0.0-7.2-0.2-1.81","null","<span style='color:GreenYellow; font-size: 70px;'>正确! </span>","null","","","","","","","","","","","","","","","","","","","","","","","feedback_test"
"","","","","","psychophysics","179","540335","0.0-7.2-0.2-0.82","823","","j","","","","","","","","","","","","","key","j","16.64710909090936","960","536","f","false","img/H_ambi40.png","生人","prac",""
"","","","","","html-keyboard-response","180","540837","0.0-7.2-0.2-1.82","null","<span style='color:red; font-size: 70px;'>错误! </span>","null","","","","","","","","","","","","","","","","","","","","","","","feedback_test"
"","","","","","psychophysics","181","542369","0.0-7.2-0.2-0.83","520","","f","","","","","","","","","","","","","key","f","16.661406593407495","960","536","f","true","img/T_ambi40.png","をる","prac",""
"","","","","","html-keyboard-response","182","542881","0.0-7.2-0.2-1.83","null","<span style='color:GreenYellow; font-size: 70px;'>正确! </span>","null","","","","","","","","","","","","","","","","","","","","","","","feedback_test"
"","","","","","psychophysics","183","544454","0.0-7.2-0.2-0.84","572","","f","","","","","","","","","","","","","key","f","16.658569892472837","960","536","j","false","img/C_ambi40.png","自我","prac",""
"","","","","","html-keyboard-response","184","544962","0.0-7.2-0.2-1.84","null","<span style='color:red; font-size: 70px;'>错误! </span>","null","","","","","","","","","","","","","","","","","","","","","","","feedback_test"
"","","","","","psychophysics","185","547277","0.0-7.2-0.2-0.85","1313","","j","","","","","","","","","","","","","key","j","16.658514492753625","960","536","j","true","img/C_ambi40.png","生人","prac",""
"","","","","","html-keyboard-response","186","547788","0.0-7.2-0.2-1.85","null","<span style='color:GreenYellow; font-size: 70px;'>正确! </span>","null","","","","","","","","","","","","","","","","","","","","","","","feedback_test"
"","","","","","psychophysics","187","549599","0.0-7.2-0.2-0.86","803","","j","","","","","","","","","","","","","key","j","16.654311926605036","960","536","j","true","img/S_ambi40.png","生人","prac",""
"","","","","","html-keyboard-response","188","550101","0.0-7.2-0.2-1.86","null","<span style='color:GreenYellow; font-size: 70px;'>正确! </span>","null","","","","","","","","","","","","","","","","","","","","","","","feedback_test"
"","","","","","psychophysics","189","551786","0.0-7.2-0.2-0.87","681","","f","","","","","","","","","","","","","key","f","16.663415841584204","960","536","f","true","img/T_ambi40.png","をる","prac",""
"","","","","","html-keyboard-response","190","552298","0.0-7.2-0.2-1.87","null","<span style='color:GreenYellow; font-size: 70px;'>正确! </span>","null","","","","","","","","","","","","","","","","","","","","","","","feedback_test"
"","","","","","psychophysics","191","553891","0.0-7.2-0.2-0.88","580","","f","","","","","","","","","","","","","key","f","16.6559361702121","960","536","f","true","img/T_ambi40.png","をる","prac",""
"","","","","","html-keyboard-response","192","554397","0.0-7.2-0.2-1.88","null","<span style='color:GreenYellow; font-size: 70px;'>正确! </span>","null","","","","","","","","","","","","","","","","","","","","","","","feedback_test"
"","","","","","psychophysics","193","556389","0.0-7.2-0.2-0.89","979","","f","","","","","","","","","","","","","key","f","16.65220168067295","960","536","f","true","img/S_ambi40.png","自我","prac",""
"","","","","","html-keyboard-response","194","556893","0.0-7.2-0.2-1.89","null","<span style='color:GreenYellow; font-size: 70px;'>正确! </span>","null","","","","","","","","","","","","","","","","","","","","","","","feedback_test"
"","","","","","psychophysics","195","558427","0.0-7.2-0.2-0.90","520","","j","","","","","","","","","","","","","key","j","16.661131868132514","960","536","j","true","img/H_ambi40.png","朋友","prac",""
"","","","","","html-keyboard-response","196","558942","0.0-7.2-0.2-1.90","null","<span style='color:GreenYellow; font-size: 70px;'>正确! </span>","null","","","","","","","","","","","","","","","","","","","","","","","feedback_test"
"","","","","","psychophysics","197","560454","0.0-7.2-0.2-0.91","511","","f","","","","","","","","","","","","","key","f","16.659842696629486","960","536","j","false","img/S_ambi40.png","朋友","prac",""
"","","","","","html-keyboard-response","198","560961","0.0-7.2-0.2-1.91","null","<span style='color:red; font-size: 70px;'>错误! </span>","null","","","","","","","","","","","","","","","","","","","","","","","feedback_test"
"","","","","","psychophysics","199","562550","0.0-7.2-0.2-0.92","576","","f","","","","","","","","","","","","","key","f","16.657638297872023","960","536","f","true","img/T_ambi40.png","をる","prac",""
"","","","","","html-keyboard-response","200","563052","0.0-7.2-0.2-1.92","null","<span style='color:GreenYellow; font-size: 70px;'>正确! </span>","null","","","","","","","","","","","","","","","","","","","","","","","feedback_test"
"","","","","","psychophysics","201","564862","0.0-7.2-0.2-0.93","806","","f","","","","","","","","","","","","","key","f","16.665925925926313","960","536","f","true","img/C_ambi40.png","朋友","prac",""
"","","","","","html-keyboard-response","202","565364","0.0-7.2-0.2-1.93","null","<span style='color:GreenYellow; font-size: 70px;'>正确! </span>","null","","","","","","","","","","","","","","","","","","","","","","","feedback_test"
"","","","","","psychophysics","203","567049","0.0-7.2-0.2-0.94","677","","f","","","","","","","","","","","","","key","f","16.657519999999785","960","536","f","true","img/C_ambi40.png","朋友","prac",""
"","","","","","html-keyboard-response","204","567552","0.0-7.2-0.2-1.94","null","<span style='color:GreenYellow; font-size: 70px;'>正确! </span>","null","","","","","","","","","","","","","","","","","","","","","","","feedback_test"
"","","","","","psychophysics","205","569617","0.0-7.2-0.2-0.95","1063","","f","","","","","","","","","","","","","key","f","16.660398373984147","960","536","f","true","img/H_ambi40.png","生人","prac",""
"","","","","","html-keyboard-response","206","570122","0.0-7.2-0.2-1.95","null","<span style='color:GreenYellow; font-size: 70px;'>正确! </span>","null","","","","","","","","","","","","","","","","","","","","","","","feedback_test"
"","","","","","html-keyboard-response","207","575618","0.0-8.0","5494","<style>.context{color:white; font-size: 35px; line-height:40px}</style>                          <div><p class='context'>您正确回答了78% 的试次。</p ><p class='context'>您的平均反应时为742毫秒。</p ><p class='context'>恭喜您完成练习。按任意键进入正式实验。</p ><p class='footer' style='font-size: 35px; line-height:40px;'>请在进入正式实验实验之前将您的<span style='color: lightgreen;'>食指</span>放在电脑键盘的相应键位上进行按键。</p >"," ","","","","","","","","","","","","","","","","","","","","","","",""
"","","","","","psychophysics","208","578133","0.0-9.0-0.0-0.0-0.0-0.0","null","","null","","","","","","","","","","","","","key","null","16.6573933333337","960","536","f","false","img/H_ambi40.png","生人","same",""
"","","","","","html-keyboard-response","209","578641","0.0-9.0-0.0-0.0-0.0-1.0","null","<span class='add_' style='color:yellow; font-size: 70px;'> 太慢! </span>","null","","","","","","","","","","","","","","","","","","","","","","","feedback_test"
"","","","","","psychophysics","210","580154","0.0-9.0-0.0-0.0-0.0-0.1","505","","f","","","","","","","","","","","","","key","f","16.65964444444463","960","536","f","true","img/T_ambi40.png","をる","same",""
"","","","","","html-keyboard-response","211","580669","0.0-9.0-0.0-0.0-0.0-1.1","null","<span style='color:GreenYellow; font-size: 70px;'>正确! </span>","null","","","","","","","","","","","","","","","","","","","","","","","feedback_test"
"","","","","","psychophysics","212","582199","0.0-9.0-0.0-0.0-0.0-0.2","518","","f","","","","","","","","","","","","","key","f","16.66128260869553","960","536","j","false","img/S_ambi40.png","生人","same",""
"","","","","","html-keyboard-response","213","582714","0.0-9.0-0.0-0.0-0.0-1.2","null","<span style='color:red; font-size: 70px;'>错误! </span>","null","","","","","","","","","","","","","","","","","","","","","","","feedback_test"
"","","","","","psychophysics","214","584614","0.0-9.0-0.0-0.0-0.0-0.3","899","","j","","","","","","","","","","","","","key","j","16.658380530973428","960","536","j","true","img/H_ambi40.png","朋友","same",""
"","","","","","html-keyboard-response","215","585119","0.0-9.0-0.0-0.0-0.0-1.3","null","<span style='color:GreenYellow; font-size: 70px;'>正确! </span>","null","","","","","","","","","","","","","","","","","","","","","","","feedback_test"
"","","","","","psychophysics","216","587095","0.0-9.0-0.0-0.0-0.0-0.4","965","","j","","","","","","","","","","","","","key","j","16.664593220339157","960","536","f","false","img/H_ambi40.png","生人","same",""
"","","","","","html-keyboard-response","217","587602","0.0-9.0-0.0-0.0-0.0-1.4","null","<span style='color:red; font-size: 70px;'>错误! </span>","null","","","","","","","","","","","","","","","","","","","","","","","feedback_test"
"","","","","","psychophysics","218","589073","0.0-9.0-0.0-0.0-0.0-0.5","461","","f","","","","","","","","","","","","","key","f","16.657160919539674","960","536","f","true","img/S_ambi40.png","自我","same",""
"","","","","","html-keyboard-response","219","589587","0.0-9.0-0.0-0.0-0.0-1.5","null","<span style='color:GreenYellow; font-size: 70px;'>正确! </span>","null","","","","","","","","","","","","","","","","","","","","","","","feedback_test"
"","","","","","psychophysics","220","591250","0.0-9.0-0.0-0.0-0.0-0.6","655","","j","","","","","","","","","","","","","key","j","16.670989999999293","960","536","j","true","img/C_ambi40.png","生人","same",""
"","","","","","html-keyboard-response","221","591765","0.0-9.0-0.0-0.0-0.0-1.6","null","<span style='color:GreenYellow; font-size: 70px;'>正确! </span>","null","","","","","","","","","","","","","","","","","","","","","","","feedback_test"
"","","","","","psychophysics","222","593249","0.0-9.0-0.0-0.0-0.0-0.7","475","","f","","","","","","","","","","","","","key","f","16.652157303370963","960","536","j","false","img/S_ambi40.png","朋友","same",""
"","","","","","html-keyboard-response","223","593762","0.0-9.0-0.0-0.0-0.0-1.7","null","<span style='color:red; font-size: 70px;'>错误! </span>","null","","","","","","","","","","","","","","","","","","","","","","","feedback_test"
"","","","","","psychophysics","224","595499","0.0-9.0-0.0-0.0-0.0-0.8","723","","j","","","","","","","","","","","","","key","j","16.655330097088047","960","536","j","true","img/H_ambi40.png","朋友","same",""
"","","","","","html-keyboard-response","225","596002","0.0-9.0-0.0-0.0-0.0-1.8","null","<span style='color:GreenYellow; font-size: 70px;'>正确! </span>","null","","","","","","","","","","","","","","","","","","","","","","","feedback_test"
"","","","","","psychophysics","226","597818","0.0-9.0-0.0-0.0-0.0-0.9","810","","f","","","","","","","","","","","","","key","f","16.662092592593076","960","536","f","true","img/C_ambi40.png","朋友","same",""
"","","","","","html-keyboard-response","227","598330","0.0-9.0-0.0-0.0-0.0-1.9","null","<span style='color:GreenYellow; font-size: 70px;'>正确! </span>","null","","","","","","","","","","","","","","","","","","","","","","","feedback_test"
"","","","","","psychophysics","228","599842","0.0-9.0-0.0-0.0-0.0-0.10","501","","f","","","","","","","","","","","","","key","f","16.66215555555472","960","536","j","false","img/S_ambi40.png","生人","same",""
"","","","","","html-keyboard-response","229","600343","0.0-9.0-0.0-0.0-0.0-1.10","null","<span style='color:red; font-size: 70px;'>错误! </span>","null","","","","","","","","","","","","","","","","","","","","","","","feedback_test"
"","","","","","psychophysics","230","602001","0.0-9.0-0.0-0.0-0.0-0.11","645","","j","","","","","","","","","","","","","key","j","16.66116161616119","960","536","j","true","img/C_ambi40.png","自我","same",""
"","","","","","html-keyboard-response","231","602516","0.0-9.0-0.0-0.0-0.0-1.11","null","<span style='color:GreenYellow; font-size: 70px;'>正确! </span>","null","","","","","","","","","","","","","","","","","","","","","","","feedback_test"
"","","","","","psychophysics","232","604034","0.0-9.0-0.0-0.0-0.0-0.12","511","","f","","","","","","","","","","","","","key","f","16.661800000000383","960","536","f","true","img/T_ambi40.png","をる","same",""
"","","","","","html-keyboard-response","233","604546","0.0-9.0-0.0-0.0-0.0-1.12","null","<span style='color:GreenYellow; font-size: 70px;'>正确! </span>","null","","","","","","","","","","","","","","","","","","","","","","","feedback_test"
"","","","","","psychophysics","234","606278","0.0-9.0-0.0-0.0-0.0-0.13","723","","f","","","","","","","","","","","","","key","f","16.668201923077085","960","536","f","true","img/C_ambi40.png","朋友","same",""
"","","","","","html-keyboard-response","235","606790","0.0-9.0-0.0-0.0-0.0-1.13","null","<span style='color:GreenYellow; font-size: 70px;'>正确! </span>","null","","","","","","","","","","","","","","","","","","","","","","","feedback_test"
"","","","","","psychophysics","236","608355","0.0-9.0-0.0-0.0-0.0-0.14","552","","f","","","","","","","","","","","","","key","f","16.66074193548286","960","536","f","true","img/T_ambi40.png","をる","same",""
"","","","","","html-keyboard-response","237","608867","0.0-9.0-0.0-0.0-0.0-1.14","null","<span style='color:GreenYellow; font-size: 70px;'>正确! </span>","null","","","","","","","","","","","","","","","","","","","","","","","feedback_test"
"","","","","","psychophysics","238","610637","0.0-9.0-0.0-0.0-0.0-0.15","768","","j","","","","","","","","","","","","","key","j","16.66259999999976","960","536","j","true","img/H_ambi40.png","自我","same",""
"","","","","","html-keyboard-response","239","611142","0.0-9.0-0.0-0.0-0.0-1.15","null","<span style='color:GreenYellow; font-size: 70px;'>正确! </span>","null","","","","","","","","","","","","","","","","","","","","","","","feedback_test"
"","","","","","psychophysics","240","612726","0.0-9.0-0.0-0.0-0.0-0.16","583","","f","","","","","","","","","","","","","key","f","16.65955319148959","960","536","f","true","img/S_ambi40.png","自我","same",""
"","","","","","html-keyboard-response","241","613236","0.0-9.0-0.0-0.0-0.0-1.16","null","<span style='color:GreenYellow; font-size: 70px;'>正确! </span>","null","","","","","","","","","","","","","","","","","","","","","","","feedback_test"
"","","","","","psychophysics","242","614909","0.0-9.0-0.0-0.0-0.0-0.17","659","","j","","","","","","","","","","","","","key","j","16.66058585858631","960","536","j","true","img/C_ambi40.png","自我","same",""
"","","","","","html-keyboard-response","243","615410","0.0-9.0-0.0-0.0-0.0-1.17","null","<span style='color:GreenYellow; font-size: 70px;'>正确! </span>","null","","","","","","","","","","","","","","","","","","","","","","","feedback_test"
"","","","","","psychophysics","244","617542","0.0-9.0-0.0-0.0-0.0-0.18","1126","","f","","","","","","","","","","","","","key","f","16.660188976378276","960","536","f","true","img/H_ambi40.png","生人","same",""
"","","","","","html-keyboard-response","245","618056","0.0-9.0-0.0-0.0-0.0-1.18","null","<span style='color:GreenYellow; font-size: 70px;'>正确! </span>","null","","","","","","","","","","","","","","","","","","","","","","","feedback_test"
"","","","","","psychophysics","246","619662","0.0-9.0-0.0-0.0-0.0-0.19","601","","f","","","","","","","","","","","","","key","f","16.657242105262796","960","536","f","true","img/T_ambi40.png","をる","same",""
"","","","","","html-keyboard-response","247","620174","0.0-9.0-0.0-0.0-0.0-1.19","null","<span style='color:GreenYellow; font-size: 70px;'>正确! </span>","null","","","","","","","","","","","","","","","","","","","","","","","feedback_test"
"","","","","","psychophysics","248","621949","0.0-9.0-0.0-0.0-0.0-0.20","774","","f","","","","","","","","","","","","","key","f","16.65915094339618","960","536","f","true","img/C_ambi40.png","朋友","same",""
"","","","","","html-keyboard-response","249","622454","0.0-9.0-0.0-0.0-0.0-1.20","null","<span style='color:GreenYellow; font-size: 70px;'>正确! </span>","null","","","","","","","","","","","","","","","","","","","","","","","feedback_test"
"","","","","","psychophysics","250","624169","0.0-9.0-0.0-0.0-0.0-0.21","707","","f","","","","","","","","","","","","","key","f","16.660284313724798","960","536","f","true","img/S_ambi40.png","自我","same",""
"","","","","","html-keyboard-response","251","624673","0.0-9.0-0.0-0.0-0.0-1.21","null","<span style='color:GreenYellow; font-size: 70px;'>正确! </span>","null","","","","","","","","","","","","","","","","","","","","","","","feedback_test"
"","","","","","psychophysics","252","626267","0.0-9.0-0.0-0.0-0.0-0.22","588","","j","","","","","","","","","","","","","key","j","16.64397916666591","960","536","j","true","img/S_ambi40.png","生人","same",""
"","","","","","html-keyboard-response","253","626783","0.0-9.0-0.0-0.0-0.0-1.22","null","<span style='color:GreenYellow; font-size: 70px;'>正确! </span>","null","","","","","","","","","","","","","","","","","","","","","","","feedback_test"
"","","","","","psychophysics","254","628537","0.0-9.0-0.0-0.0-0.0-0.23","743","","j","","","","","","","","","","","","","key","j","16.66060576923057","960","536","j","true","img/H_ambi40.png","朋友","same",""
"","","","","","html-keyboard-response","255","629043","0.0-9.0-0.0-0.0-0.0-1.23","null","<span style='color:GreenYellow; font-size: 70px;'>正确! </span>","null","","","","","","","","","","","","","","","","","","","","","","","feedback_test"
"","","","","","psychophysics","256","630597","0.0-9.0-0.0-0.0-0.0-0.24","554","","f","","","","","","","","","","","","","key","f","16.659978260869494","960","536","j","false","img/S_ambi40.png","生人","same",""
"","","","","","html-keyboard-response","257","631106","0.0-9.0-0.0-0.0-0.0-1.24","null","<span style='color:red; font-size: 70px;'>错误! </span>","null","","","","","","","","","","","","","","","","","","","","","","","feedback_test"
"","","","","","psychophysics","258","632853","0.0-9.0-0.0-0.0-0.0-0.25","745","","j","","","","","","","","","","","","","key","j","16.663980769230804","960","536","j","true","img/H_ambi40.png","朋友","same",""
"","","","","","html-keyboard-response","259","633366","0.0-9.0-0.0-0.0-0.0-1.25","null","<span style='color:GreenYellow; font-size: 70px;'>正确! </span>","null","","","","","","","","","","","","","","","","","","","","","","","feedback_test"
"","","","","","psychophysics","260","635257","0.0-9.0-0.0-0.0-0.0-0.26","882","","f","","","","","","","","","","","","","key","f","16.653973214285674","960","536","j","false","img/C_ambi40.png","自我","same",""
"","","","","","html-keyboard-response","261","635772","0.0-9.0-0.0-0.0-0.0-1.26","null","<span style='color:red; font-size: 70px;'>错误! </span>","null","","","","","","","","","","","","","","","","","","","","","","","feedback_test"
"","","","","","psychophysics","262","637330","0.0-9.0-0.0-0.0-0.0-0.27","556","","f","","","","","","","","","","","","","key","f","16.65852688172061","960","536","f","true","img/T_ambi40.png","をる","same",""
"","","","","","html-keyboard-response","263","637845","0.0-9.0-0.0-0.0-0.0-1.27","null","<span style='color:GreenYellow; font-size: 70px;'>正确! </span>","null","","","","","","","","","","","","","","","","","","","","","","","feedback_test"
"","","","","","psychophysics","264","639574","0.0-9.0-0.0-0.0-0.0-0.28","719","","f","","","","","","","","","","","","","key","f","16.658281553398762","960","536","f","true","img/C_ambi40.png","朋友","same",""
"","","","","","html-keyboard-response","265","640081","0.0-9.0-0.0-0.0-0.0-1.28","null","<span style='color:GreenYellow; font-size: 70px;'>正确! </span>","null","","","","","","","","","","","","","","","","","","","","","","","feedback_test"
"","","","","","psychophysics","266","641831","0.0-9.0-0.0-0.0-0.0-0.29","748","","j","","","","","","","","","","","","","key","j","16.658161904762633","960","536","j","true","img/C_ambi40.png","生人","same",""
"","","","","","html-keyboard-response","267","642332","0.0-9.0-0.0-0.0-0.0-1.29","null","<span style='color:GreenYellow; font-size: 70px;'>正确! </span>","null","","","","","","","","","","","","","","","","","","","","","","","feedback_test"
"","","","","","psychophysics","268","644131","0.0-9.0-0.0-0.0-0.0-0.30","793","","f","","","","","","","","","","","","","key","f","16.6587663551403","960","536","j","false","img/C_ambi40.png","自我","same",""
"","","","","","html-keyboard-response","269","644645","0.0-9.0-0.0-0.0-0.0-1.30","null","<span style='color:red; font-size: 70px;'>错误! </span>","null","","","","","","","","","","","","","","","","","","","","","","","feedback_test"
"","","","","","psychophysics","270","646634","0.0-9.0-0.0-0.0-0.0-0.31","980","","j","","","","","","","","","","","","","key","j","16.65192436974715","960","536","j","true","img/S_ambi40.png","朋友","same",""
"","","","","","html-keyboard-response","271","647141","0.0-9.0-0.0-0.0-0.0-1.31","null","<span style='color:GreenYellow; font-size: 70px;'>正确! </span>","null","","","","","","","","","","","","","","","","","","","","","","","feedback_test"
"","","","","","psychophysics","272","649130","0.0-9.0-0.0-0.0-0.0-0.32","985","","f","","","","","","","","","","","","","key","f","16.665420168066717","960","536","f","true","img/H_ambi40.png","生人","same",""
"","","","","","html-keyboard-response","273","649642","0.0-9.0-0.0-0.0-0.0-1.32","null","<span style='color:GreenYellow; font-size: 70px;'>正确! </span>","null","","","","","","","","","","","","","","","","","","","","","","","feedback_test"
"","","","","","psychophysics","274","651226","0.0-9.0-0.0-0.0-0.0-0.33","576","","f","","","","","","","","","","","","","key","f","16.6572872340429","960","536","f","true","img/T_ambi40.png","をる","same",""
"","","","","","html-keyboard-response","275","651730","0.0-9.0-0.0-0.0-0.0-1.33","null","<span style='color:GreenYellow; font-size: 70px;'>正确! </span>","null","","","","","","","","","","","","","","","","","","","","","","","feedback_test"
"","","","","","psychophysics","276","653524","0.0-9.0-0.0-0.0-0.0-0.34","789","","j","","","","","","","","","","","","","key","j","16.656485981307924","960","536","j","true","img/H_ambi40.png","自我","same",""
"","","","","","html-keyboard-response","277","654027","0.0-9.0-0.0-0.0-0.0-1.34","null","<span style='color:GreenYellow; font-size: 70px;'>正确! </span>","null","","","","","","","","","","","","","","","","","","","","","","","feedback_test"
"","","","","","psychophysics","278","655562","0.0-9.0-0.0-0.0-0.0-0.35","534","","f","","","","","","","","","","","","","key","f","16.65890109890069","960","536","f","true","img/S_ambi40.png","自我","same",""
"","","","","","html-keyboard-response","279","656076","0.0-9.0-0.0-0.0-0.0-1.35","null","<span style='color:GreenYellow; font-size: 70px;'>正确! </span>","null","","","","","","","","","","","","","","","","","","","","","","","feedback_test"
"","","","","","psychophysics","280","657630","0.0-9.0-0.0-0.0-0.0-0.36","548","","f","","","","","","","","","","","","","key","f","16.66419565217296","960","536","f","true","img/T_ambi40.png","をる","same",""
"","","","","","html-keyboard-response","281","658141","0.0-9.0-0.0-0.0-0.0-1.36","null","<span style='color:GreenYellow; font-size: 70px;'>正确! </span>","null","","","","","","","","","","","","","","","","","","","","","","","feedback_test"
"","","","","","psychophysics","282","659895","0.0-9.0-0.0-0.0-0.0-0.37","747","","j","","","","","","","","","","","","","key","j","16.66470192307763","960","536","f","false","img/H_ambi40.png","生人","same",""
"","","","","","html-keyboard-response","283","660408","0.0-9.0-0.0-0.0-0.0-1.37","null","<span style='color:red; font-size: 70px;'>错误! </span>","null","","","","","","","","","","","","","","","","","","","","","","","feedback_test"
"","","","","","psychophysics","284","662155","0.0-9.0-0.0-0.0-0.0-0.38","741","","j","","","","","","","","","","","","","key","j","16.64876190476186","960","536","j","true","img/S_ambi40.png","生人","same",""
"","","","","","html-keyboard-response","285","662669","0.0-9.0-0.0-0.0-0.0-1.38","null","<span style='color:GreenYellow; font-size: 70px;'>正确! </span>","null","","","","","","","","","","","","","","","","","","","","","","","feedback_test"
"","","","","","psychophysics","286","664356","0.0-9.0-0.0-0.0-0.0-0.39","677","","f","","","","","","","","","","","","","key","f","16.655659999999916","960","536","f","true","img/C_ambi40.png","朋友","same",""
"","","","","","html-keyboard-response","287","664858","0.0-9.0-0.0-0.0-0.0-1.39","null","<span style='color:GreenYellow; font-size: 70px;'>正确! </span>","null","","","","","","","","","","","","","","","","","","","","","","","feedback_test"
"","","","","","psychophysics","288","666570","0.0-9.0-0.0-0.0-0.0-0.40","708","","j","","","","","","","","","","","","","key","j","16.66018627451016","960","536","j","true","img/C_ambi40.png","生人","same",""
"","","","","","html-keyboard-response","289","667072","0.0-9.0-0.0-0.0-0.0-1.40","null","<span style='color:GreenYellow; font-size: 70px;'>正确! </span>","null","","","","","","","","","","","","","","","","","","","","","","","feedback_test"
"","","","","","psychophysics","290","668743","0.0-9.0-0.0-0.0-0.0-0.41","667","","f","","","","","","","","","","","","","key","f","16.658210000001127","960","536","j","false","img/H_ambi40.png","自我","same",""
"","","","","","html-keyboard-response","291","669260","0.0-9.0-0.0-0.0-0.0-1.41","null","<span style='color:red; font-size: 70px;'>错误! </span>","null","","","","","","","","","","","","","","","","","","","","","","","feedback_test"
"","","","","","psychophysics","292","670806","0.0-9.0-0.0-0.0-0.0-0.42","545","","f","","","","","","","","","","","","","key","f","16.659703296703892","960","536","f","true","img/S_ambi40.png","自我","same",""
"","","","","","html-keyboard-response","293","671318","0.0-9.0-0.0-0.0-0.0-1.42","null","<span style='color:GreenYellow; font-size: 70px;'>正确! </span>","null","","","","","","","","","","","","","","","","","","","","","","","feedback_test"
"","","","","","psychophysics","294","673166","0.0-9.0-0.0-0.0-0.0-0.43","841","","f","","","","","","","","","","","","","key","f","16.659754545454316","960","536","f","true","img/H_ambi40.png","生人","same",""
"","","","","","html-keyboard-response","295","673672","0.0-9.0-0.0-0.0-0.0-1.43","null","<span style='color:GreenYellow; font-size: 70px;'>正确! </span>","null","","","","","","","","","","","","","","","","","","","","","","","feedback_test"
"","","","","","psychophysics","296","675379","0.0-9.0-0.0-0.0-0.0-0.44","705","","j","","","","","","","","","","","","","key","j","16.66282352941184","960","536","j","true","img/H_ambi40.png","朋友","same",""
"","","","","","html-keyboard-response","297","675885","0.0-9.0-0.0-0.0-0.0-1.44","null","<span style='color:GreenYellow; font-size: 70px;'>正确! </span>","null","","","","","","","","","","","","","","","","","","","","","","","feedback_test"
"","","","","","psychophysics","298","677414","0.0-9.0-0.0-0.0-0.0-0.45","525","","f","","","","","","","","","","","","","key","f","16.656369565218007","960","536","f","true","img/T_ambi40.png","をる","same",""
"","","","","","html-keyboard-response","299","677922","0.0-9.0-0.0-0.0-0.0-1.45","null","<span style='color:GreenYellow; font-size: 70px;'>正确! </span>","null","","","","","","","","","","","","","","","","","","","","","","","feedback_test"
"","","","","","psychophysics","300","679722","0.0-9.0-0.0-0.0-0.0-0.46","799","","j","","","","","","","","","","","","","key","j","16.6591495327101","960","536","j","true","img/S_ambi40.png","生人","same",""
"","","","","","html-keyboard-response","301","680231","0.0-9.0-0.0-0.0-0.0-1.46","null","<span style='color:GreenYellow; font-size: 70px;'>正确! </span>","null","","","","","","","","","","","","","","","","","","","","","","","feedback_test"
"","","","","","psychophysics","302","682051","0.0-9.0-0.0-0.0-0.0-0.47","813","","j","","","","","","","","","","","","","key","j","16.66282407407373","960","536","j","true","img/C_ambi40.png","自我","same",""
"","","","","","html-keyboard-response","303","682567","0.0-9.0-0.0-0.0-0.0-1.47","null","<span style='color:GreenYellow; font-size: 70px;'>正确! </span>","null","","","","","","","","","","","","","","","","","","","","","","","feedback_test"
"","","","","","psychophysics","304","684271","0.0-9.0-0.0-0.0-0.0-0.48","701","","f","","","","","","","","","","","","","key","f","16.66008823529324","960","536","f","true","img/C_ambi40.png","朋友","same",""
"","","","","","html-keyboard-response","305","684784","0.0-9.0-0.0-0.0-0.0-1.48","null","<span style='color:GreenYellow; font-size: 70px;'>正确! </span>","null","","","","","","","","","","","","","","","","","","","","","","","feedback_test"
"","","","","","psychophysics","306","686343","0.0-9.0-0.0-0.0-0.0-0.49","558","","j","","","","","","","","","","","","","key","j","16.663118279570345","960","536","j","true","img/H_ambi40.png","朋友","same",""
"","","","","","html-keyboard-response","307","686846","0.0-9.0-0.0-0.0-0.0-1.49","null","<span style='color:GreenYellow; font-size: 70px;'>正确! </span>","null","","","","","","","","","","","","","","","","","","","","","","","feedback_test"
"","","","","","psychophysics","308","688950","0.0-9.0-0.0-0.0-0.0-0.50","1099","","f","","","","","","","","","","","","","key","f","16.658611111111","960","536","j","false","img/C_ambi40.png","自我","same",""
"","","","","","html-keyboard-response","309","689454","0.0-9.0-0.0-0.0-0.0-1.50","null","<span style='color:red; font-size: 70px;'>错误! </span>","null","","","","","","","","","","","","","","","","","","","","","","","feedback_test"
"","","","","","psychophysics","310","691118","0.0-9.0-0.0-0.0-0.0-0.51","653","","f","","","","","","","","","","","","","key","f","16.66110999999917","960","536","f","true","img/S_ambi40.png","自我","same",""
"","","","","","html-keyboard-response","311","691620","0.0-9.0-0.0-0.0-0.0-1.51","null","<span style='color:GreenYellow; font-size: 70px;'>正确! </span>","null","","","","","","","","","","","","","","","","","","","","","","","feedback_test"
"","","","","","psychophysics","312","693295","0.0-9.0-0.0-0.0-0.0-0.52","671","","j","","","","","","","","","","","","","key","j","16.65776767676715","960","536","j","true","img/S_ambi40.png","朋友","same",""
"","","","","","html-keyboard-response","313","693810","0.0-9.0-0.0-0.0-0.0-1.52","null","<span style='color:GreenYellow; font-size: 70px;'>正确! </span>","null","","","","","","","","","","","","","","","","","","","","","","","feedback_test"
"","","","","","psychophysics","314","695344","0.0-9.0-0.0-0.0-0.0-0.53","528","","f","","","","","","","","","","","","","key","f","16.66253846153939","960","536","f","true","img/T_ambi40.png","をる","same",""
"","","","","","html-keyboard-response","315","695851","0.0-9.0-0.0-0.0-0.0-1.53","null","<span style='color:GreenYellow; font-size: 70px;'>正确! </span>","null","","","","","","","","","","","","","","","","","","","","","","","feedback_test"
"","","","","","psychophysics","316","697378","0.0-9.0-0.0-0.0-0.0-0.54","514","","j","","","","","","","","","","","","","key","j","16.658099999999266","960","536","j","true","img/H_ambi40.png","自我","same",""
"","","","","","html-keyboard-response","317","697893","0.0-9.0-0.0-0.0-0.0-1.54","null","<span style='color:GreenYellow; font-size: 70px;'>正确! </span>","null","","","","","","","","","","","","","","","","","","","","","","","feedback_test"
"","","","","","psychophysics","318","699649","0.0-9.0-0.0-0.0-0.0-0.55","753","","j","","","","","","","","","","","","","key","j","16.815428571428527","960","536","j","true","img/S_ambi40.png","朋友","same",""
"","","","","","html-keyboard-response","319","700158","0.0-9.0-0.0-0.0-0.0-1.55","null","<span style='color:GreenYellow; font-size: 70px;'>正确! </span>","null","","","","","","","","","","","","","","","","","","","","","","","feedback_test"
"","","","","","psychophysics","320","701926","0.0-9.0-0.0-0.0-0.0-0.56","764","","f","","","","","","","","","","","","","key","f","16.659132075471856","960","536","j","false","img/S_ambi40.png","生人","same",""
"","","","","","html-keyboard-response","321","702436","0.0-9.0-0.0-0.0-0.0-1.56","null","<span style='color:red; font-size: 70px;'>错误! </span>","null","","","","","","","","","","","","","","","","","","","","","","","feedback_test"
"","","","","","psychophysics","322","704045","0.0-9.0-0.0-0.0-0.0-0.57","608","","f","","","","","","","","","","","","","key","f","16.658760416665853","960","536","f","true","img/H_ambi40.png","生人","same",""
"","","","","","html-keyboard-response","323","704551","0.0-9.0-0.0-0.0-0.0-1.57","null","<span style='color:GreenYellow; font-size: 70px;'>正确! </span>","null","","","","","","","","","","","","","","","","","","","","","","","feedback_test"
"","","","","","psychophysics","324","706261","0.0-9.0-0.0-0.0-0.0-0.58","709","","j","","","","","","","","","","","","","key","j","16.6612843137255","960","536","j","true","img/H_ambi40.png","朋友","same",""
"","","","","","html-keyboard-response","325","706769","0.0-9.0-0.0-0.0-0.0-1.58","null","<span style='color:GreenYellow; font-size: 70px;'>正确! </span>","null","","","","","","","","","","","","","","","","","","","","","","","feedback_test"
"","","","","","psychophysics","326","708349","0.0-9.0-0.0-0.0-0.0-0.59","574","","j","","","","","","","","","","","","","key","j","16.666368421051946","960","536","f","false","img/S_ambi40.png","自我","same",""
"","","","","","html-keyboard-response","327","708857","0.0-9.0-0.0-0.0-0.0-1.59","null","<span style='color:red; font-size: 70px;'>错误! </span>","null","","","","","","","","","","","","","","","","","","","","","","","feedback_test"
"","","","","","psychophysics","328","710644","0.0-9.0-0.0-0.0-0.0-0.60","786","","f","","","","","","","","","","","","","key","f","16.657443396226537","960","536","f","true","img/C_ambi40.png","朋友","same",""
"","","","","","html-keyboard-response","329","711153","0.0-9.0-0.0-0.0-0.0-1.60","null","<span style='color:GreenYellow; font-size: 70px;'>正确! </span>","null","","","","","","","","","","","","","","","","","","","","","","","feedback_test"
"","","","","","psychophysics","330","712961","0.0-9.0-0.0-0.0-0.0-0.61","804","","f","","","","","","","","","","","","","key","f","16.817685185184626","960","536","f","true","img/H_ambi40.png","生人","same",""
"","","","","","html-keyboard-response","331","713470","0.0-9.0-0.0-0.0-0.0-1.61","null","<span style='color:GreenYellow; font-size: 70px;'>正确! </span>","null","","","","","","","","","","","","","","","","","","","","","","","feedback_test"
"","","","","","psychophysics","332","715322","0.0-9.0-0.0-0.0-0.0-0.62","851","","f","","","","","","","","","","","","","key","f","16.65831531531509","960","536","f","true","img/S_ambi40.png","自我","same",""
"","","","","","html-keyboard-response","333","715826","0.0-9.0-0.0-0.0-0.0-1.62","null","<span style='color:GreenYellow; font-size: 70px;'>正确! </span>","null","","","","","","","","","","","","","","","","","","","","","","","feedback_test"
"","","","","","psychophysics","334","717369","0.0-9.0-0.0-0.0-0.0-0.63","532","","f","","","","","","","","","","","","","key","f","16.66232967032964","960","536","f","true","img/T_ambi40.png","をる","same",""
"","","","","","html-keyboard-response","335","717885","0.0-9.0-0.0-0.0-0.0-1.63","null","<span style='color:GreenYellow; font-size: 70px;'>正确! </span>","null","","","","","","","","","","","","","","","","","","","","","","","feedback_test"
"","","","","","psychophysics","336","719605","0.0-9.0-0.0-0.0-0.0-0.64","718","","j","","","","","","","","","","","","","key","j","16.648392156862162","960","536","j","true","img/S_ambi40.png","生人","same",""
"","","","","","html-keyboard-response","337","720116","0.0-9.0-0.0-0.0-0.0-1.64","null","<span style='color:GreenYellow; font-size: 70px;'>正确! </span>","null","","","","","","","","","","","","","","","","","","","","","","","feedback_test"
"","","","","","psychophysics","338","722045","0.0-9.0-0.0-0.0-0.0-0.65","926","","j","","","","","","","","","","","","","key","j","16.80829565217415","960","536","j","true","img/C_ambi40.png","自我","same",""
"","","","","","html-keyboard-response","339","722552","0.0-9.0-0.0-0.0-0.0-1.65","null","<span style='color:GreenYellow; font-size: 70px;'>正确! </span>","null","","","","","","","","","","","","","","","","","","","","","","","feedback_test"
"","","","","","psychophysics","340","724377","0.0-9.0-0.0-0.0-0.0-0.66","825","","j","","","","","","","","","","","","","key","j","16.659157407407527","960","536","j","true","img/C_ambi40.png","生人","same",""
"","","","","","html-keyboard-response","341","724891","0.0-9.0-0.0-0.0-0.0-1.66","null","<span style='color:GreenYellow; font-size: 70px;'>正确! </span>","null","","","","","","","","","","","","","","","","","","","","","","","feedback_test"
"","","","","","psychophysics","342","726434","0.0-9.0-0.0-0.0-0.0-0.67","533","","f","","","","","","","","","","","","","key","f","16.65306521739188","960","536","f","true","img/T_ambi40.png","をる","same",""
"","","","","","html-keyboard-response","343","726939","0.0-9.0-0.0-0.0-0.0-1.67","null","<span style='color:GreenYellow; font-size: 70px;'>正确! </span>","null","","","","","","","","","","","","","","","","","","","","","","","feedback_test"
"","","","","","psychophysics","344","728734","0.0-9.0-0.0-0.0-0.0-0.68","785","","j","","","","","","","","","","","","","key","j","16.658738317756878","960","536","j","true","img/C_ambi40.png","自我","same",""
"","","","","","html-keyboard-response","345","729249","0.0-9.0-0.0-0.0-0.0-1.68","null","<span style='color:GreenYellow; font-size: 70px;'>正确! </span>","null","","","","","","","","","","","","","","","","","","","","","","","feedback_test"
"","","","","","psychophysics","346","730729","0.0-9.0-0.0-0.0-0.0-0.69","467","","f","","","","","","","","","","","","","key","f","16.660793103447624","960","536","f","true","img/T_ambi40.png","をる","same",""
"","","","","","html-keyboard-response","347","731245","0.0-9.0-0.0-0.0-0.0-1.69","null","<span style='color:GreenYellow; font-size: 70px;'>正确! </span>","null","","","","","","","","","","","","","","","","","","","","","","","feedback_test"
"","","","","","psychophysics","348","732994","0.0-9.0-0.0-0.0-0.0-0.70","747","","j","","","","","","","","","","","","","key","j","16.659990384615064","960","536","j","true","img/H_ambi40.png","朋友","same",""
"","","","","","html-keyboard-response","349","733496","0.0-9.0-0.0-0.0-0.0-1.70","null","<span style='color:GreenYellow; font-size: 70px;'>正确! </span>","null","","","","","","","","","","","","","","","","","","","","","","","feedback_test"
"","","","","","psychophysics","350","735241","0.0-9.0-0.0-0.0-0.0-0.71","745","","f","","","","","","","","","","","","","key","f","16.65490291262095","960","536","f","true","img/C_ambi40.png","朋友","same",""
"","","","","","html-keyboard-response","351","735745","0.0-9.0-0.0-0.0-0.0-1.71","null","<span style='color:GreenYellow; font-size: 70px;'>正确! </span>","null","","","","","","","","","","","","","","","","","","","","","","","feedback_test"
"","","","","","psychophysics","352","737362","0.0-9.0-0.0-0.0-0.0-0.72","616","","j","","","","","","","","","","","","","key","j","16.647614583334263","960","536","j","true","img/S_ambi40.png","朋友","same",""
"","","","","","html-keyboard-response","353","737871","0.0-9.0-0.0-0.0-0.0-1.72","null","<span style='color:GreenYellow; font-size: 70px;'>正确! </span>","null","","","","","","","","","","","","","","","","","","","","","","","feedback_test"
"","","","","","psychophysics","354","739604","0.0-9.0-0.0-0.0-0.0-0.73","726","","f","","","","","","","","","","","","","key","f","16.666326923076458","960","536","j","false","img/H_ambi40.png","自我","same",""
"","","","","","html-keyboard-response","355","740116","0.0-9.0-0.0-0.0-0.0-1.73","null","<span style='color:red; font-size: 70px;'>错误! </span>","null","","","","","","","","","","","","","","","","","","","","","","","feedback_test"
"","","","","","psychophysics","356","741630","0.0-9.0-0.0-0.0-0.0-0.74","513","","f","","","","","","","","","","","","","key","f","16.664131868131726","960","536","f","true","img/S_ambi40.png","自我","same",""
"","","","","","html-keyboard-response","357","742136","0.0-9.0-0.0-0.0-0.0-1.74","null","<span style='color:GreenYellow; font-size: 70px;'>正确! </span>","null","","","","","","","","","","","","","","","","","","","","","","","feedback_test"
"","","","","","psychophysics","358","743805","0.0-9.0-0.0-0.0-0.0-0.75","662","","j","","","","","","","","","","","","","key","j","16.65872727272764","960","536","j","true","img/S_ambi40.png","生人","same",""
"","","","","","html-keyboard-response","359","744313","0.0-9.0-0.0-0.0-0.0-1.75","null","<span style='color:GreenYellow; font-size: 70px;'>正确! </span>","null","","","","","","","","","","","","","","","","","","","","","","","feedback_test"
"","","","","","psychophysics","360","745849","0.0-9.0-0.0-0.0-0.0-0.76","524","","j","","","","","","","","","","","","","key","j","16.64757608695705","960","536","j","true","img/S_ambi40.png","生人","same",""
"","","","","","html-keyboard-response","361","746359","0.0-9.0-0.0-0.0-0.0-1.76","null","<span style='color:GreenYellow; font-size: 70px;'>正确! </span>","null","","","","","","","","","","","","","","","","","","","","","","","feedback_test"
"","","","","","psychophysics","362","747805","0.0-9.0-0.0-0.0-0.0-0.77","435","","j","","","","","","","","","","","","","key","j","16.660918604651584","960","536","f","false","img/T_ambi40.png","をる","same",""
"","","","","","html-keyboard-response","363","748321","0.0-9.0-0.0-0.0-0.0-1.77","null","<span style='color:red; font-size: 70px;'>错误! </span>","null","","","","","","","","","","","","","","","","","","","","","","","feedback_test"
"","","","","","psychophysics","364","749930","0.0-9.0-0.0-0.0-0.0-0.78","607","","f","","","","","","","","","","","","","key","f","16.658749999999902","960","536","f","true","img/T_ambi40.png","をる","same",""
"","","","","","html-keyboard-response","365","750445","0.0-9.0-0.0-0.0-0.0-1.78","null","<span style='color:GreenYellow; font-size: 70px;'>正确! </span>","null","","","","","","","","","","","","","","","","","","","","","","","feedback_test"
"","","","","","psychophysics","366","752115","0.0-9.0-0.0-0.0-0.0-0.79","659","","f","","","","","","","","","","","","","key","f","16.660767676767357","960","536","f","true","img/C_ambi40.png","朋友","same",""
"","","","","","html-keyboard-response","367","752628","0.0-9.0-0.0-0.0-0.0-1.79","null","<span style='color:GreenYellow; font-size: 70px;'>正确! </span>","null","","","","","","","","","","","","","","","","","","","","","","","feedback_test"
"","","","","","psychophysics","368","754133","0.0-9.0-0.0-0.0-0.0-0.80","495","","j","","","","","","","","","","","","","key","j","16.663511111111276","960","536","f","false","img/S_ambi40.png","自我","same",""
"","","","","","html-keyboard-response","369","754640","0.0-9.0-0.0-0.0-0.0-1.80","null","<span style='color:red; font-size: 70px;'>错误! </span>","null","","","","","","","","","","","","","","","","","","","","","","","feedback_test"
"","","","","","psychophysics","370","756213","0.0-9.0-0.0-0.0-0.0-0.81","565","","j","","","","","","","","","","","","","key","j","16.653817204300374","960","536","j","true","img/H_ambi40.png","朋友","same",""
"","","","","","html-keyboard-response","371","756724","0.0-9.0-0.0-0.0-0.0-1.81","null","<span style='color:GreenYellow; font-size: 70px;'>正确! </span>","null","","","","","","","","","","","","","","","","","","","","","","","feedback_test"
"","","","","","psychophysics","372","758339","0.0-9.0-0.0-0.0-0.0-0.82","612","","j","","","","","","","","","","","","","key","j","16.678257731958436","960","536","j","true","img/C_ambi40.png","自我","same",""
"","","","","","html-keyboard-response","373","758853","0.0-9.0-0.0-0.0-0.0-1.82","null","<span style='color:GreenYellow; font-size: 70px;'>正确! </span>","null","","","","","","","","","","","","","","","","","","","","","","","feedback_test"
"","","","","","psychophysics","374","760458","0.0-9.0-0.0-0.0-0.0-0.83","590","","j","","","","","","","","","","","","","key","j","16.647166666666937","960","536","f","false","img/C_ambi40.png","朋友","same",""
"","","","","","html-keyboard-response","375","760965","0.0-9.0-0.0-0.0-0.0-1.83","null","<span style='color:red; font-size: 70px;'>错误! </span>","null","","","","","","","","","","","","","","","","","","","","","","","feedback_test"
"","","","","","psychophysics","376","762847","0.0-9.0-0.0-0.0-0.0-0.84","879","","f","","","","","","","","","","","","","key","f","16.66116071428613","960","536","f","true","img/H_ambi40.png","生人","same",""
"","","","","","html-keyboard-response","377","763350","0.0-9.0-0.0-0.0-0.0-1.84","null","<span style='color:GreenYellow; font-size: 70px;'>正确! </span>","null","","","","","","","","","","","","","","","","","","","","","","","feedback_test"
"","","","","","psychophysics","378","764858","0.0-9.0-0.0-0.0-0.0-0.85","495","","f","","","","","","","","","","","","","key","f","16.66229213483166","960","536","j","false","img/H_ambi40.png","朋友","same",""
"","","","","","html-keyboard-response","379","765363","0.0-9.0-0.0-0.0-0.0-1.85","null","<span style='color:red; font-size: 70px;'>错误! </span>","null","","","","","","","","","","","","","","","","","","","","","","","feedback_test"
"","","","","","psychophysics","380","767038","0.0-9.0-0.0-0.0-0.0-0.86","673","","f","","","","","","","","","","","","","key","f","16.663840000000782","960","536","f","true","img/H_ambi40.png","生人","same",""
"","","","","","html-keyboard-response","381","767541","0.0-9.0-0.0-0.0-0.0-1.86","null","<span style='color:GreenYellow; font-size: 70px;'>正确! </span>","null","","","","","","","","","","","","","","","","","","","","","","","feedback_test"
"","","","","","psychophysics","382","769109","0.0-9.0-0.0-0.0-0.0-0.87","562","","f","","","","","","","","","","","","","key","f","16.661967741936365","960","536","f","true","img/T_ambi40.png","をる","same",""
"","","","","","html-keyboard-response","383","769616","0.0-9.0-0.0-0.0-0.0-1.87","null","<span style='color:GreenYellow; font-size: 70px;'>正确! </span>","null","","","","","","","","","","","","","","","","","","","","","","","feedback_test"
"","","","","","psychophysics","384","771142","0.0-9.0-0.0-0.0-0.0-0.88","513","","j","","","","","","","","","","","","","key","j","16.654355555555473","960","536","j","true","img/C_ambi40.png","自我","same",""
"","","","","","html-keyboard-response","385","771646","0.0-9.0-0.0-0.0-0.0-1.88","null","<span style='color:GreenYellow; font-size: 70px;'>正确! </span>","null","","","","","","","","","","","","","","","","","","","","","","","feedback_test"
"","","","","","psychophysics","386","773206","0.0-9.0-0.0-0.0-0.0-0.89","545","","j","","","","","","","","","","","","","key","j","16.66142391304374","960","536","j","true","img/C_ambi40.png","生人","same",""
"","","","","","html-keyboard-response","387","773709","0.0-9.0-0.0-0.0-0.0-1.89","null","<span style='color:GreenYellow; font-size: 70px;'>正确! </span>","null","","","","","","","","","","","","","","","","","","","","","","","feedback_test"
"","","","","","psychophysics","388","775426","0.0-9.0-0.0-0.0-0.0-0.90","714","","j","","","","","","","","","","","","","key","j","16.663362745097473","960","536","j","true","img/S_ambi40.png","生人","same",""
"","","","","","html-keyboard-response","389","775930","0.0-9.0-0.0-0.0-0.0-1.90","null","<span style='color:GreenYellow; font-size: 70px;'>正确! </span>","null","","","","","","","","","","","","","","","","","","","","","","","feedback_test"
"","","","","","psychophysics","390","777462","0.0-9.0-0.0-0.0-0.0-0.91","530","","f","","","","","","","","","","","","","key","f","16.66083516483451","960","536","f","true","img/T_ambi40.png","をる","same",""
"","","","","","html-keyboard-response","391","777965","0.0-9.0-0.0-0.0-0.0-1.91","null","<span style='color:GreenYellow; font-size: 70px;'>正确! </span>","null","","","","","","","","","","","","","","","","","","","","","","","feedback_test"
"","","","","","psychophysics","392","779506","0.0-9.0-0.0-0.0-0.0-0.92","529","","f","","","","","","","","","","","","","key","f","16.66032967033059","960","536","f","true","img/C_ambi40.png","朋友","same",""
"","","","","","html-keyboard-response","393","780007","0.0-9.0-0.0-0.0-0.0-1.92","null","<span style='color:GreenYellow; font-size: 70px;'>正确! </span>","null","","","","","","","","","","","","","","","","","","","","","","","feedback_test"
"","","","","","psychophysics","394","781561","0.0-9.0-0.0-0.0-0.0-0.93","551","","j","","","","","","","","","","","","","key","j","16.65964516128979","960","536","j","true","img/S_ambi40.png","朋友","same",""
"","","","","","html-keyboard-response","395","782071","0.0-9.0-0.0-0.0-0.0-1.93","null","<span style='color:GreenYellow; font-size: 70px;'>正确! </span>","null","","","","","","","","","","","","","","","","","","","","","","","feedback_test"
"","","","","","psychophysics","396","783629","0.0-9.0-0.0-0.0-0.0-0.94","557","","j","","","","","","","","","","","","","key","j","16.65577659574387","960","536","f","false","img/S_ambi40.png","自我","same",""
"","","","","","html-keyboard-response","397","784134","0.0-9.0-0.0-0.0-0.0-1.94","null","<span style='color:red; font-size: 70px;'>错误! </span>","null","","","","","","","","","","","","","","","","","","","","","","","feedback_test"
"","","","","","psychophysics","398","785830","0.0-9.0-0.0-0.0-0.0-0.95","688","","j","","","","","","","","","","","","","key","j","16.646705882352155","960","536","j","true","img/H_ambi40.png","朋友","same",""
"","","","","","html-keyboard-response","399","786345","0.0-9.0-0.0-0.0-0.0-1.95","null","<span style='color:GreenYellow; font-size: 70px;'>正确! </span>","null","","","","","","","","","","","","","","","","","","","","","","","feedback_test"
"","","","","","psychophysics","400","788061","0.0-9.0-0.0-0.0-0.0-0.96","704","","j","","","","","","","","","","","","","key","j","16.658421568627304","960","536","j","true","img/C_ambi40.png","生人","same",""
"","","","","","html-keyboard-response","401","788576","0.0-9.0-0.0-0.0-0.0-1.96","null","<span style='color:GreenYellow; font-size: 70px;'>正确! </span>","null","","","","","","","","","","","","","","","","","","","","","","","feedback_test"
"","","","","","psychophysics","402","790398","0.0-9.0-0.0-0.0-0.0-0.97","809","","j","","","","","","","","","","","","","key","j","16.65792592592684","960","536","j","true","img/C_ambi40.png","自我","same",""
"","","","","","html-keyboard-response","403","790902","0.0-9.0-0.0-0.0-0.0-1.97","null","<span style='color:GreenYellow; font-size: 70px;'>正确! </span>","null","","","","","","","","","","","","","","","","","","","","","","","feedback_test"
"","","","","","psychophysics","404","792414","0.0-9.0-0.0-0.0-0.0-0.98","510","","j","","","","","","","","","","","","","key","j","16.659744444444208","960","536","f","false","img/C_ambi40.png","朋友","same",""
"","","","","","html-keyboard-response","405","792926","0.0-9.0-0.0-0.0-0.0-1.98","null","<span style='color:red; font-size: 70px;'>错误! </span>","null","","","","","","","","","","","","","","","","","","","","","","","feedback_test"
"","","","","","psychophysics","406","794710","0.0-9.0-0.0-0.0-0.0-0.99","777","","j","","","","","","","","","","","","","key","j","16.65955660377414","960","536","j","true","img/C_ambi40.png","自我","same",""
"","","","","","html-keyboard-response","407","795225","0.0-9.0-0.0-0.0-0.0-1.99","null","<span style='color:GreenYellow; font-size: 70px;'>正确! </span>","null","","","","","","","","","","","","","","","","","","","","","","","feedback_test"
"","","","","","psychophysics","408","796717","0.0-9.0-0.0-0.0-0.0-0.100","480","","f","","","","","","","","","","","","","key","f","16.655078651685677","960","536","f","true","img/T_ambi40.png","をる","same",""
"","","","","","html-keyboard-response","409","797226","0.0-9.0-0.0-0.0-0.0-1.100","null","<span style='color:GreenYellow; font-size: 70px;'>正确! </span>","null","","","","","","","","","","","","","","","","","","","","","","","feedback_test"
"","","","","","psychophysics","410","798786","0.0-9.0-0.0-0.0-0.0-0.101","551","","j","","","","","","","","","","","","","key","j","16.656118279569583","960","536","j","true","img/H_ambi40.png","朋友","same",""
"","","","","","html-keyboard-response","411","799288","0.0-9.0-0.0-0.0-0.0-1.101","null","<span style='color:GreenYellow; font-size: 70px;'>正确! </span>","null","","","","","","","","","","","","","","","","","","","","","","","feedback_test"
"","","","","","psychophysics","412","800744","0.0-9.0-0.0-0.0-0.0-0.102","456","","j","","","","","","","","","","","","","key","j","16.659720930231593","960","536","j","true","img/H_ambi40.png","自我","same",""
"","","","","","html-keyboard-response","413","801254","0.0-9.0-0.0-0.0-0.0-1.102","null","<span style='color:GreenYellow; font-size: 70px;'>正确! </span>","null","","","","","","","","","","","","","","","","","","","","","","","feedback_test"
"","","","","","psychophysics","414","802762","0.0-9.0-0.0-0.0-0.0-0.103","495","","f","","","","","","","","","","","","","key","f","16.64609999999973","960","536","f","true","img/T_ambi40.png","をる","same",""
"","","","","","html-keyboard-response","415","803272","0.0-9.0-0.0-0.0-0.0-1.103","null","<span style='color:GreenYellow; font-size: 70px;'>正确! </span>","null","","","","","","","","","","","","","","","","","","","","","","","feedback_test"
"","","","","","psychophysics","416","804982","0.0-9.0-0.0-0.0-0.0-0.104","707","","j","","","","","","","","","","","","","key","j","16.65594174757202","960","536","f","false","img/H_ambi40.png","生人","same",""
"","","","","","html-keyboard-response","417","805496","0.0-9.0-0.0-0.0-0.0-1.104","null","<span style='color:red; font-size: 70px;'>错误! </span>","null","","","","","","","","","","","","","","","","","","","","","","","feedback_test"
"","","","","","psychophysics","418","807035","0.0-9.0-0.0-0.0-0.0-0.105","536","","f","","","","","","","","","","","","","key","f","16.66314285714307","960","536","f","true","img/H_ambi40.png","生人","same",""
"","","","","","html-keyboard-response","419","807548","0.0-9.0-0.0-0.0-0.0-1.105","null","<span style='color:GreenYellow; font-size: 70px;'>正确! </span>","null","","","","","","","","","","","","","","","","","","","","","","","feedback_test"
"","","","","","psychophysics","420","809205","0.0-9.0-0.0-0.0-0.0-0.106","645","","f","","","","","","","","","","","","","key","f","16.663234693877286","960","536","f","true","img/S_ambi40.png","自我","same",""
"","","","","","html-keyboard-response","421","809711","0.0-9.0-0.0-0.0-0.0-1.106","null","<span style='color:GreenYellow; font-size: 70px;'>正确! </span>","null","","","","","","","","","","","","","","","","","","","","","","","feedback_test"
"","","","","","psychophysics","422","811417","0.0-9.0-0.0-0.0-0.0-0.107","705","","j","","","","","","","","","","","","","key","j","16.64911881188106","960","536","j","true","img/S_ambi40.png","生人","same",""
"","","","","","html-keyboard-response","423","811929","0.0-9.0-0.0-0.0-0.0-1.107","null","<span style='color:GreenYellow; font-size: 70px;'>正确! </span>","null","","","","","","","","","","","","","","","","","","","","","","","feedback_test"
"","","","","","html-keyboard-response","424","817302","0.0-9.0-0.0-0.0-1.0","5372","<style>.context{color:white; font-size: 35px; line-height:40px}</style>                          <div><p class='context'>您正确回答了81% 的试次。</p><p class='context'>您的平均反应时为668毫秒。</p><p class='context'>请按任意键进入休息</p></div>"," ","","","","","","","","","","","","","","","","","","","","","","",""
"","","","","","html-button-response","425","880427","0.0-9.0-0.0-0.0-2.0","63121","
                    <p>您当前还剩余5组实验</p>
                    <p>现在是休息时间，当您结束休息后，您可以点击 结束休息 按钮 继续</p>
                    <p>建议休息时间还剩余<span id=""iii"">60</span>秒</p>","0","","","","","","","","","","","","","","","","","","","","","","",""
"","","","","","psychophysics","426","882090","0.0-9.0-0.0-0.0-0.1-0.108","657","","f","","","","","","","","","","","","","key","f","16.66313131313037","960","536","f","true","img/C_ambi40.png","朋友","same",""
"","","","","","html-keyboard-response","427","882596","0.0-9.0-0.0-0.0-0.1-1.108","null","<span style='color:GreenYellow; font-size: 70px;'>正确! </span>","null","","","","","","","","","","","","","","","","","","","","","","","feedback_test"
"","","","","","psychophysics","428","884099","0.0-9.0-0.0-0.0-0.1-0.109","501","","f","","","","","","","","","","","","","key","f","16.67231111111145","960","536","f","true","img/T_ambi40.png","をる","same",""
"","","","","","html-keyboard-response","429","884606","0.0-9.0-0.0-0.0-0.1-1.109","null","<span style='color:GreenYellow; font-size: 70px;'>正确! </span>","null","","","","","","","","","","","","","","","","","","","","","","","feedback_test"
"","","","","","psychophysics","430","886337","0.0-9.0-0.0-0.0-0.1-0.110","724","","j","","","","","","","","","","","","","key","j","16.660388349514744","960","536","f","false","img/H_ambi40.png","生人","same",""
"","","","","","html-keyboard-response","431","886852","0.0-9.0-0.0-0.0-0.1-1.110","null","<span style='color:red; font-size: 70px;'>错误! </span>","null","","","","","","","","","","","","","","","","","","","","","","","feedback_test"
"","","","","","psychophysics","432","888322","0.0-9.0-0.0-0.0-0.1-0.111","460","","f","","","","","","","","","","","","","key","f","16.658517241378945","960","536","f","true","img/T_ambi40.png","をる","same",""
"","","","","","html-keyboard-response","433","888832","0.0-9.0-0.0-0.0-0.1-1.111","null","<span style='color:GreenYellow; font-size: 70px;'>正确! </span>","null","","","","","","","","","","","","","","","","","","","","","","","feedback_test"
"","","","","","psychophysics","434","890309","0.0-9.0-0.0-0.0-0.1-0.112","474","","f","","","","","","","","","","","","","key","f","16.64599999999998","960","536","f","true","img/T_ambi40.png","をる","same",""
"","","","","","html-keyboard-response","435","890813","0.0-9.0-0.0-0.0-0.1-1.112","null","<span style='color:GreenYellow; font-size: 70px;'>正确! </span>","null","","","","","","","","","","","","","","","","","","","","","","","feedback_test"
"","","","","","psychophysics","436","892319","0.0-9.0-0.0-0.0-0.1-0.113","491","","f","","","","","","","","","","","","","key","f","16.658831460674797","960","536","j","false","img/H_ambi40.png","朋友","same",""
"","","","","","html-keyboard-response","437","892835","0.0-9.0-0.0-0.0-0.1-1.113","null","<span style='color:red; font-size: 70px;'>错误! </span>","null","","","","","","","","","","","","","","","","","","","","","","","feedback_test"
"","","","","","psychophysics","438","894582","0.0-9.0-0.0-0.0-0.1-0.114","746","","j","","","","","","","","","","","","","key","j","16.660447619047147","960","536","j","true","img/S_ambi40.png","生人","same",""
"","","","","","html-keyboard-response","439","895086","0.0-9.0-0.0-0.0-0.1-1.114","null","<span style='color:GreenYellow; font-size: 70px;'>正确! </span>","null","","","","","","","","","","","","","","","","","","","","","","","feedback_test"
"","","","","","psychophysics","440","896634","0.0-9.0-0.0-0.0-0.1-0.115","546","","j","","","","","","","","","","","","","key","j","16.660239130434448","960","536","j","true","img/C_ambi40.png","生人","same",""
"","","","","","html-keyboard-response","441","897149","0.0-9.0-0.0-0.0-0.1-1.115","null","<span style='color:GreenYellow; font-size: 70px;'>正确! </span>","null","","","","","","","","","","","","","","","","","","","","","","","feedback_test"
"","","","","","psychophysics","442","898662","0.0-9.0-0.0-0.0-0.1-0.116","504","","f","","","","","","","","","","","","","key","f","16.662577777778885","960","536","j","false","img/H_ambi40.png","自我","same",""
"","","","","","html-keyboard-response","443","899163","0.0-9.0-0.0-0.0-0.1-1.116","null","<span style='color:red; font-size: 70px;'>错误! </span>","null","","","","","","","","","","","","","","","","","","","","","","","feedback_test"
"","","","","","psychophysics","444","900826","0.0-9.0-0.0-0.0-0.1-0.117","652","","f","","","","","","","","","","","","","key","f","16.655070707070255","960","536","f","true","img/C_ambi40.png","朋友","same",""
"","","","","","html-keyboard-response","445","901337","0.0-9.0-0.0-0.0-0.1-1.117","null","<span style='color:GreenYellow; font-size: 70px;'>正确! </span>","null","","","","","","","","","","","","","","","","","","","","","","","feedback_test"
"","","","","","psychophysics","446","903054","0.0-9.0-0.0-0.0-0.1-0.118","715","","f","","","","","","","","","","","","","key","f","16.820872549020102","960","536","f","true","img/H_ambi40.png","生人","same",""
