"success","timeout","failed_images","failed_audio","failed_video","trial_type","trial_index","time_elapsed","internal_node_id","rt","stimulus","response","value","item_width_mm","item_height_mm","item_width_px","px2mm","view_dist_mm","item_width_deg","px2deg","scale_factor","win_width_deg","win_height_deg","view_history","response_type","key_press","avg_frame_time","center_x","center_y","correct_response","correct","Image","word","condition","screen_id"
"true","false","[]","[]","[]","preload","0","16574","0.0-0.0","","","","","","","","","","","","","","","","","","","","","","","","","",""
"","","","","","html-keyboard-response","1","77873","0.0-1.0","61297","
     <p>您好，欢迎参加本次实验。</p>
     <p>为充分保障您的权利，请确保您已经知晓并同意《参与实验同意书》以及《数据公开知情同意书》。</p>
     <p>如果您未见过上述内容，请咨询实验员。</p>
     <p>如果您选择继续实验，则表示您已经清楚两份知情同意书的内容并同意。</p>
     <p> <div style = ""color: green""><按任意键至下页></div> </p>
     ","arrowdown","","","","","","","","","","","","","","","","","","","","","","",""
"","","","","","html-keyboard-response","2","78974","0.0-2.0","1101","
     <p>本实验首先需要您填写一些基本个人信息。</p>
     <p> <div style = ""color: green""><按任意键至下页></div></p>
     ","arrowdown","","","","","","","","","","","","","","","","","","","","","","",""
"","","","","","call-function","3","78976","0.0-3.0-0.0","","","","","","","","","","","","","","","","","","","","","","","","","",""
"","","","","","survey-html-form","4","96152","0.0-3.0-1.0","17173","","{""Q0"":""7""}","","","","","","","","","","","","","","","","","","","","","","",""
"","","","","","html-button-response","5","98154","0.0-3.0-2.0","2000","<p style = 'color : white'>您的性别</p>","1","","","","","","","","","","","","","","","","","","","","","","",""
"","","","","","survey-html-form","6","104186","0.0-3.0-3.0","6029","","{""Q0"":""1999""}","","","","","","","","","","","","","","","","","","","","","","",""
"","","","","","survey-html-form","7","108487","0.0-3.0-4.0","4297","","{""Q0"":""5""}","","","","","","","","","","","","","","","","","","","","","","",""
"","","","","","virtual-chinrest","8","265077","0.0-4.0","156587","","","","85.6","53.98","368.79488306536587","4.305825074532806","664.02","7.375897661307318","49.99999999999999","1.035806128395479","29.580000000000005","15.200000000000003","","","","","","","","","","","",""
"true","","","","","fullscreen","9","268480","0.0-5.0","","","","","","","","","","","","","","","","","","","","","","","","","",""
"","","","","","instructions","10","307771","0.0-6.0","39290","","","","","","","","","","","","","","[{""page_index"":0,""viewing_time"":4153},{""page_index"":1,""viewing_time"":30096},{""page_index"":2,""viewing_time"":2259},{""page_index"":3,""viewing_time"":2782}]","","","","","","","","","","",""
"","","","","","psychophysics","11","310303","0.0-7.0-0.0","null","","null","","","","","","","","","","","","","key","null","18.25956617647085","768","428","j","false","img/T_ambi40.png","をる","prac",""
"","","","","","html-keyboard-response","12","310817","0.0-7.0-1.0","null","<span class='add_' style='color:yellow; font-size: 70px;'> 太慢! </span>","null","","","","","","","","","","","","","","","","","","","","","","","feedback_test"
"","","","","","psychophysics","13","313325","0.0-7.0-0.1","null","","null","","","","","","","","","","","","","key","null","17.01239041095896","768","428","j","false","img/T_ambi40.png","をる","prac",""
"","","","","","html-keyboard-response","14","313843","0.0-7.0-1.1","null","<span class='add_' style='color:yellow; font-size: 70px;'> 太慢! </span>","null","","","","","","","","","","","","","","","","","","","","","","","feedback_test"
"","","","","","psychophysics","15","316357","0.0-7.0-0.2","null","","null","","","","","","","","","","","","","key","null","17.4910352112677","768","428","j","false","img/C_ambi40.png","自我","prac",""
"","","","","","html-keyboard-response","16","316870","0.0-7.0-1.2","null","<span class='add_' style='color:yellow; font-size: 70px;'> 太慢! </span>","null","","","","","","","","","","","","","","","","","","","","","","","feedback_test"
"","","","","","psychophysics","17","319377","0.0-7.0-0.3","null","","null","","","","","","","","","","","","","key","null","17.011698630136877","768","428","j","false","img/H_ambi40.png","朋友","prac",""
"","","","","","html-keyboard-response","18","319890","0.0-7.0-1.3","null","<span class='add_' style='color:yellow; font-size: 70px;'> 太慢! </span>","null","","","","","","","","","","","","","","","","","","","","","","","feedback_test"
"","","","","","psychophysics","19","322401","0.0-7.0-0.4","null","","null","","","","","","","","","","","","","key","null","17.125055172414005","768","428","j","false","img/H_ambi40.png","朋友","prac",""
"","","","","","html-keyboard-response","20","322913","0.0-7.0-1.4","null","<span class='add_' style='color:yellow; font-size: 70px;'> 太慢! </span>","null","","","","","","","","","","","","","","","","","","","","","","","feedback_test"
"","","","","","psychophysics","21","324741","0.0-7.0-0.5","820","","j","","","","","","","","","","","","","key","j","18.00755999999994","768","428","j","true","img/C_ambi40.png","自我","prac",""
"","","","","","html-keyboard-response","22","325261","0.0-7.0-1.5","null","<span style='color:GreenYellow; font-size: 70px;'>正确! </span>","null","","","","","","","","","","","","","","","","","","","","","","","feedback_test"
"","","","","","psychophysics","23","327190","0.0-7.0-0.6","926","","f","","","","","","","","","","","","","key","f","17.27073636363599","768","428","f","true","img/C_ambi40.png","生人","prac",""
"","","","","","html-keyboard-response","24","327702","0.0-7.0-1.6","null","<span style='color:GreenYellow; font-size: 70px;'>正确! </span>","null","","","","","","","","","","","","","","","","","","","","","","","feedback_test"
"","","","","","psychophysics","25","329278","0.0-7.0-0.7","572","","j","","","","","","","","","","","","","key","j","17.471193181818474","768","428","f","false","img/H_ambi40.png","自我","prac",""
"","","","","","html-keyboard-response","26","329793","0.0-7.0-1.7","null","<span style='color:red; font-size: 70px;'>错误! </span>","null","","","","","","","","","","","","","","","","","","","","","","","feedback_test"
"","","","","","psychophysics","27","331420","0.0-7.0-0.8","625","","f","","","","","","","","","","","","","key","f","17.777899999999985","768","428","j","false","img/T_ambi40.png","をる","prac",""
"","","","","","html-keyboard-response","28","331936","0.0-7.0-1.8","null","<span style='color:red; font-size: 70px;'>错误! </span>","null","","","","","","","","","","","","","","","","","","","","","","","feedback_test"
"","","","","","psychophysics","29","333609","0.0-7.0-0.9","668","","f","","","","","","","","","","","","","key","f","17.421913978494754","768","428","j","false","img/T_ambi40.png","をる","prac",""
"","","","","","html-keyboard-response","30","334124","0.0-7.0-1.9","null","<span style='color:red; font-size: 70px;'>错误! </span>","null","","","","","","","","","","","","","","","","","","","","","","","feedback_test"
"","","","","","psychophysics","31","335647","0.0-7.0-0.10","514","","j","","","","","","","","","","","","","key","j","17.45192941176527","768","428","f","false","img/S_ambi40.png","自我","prac",""
"","","","","","html-keyboard-response","32","336161","0.0-7.0-1.10","null","<span style='color:red; font-size: 70px;'>错误! </span>","null","","","","","","","","","","","","","","","","","","","","","","","feedback_test"
"","","","","","psychophysics","33","338683","0.0-7.0-0.11","null","","null","","","","","","","","","","","","","key","null","17.60581690140813","768","428","j","false","img/S_ambi40.png","生人","prac",""
"","","","","","html-keyboard-response","34","339193","0.0-7.0-1.11","null","<span class='add_' style='color:yellow; font-size: 70px;'> 太慢! </span>","null","","","","","","","","","","","","","","","","","","","","","","","feedback_test"
"","","","","","psychophysics","35","340929","0.0-7.0-0.12","730","","f","","","","","","","","","","","","","key","f","17.171494949494978","768","428","j","false","img/S_ambi40.png","生人","prac",""
"","","","","","html-keyboard-response","36","341435","0.0-7.0-1.12","null","<span style='color:red; font-size: 70px;'>错误! </span>","null","","","","","","","","","","","","","","","","","","","","","","","feedback_test"
"","","","","","psychophysics","37","343671","0.0-7.0-0.13","1232","","f","","","","","","","","","","","","","key","f","17.374420634920835","768","428","f","true","img/C_ambi40.png","朋友","prac",""
"","","","","","html-keyboard-response","38","344176","0.0-7.0-1.13","null","<span style='color:GreenYellow; font-size: 70px;'>正确! </span>","null","","","","","","","","","","","","","","","","","","","","","","","feedback_test"
"","","","","","psychophysics","39","346006","0.0-7.0-0.14","814","","f","","","","","","","","","","","","","key","f","17.47940776699044","768","428","f","true","img/H_ambi40.png","生人","prac",""
"","","","","","html-keyboard-response","40","346517","0.0-7.0-1.14","null","<span style='color:GreenYellow; font-size: 70px;'>正确! </span>","null","","","","","","","","","","","","","","","","","","","","","","","feedback_test"
"","","","","","psychophysics","41","348529","0.0-7.0-0.15","1005","","f","","","","","","","","","","","","","key","f","18.03455454545434","768","428","f","true","img/S_ambi40.png","朋友","prac",""
"","","","","","html-keyboard-response","42","349037","0.0-7.0-1.15","null","<span style='color:GreenYellow; font-size: 70px;'>正确! </span>","null","","","","","","","","","","","","","","","","","","","","","","","feedback_test"
"","","","","","psychophysics","43","350578","0.0-7.0-0.16","530","","j","","","","","","","","","","","","","key","j","17.426747126437203","768","428","j","true","img/C_ambi40.png","自我","prac",""
"","","","","","html-keyboard-response","44","351085","0.0-7.0-1.16","null","<span style='color:GreenYellow; font-size: 70px;'>正确! </span>","null","","","","","","","","","","","","","","","","","","","","","","","feedback_test"
"","","","","","psychophysics","45","352788","0.0-7.0-0.17","697","","f","","","","","","","","","","","","","key","f","17.407873684210138","768","428","f","true","img/C_ambi40.png","生人","prac",""
"","","","","","html-keyboard-response","46","353303","0.0-7.0-1.17","null","<span style='color:GreenYellow; font-size: 70px;'>正确! </span>","null","","","","","","","","","","","","","","","","","","","","","","","feedback_test"
"","","","","","psychophysics","47","355029","0.0-7.0-0.18","721","","j","","","","","","","","","","","","","key","j","16.83295049504976","768","428","f","false","img/S_ambi40.png","自我","prac",""
"","","","","","html-keyboard-response","48","355536","0.0-7.0-1.18","null","<span style='color:red; font-size: 70px;'>错误! </span>","null","","","","","","","","","","","","","","","","","","","","","","","feedback_test"
"","","","","","psychophysics","49","357281","0.0-7.0-0.19","728","","f","","","","","","","","","","","","","key","f","17.00016831683161","768","428","j","false","img/S_ambi40.png","生人","prac",""
"","","","","","html-keyboard-response","50","357789","0.0-7.0-1.19","null","<span style='color:red; font-size: 70px;'>错误! </span>","null","","","","","","","","","","","","","","","","","","","","","","","feedback_test"
"","","","","","psychophysics","51","359689","0.0-7.0-0.20","891","","f","","","","","","","","","","","","","key","f","16.821504504504816","768","428","f","true","img/H_ambi40.png","自我","prac",""
"","","","","","html-keyboard-response","52","360197","0.0-7.0-1.20","null","<span style='color:GreenYellow; font-size: 70px;'>正确! </span>","null","","","","","","","","","","","","","","","","","","","","","","","feedback_test"
"","","","","","psychophysics","53","362003","0.0-7.0-0.21","803","","f","","","","","","","","","","","","","key","f","17.83212999999989","768","428","j","false","img/T_ambi40.png","をる","prac",""
"","","","","","html-keyboard-response","54","362513","0.0-7.0-1.21","null","<span style='color:red; font-size: 70px;'>错误! </span>","null","","","","","","","","","","","","","","","","","","","","","","","feedback_test"
"","","","","","psychophysics","55","364269","0.0-7.0-0.22","745","","j","","","","","","","","","","","","","key","j","17.33328999999969","768","428","j","true","img/T_ambi40.png","をる","prac",""
"","","","","","html-keyboard-response","56","364784","0.0-7.0-1.22","null","<span style='color:GreenYellow; font-size: 70px;'>正确! </span>","null","","","","","","","","","","","","","","","","","","","","","","","feedback_test"
"","","","","","psychophysics","57","366540","0.0-7.0-0.23","753","","f","","","","","","","","","","","","","key","f","17.34044444444413","768","428","j","false","img/H_ambi40.png","朋友","prac",""
"","","","","","html-keyboard-response","58","367053","0.0-7.0-1.23","null","<span style='color:red; font-size: 70px;'>错误! </span>","null","","","","","","","","","","","","","","","","","","","","","","","feedback_test"
"","","","","","psychophysics","59","368797","0.0-7.0-0.24","740","","f","","","","","","","","","","","","","key","f","17.3441212121215","768","428","j","false","img/S_ambi40.png","生人","prac",""
"","","","","","html-keyboard-response","60","369314","0.0-7.0-1.24","null","<span style='color:red; font-size: 70px;'>错误! </span>","null","","","","","","","","","","","","","","","","","","","","","","","feedback_test"
"","","","","","psychophysics","61","371342","0.0-7.0-0.25","1024","","j","","","","","","","","","","","","","key","j","17.239853448275646","768","428","j","true","img/T_ambi40.png","をる","prac",""
"","","","","","html-keyboard-response","62","371846","0.0-7.0-1.25","null","<span style='color:GreenYellow; font-size: 70px;'>正确! </span>","null","","","","","","","","","","","","","","","","","","","","","","","feedback_test"
"","","","","","psychophysics","63","373494","0.0-7.0-0.26","645","","j","","","","","","","","","","","","","key","j","17.76261956521763","768","428","j","true","img/C_ambi40.png","自我","prac",""
"","","","","","html-keyboard-response","64","374004","0.0-7.0-1.26","null","<span style='color:GreenYellow; font-size: 70px;'>正确! </span>","null","","","","","","","","","","","","","","","","","","","","","","","feedback_test"
"","","","","","psychophysics","65","376515","0.0-7.0-0.27","null","","null","","","","","","","","","","","","","key","null","16.893585034013334","768","428","f","false","img/H_ambi40.png","生人","prac",""
"","","","","","html-keyboard-response","66","377038","0.0-7.0-1.27","null","<span class='add_' style='color:yellow; font-size: 70px;'> 太慢! </span>","null","","","","","","","","","","","","","","","","","","","","","","","feedback_test"
"","","","","","psychophysics","67","379143","0.0-7.0-0.28","1101","","j","","","","","","","","","","","","","key","j","16.664160000000148","768","428","f","false","img/S_ambi40.png","朋友","prac",""
"","","","","","html-keyboard-response","68","379654","0.0-7.0-1.28","null","<span style='color:red; font-size: 70px;'>错误! </span>","null","","","","","","","","","","","","","","","","","","","","","","","feedback_test"
"","","","","","psychophysics","69","381632","0.0-7.0-0.29","974","","f","","","","","","","","","","","","","key","f","16.80907758620692","768","428","j","false","img/H_ambi40.png","朋友","prac",""
"","","","","","html-keyboard-response","70","382137","0.0-7.0-1.29","null","<span style='color:red; font-size: 70px;'>错误! </span>","null","","","","","","","","","","","","","","","","","","","","","","","feedback_test"
"","","","","","psychophysics","71","383841","0.0-7.0-0.30","698","","f","","","","","","","","","","","","","key","f","16.835606060606413","768","428","j","false","img/T_ambi40.png","をる","prac",""
"","","","","","html-keyboard-response","72","384357","0.0-7.0-1.30","null","<span style='color:red; font-size: 70px;'>错误! </span>","null","","","","","","","","","","","","","","","","","","","","","","","feedback_test"
"","","","","","psychophysics","73","386780","0.0-7.0-0.31","1420","","j","","","","","","","","","","","","","key","j","16.78670629370637","768","428","f","false","img/C_ambi40.png","朋友","prac",""
"","","","","","html-keyboard-response","74","387310","0.0-7.0-1.31","null","<span style='color:red; font-size: 70px;'>错误! </span>","null","","","","","","","","","","","","","","","","","","","","","","","feedback_test"
"","","","","","psychophysics","75","388910","0.0-8.0-0.0-0.0","588","","f","","","","","","","","","","","","","key","f","16.67142105263192","768","428","j","false","img/T_ambi40.png","をる","prac",""
"","","","","","html-keyboard-response","76","389416","0.0-8.0-0.0-1.0","null","<span style='color:red; font-size: 70px;'>错误! </span>","null","","","","","","","","","","","","","","","","","","","","","","","feedback_test"
"","","","","","psychophysics","77","391422","0.0-8.0-0.0-0.1","1002","","j","","","","","","","","","","","","","key","j","16.999112068965495","768","428","j","true","img/H_ambi40.png","朋友","prac",""
"","","","","","html-keyboard-response","78","391941","0.0-8.0-0.0-1.1","null","<span style='color:GreenYellow; font-size: 70px;'>正确! </span>","null","","","","","","","","","","","","","","","","","","","","","","","feedback_test"
"","","","","","psychophysics","79","393943","0.0-8.0-0.0-0.2","997","","j","","","","","","","","","","","","","key","j","16.955427350427133","768","428","j","true","img/S_ambi40.png","生人","prac",""
"","","","","","html-keyboard-response","80","394448","0.0-8.0-0.0-1.2","null","<span style='color:GreenYellow; font-size: 70px;'>正确! </span>","null","","","","","","","","","","","","","","","","","","","","","","","feedback_test"
"","","","","","psychophysics","81","395946","0.0-8.0-0.0-0.3","493","","j","","","","","","","","","","","","","key","j","17.461130952380785","768","428","j","true","img/C_ambi40.png","自我","prac",""
"","","","","","html-keyboard-response","82","396462","0.0-8.0-0.0-1.3","null","<span style='color:GreenYellow; font-size: 70px;'>正确! </span>","null","","","","","","","","","","","","","","","","","","","","","","","feedback_test"
"","","","","","psychophysics","83","397968","0.0-8.0-0.0-0.4","501","","j","","","","","","","","","","","","","key","j","17.872457831325878","768","428","j","true","img/T_ambi40.png","をる","prac",""
"","","","","","html-keyboard-response","84","398479","0.0-8.0-0.0-1.4","null","<span style='color:GreenYellow; font-size: 70px;'>正确! </span>","null","","","","","","","","","","","","","","","","","","","","","","","feedback_test"
"","","","","","psychophysics","85","400551","0.0-8.0-0.0-0.5","1066","","f","","","","","","","","","","","","","key","f","17.377211864406767","768","428","f","true","img/H_ambi40.png","生人","prac",""
"","","","","","html-keyboard-response","86","401063","0.0-8.0-0.0-1.5","null","<span style='color:GreenYellow; font-size: 70px;'>正确! </span>","null","","","","","","","","","","","","","","","","","","","","","","","feedback_test"
"","","","","","psychophysics","87","402733","0.0-8.0-0.0-0.6","665","","j","","","","","","","","","","","","","key","j","17.751064516128896","768","428","j","true","img/C_ambi40.png","自我","prac",""
"","","","","","html-keyboard-response","88","403247","0.0-8.0-0.0-1.6","null","<span style='color:GreenYellow; font-size: 70px;'>正确! </span>","null","","","","","","","","","","","","","","","","","","","","","","","feedback_test"
"","","","","","psychophysics","89","405503","0.0-8.0-0.0-0.7","1247","","j","","","","","","","","","","","","","key","j","17.315480620154926","768","428","f","false","img/S_ambi40.png","朋友","prac",""
"","","","","","html-keyboard-response","90","406020","0.0-8.0-0.0-1.7","null","<span style='color:red; font-size: 70px;'>错误! </span>","null","","","","","","","","","","","","","","","","","","","","","","","feedback_test"
"","","","","","psychophysics","91","407882","0.0-8.0-0.0-0.8","855","","f","","","","","","","","","","","","","key","f","17.62370873786378","768","428","f","true","img/S_ambi40.png","自我","prac",""
"","","","","","html-keyboard-response","92","408402","0.0-8.0-0.0-1.8","null","<span style='color:GreenYellow; font-size: 70px;'>正确! </span>","null","","","","","","","","","","","","","","","","","","","","","","","feedback_test"
"","","","","","psychophysics","93","410588","0.0-8.0-0.0-0.9","1182","","j","","","","","","","","","","","","","key","j","17.479951219512074","768","428","j","true","img/T_ambi40.png","をる","prac",""
"","","","","","html-keyboard-response","94","411100","0.0-8.0-0.0-1.9","null","<span style='color:GreenYellow; font-size: 70px;'>正确! </span>","null","","","","","","","","","","","","","","","","","","","","","","","feedback_test"
"","","","","","psychophysics","95","413086","0.0-8.0-0.0-0.10","981","","f","","","","","","","","","","","","","key","f","17.41415178571437","768","428","f","true","img/C_ambi40.png","生人","prac",""
"","","","","","html-keyboard-response","96","413602","0.0-8.0-0.0-1.10","null","<span style='color:GreenYellow; font-size: 70px;'>正确! </span>","null","","","","","","","","","","","","","","","","","","","","","","","feedback_test"
"","","","","","psychophysics","97","415648","0.0-8.0-0.0-0.11","1044","","j","","","","","","","","","","","","","key","j","17.09019491525458","768","428","f","false","img/H_ambi40.png","自我","prac",""
"","","","","","html-keyboard-response","98","416169","0.0-8.0-0.0-1.11","null","<span style='color:red; font-size: 70px;'>错误! </span>","null","","","","","","","","","","","","","","","","","","","","","","","feedback_test"
"","","","","","psychophysics","99","417865","0.0-8.0-0.0-0.12","686","","f","","","","","","","","","","","","","key","f","17.01605154639206","768","428","j","false","img/H_ambi40.png","朋友","prac",""
"","","","","","html-keyboard-response","100","418370","0.0-8.0-0.0-1.12","null","<span style='color:red; font-size: 70px;'>错误! </span>","null","","","","","","","","","","","","","","","","","","","","","","","feedback_test"
"","","","","","psychophysics","101","420016","0.0-8.0-0.0-0.13","642","","f","","","","","","","","","","","","","key","f","17.381290322580245","768","428","j","false","img/T_ambi40.png","をる","prac",""
"","","","","","html-keyboard-response","102","420536","0.0-8.0-0.0-1.13","null","<span style='color:red; font-size: 70px;'>错误! </span>","null","","","","","","","","","","","","","","","","","","","","","","","feedback_test"
"","","","","","psychophysics","103","422113","0.0-8.0-0.0-0.14","568","","j","","","","","","","","","","","","","key","j","17.819252873562817","768","428","f","false","img/C_ambi40.png","朋友","prac",""
"","","","","","html-keyboard-response","104","422616","0.0-8.0-0.0-1.14","null","<span style='color:red; font-size: 70px;'>错误! </span>","null","","","","","","","","","","","","","","","","","","","","","","","feedback_test"
"","","","","","psychophysics","105","424387","0.0-8.0-0.0-0.15","766","","f","","","","","","","","","","","","","key","f","17.938270833333565","768","428","j","false","img/S_ambi40.png","生人","prac",""
"","","","","","html-keyboard-response","106","424906","0.0-8.0-0.0-1.15","null","<span style='color:red; font-size: 70px;'>错误! </span>","null","","","","","","","","","","","","","","","","","","","","","","","feedback_test"
"","","","","","psychophysics","107","426848","0.0-8.0-0.0-0.16","935","","j","","","","","","","","","","","","","key","j","17.2674774774775","768","428","j","true","img/S_ambi40.png","生人","prac",""
"","","","","","html-keyboard-response","108","427363","0.0-8.0-0.0-1.16","null","<span style='color:GreenYellow; font-size: 70px;'>正确! </span>","null","","","","","","","","","","","","","","","","","","","","","","","feedback_test"
"","","","","","psychophysics","109","429207","0.0-8.0-0.0-0.17","836","","f","","","","","","","","","","","","","key","f","17.470961538461918","768","428","f","true","img/S_ambi40.png","自我","prac",""
"","","","","","html-keyboard-response","110","429726","0.0-8.0-0.0-1.17","null","<span style='color:GreenYellow; font-size: 70px;'>正确! </span>","null","","","","","","","","","","","","","","","","","","","","","","","feedback_test"
"","","","","","psychophysics","111","431735","0.0-8.0-0.0-0.18","1001","","j","","","","","","","","","","","","","key","j","17.554389380531042","768","428","f","false","img/S_ambi40.png","朋友","prac",""
"","","","","","html-keyboard-response","112","432246","0.0-8.0-0.0-1.18","null","<span style='color:red; font-size: 70px;'>错误! </span>","null","","","","","","","","","","","","","","","","","","","","","","","feedback_test"
"","","","","","psychophysics","113","434135","0.0-8.0-0.0-0.19","881","","f","","","","","","","","","","","","","key","f","17.449999999999672","768","428","f","true","img/C_ambi40.png","朋友","prac",""
"","","","","","html-keyboard-response","114","434641","0.0-8.0-0.0-1.19","null","<span style='color:GreenYellow; font-size: 70px;'>正确! </span>","null","","","","","","","","","","","","","","","","","","","","","","","feedback_test"
"","","","","","psychophysics","115","436492","0.0-8.0-0.0-0.20","846","","f","","","","","","","","","","","","","key","f","17.129401869158517","768","428","j","false","img/H_ambi40.png","朋友","prac",""
"","","","","","html-keyboard-response","116","436999","0.0-8.0-0.0-1.20","null","<span style='color:red; font-size: 70px;'>错误! </span>","null","","","","","","","","","","","","","","","","","","","","","","","feedback_test"
"","","","","","psychophysics","117","438742","0.0-8.0-0.0-0.21","734","","f","","","","","","","","","","","","","key","f","17.349704081632733","768","428","f","true","img/H_ambi40.png","生人","prac",""
"","","","","","html-keyboard-response","118","439264","0.0-8.0-0.0-1.21","null","<span style='color:GreenYellow; font-size: 70px;'>正确! </span>","null","","","","","","","","","","","","","","","","","","","","","","","feedback_test"
"","","","","","psychophysics","119","441001","0.0-8.0-0.0-0.22","729","","j","","","","","","","","","","","","","key","j","17.69723711340189","768","428","f","false","img/H_ambi40.png","自我","prac",""
"","","","","","html-keyboard-response","120","441513","0.0-8.0-0.0-1.22","null","<span style='color:red; font-size: 70px;'>错误! </span>","null","","","","","","","","","","","","","","","","","","","","","","","feedback_test"
"","","","","","psychophysics","121","443359","0.0-8.0-0.0-0.23","836","","j","","","","","","","","","","","","","key","j","17.645398058252663","768","428","j","true","img/T_ambi40.png","をる","prac",""
"","","","","","html-keyboard-response","122","443876","0.0-8.0-0.0-1.23","null","<span style='color:GreenYellow; font-size: 70px;'>正确! </span>","null","","","","","","","","","","","","","","","","","","","","","","","feedback_test"
"","","","","","psychophysics","123","445771","0.0-8.0-0.0-0.24","884","","j","","","","","","","","","","","","","key","j","17.60821698113226","768","428","j","true","img/C_ambi40.png","自我","prac",""
"","","","","","html-keyboard-response","124","446289","0.0-8.0-0.0-1.24","null","<span style='color:GreenYellow; font-size: 70px;'>正确! </span>","null","","","","","","","","","","","","","","","","","","","","","","","feedback_test"
"","","","","","psychophysics","125","448134","0.0-8.0-0.0-0.25","842","","j","","","","","","","","","","","","","key","j","17.801519607843183","768","428","j","true","img/T_ambi40.png","をる","prac",""
"","","","","","html-keyboard-response","126","448649","0.0-8.0-0.0-1.25","null","<span style='color:GreenYellow; font-size: 70px;'>正确! </span>","null","","","","","","","","","","","","","","","","","","","","","","","feedback_test"
"","","","","","psychophysics","127","450440","0.0-8.0-0.0-0.26","786","","j","","","","","","","","","","","","","key","j","18.04553608247439","768","428","j","true","img/T_ambi40.png","をる","prac",""
"","","","","","html-keyboard-response","128","450946","0.0-8.0-0.0-1.26","null","<span style='color:GreenYellow; font-size: 70px;'>正确! </span>","null","","","","","","","","","","","","","","","","","","","","","","","feedback_test"
"","","","","","psychophysics","129","452434","0.0-8.0-0.0-0.27","478","","j","","","","","","","","","","","","","key","j","17.676469879518038","768","428","f","false","img/C_ambi40.png","生人","prac",""
"","","","","","html-keyboard-response","130","452954","0.0-8.0-0.0-1.27","null","<span style='color:red; font-size: 70px;'>错误! </span>","null","","","","","","","","","","","","","","","","","","","","","","","feedback_test"
"","","","","","psychophysics","131","454868","0.0-8.0-0.0-0.28","912","","j","","","","","","","","","","","","","key","j","17.436120370370055","768","428","j","true","img/H_ambi40.png","朋友","prac",""
"","","","","","html-keyboard-response","132","455387","0.0-8.0-0.0-1.28","null","<span style='color:GreenYellow; font-size: 70px;'>正确! </span>","null","","","","","","","","","","","","","","","","","","","","","","","feedback_test"
"","","","","","psychophysics","133","457896","0.0-8.0-0.0-0.29","null","","null","","","","","","","","","","","","","key","null","17.49276760563379","768","428","j","false","img/S_ambi40.png","生人","prac",""
"","","","","","html-keyboard-response","134","458405","0.0-8.0-0.0-1.29","null","<span class='add_' style='color:yellow; font-size: 70px;'> 太慢! </span>","null","","","","","","","","","","","","","","","","","","","","","","","feedback_test"
"","","","","","psychophysics","135","460913","0.0-8.0-0.0-0.30","null","","null","","","","","","","","","","","","","key","null","20.190365853658367","768","428","j","false","img/T_ambi40.png","をる","prac",""
"","","","","","html-keyboard-response","136","461428","0.0-8.0-0.0-1.30","null","<span class='add_' style='color:yellow; font-size: 70px;'> 太慢! </span>","null","","","","","","","","","","","","","","","","","","","","","","","feedback_test"
"","","","","","psychophysics","137","463935","0.0-8.0-0.0-0.31","null","","null","","","","","","","","","","","","","key","null","18.128364963503724","768","428","j","false","img/C_ambi40.png","自我","prac",""
"","","","","","html-keyboard-response","138","464446","0.0-8.0-0.0-1.31","null","<span class='add_' style='color:yellow; font-size: 70px;'> 太慢! </span>","null","","","","","","","","","","","","","","","","","","","","","","","feedback_test"
"","","","","","html-keyboard-response","139","530626","0.0-8.0-1.0-0.0","66174","<style>.context{color:white; font-size: 35px; line-height:40px}</style>                          <div><p class='context'>您正确回答了56% 的试次。</p ><p class='context'>您的平均反应时为855毫秒。</p >","j","","","","","","","","","","","","","","","","","","","","","","",""
"","","","","","instructions","140","546121","0.0-8.0-1.0-1.0","15491","","","","","","","","","","","","","","[{""page_index"":0,""viewing_time"":2509},{""page_index"":1,""viewing_time"":4338},{""page_index"":2,""viewing_time"":3188},{""page_index"":1,""viewing_time"":3500},{""page_index"":2,""viewing_time"":1954}]","","","","","","","","","","",""
"","","","","","psychophysics","141","548066","0.0-8.1-0.1-0.32","936","","j","","","","","","","","","","","","","key","j","17.269252252253192","768","428","f","false","img/H_ambi40.png","生人","prac",""
"","","","","","html-keyboard-response","142","548584","0.0-8.1-0.1-1.32","null","<span style='color:red; font-size: 70px;'>错误! </span>","null","","","","","","","","","","","","","","","","","","","","","","","feedback_test"
"","","","","","psychophysics","143","550500","0.0-8.1-0.1-0.33","907","","f","","","","","","","","","","","","","key","f","17.44119444444422","768","428","f","true","img/H_ambi40.png","自我","prac",""
"","","","","","html-keyboard-response","144","551016","0.0-8.1-0.1-1.33","null","<span style='color:GreenYellow; font-size: 70px;'>正确! </span>","null","","","","","","","","","","","","","","","","","","","","","","","feedback_test"
"","","","","","psychophysics","145","552820","0.0-8.1-0.1-0.34","801","","j","","","","","","","","","","","","","key","j","16.98323076923015","768","428","f","false","img/C_ambi40.png","生人","prac",""
"","","","","","html-keyboard-response","146","553333","0.0-8.1-0.1-1.34","null","<span style='color:red; font-size: 70px;'>错误! </span>","null","","","","","","","","","","","","","","","","","","","","","","","feedback_test"
"","","","","","psychophysics","147","555158","0.0-8.1-0.1-0.35","823","","f","","","","","","","","","","","","","key","f","17.644764705881816","768","428","j","false","img/S_ambi40.png","生人","prac",""
"","","","","","html-keyboard-response","148","555677","0.0-8.1-0.1-1.35","null","<span style='color:red; font-size: 70px;'>错误! </span>","null","","","","","","","","","","","","","","","","","","","","","","","feedback_test"
"","","","","","psychophysics","149","557402","0.0-8.1-0.1-0.36","717","","f","","","","","","","","","","","","","key","f","17.527298969071424","768","428","f","true","img/S_ambi40.png","自我","prac",""
"","","","","","html-keyboard-response","150","557922","0.0-8.1-0.1-1.36","null","<span style='color:GreenYellow; font-size: 70px;'>正确! </span>","null","","","","","","","","","","","","","","","","","","","","","","","feedback_test"
"","","","","","psychophysics","151","559537","0.0-8.1-0.1-0.37","609","","f","","","","","","","","","","","","","key","f","17.025505376343805","768","428","f","true","img/S_ambi40.png","朋友","prac",""
"","","","","","html-keyboard-response","152","560056","0.0-8.1-0.1-1.37","null","<span style='color:GreenYellow; font-size: 70px;'>正确! </span>","null","","","","","","","","","","","","","","","","","","","","","","","feedback_test"
"","","","","","psychophysics","153","561755","0.0-8.1-0.1-0.38","693","","j","","","","","","","","","","","","","key","j","17.734329787234064","768","428","j","true","img/T_ambi40.png","をる","prac",""
"","","","","","html-keyboard-response","154","562265","0.0-8.1-0.1-1.38","null","<span style='color:GreenYellow; font-size: 70px;'>正确! </span>","null","","","","","","","","","","","","","","","","","","","","","","","feedback_test"
"","","","","","psychophysics","155","563962","0.0-8.1-0.1-0.39","691","","f","","","","","","","","","","","","","key","f","17.91437234042554","768","428","j","false","img/H_ambi40.png","朋友","prac",""
"","","","","","html-keyboard-response","156","564472","0.0-8.1-0.1-1.39","null","<span style='color:red; font-size: 70px;'>错误! </span>","null","","","","","","","","","","","","","","","","","","","","","","","feedback_test"
"","","","","","psychophysics","157","566100","0.0-8.1-0.1-0.40","624","","j","","","","","","","","","","","","","key","j","17.583065934066028","768","428","j","true","img/T_ambi40.png","をる","prac",""
"","","","","","html-keyboard-response","158","566607","0.0-8.1-0.1-1.40","null","<span style='color:GreenYellow; font-size: 70px;'>正确! </span>","null","","","","","","","","","","","","","","","","","","","","","","","feedback_test"
"","","","","","psychophysics","159","568293","0.0-8.1-0.1-0.41","681","","j","","","","","","","","","","","","","key","j","17.363842105263796","768","428","j","true","img/T_ambi40.png","をる","prac",""
"","","","","","html-keyboard-response","160","568808","0.0-8.1-0.1-1.41","null","<span style='color:GreenYellow; font-size: 70px;'>正确! </span>","null","","","","","","","","","","","","","","","","","","","","","","","feedback_test"
"","","","","","psychophysics","161","570643","0.0-8.1-0.1-0.42","830","","j","","","","","","","","","","","","","key","j","17.14290566037778","768","428","j","true","img/H_ambi40.png","朋友","prac",""
"","","","","","html-keyboard-response","162","571149","0.0-8.1-0.1-1.42","null","<span style='color:GreenYellow; font-size: 70px;'>正确! </span>","null","","","","","","","","","","","","","","","","","","","","","","","feedback_test"
"","","","","","psychophysics","163","572614","0.0-8.1-0.1-0.43","459","","j","","","","","","","","","","","","","key","j","17.532432098765167","768","428","j","true","img/C_ambi40.png","自我","prac",""
"","","","","","html-keyboard-response","164","573134","0.0-8.1-0.1-1.43","null","<span style='color:GreenYellow; font-size: 70px;'>正确! </span>","null","","","","","","","","","","","","","","","","","","","","","","","feedback_test"
"","","","","","psychophysics","165","574787","0.0-8.1-0.1-0.44","649","","j","","","","","","","","","","","","","key","j","17.73998913043381","768","428","f","false","img/C_ambi40.png","朋友","prac",""
"","","","","","html-keyboard-response","166","575292","0.0-8.1-0.1-1.44","null","<span style='color:red; font-size: 70px;'>错误! </span>","null","","","","","","","","","","","","","","","","","","","","","","","feedback_test"
"","","","","","psychophysics","167","576891","0.0-8.1-0.1-0.45","594","","j","","","","","","","","","","","","","key","j","17.02673913043438","768","428","j","true","img/T_ambi40.png","をる","prac",""
"","","","","","html-keyboard-response","168","577404","0.0-8.1-0.1-1.45","null","<span style='color:GreenYellow; font-size: 70px;'>正确! </span>","null","","","","","","","","","","","","","","","","","","","","","","","feedback_test"
"","","","","","psychophysics","169","578919","0.0-8.1-0.1-0.46","513","","j","","","","","","","","","","","","","key","j","16.853795454546344","768","428","j","true","img/C_ambi40.png","自我","prac",""
"","","","","","html-keyboard-response","170","579438","0.0-8.1-0.1-1.46","null","<span style='color:GreenYellow; font-size: 70px;'>正确! </span>","null","","","","","","","","","","","","","","","","","","","","","","","feedback_test"
"","","","","","psychophysics","171","581076","0.0-8.1-0.1-0.47","629","","f","","","","","","","","","","","","","key","f","17.58083516483548","768","428","j","false","img/S_ambi40.png","生人","prac",""
"","","","","","html-keyboard-response","172","581592","0.0-8.1-0.1-1.47","null","<span style='color:red; font-size: 70px;'>错误! </span>","null","","","","","","","","","","","","","","","","","","","","","","","feedback_test"
"","","","","","psychophysics","173","583160","0.0-8.1-0.1-0.48","557","","j","","","","","","","","","","","","","key","j","16.858326086956684","768","428","j","true","img/T_ambi40.png","をる","prac",""
"","","","","","html-keyboard-response","174","583674","0.0-8.1-0.1-1.48","null","<span style='color:GreenYellow; font-size: 70px;'>正确! </span>","null","","","","","","","","","","","","","","","","","","","","","","","feedback_test"
"","","","","","psychophysics","175","585697","0.0-8.1-0.1-0.49","1021","","f","","","","","","","","","","","","","key","f","17.391765217390923","768","428","f","true","img/H_ambi40.png","生人","prac",""
"","","","","","html-keyboard-response","176","586208","0.0-8.1-0.1-1.49","null","<span style='color:GreenYellow; font-size: 70px;'>正确! </span>","null","","","","","","","","","","","","","","","","","","","","","","","feedback_test"
"","","","","","psychophysics","177","587801","0.0-8.1-0.1-0.50","588","","j","","","","","","","","","","","","","key","j","17.604483146067405","768","428","j","true","img/C_ambi40.png","自我","prac",""
"","","","","","html-keyboard-response","178","588309","0.0-8.1-0.1-1.50","null","<span style='color:GreenYellow; font-size: 70px;'>正确! </span>","null","","","","","","","","","","","","","","","","","","","","","","","feedback_test"
"","","","","","psychophysics","179","590114","0.0-8.1-0.1-0.51","796","","j","","","","","","","","","","","","","key","j","17.151134615384553","768","428","j","true","img/H_ambi40.png","朋友","prac",""
"","","","","","html-keyboard-response","180","590624","0.0-8.1-0.1-1.51","null","<span style='color:GreenYellow; font-size: 70px;'>正确! </span>","null","","","","","","","","","","","","","","","","","","","","","","","feedback_test"
"","","","","","psychophysics","181","592430","0.0-8.1-0.1-0.52","801","","f","","","","","","","","","","","","","key","f","17.66628000000026","768","428","f","true","img/H_ambi40.png","自我","prac",""
"","","","","","html-keyboard-response","182","592945","0.0-8.1-0.1-1.52","null","<span style='color:GreenYellow; font-size: 70px;'>正确! </span>","null","","","","","","","","","","","","","","","","","","","","","","","feedback_test"
"","","","","","psychophysics","183","595266","0.0-8.1-0.1-0.53","1314","","j","","","","","","","","","","","","","key","j","17.29680451127802","768","428","j","true","img/S_ambi40.png","生人","prac",""
"","","","","","html-keyboard-response","184","595774","0.0-8.1-0.1-1.53","null","<span style='color:GreenYellow; font-size: 70px;'>正确! </span>","null","","","","","","","","","","","","","","","","","","","","","","","feedback_test"
"","","","","","psychophysics","185","597341","0.0-8.1-0.1-0.54","559","","j","","","","","","","","","","","","","key","j","17.404359550561935","768","428","j","true","img/C_ambi40.png","自我","prac",""
"","","","","","html-keyboard-response","186","597849","0.0-8.1-0.1-1.54","null","<span style='color:GreenYellow; font-size: 70px;'>正确! </span>","null","","","","","","","","","","","","","","","","","","","","","","","feedback_test"
"","","","","","psychophysics","187","599677","0.0-8.1-0.1-0.55","821","","f","","","","","","","","","","","","","key","f","16.98308490565978","768","428","f","true","img/C_ambi40.png","生人","prac",""
"","","","","","html-keyboard-response","188","600189","0.0-8.1-0.1-1.55","null","<span style='color:GreenYellow; font-size: 70px;'>正确! </span>","null","","","","","","","","","","","","","","","","","","","","","","","feedback_test"
"","","","","","psychophysics","189","602239","0.0-8.1-0.1-0.56","1044","","f","","","","","","","","","","","","","key","f","17.386060344828053","768","428","j","false","img/S_ambi40.png","生人","prac",""
"","","","","","html-keyboard-response","190","602757","0.0-8.1-0.1-1.56","null","<span style='color:red; font-size: 70px;'>错误! </span>","null","","","","","","","","","","","","","","","","","","","","","","","feedback_test"
"","","","","","psychophysics","191","604399","0.0-8.1-0.1-0.57","637","","j","","","","","","","","","","","","","key","j","17.02042105263099","768","428","j","true","img/T_ambi40.png","をる","prac",""
"","","","","","html-keyboard-response","192","604906","0.0-8.1-0.1-1.57","null","<span style='color:GreenYellow; font-size: 70px;'>正确! </span>","null","","","","","","","","","","","","","","","","","","","","","","","feedback_test"
"","","","","","psychophysics","193","606823","0.0-8.1-0.1-0.58","915","","j","","","","","","","","","","","","","key","j","16.95716964285696","768","428","j","true","img/H_ambi40.png","朋友","prac",""
"","","","","","html-keyboard-response","194","607342","0.0-8.1-0.1-1.58","null","<span style='color:GreenYellow; font-size: 70px;'>正确! </span>","null","","","","","","","","","","","","","","","","","","","","","","","feedback_test"
"","","","","","psychophysics","195","608962","0.0-8.1-0.1-0.59","609","","j","","","","","","","","","","","","","key","j","17.20951612903336","768","428","j","true","img/T_ambi40.png","をる","prac",""
"","","","","","html-keyboard-response","196","609470","0.0-8.1-0.1-1.59","null","<span style='color:GreenYellow; font-size: 70px;'>正确! </span>","null","","","","","","","","","","","","","","","","","","","","","","","feedback_test"
"","","","","","psychophysics","197","611264","0.0-8.1-0.1-0.60","783","","f","","","","","","","","","","","","","key","f","16.984759615384974","768","428","f","true","img/S_ambi40.png","自我","prac",""
"","","","","","html-keyboard-response","198","611778","0.0-8.1-0.1-1.60","null","<span style='color:GreenYellow; font-size: 70px;'>正确! </span>","null","","","","","","","","","","","","","","","","","","","","","","","feedback_test"
"","","","","","psychophysics","199","613750","0.0-8.1-0.1-0.61","968","","j","","","","","","","","","","","","","key","j","17.2592831858407","768","428","f","false","img/S_ambi40.png","朋友","prac",""
"","","","","","html-keyboard-response","200","614267","0.0-8.1-0.1-1.61","null","<span style='color:red; font-size: 70px;'>错误! </span>","null","","","","","","","","","","","","","","","","","","","","","","","feedback_test"
"","","","","","psychophysics","201","615891","0.0-8.1-0.1-0.62","622","","j","","","","","","","","","","","","","key","j","17.393857142857307","768","428","j","true","img/T_ambi40.png","をる","prac",""
"","","","","","html-keyboard-response","202","616409","0.0-8.1-0.1-1.62","null","<span style='color:GreenYellow; font-size: 70px;'>正确! </span>","null","","","","","","","","","","","","","","","","","","","","","","","feedback_test"
"","","","","","psychophysics","203","617978","0.0-8.1-0.1-0.63","568","","j","","","","","","","","","","","","","key","j","17.034131868130906","768","428","f","false","img/C_ambi40.png","朋友","prac",""
"","","","","","html-keyboard-response","204","618491","0.0-8.1-0.1-1.63","null","<span style='color:red; font-size: 70px;'>错误! </span>","null","","","","","","","","","","","","","","","","","","","","","","","feedback_test"
"","","","","","html-keyboard-response","205","628607","0.0-9.0","10112","<style>.context{color:white; font-size: 35px; line-height:40px}</style>                          <div><p class='context'>您正确回答了72% 的试次。</p ><p class='context'>您的平均反应时为724毫秒。</p ><p class='context'>恭喜您完成练习。按任意键进入正式实验。</p ><p class='footer' style='font-size: 35px; line-height:40px;'>请在进入正式实验实验之前将您的<span style='color: lightgreen;'>食指</span>放在电脑键盘的相应键位上进行按键。</p >","enter","","","","","","","","","","","","","","","","","","","","","","",""
"","","","","","psychophysics","206","631120","0.0-10.0-0.0-0.0-0.0-0.0","null","","null","","","","","","","","","","","","","key","null","17.74145714285717","768","428","j","false","img/S_ambi40.png","生人","same",""
"","","","","","html-keyboard-response","207","631635","0.0-10.0-0.0-0.0-0.0-1.0","null","<span class='add_' style='color:yellow; font-size: 70px;'> 太慢! </span>","null","","","","","","","","","","","","","","","","","","","","","","","feedback_test"
"","","","","","psychophysics","208","633551","0.0-10.0-0.0-0.0-0.0-0.1","909","","f","","","","","","","","","","","","","key","f","17.77138679245276","768","428","f","true","img/H_ambi40.png","自我","same",""
"","","","","","html-keyboard-response","209","634057","0.0-10.0-0.0-0.0-0.0-1.1","null","<span style='color:GreenYellow; font-size: 70px;'>正确! </span>","null","","","","","","","","","","","","","","","","","","","","","","","feedback_test"
"","","","","","psychophysics","210","636032","0.0-10.0-0.0-0.0-0.0-0.2","962","","f","","","","","","","","","","","","","key","f","16.95898260869511","768","428","f","true","img/S_ambi40.png","朋友","same",""
"","","","","","html-keyboard-response","211","636541","0.0-10.0-0.0-0.0-0.0-1.2","null","<span style='color:GreenYellow; font-size: 70px;'>正确! </span>","null","","","","","","","","","","","","","","","","","","","","","","","feedback_test"
"","","","","","psychophysics","212","638076","0.0-10.0-0.0-0.0-0.0-0.3","524","","j","","","","","","","","","","","","","key","j","17.847894117647016","768","428","f","false","img/C_ambi40.png","生人","same",""
"","","","","","html-keyboard-response","213","638591","0.0-10.0-0.0-0.0-0.0-1.3","null","<span style='color:red; font-size: 70px;'>错误! </span>","null","","","","","","","","","","","","","","","","","","","","","","","feedback_test"
"","","","","","psychophysics","214","640057","0.0-10.0-0.0-0.0-0.0-0.4","459","","j","","","","","","","","","","","","","key","j","17.47093975903601","768","428","j","true","img/T_ambi40.png","をる","same",""
"","","","","","html-keyboard-response","215","640570","0.0-10.0-0.0-0.0-0.0-1.4","null","<span style='color:GreenYellow; font-size: 70px;'>正确! </span>","null","","","","","","","","","","","","","","","","","","","","","","","feedback_test"
"","","","","","psychophysics","216","642194","0.0-10.0-0.0-0.0-0.0-0.5","612","","f","","","","","","","","","","","","","key","f","17.593855555556043","768","428","f","true","img/C_ambi40.png","生人","same",""
"","","","","","html-keyboard-response","217","642710","0.0-10.0-0.0-0.0-0.0-1.5","null","<span style='color:GreenYellow; font-size: 70px;'>正确! </span>","null","","","","","","","","","","","","","","","","","","","","","","","feedback_test"
"","","","","","psychophysics","218","644268","0.0-10.0-0.0-0.0-0.0-0.6","543","","j","","","","","","","","","","","","","key","j","17.232707865168653","768","428","j","true","img/C_ambi40.png","自我","same",""
"","","","","","html-keyboard-response","219","644788","0.0-10.0-0.0-0.0-0.0-1.6","null","<span style='color:GreenYellow; font-size: 70px;'>正确! </span>","null","","","","","","","","","","","","","","","","","","","","","","","feedback_test"
"","","","","","psychophysics","220","646402","0.0-10.0-0.0-0.0-0.0-0.7","612","","f","","","","","","","","","","","","","key","f","17.596600000000198","768","428","f","true","img/S_ambi40.png","朋友","same",""
"","","","","","html-keyboard-response","221","646914","0.0-10.0-0.0-0.0-0.0-1.7","null","<span style='color:GreenYellow; font-size: 70px;'>正确! </span>","null","","","","","","","","","","","","","","","","","","","","","","","feedback_test"
"","","","","","psychophysics","222","648530","0.0-10.0-0.0-0.0-0.0-0.8","612","","j","","","","","","","","","","","","","key","j","17.025688172043903","768","428","j","true","img/T_ambi40.png","をる","same",""
"","","","","","html-keyboard-response","223","649044","0.0-10.0-0.0-0.0-0.0-1.8","null","<span style='color:GreenYellow; font-size: 70px;'>正确! </span>","null","","","","","","","","","","","","","","","","","","","","","","","feedback_test"
"","","","","","psychophysics","224","650678","0.0-10.0-0.0-0.0-0.0-0.9","629","","f","","","","","","","","","","","","","key","f","18.162539325842864","768","428","j","false","img/H_ambi40.png","朋友","same",""
"","","","","","html-keyboard-response","225","651197","0.0-10.0-0.0-0.0-0.0-1.9","null","<span style='color:red; font-size: 70px;'>错误! </span>","null","","","","","","","","","","","","","","","","","","","","","","","feedback_test"
"","","","","","psychophysics","226","653014","0.0-10.0-0.0-0.0-0.0-0.10","810","","f","","","","","","","","","","","","","key","f","17.149740384615143","768","428","f","true","img/H_ambi40.png","生人","same",""
"","","","","","html-keyboard-response","227","653525","0.0-10.0-0.0-0.0-0.0-1.10","null","<span style='color:GreenYellow; font-size: 70px;'>正确! </span>","null","","","","","","","","","","","","","","","","","","","","","","","feedback_test"
"","","","","","psychophysics","228","655291","0.0-10.0-0.0-0.0-0.0-0.11","762","","f","","","","","","","","","","","","","key","f","17.164019801980114","768","428","f","true","img/S_ambi40.png","自我","same",""
"","","","","","html-keyboard-response","229","655806","0.0-10.0-0.0-0.0-0.0-1.11","null","<span style='color:GreenYellow; font-size: 70px;'>正确! </span>","null","","","","","","","","","","","","","","","","","","","","","","","feedback_test"
"","","","","","psychophysics","230","657249","0.0-10.0-0.0-0.0-0.0-0.12","440","","j","","","","","","","","","","","","","key","j","17.50623456790129","768","428","j","true","img/C_ambi40.png","自我","same",""
"","","","","","html-keyboard-response","231","657763","0.0-10.0-0.0-0.0-0.0-1.12","null","<span style='color:GreenYellow; font-size: 70px;'>正确! </span>","null","","","","","","","","","","","","","","","","","","","","","","","feedback_test"
"","","","","","psychophysics","232","659204","0.0-10.0-0.0-0.0-0.0-0.13","437","","j","","","","","","","","","","","","","key","j","17.282317073169597","768","428","j","true","img/T_ambi40.png","をる","same",""
"","","","","","html-keyboard-response","233","659710","0.0-10.0-0.0-0.0-0.0-1.13","null","<span style='color:GreenYellow; font-size: 70px;'>正确! </span>","null","","","","","","","","","","","","","","","","","","","","","","","feedback_test"
"","","","","","psychophysics","234","661484","0.0-10.0-0.0-0.0-0.0-0.14","768","","f","","","","","","","","","","","","","key","f","17.32320588235355","768","428","f","true","img/C_ambi40.png","朋友","same",""
"","","","","","html-keyboard-response","235","661993","0.0-10.0-0.0-0.0-0.0-1.14","null","<span style='color:GreenYellow; font-size: 70px;'>正确! </span>","null","","","","","","","","","","","","","","","","","","","","","","","feedback_test"
"","","","","","psychophysics","236","663743","0.0-10.0-0.0-0.0-0.0-0.15","745","","f","","","","","","","","","","","","","key","f","17.514949494950482","768","428","j","false","img/S_ambi40.png","生人","same",""
"","","","","","html-keyboard-response","237","664267","0.0-10.0-0.0-0.0-0.0-1.15","null","<span style='color:red; font-size: 70px;'>错误! </span>","null","","","","","","","","","","","","","","","","","","","","","","","feedback_test"
"","","","","","psychophysics","238","666478","0.0-10.0-0.0-0.0-0.0-0.16","1207","","j","","","","","","","","","","","","","key","j","17.332214285713796","768","428","j","true","img/H_ambi40.png","朋友","same",""
"","","","","","html-keyboard-response","239","666997","0.0-10.0-0.0-0.0-0.0-1.16","null","<span style='color:GreenYellow; font-size: 70px;'>正确! </span>","null","","","","","","","","","","","","","","","","","","","","","","","feedback_test"
"","","","","","psychophysics","240","668753","0.0-10.0-0.0-0.0-0.0-0.17","745","","f","","","","","","","","","","","","","key","f","18.268797872340347","768","428","f","true","img/H_ambi40.png","自我","same",""
"","","","","","html-keyboard-response","241","669258","0.0-10.0-0.0-0.0-0.0-1.17","null","<span style='color:GreenYellow; font-size: 70px;'>正确! </span>","null","","","","","","","","","","","","","","","","","","","","","","","feedback_test"
"","","","","","psychophysics","242","670954","0.0-10.0-0.0-0.0-0.0-0.18","692","","f","","","","","","","","","","","","","key","f","17.36061458333279","768","428","f","true","img/C_ambi40.png","生人","same",""
"","","","","","html-keyboard-response","243","671464","0.0-10.0-0.0-0.0-0.0-1.18","null","<span style='color:GreenYellow; font-size: 70px;'>正确! </span>","null","","","","","","","","","","","","","","","","","","","","","","","feedback_test"
"","","","","","psychophysics","244","673105","0.0-10.0-0.0-0.0-0.0-0.19","637","","j","","","","","","","","","","","","","key","j","17.39163043478291","768","428","j","true","img/T_ambi40.png","をる","same",""
"","","","","","html-keyboard-response","245","673622","0.0-10.0-0.0-0.0-0.0-1.19","null","<span style='color:GreenYellow; font-size: 70px;'>正确! </span>","null","","","","","","","","","","","","","","","","","","","","","","","feedback_test"
"","","","","","psychophysics","246","675342","0.0-10.0-0.0-0.0-0.0-0.20","713","","f","","","","","","","","","","","","","key","f","17.723578947368324","768","428","j","false","img/S_ambi40.png","生人","same",""
"","","","","","html-keyboard-response","247","675859","0.0-10.0-0.0-0.0-0.0-1.20","null","<span style='color:red; font-size: 70px;'>错误! </span>","null","","","","","","","","","","","","","","","","","","","","","","","feedback_test"
"","","","","","psychophysics","248","678005","0.0-10.0-0.0-0.0-0.0-0.21","1141","","j","","","","","","","","","","","","","key","j","16.79820472441016","768","428","f","false","img/H_ambi40.png","生人","same",""
"","","","","","html-keyboard-response","249","678510","0.0-10.0-0.0-0.0-0.0-1.21","null","<span style='color:red; font-size: 70px;'>错误! </span>","null","","","","","","","","","","","","","","","","","","","","","","","feedback_test"
"","","","","","psychophysics","250","679991","0.0-10.0-0.0-0.0-0.0-0.22","474","","j","","","","","","","","","","","","","key","j","16.856091954022773","768","428","j","true","img/C_ambi40.png","自我","same",""
"","","","","","html-keyboard-response","251","680510","0.0-10.0-0.0-0.0-0.0-1.22","null","<span style='color:GreenYellow; font-size: 70px;'>正确! </span>","null","","","","","","","","","","","","","","","","","","","","","","","feedback_test"
"","","","","","psychophysics","252","682382","0.0-10.0-0.0-0.0-0.0-0.23","863","","f","","","","","","","","","","","","","key","f","17.132842592592137","768","428","f","true","img/H_ambi40.png","自我","same",""
"","","","","","html-keyboard-response","253","682894","0.0-10.0-0.0-0.0-0.0-1.23","null","<span style='color:GreenYellow; font-size: 70px;'>正确! </span>","null","","","","","","","","","","","","","","","","","","","","","","","feedback_test"
"","","","","","psychophysics","254","684535","0.0-10.0-0.0-0.0-0.0-0.24","633","","f","","","","","","","","","","","","","key","f","17.020663157895843","768","428","j","false","img/H_ambi40.png","朋友","same",""
"","","","","","html-keyboard-response","255","685041","0.0-10.0-0.0-0.0-0.0-1.24","null","<span style='color:red; font-size: 70px;'>错误! </span>","null","","","","","","","","","","","","","","","","","","","","","","","feedback_test"
"","","","","","psychophysics","256","686633","0.0-10.0-0.0-0.0-0.0-0.25","582","","j","","","","","","","","","","","","","key","j","16.849215053764212","768","428","j","true","img/T_ambi40.png","をる","same",""
"","","","","","html-keyboard-response","257","687142","0.0-10.0-0.0-0.0-0.0-1.25","null","<span style='color:GreenYellow; font-size: 70px;'>正确! </span>","null","","","","","","","","","","","","","","","","","","","","","","","feedback_test"
"","","","","","psychophysics","258","688760","0.0-10.0-0.0-0.0-0.0-0.26","611","","f","","","","","","","","","","","","","key","f","16.671177083332925","768","428","f","true","img/S_ambi40.png","朋友","same",""
"","","","","","html-keyboard-response","259","689279","0.0-10.0-0.0-0.0-0.0-1.26","null","<span style='color:GreenYellow; font-size: 70px;'>正确! </span>","null","","","","","","","","","","","","","","","","","","","","","","","feedback_test"
"","","","","","psychophysics","260","691028","0.0-10.0-0.0-0.0-0.0-0.27","745","","f","","","","","","","","","","","","","key","f","17.17296039604001","768","428","f","true","img/H_ambi40.png","自我","same",""
"","","","","","html-keyboard-response","261","691541","0.0-10.0-0.0-0.0-0.0-1.27","null","<span style='color:GreenYellow; font-size: 70px;'>正确! </span>","null","","","","","","","","","","","","","","","","","","","","","","","feedback_test"
"","","","","","psychophysics","262","693358","0.0-10.0-0.0-0.0-0.0-0.28","802","","f","","","","","","","","","","","","","key","f","17.31331730769195","768","428","f","true","img/C_ambi40.png","朋友","same",""
"","","","","","html-keyboard-response","263","693875","0.0-10.0-0.0-0.0-0.0-1.28","null","<span style='color:GreenYellow; font-size: 70px;'>正确! </span>","null","","","","","","","","","","","","","","","","","","","","","","","feedback_test"
"","","","","","psychophysics","264","696036","0.0-10.0-0.0-0.0-0.0-0.29","1158","","j","","","","","","","","","","","","","key","j","17.631893442623074","768","428","j","true","img/S_ambi40.png","生人","same",""
"","","","","","html-keyboard-response","265","696553","0.0-10.0-0.0-0.0-0.0-1.29","null","<span style='color:GreenYellow; font-size: 70px;'>正确! </span>","null","","","","","","","","","","","","","","","","","","","","","","","feedback_test"
"","","","","","psychophysics","266","698208","0.0-10.0-0.0-0.0-0.0-0.30","649","","f","","","","","","","","","","","","","key","f","17.390244680850646","768","428","f","true","img/S_ambi40.png","自我","same",""
"","","","","","html-keyboard-response","267","698716","0.0-10.0-0.0-0.0-0.0-1.30","null","<span style='color:GreenYellow; font-size: 70px;'>正确! </span>","null","","","","","","","","","","","","","","","","","","","","","","","feedback_test"
"","","","","","psychophysics","268","700347","0.0-10.0-0.0-0.0-0.0-0.31","624","","j","","","","","","","","","","","","","key","j","16.847568421052326","768","428","j","true","img/C_ambi40.png","自我","same",""
"","","","","","html-keyboard-response","269","700866","0.0-10.0-0.0-0.0-0.0-1.31","null","<span style='color:GreenYellow; font-size: 70px;'>正确! </span>","null","","","","","","","","","","","","","","","","","","","","","","","feedback_test"
"","","","","","psychophysics","270","703172","0.0-10.0-0.0-0.0-0.0-0.32","1305","","j","","","","","","","","","","","","","key","j","17.70316279069755","768","428","j","true","img/T_ambi40.png","をる","same",""
"","","","","","html-keyboard-response","271","703682","0.0-10.0-0.0-0.0-0.0-1.32","null","<span style='color:GreenYellow; font-size: 70px;'>正确! </span>","null","","","","","","","","","","","","","","","","","","","","","","","feedback_test"
"","","","","","psychophysics","272","705411","0.0-10.0-0.0-0.0-0.0-0.33","720","","f","","","","","","","","","","","","","key","f","17.715663157894863","768","428","f","true","img/C_ambi40.png","生人","same",""
"","","","","","html-keyboard-response","273","705930","0.0-10.0-0.0-0.0-0.0-1.33","null","<span style='color:GreenYellow; font-size: 70px;'>正确! </span>","null","","","","","","","","","","","","","","","","","","","","","","","feedback_test"
"","","","","","psychophysics","274","707837","0.0-10.0-0.0-0.0-0.0-0.34","900","","j","","","","","","","","","","","","","key","j","17.953480769230875","768","428","j","true","img/H_ambi40.png","朋友","same",""
"","","","","","html-keyboard-response","275","708358","0.0-10.0-0.0-0.0-0.0-1.34","null","<span style='color:GreenYellow; font-size: 70px;'>正确! </span>","null","","","","","","","","","","","","","","","","","","","","","","","feedback_test"
"","","","","","psychophysics","276","710023","0.0-10.0-0.0-0.0-0.0-0.35","656","","f","","","","","","","","","","","","","key","f","17.37585106383058","768","428","f","true","img/S_ambi40.png","朋友","same",""
"","","","","","html-keyboard-response","277","710540","0.0-10.0-0.0-0.0-0.0-1.35","null","<span style='color:GreenYellow; font-size: 70px;'>正确! </span>","null","","","","","","","","","","","","","","","","","","","","","","","feedback_test"
"","","","","","psychophysics","278","712277","0.0-10.0-0.0-0.0-0.0-0.36","735","","f","","","","","","","","","","","","","key","f","18.285720430107997","768","428","f","true","img/C_ambi40.png","生人","same",""
"","","","","","html-keyboard-response","279","712789","0.0-10.0-0.0-0.0-0.0-1.36","null","<span style='color:GreenYellow; font-size: 70px;'>正确! </span>","null","","","","","","","","","","","","","","","","","","","","","","","feedback_test"
"","","","","","psychophysics","280","714709","0.0-10.0-0.0-0.0-0.0-0.37","915","","j","","","","","","","","","","","","","key","j","17.595129629629405","768","428","j","true","img/S_ambi40.png","生人","same",""
"","","","","","html-keyboard-response","281","715218","0.0-10.0-0.0-0.0-0.0-1.37","null","<span style='color:GreenYellow; font-size: 70px;'>正确! </span>","null","","","","","","","","","","","","","","","","","","","","","","","feedback_test"
"","","","","","psychophysics","282","716830","0.0-10.0-0.0-0.0-0.0-0.38","603","","j","","","","","","","","","","","","","key","j","18.625388235294754","768","428","j","true","img/T_ambi40.png","をる","same",""
"","","","","","html-keyboard-response","283","717336","0.0-10.0-0.0-0.0-0.0-1.38","null","<span style='color:GreenYellow; font-size: 70px;'>正确! </span>","null","","","","","","","","","","","","","","","","","","","","","","","feedback_test"
"","","","","","psychophysics","284","718945","0.0-10.0-0.0-0.0-0.0-0.39","605","","f","","","","","","","","","","","","","key","f","18.628435294117832","768","428","j","false","img/T_ambi40.png","をる","same",""
"","","","","","html-keyboard-response","285","719459","0.0-10.0-0.0-0.0-0.0-1.39","null","<span style='color:red; font-size: 70px;'>错误! </span>","null","","","","","","","","","","","","","","","","","","","","","","","feedback_test"
"","","","","","psychophysics","286","721130","0.0-10.0-0.0-0.0-0.0-0.40","661","","j","","","","","","","","","","","","","key","j","17.19169791666718","768","428","j","true","img/C_ambi40.png","自我","same",""
"","","","","","html-keyboard-response","287","721643","0.0-10.0-0.0-0.0-0.0-1.40","null","<span style='color:GreenYellow; font-size: 70px;'>正确! </span>","null","","","","","","","","","","","","","","","","","","","","","","","feedback_test"
"","","","","","psychophysics","288","723596","0.0-10.0-0.0-0.0-0.0-0.41","948","","j","","","","","","","","","","","","","key","j","17.73657798165148","768","428","f","false","img/H_ambi40.png","自我","same",""
"","","","","","html-keyboard-response","289","724103","0.0-10.0-0.0-0.0-0.0-1.41","null","<span style='color:red; font-size: 70px;'>错误! </span>","null","","","","","","","","","","","","","","","","","","","","","","","feedback_test"
"","","","","","psychophysics","290","725938","0.0-10.0-0.0-0.0-0.0-0.42","828","","j","","","","","","","","","","","","","key","j","17.48019417475692","768","428","j","true","img/H_ambi40.png","朋友","same",""
"","","","","","html-keyboard-response","291","726445","0.0-10.0-0.0-0.0-0.0-1.42","null","<span style='color:GreenYellow; font-size: 70px;'>正确! </span>","null","","","","","","","","","","","","","","","","","","","","","","","feedback_test"
"","","","","","psychophysics","292","728114","0.0-10.0-0.0-0.0-0.0-0.43","664","","f","","","","","","","","","","","","","key","f","17.013104166666988","768","428","f","true","img/H_ambi40.png","生人","same",""
"","","","","","html-keyboard-response","293","728626","0.0-10.0-0.0-0.0-0.0-1.43","null","<span style='color:GreenYellow; font-size: 70px;'>正确! </span>","null","","","","","","","","","","","","","","","","","","","","","","","feedback_test"
"","","","","","psychophysics","294","730156","0.0-10.0-0.0-0.0-0.0-0.44","525","","j","","","","","","","","","","","","","key","j","17.85648809523887","768","428","f","false","img/S_ambi40.png","自我","same",""
"","","","","","html-keyboard-response","295","730658","0.0-10.0-0.0-0.0-0.0-1.44","null","<span style='color:red; font-size: 70px;'>错误! </span>","null","","","","","","","","","","","","","","","","","","","","","","","feedback_test"
"","","","","","psychophysics","296","733175","0.0-10.0-0.0-0.0-0.0-0.45","null","","null","","","","","","","","","","","","","key","null","17.98506474820143","768","428","f","false","img/S_ambi40.png","朋友","same",""
"","","","","","html-keyboard-response","297","733698","0.0-10.0-0.0-0.0-0.0-1.45","null","<span class='add_' style='color:yellow; font-size: 70px;'> 太慢! </span>","null","","","","","","","","","","","","","","","","","","","","","","","feedback_test"
"","","","","","psychophysics","298","735427","0.0-10.0-0.0-0.0-0.0-0.46","720","","j","","","","","","","","","","","","","key","j","17.734053191488627","768","428","f","false","img/H_ambi40.png","自我","same",""
"","","","","","html-keyboard-response","299","735942","0.0-10.0-0.0-0.0-0.0-1.46","null","<span style='color:red; font-size: 70px;'>错误! </span>","null","","","","","","","","","","","","","","","","","","","","","","","feedback_test"
"","","","","","psychophysics","300","737617","0.0-10.0-0.0-0.0-0.0-0.47","669","","j","","","","","","","","","","","","","key","j","17.570505376343156","768","428","j","true","img/T_ambi40.png","をる","same",""
"","","","","","html-keyboard-response","301","738129","0.0-10.0-0.0-0.0-0.0-1.47","null","<span style='color:GreenYellow; font-size: 70px;'>正确! </span>","null","","","","","","","","","","","","","","","","","","","","","","","feedback_test"
"","","","","","psychophysics","302","739849","0.0-10.0-0.0-0.0-0.0-0.48","712","","f","","","","","","","","","","","","","key","f","17.540905263158493","768","428","f","true","img/C_ambi40.png","生人","same",""
"","","","","","html-keyboard-response","303","740366","0.0-10.0-0.0-0.0-0.0-1.48","null","<span style='color:GreenYellow; font-size: 70px;'>正确! </span>","null","","","","","","","","","","","","","","","","","","","","","","","feedback_test"
"","","","","","psychophysics","304","742229","0.0-10.0-0.0-0.0-0.0-0.49","857","","f","","","","","","","","","","","","","key","f","17.303094339622888","768","428","f","true","img/C_ambi40.png","朋友","same",""
"","","","","","html-keyboard-response","305","742737","0.0-10.0-0.0-0.0-0.0-1.49","null","<span style='color:GreenYellow; font-size: 70px;'>正确! </span>","null","","","","","","","","","","","","","","","","","","","","","","","feedback_test"
"","","","","","psychophysics","306","744718","0.0-10.0-0.0-0.0-0.0-0.50","975","","j","","","","","","","","","","","","","key","j","17.56125892857173","768","428","j","true","img/H_ambi40.png","朋友","same",""
"","","","","","html-keyboard-response","307","745229","0.0-10.0-0.0-0.0-0.0-1.50","null","<span style='color:GreenYellow; font-size: 70px;'>正确! </span>","null","","","","","","","","","","","","","","","","","","","","","","","feedback_test"
"","","","","","psychophysics","308","746815","0.0-10.0-0.0-0.0-0.0-0.51","583","","f","","","","","","","","","","","","","key","f","17.422426966292356","768","428","j","false","img/S_ambi40.png","生人","same",""
"","","","","","html-keyboard-response","309","747326","0.0-10.0-0.0-0.0-0.0-1.51","null","<span style='color:red; font-size: 70px;'>错误! </span>","null","","","","","","","","","","","","","","","","","","","","","","","feedback_test"
"","","","","","psychophysics","310","749250","0.0-10.0-0.0-0.0-0.0-0.52","915","","j","","","","","","","","","","","","","key","j","17.764056074767044","768","428","f","false","img/S_ambi40.png","朋友","same",""
"","","","","","html-keyboard-response","311","749765","0.0-10.0-0.0-0.0-0.0-1.52","null","<span style='color:red; font-size: 70px;'>错误! </span>","null","","","","","","","","","","","","","","","","","","","","","","","feedback_test"
"","","","","","psychophysics","312","751312","0.0-10.0-0.0-0.0-0.0-0.53","534","","j","","","","","","","","","","","","","key","j","17.844399999999716","768","428","j","true","img/C_ambi40.png","自我","same",""
"","","","","","html-keyboard-response","313","751832","0.0-10.0-0.0-0.0-0.0-1.53","null","<span style='color:GreenYellow; font-size: 70px;'>正确! </span>","null","","","","","","","","","","","","","","","","","","","","","","","feedback_test"
"","","","","","psychophysics","314","753858","0.0-10.0-0.0-0.0-0.0-0.54","1019","","j","","","","","","","","","","","","","key","j","17.85700000000049","768","428","f","false","img/H_ambi40.png","自我","same",""
"","","","","","html-keyboard-response","315","754372","0.0-10.0-0.0-0.0-0.0-1.54","null","<span style='color:red; font-size: 70px;'>错误! </span>","null","","","","","","","","","","","","","","","","","","","","","","","feedback_test"
"","","","","","psychophysics","316","756893","0.0-10.0-0.0-0.0-0.0-0.55","null","","null","","","","","","","","","","","","","key","null","19.230730769230732","768","428","f","false","img/C_ambi40.png","朋友","same",""
"","","","","","html-keyboard-response","317","757410","0.0-10.0-0.0-0.0-0.0-1.55","null","<span class='add_' style='color:yellow; font-size: 70px;'> 太慢! </span>","null","","","","","","","","","","","","","","","","","","","","","","","feedback_test"
"","","","","","psychophysics","318","759916","0.0-10.0-0.0-0.0-0.0-0.56","null","","null","","","","","","","","","","","","","key","null","20.69779166666752","768","428","f","false","img/S_ambi40.png","朋友","same",""
"","","","","","html-keyboard-response","319","760430","0.0-10.0-0.0-0.0-0.0-1.56","null","<span class='add_' style='color:yellow; font-size: 70px;'> 太慢! </span>","null","","","","","","","","","","","","","","","","","","","","","","","feedback_test"
"","","","","","psychophysics","320","762938","0.0-10.0-0.0-0.0-0.0-0.57","null","","null","","","","","","","","","","","","","key","null","18.95414503816807","768","428","f","false","img/C_ambi40.png","生人","same",""
"","","","","","html-keyboard-response","321","763442","0.0-10.0-0.0-0.0-0.0-1.57","null","<span class='add_' style='color:yellow; font-size: 70px;'> 太慢! </span>","null","","","","","","","","","","","","","","","","","","","","","","","feedback_test"
"","","","","","psychophysics","322","765956","0.0-10.0-0.0-0.0-0.0-0.58","null","","null","","","","","","","","","","","","","key","null","19.535843749999913","768","428","f","false","img/H_ambi40.png","生人","same",""
"","","","","","html-keyboard-response","323","766463","0.0-10.0-0.0-0.0-0.0-1.58","null","<span class='add_' style='color:yellow; font-size: 70px;'> 太慢! </span>","null","","","","","","","","","","","","","","","","","","","","","","","feedback_test"
"","","","","","psychophysics","324","768978","0.0-10.0-0.0-0.0-0.0-0.59","null","","null","","","","","","","","","","","","","key","null","19.12067441860405","768","428","j","false","img/H_ambi40.png","朋友","same",""
"","","","","","html-keyboard-response","325","769490","0.0-10.0-0.0-0.0-0.0-1.59","null","<span class='add_' style='color:yellow; font-size: 70px;'> 太慢! </span>","null","","","","","","","","","","","","","","","","","","","","","","","feedback_test"
"","","","","","psychophysics","326","772001","0.0-10.0-0.0-0.0-0.0-0.60","null","","null","","","","","","","","","","","","","key","null","20.19640650406548","768","428","j","false","img/C_ambi40.png","自我","same",""
"","","","","","html-keyboard-response","327","772511","0.0-10.0-0.0-0.0-0.0-1.60","null","<span class='add_' style='color:yellow; font-size: 70px;'> 太慢! </span>","null","","","","","","","","","","","","","","","","","","","","","","","feedback_test"
"","","","","","psychophysics","328","775016","0.0-10.0-0.0-0.0-0.0-0.61","null","","null","","","","","","","","","","","","","key","null","19.68673228346431","768","428","j","false","img/T_ambi40.png","をる","same",""
"","","","","","html-keyboard-response","329","775524","0.0-10.0-0.0-0.0-0.0-1.61","null","<span class='add_' style='color:yellow; font-size: 70px;'> 太慢! </span>","null","","","","","","","","","","","","","","","","","","","","","","","feedback_test"
"","","","","","psychophysics","330","778039","0.0-10.0-0.0-0.0-0.0-0.62","null","","null","","","","","","","","","","","","","key","null","20.16490322580625","768","428","f","false","img/S_ambi40.png","自我","same",""
"","","","","","html-keyboard-response","331","778554","0.0-10.0-0.0-0.0-0.0-1.62","null","<span class='add_' style='color:yellow; font-size: 70px;'> 太慢! </span>","null","","","","","","","","","","","","","","","","","","","","","","","feedback_test"
"","","","","","psychophysics","332","781082","0.0-10.0-0.0-0.0-0.0-0.63","null","","null","","","","","","","","","","","","","key","null","19.239546153846625","768","428","j","false","img/H_ambi40.png","朋友","same",""
"","","","","","html-keyboard-response","333","781598","0.0-10.0-0.0-0.0-0.0-1.63","null","<span class='add_' style='color:yellow; font-size: 70px;'> 太慢! </span>","null","","","","","","","","","","","","","","","","","","","","","","","feedback_test"
"","","","","","psychophysics","334","784105","0.0-10.0-0.0-0.0-0.0-0.64","null","","null","","","","","","","","","","","","","key","null","19.451246031745715","768","428","j","false","img/C_ambi40.png","自我","same",""
"","","","","","html-keyboard-response","335","784621","0.0-10.0-0.0-0.0-0.0-1.64","null","<span class='add_' style='color:yellow; font-size: 70px;'> 太慢! </span>","null","","","","","","","","","","","","","","","","","","","","","","","feedback_test"
"","","","","","psychophysics","336","787126","0.0-10.0-0.0-0.0-0.0-0.65","null","","null","","","","","","","","","","","","","key","null","18.53335074626896","768","428","f","false","img/S_ambi40.png","朋友","same",""
"","","","","","html-keyboard-response","337","787631","0.0-10.0-0.0-0.0-0.0-1.65","null","<span class='add_' style='color:yellow; font-size: 70px;'> 太慢! </span>","null","","","","","","","","","","","","","","","","","","","","","","","feedback_test"
"","","","","","psychophysics","338","790150","0.0-10.0-0.0-0.0-0.0-0.66","null","","null","","","","","","","","","","","","","key","null","18.394540740741004","768","428","j","false","img/S_ambi40.png","生人","same",""
"","","","","","html-keyboard-response","339","790662","0.0-10.0-0.0-0.0-0.0-1.66","null","<span class='add_' style='color:yellow; font-size: 70px;'> 太慢! </span>","null","","","","","","","","","","","","","","","","","","","","","","","feedback_test"
"","","","","","psychophysics","340","792573","0.0-10.0-0.0-0.0-0.0-0.67","904","","f","","","","","","","","","","","","","key","f","18.31598039215668","768","428","f","true","img/C_ambi40.png","生人","same",""
"","","","","","html-keyboard-response","341","793092","0.0-10.0-0.0-0.0-0.0-1.67","null","<span style='color:GreenYellow; font-size: 70px;'>正确! </span>","null","","","","","","","","","","","","","","","","","","","","","","","feedback_test"
"","","","","","psychophysics","342","795605","0.0-10.0-0.0-0.0-0.0-0.68","null","","null","","","","","","","","","","","","","key","null","17.989992805754955","768","428","j","false","img/T_ambi40.png","をる","same",""
"","","","","","html-keyboard-response","343","796117","0.0-10.0-0.0-0.0-0.0-1.68","null","<span class='add_' style='color:yellow; font-size: 70px;'> 太慢! </span>","null","","","","","","","","","","","","","","","","","","","","","","","feedback_test"
"","","","","","psychophysics","344","797934","0.0-10.0-0.0-0.0-0.0-0.69","814","","f","","","","","","","","","","","","","key","f","18.576062500000262","768","428","j","false","img/S_ambi40.png","生人","same",""
"","","","","","html-keyboard-response","345","798443","0.0-10.0-0.0-0.0-0.0-1.69","null","<span style='color:red; font-size: 70px;'>错误! </span>","null","","","","","","","","","","","","","","","","","","","","","","","feedback_test"
"","","","","","psychophysics","346","800063","0.0-10.0-0.0-0.0-0.0-0.70","614","","j","","","","","","","","","","","","","key","j","18.389114942528767","768","428","f","false","img/H_ambi40.png","自我","same",""
"","","","","","html-keyboard-response","347","800580","0.0-10.0-0.0-0.0-0.0-1.70","null","<span style='color:red; font-size: 70px;'>错误! </span>","null","","","","","","","","","","","","","","","","","","","","","","","feedback_test"
"","","","","","psychophysics","348","802143","0.0-10.0-0.0-0.0-0.0-0.71","558","","j","","","","","","","","","","","","","key","j","18.042505882353083","768","428","j","true","img/T_ambi40.png","をる","same",""
"","","","","","html-keyboard-response","349","802655","0.0-10.0-0.0-0.0-0.0-1.71","null","<span style='color:GreenYellow; font-size: 70px;'>正确! </span>","null","","","","","","","","","","","","","","","","","","","","","","","feedback_test"
"","","","","","psychophysics","350","804628","0.0-10.0-0.0-0.0-0.0-0.72","967","","j","","","","","","","","","","","","","key","j","18.06919626168206","768","428","j","true","img/S_ambi40.png","生人","same",""
"","","","","","html-keyboard-response","351","805144","0.0-10.0-0.0-0.0-0.0-1.72","null","<span style='color:GreenYellow; font-size: 70px;'>正确! </span>","null","","","","","","","","","","","","","","","","","","","","","","","feedback_test"
"","","","","","psychophysics","352","806755","0.0-10.0-0.0-0.0-0.0-0.73","604","","j","","","","","","","","","","","","","key","j","17.807977272726763","768","428","f","false","img/S_ambi40.png","自我","same",""
"","","","","","html-keyboard-response","353","807261","0.0-10.0-0.0-0.0-0.0-1.73","null","<span style='color:red; font-size: 70px;'>错误! </span>","null","","","","","","","","","","","","","","","","","","","","","","","feedback_test"
"","","","","","psychophysics","354","808815","0.0-10.0-0.0-0.0-0.0-0.74","548","","j","","","","","","","","","","","","","key","j","18.258833333332966","768","428","f","false","img/C_ambi40.png","生人","same",""
"","","","","","html-keyboard-response","355","809336","0.0-10.0-0.0-0.0-0.0-1.74","null","<span style='color:red; font-size: 70px;'>错误! </span>","null","","","","","","","","","","","","","","","","","","","","","","","feedback_test"
"","","","","","psychophysics","356","811260","0.0-10.0-0.0-0.0-0.0-0.75","921","","f","","","","","","","","","","","","","key","f","17.92672641509441","768","428","f","true","img/C_ambi40.png","生人","same",""
"","","","","","html-keyboard-response","357","811798","0.0-10.0-0.0-0.0-0.0-1.75","null","<span style='color:GreenYellow; font-size: 70px;'>正确! </span>","null","","","","","","","","","","","","","","","","","","","","","","","feedback_test"
"","","","","","psychophysics","358","813889","0.0-10.0-0.0-0.0-0.0-0.76","1085","","f","","","","","","","","","","","","","key","f","17.517618644068026","768","428","f","true","img/S_ambi40.png","朋友","same",""
"","","","","","html-keyboard-response","359","814394","0.0-10.0-0.0-0.0-0.0-1.76","null","<span style='color:GreenYellow; font-size: 70px;'>正确! </span>","null","","","","","","","","","","","","","","","","","","","","","","","feedback_test"
"","","","","","psychophysics","360","816100","0.0-10.0-0.0-0.0-0.0-0.77","688","","f","","","","","","","","","","","","","key","f","18.318824175823284","768","428","j","false","img/S_ambi40.png","生人","same",""
"","","","","","html-keyboard-response","361","816617","0.0-10.0-0.0-0.0-0.0-1.77","null","<span style='color:red; font-size: 70px;'>错误! </span>","null","","","","","","","","","","","","","","","","","","","","","","","feedback_test"
"","","","","","psychophysics","362","818377","0.0-10.0-0.0-0.0-0.0-0.78","747","","f","","","","","","","","","","","","","key","f","17.884458333333896","768","428","f","true","img/S_ambi40.png","朋友","same",""
"","","","","","html-keyboard-response","363","818882","0.0-10.0-0.0-0.0-0.0-1.78","null","<span style='color:GreenYellow; font-size: 70px;'>正确! </span>","null","","","","","","","","","","","","","","","","","","","","","","","feedback_test"
"","","","","","psychophysics","364","820555","0.0-10.0-0.0-0.0-0.0-0.79","663","","j","","","","","","","","","","","","","key","j","17.949417582417553","768","428","j","true","img/C_ambi40.png","自我","same",""
"","","","","","html-keyboard-response","365","821061","0.0-10.0-0.0-0.0-0.0-1.79","null","<span style='color:GreenYellow; font-size: 70px;'>正确! </span>","null","","","","","","","","","","","","","","","","","","","","","","","feedback_test"
"","","","","","psychophysics","366","822707","0.0-10.0-0.0-0.0-0.0-0.80","643","","j","","","","","","","","","","","","","key","j","17.967544444444744","768","428","j","true","img/T_ambi40.png","をる","same",""
"","","","","","html-keyboard-response","367","823227","0.0-10.0-0.0-0.0-0.0-1.80","null","<span style='color:GreenYellow; font-size: 70px;'>正确! </span>","null","","","","","","","","","","","","","","","","","","","","","","","feedback_test"
"","","","","","psychophysics","368","824759","0.0-10.0-0.0-0.0-0.0-0.81","528","","j","","","","","","","","","","","","","key","j","17.652576470588716","768","428","j","true","img/T_ambi40.png","をる","same",""
"","","","","","html-keyboard-response","369","825263","0.0-10.0-0.0-0.0-0.0-1.81","null","<span style='color:GreenYellow; font-size: 70px;'>正确! </span>","null","","","","","","","","","","","","","","","","","","","","","","","feedback_test"
"","","","","","psychophysics","370","826824","0.0-10.0-0.0-0.0-0.0-0.82","551","","j","","","","","","","","","","","","","key","j","17.642546511628815","768","428","j","true","img/T_ambi40.png","をる","same",""
"","","","","","html-keyboard-response","371","827331","0.0-10.0-0.0-0.0-0.0-1.82","null","<span style='color:GreenYellow; font-size: 70px;'>正确! </span>","null","","","","","","","","","","","","","","","","","","","","","","","feedback_test"
"","","","","","psychophysics","372","829189","0.0-10.0-0.0-0.0-0.0-0.83","849","","f","","","","","","","","","","","","","key","f","17.46061904761896","768","428","f","true","img/C_ambi40.png","朋友","same",""
"","","","","","html-keyboard-response","373","829698","0.0-10.0-0.0-0.0-0.0-1.83","null","<span style='color:GreenYellow; font-size: 70px;'>正确! </span>","null","","","","","","","","","","","","","","","","","","","","","","","feedback_test"
"","","","","","psychophysics","374","831571","0.0-10.0-0.0-0.0-0.0-0.84","870","","j","","","","","","","","","","","","","key","j","17.62112380952375","768","428","j","true","img/H_ambi40.png","朋友","same",""
"","","","","","html-keyboard-response","375","832084","0.0-10.0-0.0-0.0-0.0-1.84","null","<span style='color:GreenYellow; font-size: 70px;'>正确! </span>","null","","","","","","","","","","","","","","","","","","","","","","","feedback_test"
"","","","","","psychophysics","376","833658","0.0-10.0-0.0-0.0-0.0-0.85","561","","j","","","","","","","","","","","","","key","j","18.69759756097536","768","428","j","true","img/C_ambi40.png","自我","same",""
"","","","","","html-keyboard-response","377","834174","0.0-10.0-0.0-0.0-0.0-1.85","null","<span style='color:GreenYellow; font-size: 70px;'>正确! </span>","null","","","","","","","","","","","","","","","","","","","","","","","feedback_test"
"","","","","","psychophysics","378","835957","0.0-10.0-0.0-0.0-0.0-0.86","777","","f","","","","","","","","","","","","","key","f","18.40716666666655","768","428","f","true","img/H_ambi40.png","自我","same",""
"","","","","","html-keyboard-response","379","836460","0.0-10.0-0.0-0.0-0.0-1.86","null","<span style='color:GreenYellow; font-size: 70px;'>正确! </span>","null","","","","","","","","","","","","","","","","","","","","","","","feedback_test"
"","","","","","psychophysics","380","838147","0.0-10.0-0.0-0.0-0.0-0.87","675","","f","","","","","","","","","","","","","key","f","17.730344086021727","768","428","j","false","img/H_ambi40.png","朋友","same",""
"","","","","","html-keyboard-response","381","838652","0.0-10.0-0.0-0.0-0.0-1.87","null","<span style='color:red; font-size: 70px;'>错误! </span>","null","","","","","","","","","","","","","","","","","","","","","","","feedback_test"
"","","","","","psychophysics","382","840539","0.0-10.0-0.0-0.0-0.0-0.88","881","","f","","","","","","","","","","","","","key","f","18.30501960784393","768","428","f","true","img/H_ambi40.png","自我","same",""
"","","","","","html-keyboard-response","383","841054","0.0-10.0-0.0-0.0-0.0-1.88","null","<span style='color:GreenYellow; font-size: 70px;'>正确! </span>","null","","","","","","","","","","","","","","","","","","","","","","","feedback_test"
"","","","","","psychophysics","384","842907","0.0-10.0-0.0-0.0-0.0-0.89","851","","f","","","","","","","","","","","","","key","f","17.641631067961058","768","428","f","true","img/H_ambi40.png","生人","same",""
"","","","","","html-keyboard-response","385","843418","0.0-10.0-0.0-0.0-0.0-1.89","null","<span style='color:GreenYellow; font-size: 70px;'>正确! </span>","null","","","","","","","","","","","","","","","","","","","","","","","feedback_test"
"","","","","","psychophysics","386","844941","0.0-10.0-0.0-0.0-0.0-0.90","511","","j","","","","","","","","","","","","","key","j","17.856678571428695","768","428","j","true","img/S_ambi40.png","生人","same",""
"","","","","","html-keyboard-response","387","845454","0.0-10.0-0.0-0.0-0.0-1.90","null","<span style='color:GreenYellow; font-size: 70px;'>正确! </span>","null","","","","","","","","","","","","","","","","","","","","","","","feedback_test"
"","","","","","psychophysics","388","847317","0.0-10.0-0.0-0.0-0.0-0.91","856","","f","","","","","","","","","","","","","key","f","18.14971287128755","768","428","f","true","img/H_ambi40.png","生人","same",""
"","","","","","html-keyboard-response","389","847832","0.0-10.0-0.0-0.0-0.0-1.91","null","<span style='color:GreenYellow; font-size: 70px;'>正确! </span>","null","","","","","","","","","","","","","","","","","","","","","","","feedback_test"
"","","","","","psychophysics","390","849583","0.0-10.0-0.0-0.0-0.0-0.92","740","","f","","","","","","","","","","","","","key","f","18.458301075269787","768","428","f","true","img/S_ambi40.png","朋友","same",""
"","","","","","html-keyboard-response","391","850091","0.0-10.0-0.0-0.0-0.0-1.92","null","<span style='color:GreenYellow; font-size: 70px;'>正确! </span>","null","","","","","","","","","","","","","","","","","","","","","","","feedback_test"
"","","","","","psychophysics","392","851813","0.0-10.0-0.0-0.0-0.0-0.93","713","","f","","","","","","","","","","","","","key","f","18.686417582416702","768","428","j","false","img/S_ambi40.png","生人","same",""
"","","","","","html-keyboard-response","393","852323","0.0-10.0-0.0-0.0-0.0-1.93","null","<span style='color:red; font-size: 70px;'>错误! </span>","null","","","","","","","","","","","","","","","","","","","","","","","feedback_test"
"","","","","","psychophysics","394","853908","0.0-10.0-0.0-0.0-0.0-0.94","583","","j","","","","","","","","","","","","","key","j","19.114426829268666","768","428","j","true","img/T_ambi40.png","をる","same",""
"","","","","","html-keyboard-response","395","854423","0.0-10.0-0.0-0.0-0.0-1.94","null","<span style='color:GreenYellow; font-size: 70px;'>正确! </span>","null","","","","","","","","","","","","","","","","","","","","","","","feedback_test"
"","","","","","psychophysics","396","855874","0.0-10.0-0.0-0.0-0.0-0.95","441","","j","","","","","","","","","","","","","key","j","19.953605633801256","768","428","j","true","img/T_ambi40.png","をる","same",""
"","","","","","html-keyboard-response","397","856379","0.0-10.0-0.0-0.0-0.0-1.95","null","<span style='color:GreenYellow; font-size: 70px;'>正确! </span>","null","","","","","","","","","","","","","","","","","","","","","","","feedback_test"
"","","","","","psychophysics","398","857877","0.0-10.0-0.0-0.0-0.0-0.96","488","","j","","","","","","","","","","","","","key","j","18.123374999999943","768","428","j","true","img/C_ambi40.png","自我","same",""
"","","","","","html-keyboard-response","399","858393","0.0-10.0-0.0-0.0-0.0-1.96","null","<span style='color:GreenYellow; font-size: 70px;'>正确! </span>","null","","","","","","","","","","","","","","","","","","","","","","","feedback_test"
"","","","","","psychophysics","400","859971","0.0-10.0-0.0-0.0-0.0-0.97","564","","j","","","","","","","","","","","","","key","j","18.318289156625866","768","428","f","false","img/C_ambi40.png","朋友","same",""
"","","","","","html-keyboard-response","401","860489","0.0-10.0-0.0-0.0-0.0-1.97","null","<span style='color:red; font-size: 70px;'>错误! </span>","null","","","","","","","","","","","","","","","","","","","","","","","feedback_test"
"","","","","","psychophysics","402","862274","0.0-10.0-0.0-0.0-0.0-0.98","781","","f","","","","","","","","","","","","","key","f","18.600105263157992","768","428","f","true","img/C_ambi40.png","生人","same",""
"","","","","","html-keyboard-response","403","862784","0.0-10.0-0.0-0.0-0.0-1.98","null","<span style='color:GreenYellow; font-size: 70px;'>正确! </span>","null","","","","","","","","","","","","","","","","","","","","","","","feedback_test"
"","","","","","psychophysics","404","864591","0.0-10.0-0.0-0.0-0.0-0.99","804","","j","","","","","","","","","","","","","key","j","17.83448999999906","768","428","j","true","img/H_ambi40.png","朋友","same",""
"","","","","","html-keyboard-response","405","865097","0.0-10.0-0.0-0.0-0.0-1.99","null","<span style='color:GreenYellow; font-size: 70px;'>正确! </span>","null","","","","","","","","","","","","","","","","","","","","","","","feedback_test"
"","","","","","psychophysics","406","866969","0.0-10.0-0.0-0.0-0.0-0.100","860","","j","","","","","","","","","","","","","key","j","17.63475961538475","768","428","j","true","img/H_ambi40.png","朋友","same",""
"","","","","","html-keyboard-response","407","867479","0.0-10.0-0.0-0.0-0.0-1.100","null","<span style='color:GreenYellow; font-size: 70px;'>正确! </span>","null","","","","","","","","","","","","","","","","","","","","","","","feedback_test"
"","","","","","psychophysics","408","869363","0.0-10.0-0.0-0.0-0.0-0.101","868","","f","","","","","","","","","","","","","key","f","18.503910000000616","768","428","f","true","img/S_ambi40.png","朋友","same",""
"","","","","","html-keyboard-response","409","869866","0.0-10.0-0.0-0.0-0.0-1.101","null","<span style='color:GreenYellow; font-size: 70px;'>正确! </span>","null","","","","","","","","","","","","","","","","","","","","","","","feedback_test"
"","","","","","psychophysics","410","871503","0.0-10.0-0.0-0.0-0.0-0.102","634","","j","","","","","","","","","","","","","key","j","17.57357608695621","768","428","j","true","img/C_ambi40.png","自我","same",""
"","","","","","html-keyboard-response","411","872023","0.0-10.0-0.0-0.0-0.0-1.102","null","<span style='color:GreenYellow; font-size: 70px;'>正确! </span>","null","","","","","","","","","","","","","","","","","","","","","","","feedback_test"
"","","","","","psychophysics","412","873791","0.0-10.0-0.0-0.0-0.0-0.103","759","","f","","","","","","","","","","","","","key","f","18.251642105262725","768","428","f","true","img/H_ambi40.png","自我","same",""
"","","","","","html-keyboard-response","413","874310","0.0-10.0-0.0-0.0-0.0-1.103","null","<span style='color:GreenYellow; font-size: 70px;'>正确! </span>","null","","","","","","","","","","","","","","","","","","","","","","","feedback_test"
"","","","","","psychophysics","414","875926","0.0-10.0-0.0-0.0-0.0-0.104","597","","f","","","","","","","","","","","","","key","f","17.998568181818964","768","428","f","true","img/H_ambi40.png","自我","same",""
"","","","","","html-keyboard-response","415","876443","0.0-10.0-0.0-0.0-0.0-1.104","null","<span style='color:GreenYellow; font-size: 70px;'>正确! </span>","null","","","","","","","","","","","","","","","","","","","","","","","feedback_test"
"","","","","","psychophysics","416","878271","0.0-10.0-0.0-0.0-0.0-0.105","809","","f","","","","","","","","","","","","","key","f","17.86502000000095","768","428","f","true","img/S_ambi40.png","自我","same",""
"","","","","","html-keyboard-response","417","878784","0.0-10.0-0.0-0.0-0.0-1.105","null","<span style='color:GreenYellow; font-size: 70px;'>正确! </span>","null","","","","","","","","","","","","","","","","","","","","","","","feedback_test"
"","","","","","psychophysics","418","880672","0.0-10.0-0.0-0.0-0.0-0.106","860","","f","","","","","","","","","","","","","key","f","19.274562500000076","768","428","f","true","img/C_ambi40.png","生人","same",""
"","","","","","html-keyboard-response","419","881180","0.0-10.0-0.0-0.0-0.0-1.106","null","<span style='color:GreenYellow; font-size: 70px;'>正确! </span>","null","","","","","","","","","","","","","","","","","","","","","","","feedback_test"
"","","","","","psychophysics","420","882797","0.0-10.0-0.0-0.0-0.0-0.107","599","","j","","","","","","","","","","","","","key","j","17.9943068181826","768","428","j","true","img/T_ambi40.png","をる","same",""
"","","","","","html-keyboard-response","421","883309","0.0-10.0-0.0-0.0-0.0-1.107","null","<span style='color:GreenYellow; font-size: 70px;'>正确! </span>","null","","","","","","","","","","","","","","","","","","","","","","","feedback_test"
"","","","","","html-keyboard-response","422","885998","0.0-10.0-0.0-0.0-1.0","2685","<style>.context{color:white; font-size: 35px; line-height:40px}</style>                          <div><p class='context'>您正确回答了67% 的试次。</p><p class='context'>您的平均反应时为736毫秒。</p><p class='context'>请按任意键进入休息</p></div>"," ","","","","","","","","","","","","","","","","","","","","","","",""
"","","","","","html-button-response","423","947641","0.0-10.0-0.0-0.0-2.0","61639","
                    <p>您当前还剩余5组实验</p>
                    <p>现在是休息时间，当您结束休息后，您可以点击 结束休息 按钮 继续</p>
                    <p>建议休息时间还剩余<span id=""iii"">60</span>秒</p>","0","","","","","","","","","","","","","","","","","","","","","","",""
"","","","","","psychophysics","424","949340","0.0-10.0-0.0-0.0-0.1-0.108","692","","j","","","","","","","","","","","","","key","j","18.30304347826092","768","428","j","true","img/T_ambi40.png","をる","same",""
"","","","","","html-keyboard-response","425","949854","0.0-10.0-0.0-0.0-0.1-1.108","null","<span style='color:GreenYellow; font-size: 70px;'>正确! </span>","null","","","","","","","","","","","","","","","","","","","","","","","feedback_test"
"","","","","","psychophysics","426","951526","0.0-10.0-0.0-0.0-0.1-0.109","663","","f","","","","","","","","","","","","","key","f","17.937934782607837","768","428","f","true","img/C_ambi40.png","生人","same",""
"","","","","","html-keyboard-response","427","952031","0.0-10.0-0.0-0.0-0.1-1.109","null","<span style='color:GreenYellow; font-size: 70px;'>正确! </span>","null","","","","","","","","","","","","","","","","","","","","","","","feedback_test"
"","","","","","psychophysics","428","953872","0.0-10.0-0.0-0.0-0.1-0.110","826","","f","","","","","","","","","","","","","key","f","18.35191919192004","768","428","f","true","img/H_ambi40.png","自我","same",""
"","","","","","html-keyboard-response","429","954391","0.0-10.0-0.0-0.0-0.1-1.110","null","<span style='color:GreenYellow; font-size: 70px;'>正确! </span>","null","","","","","","","","","","","","","","","","","","","","","","","feedback_test"
"","","","","","psychophysics","430","956168","0.0-10.0-0.0-0.0-0.1-0.111","772","","f","","","","","","","","","","","","","key","f","17.739479591837153","768","428","j","false","img/H_ambi40.png","朋友","same",""
"","","","","","html-keyboard-response","431","956673","0.0-10.0-0.0-0.0-0.1-1.111","null","<span style='color:red; font-size: 70px;'>错误! </span>","null","","","","","","","","","","","","","","","","","","","","","","","feedback_test"
"","","","","","psychophysics","432","958302","0.0-10.0-0.0-0.0-0.1-0.112","623","","f","","","","","","","","","","","","","key","f","17.580423913043216","768","428","f","true","img/S_ambi40.png","朋友","same",""
"","","","","","html-keyboard-response","433","958811","0.0-10.0-0.0-0.0-0.1-1.112","null","<span style='color:GreenYellow; font-size: 70px;'>正确! </span>","null","","","","","","","","","","","","","","","","","","","","","","","feedback_test"
"","","","","","psychophysics","434","960671","0.0-10.0-0.0-0.0-0.1-0.113","854","","j","","","","","","","","","","","","","key","j","18.153386138613556","768","428","j","true","img/S_ambi40.png","生人","same",""
"","","","","","html-keyboard-response","435","961178","0.0-10.0-0.0-0.0-0.1-1.113","null","<span style='color:GreenYellow; font-size: 70px;'>正确! </span>","null","","","","","","","","","","","","","","","","","","","","","","","feedback_test"
"","","","","","psychophysics","436","963119","0.0-10.0-0.0-0.0-0.1-0.114","932","","f","","","","","","","","","","","","","key","f","18.087415094339104","768","428","f","true","img/H_ambi40.png","自我","same",""
"","","","","","html-keyboard-response","437","963634","0.0-10.0-0.0-0.0-0.1-1.114","null","<span style='color:GreenYellow; font-size: 70px;'>正确! </span>","null","","","","","","","","","","","","","","","","","","","","","","","feedback_test"
"","","","","","psychophysics","438","965215","0.0-10.0-0.0-0.0-0.1-0.115","575","","j","","","","","","","","","","","","","key","j","18.241188235293308","768","428","j","true","img/C_ambi40.png","自我","same",""
"","","","","","html-keyboard-response","439","965720","0.0-10.0-0.0-0.0-0.1-1.115","null","<span style='color:GreenYellow; font-size: 70px;'>正确! </span>","null","","","","","","","","","","","","","","","","","","","","","","","feedback_test"
"","","","","","psychophysics","440","967390","0.0-10.0-0.0-0.0-0.1-0.116","665","","j","","","","","","","","","","","","","key","j","18.134164835165183","768","428","j","true","img/T_ambi40.png","をる","same",""
"","","","","","html-keyboard-response","441","967908","0.0-10.0-0.0-0.0-0.1-1.116","null","<span style='color:GreenYellow; font-size: 70px;'>正确! </span>","null","","","","","","","","","","","","","","","","","","","","","","","feedback_test"
"","","","","","psychophysics","442","969663","0.0-10.0-0.0-0.0-0.1-0.117","750","","f","","","","","","","","","","","","","key","f","18.12989361702088","768","428","f","true","img/C_ambi40.png","朋友","same",""
"","","","","","html-keyboard-response","443","970171","0.0-10.0-0.0-0.0-0.1-1.117","null","<span style='color:GreenYellow; font-size: 70px;'>正确! </span>","null","","","","","","","","","","","","","","","","","","","","","","","feedback_test"
"","","","","","psychophysics","444","971914","0.0-10.0-0.0-0.0-0.1-0.118","733","","f","","","","","","","","","","","","","key","f","17.883218749999894","768","428","f","true","img/C_ambi40.png","生人","same",""
