"success","timeout","failed_images","failed_audio","failed_video","trial_type","trial_index","time_elapsed","internal_node_id","rt","stimulus","response","value","item_width_mm","item_height_mm","item_width_px","px2mm","view_dist_mm","item_width_deg","px2deg","scale_factor","win_width_deg","win_height_deg","view_history","response_type","key_press","avg_frame_time","center_x","center_y","correct_response","correct","Image","word","condition","screen_id"
"true","false","[]","[]","[]","preload","0","1404","0.0-0.0","","","","","","","","","","","","","","","","","","","","","","","","","",""
"","","","","","html-keyboard-response","1","61475","0.0-1.0","60069","
     <p>您好，欢迎参加本次实验。</p>
     <p>为充分保障您的权利，请确保您已经知晓并同意《参与实验同意书》以及《数据公开知情同意书》。</p>
     <p>如果您未见过上述内容，请咨询实验员。</p>
     <p>如果您选择继续实验，则表示您已经清楚两份知情同意书的内容并同意。</p>
     <p> <div style = ""color: green""><按任意键至下页></div> </p>
     ","arrowdown","","","","","","","","","","","","","","","","","","","","","","",""
"","","","","","html-keyboard-response","2","62521","0.0-2.0","1046","
     <p>本实验首先需要您填写一些基本个人信息。</p>
     <p> <div style = ""color: green""><按任意键至下页></div></p>
     ","arrowdown","","","","","","","","","","","","","","","","","","","","","","",""
"","","","","","call-function","3","62522","0.0-3.0-0.0","","","","","","","","","","","","","","","","","","","","","","","","","",""
"","","","","","survey-html-form","4","67957","0.0-3.0-1.0","5434","","{""Q0"":""29""}","","","","","","","","","","","","","","","","","","","","","","",""
"","","","","","html-button-response","5","68972","0.0-3.0-2.0","1013","<p style = 'color : white'>您的性别</p>","0","","","","","","","","","","","","","","","","","","","","","","",""
"","","","","","survey-html-form","6","72763","0.0-3.0-3.0","3791","","{""Q0"":""2004""}","","","","","","","","","","","","","","","","","","","","","","",""
"","","","","","survey-html-form","7","75772","0.0-3.0-4.0","3007","","{""Q0"":""5""}","","","","","","","","","","","","","","","","","","","","","","",""
"","","","","","virtual-chinrest","8","197051","0.0-4.0","121278","","","","85.6","53.98","489.2397313068174","5.720537483248985","500.02","9.784794626136348","50","0.7848912821824393","29.8","15.8","","","","","","","","","","","",""
"true","","","","","fullscreen","9","199779","0.0-5.0","","","","","","","","","","","","","","","","","","","","","","","","","",""
"","","","","","instructions","10","229275","0.0-6.0","29495","","","","","","","","","","","","","","[{""page_index"":0,""viewing_time"":3175},{""page_index"":1,""viewing_time"":22456},{""page_index"":2,""viewing_time"":1544},{""page_index"":3,""viewing_time"":2320}]","","","","","","","","","","",""
"","","","","","psychophysics","11","231791","0.0-7.0-0.0-0.0","null","","null","","","","","","","","","","","","","key","null","16.66648000000006","768","428","j","false","img/T_ambi40.png","をる","prac",""
"","","","","","html-keyboard-response","12","232292","0.0-7.0-0.0-1.0","null","<span class='add_' style='color:yellow; font-size: 70px;'> 太慢! </span>","null","","","","","","","","","","","","","","","","","","","","","","","feedback_test"
"","","","","","psychophysics","13","234217","0.0-7.0-0.0-0.1","924","","j","","","","","","","","","","","","","key","j","16.66124561403494","768","428","f","false","img/S_ambi40.png","生人","prac",""
"","","","","","html-keyboard-response","14","234721","0.0-7.0-0.0-1.1","null","<span style='color:red; font-size: 70px;'>错误! </span>","null","","","","","","","","","","","","","","","","","","","","","","","feedback_test"
"","","","","","psychophysics","15","236225","0.0-7.0-0.0-0.2","498","","j","","","","","","","","","","","","","key","j","16.665573033707915","768","428","j","true","img/T_ambi40.png","をる","prac",""
"","","","","","html-keyboard-response","16","236733","0.0-7.0-0.0-1.2","null","<span style='color:GreenYellow; font-size: 70px;'>正确! </span>","null","","","","","","","","","","","","","","","","","","","","","","","feedback_test"
"","","","","","psychophysics","17","238083","0.0-7.0-0.0-0.3","340","","f","","","","","","","","","","","","","key","f","16.66603749999995","768","428","j","false","img/S_ambi40.png","朋友","prac",""
"","","","","","html-keyboard-response","18","238587","0.0-7.0-0.0-1.3","null","<span style='color:red; font-size: 70px;'>错误! </span>","null","","","","","","","","","","","","","","","","","","","","","","","feedback_test"
"","","","","","psychophysics","19","240186","0.0-7.0-0.0-0.4","594","","j","","","","","","","","","","","","","key","j","16.667684210526243","768","428","f","false","img/S_ambi40.png","自我","prac",""
"","","","","","html-keyboard-response","20","240694","0.0-7.0-0.0-1.4","null","<span style='color:red; font-size: 70px;'>错误! </span>","null","","","","","","","","","","","","","","","","","","","","","","","feedback_test"
"","","","","","psychophysics","21","242271","0.0-7.0-0.0-0.5","562","","j","","","","","","","","","","","","","key","j","16.665989247311572","768","428","f","false","img/H_ambi40.png","生人","prac",""
"","","","","","html-keyboard-response","22","242782","0.0-7.0-0.0-1.5","null","<span style='color:red; font-size: 70px;'>错误! </span>","null","","","","","","","","","","","","","","","","","","","","","","","feedback_test"
"","","","","","psychophysics","23","244663","0.0-7.0-0.0-0.6","871","","f","","","","","","","","","","","","","key","f","16.666116071428405","768","428","j","false","img/T_ambi40.png","をる","prac",""
"","","","","","html-keyboard-response","24","245168","0.0-7.0-0.0-1.6","null","<span style='color:red; font-size: 70px;'>错误! </span>","null","","","","","","","","","","","","","","","","","","","","","","","feedback_test"
"","","","","","psychophysics","25","247121","0.0-7.0-0.0-0.7","951","","f","","","","","","","","","","","","","key","f","16.665612068965604","768","428","j","false","img/T_ambi40.png","をる","prac",""
"","","","","","html-keyboard-response","26","247630","0.0-7.0-0.0-1.7","null","<span style='color:red; font-size: 70px;'>错误! </span>","null","","","","","","","","","","","","","","","","","","","","","","","feedback_test"
"","","","","","psychophysics","27","249594","0.0-7.0-0.0-0.8","958","","j","","","","","","","","","","","","","key","j","16.66619658119664","768","428","j","true","img/C_ambi40.png","生人","prac",""
"","","","","","html-keyboard-response","28","250100","0.0-7.0-0.0-1.8","null","<span style='color:GreenYellow; font-size: 70px;'>正确! </span>","null","","","","","","","","","","","","","","","","","","","","","","","feedback_test"
"","","","","","psychophysics","29","252021","0.0-7.0-0.0-0.9","912","","f","","","","","","","","","","","","","key","f","16.665815789473605","768","428","f","true","img/H_ambi40.png","朋友","prac",""
"","","","","","html-keyboard-response","30","252530","0.0-7.0-0.0-1.9","null","<span style='color:GreenYellow; font-size: 70px;'>正确! </span>","null","","","","","","","","","","","","","","","","","","","","","","","feedback_test"
"","","","","","psychophysics","31","254299","0.0-7.0-0.0-0.10","757","","j","","","","","","","","","","","","","key","j","16.666580952380762","768","428","j","true","img/H_ambi40.png","自我","prac",""
"","","","","","html-keyboard-response","32","254806","0.0-7.0-0.0-1.10","null","<span style='color:GreenYellow; font-size: 70px;'>正确! </span>","null","","","","","","","","","","","","","","","","","","","","","","","feedback_test"
"","","","","","psychophysics","33","256876","0.0-7.0-0.0-0.11","1067","","j","","","","","","","","","","","","","key","j","16.666814516129012","768","428","j","true","img/C_ambi40.png","生人","prac",""
"","","","","","html-keyboard-response","34","257387","0.0-7.0-0.0-1.11","null","<span style='color:GreenYellow; font-size: 70px;'>正确! </span>","null","","","","","","","","","","","","","","","","","","","","","","","feedback_test"
"","","","","","psychophysics","35","259552","0.0-7.0-0.0-0.12","1159","","j","","","","","","","","","","","","","key","j","16.6668139534886","768","428","f","false","img/C_ambi40.png","自我","prac",""
"","","","","","html-keyboard-response","36","260065","0.0-7.0-0.0-1.12","null","<span style='color:red; font-size: 70px;'>错误! </span>","null","","","","","","","","","","","","","","","","","","","","","","","feedback_test"
"","","","","","psychophysics","37","261881","0.0-7.0-0.0-0.13","805","","j","","","","","","","","","","","","","key","j","16.666870370370344","768","428","j","true","img/S_ambi40.png","朋友","prac",""
"","","","","","html-keyboard-response","38","262390","0.0-7.0-0.0-1.13","null","<span style='color:GreenYellow; font-size: 70px;'>正确! </span>","null","","","","","","","","","","","","","","","","","","","","","","","feedback_test"
"","","","","","psychophysics","39","264225","0.0-7.0-0.0-0.14","831","","f","","","","","","","","","","","","","key","f","16.668715596329868","768","428","f","true","img/C_ambi40.png","朋友","prac",""
"","","","","","html-keyboard-response","40","264737","0.0-7.0-0.0-1.14","null","<span style='color:GreenYellow; font-size: 70px;'>正确! </span>","null","","","","","","","","","","","","","","","","","","","","","","","feedback_test"
"","","","","","psychophysics","41","266311","0.0-7.0-0.0-0.15","568","","j","","","","","","","","","","","","","key","j","16.670840425532003","768","428","j","true","img/H_ambi40.png","自我","prac",""
"","","","","","html-keyboard-response","42","266827","0.0-7.0-0.0-1.15","null","<span style='color:GreenYellow; font-size: 70px;'>正确! </span>","null","","","","","","","","","","","","","","","","","","","","","","","feedback_test"
"","","","","","psychophysics","43","268444","0.0-7.0-0.0-0.16","603","","f","","","","","","","","","","","","","key","f","16.664812500000455","768","428","f","true","img/C_ambi40.png","朋友","prac",""
"","","","","","html-keyboard-response","44","268950","0.0-7.0-0.0-1.16","null","<span style='color:GreenYellow; font-size: 70px;'>正确! </span>","null","","","","","","","","","","","","","","","","","","","","","","","feedback_test"
"","","","","","psychophysics","45","270856","0.0-7.0-0.0-0.17","898","","f","","","","","","","","","","","","","key","f","16.665902654867025","768","428","j","false","img/T_ambi40.png","をる","prac",""
"","","","","","html-keyboard-response","46","271369","0.0-7.0-0.0-1.17","null","<span style='color:red; font-size: 70px;'>错误! </span>","null","","","","","","","","","","","","","","","","","","","","","","","feedback_test"
"","","","","","psychophysics","47","273107","0.0-7.0-0.0-0.18","732","","j","","","","","","","","","","","","","key","j","16.66671844660214","768","428","j","true","img/T_ambi40.png","をる","prac",""
"","","","","","html-keyboard-response","48","273610","0.0-7.0-0.0-1.18","null","<span style='color:GreenYellow; font-size: 70px;'>正确! </span>","null","","","","","","","","","","","","","","","","","","","","","","","feedback_test"
"","","","","","psychophysics","49","275369","0.0-7.0-0.0-0.19","746","","j","","","","","","","","","","","","","key","j","16.665701923076995","768","428","f","false","img/S_ambi40.png","生人","prac",""
"","","","","","html-keyboard-response","50","275884","0.0-7.0-0.0-1.19","null","<span style='color:red; font-size: 70px;'>错误! </span>","null","","","","","","","","","","","","","","","","","","","","","","","feedback_test"
"","","","","","psychophysics","51","277751","0.0-7.0-0.0-0.20","859","","f","","","","","","","","","","","","","key","f","16.665522522522714","768","428","f","true","img/C_ambi40.png","自我","prac",""
"","","","","","html-keyboard-response","52","278254","0.0-7.0-0.0-1.20","null","<span style='color:GreenYellow; font-size: 70px;'>正确! </span>","null","","","","","","","","","","","","","","","","","","","","","","","feedback_test"
"","","","","","psychophysics","53","280113","0.0-7.0-0.0-0.21","854","","f","","","","","","","","","","","","","key","f","16.667009009009014","768","428","f","true","img/H_ambi40.png","生人","prac",""
"","","","","","html-keyboard-response","54","280624","0.0-7.0-0.0-1.21","null","<span style='color:GreenYellow; font-size: 70px;'>正确! </span>","null","","","","","","","","","","","","","","","","","","","","","","","feedback_test"
"","","","","","psychophysics","55","282597","0.0-7.0-0.0-0.22","973","","j","","","","","","","","","","","","","key","j","16.653743589743197","768","428","j","true","img/T_ambi40.png","をる","prac",""
"","","","","","html-keyboard-response","56","283105","0.0-7.0-0.0-1.22","null","<span style='color:GreenYellow; font-size: 70px;'>正确! </span>","null","","","","","","","","","","","","","","","","","","","","","","","feedback_test"
"","","","","","psychophysics","57","284615","0.0-7.0-0.0-0.23","509","","j","","","","","","","","","","","","","key","j","16.667477777778146","768","428","j","true","img/T_ambi40.png","をる","prac",""
"","","","","","html-keyboard-response","58","285122","0.0-7.0-0.0-1.23","null","<span style='color:GreenYellow; font-size: 70px;'>正确! </span>","null","","","","","","","","","","","","","","","","","","","","","","","feedback_test"
"","","","","","psychophysics","59","286897","0.0-7.0-0.0-0.24","773","","j","","","","","","","","","","","","","key","j","16.66605660377371","768","428","j","true","img/S_ambi40.png","朋友","prac",""
"","","","","","html-keyboard-response","60","287402","0.0-7.0-0.0-1.24","null","<span style='color:GreenYellow; font-size: 70px;'>正确! </span>","null","","","","","","","","","","","","","","","","","","","","","","","feedback_test"
"","","","","","psychophysics","61","289259","0.0-7.0-0.0-0.25","852","","f","","","","","","","","","","","","","key","f","16.66521621621602","768","428","f","true","img/S_ambi40.png","自我","prac",""
"","","","","","html-keyboard-response","62","289767","0.0-7.0-0.0-1.25","null","<span style='color:GreenYellow; font-size: 70px;'>正确! </span>","null","","","","","","","","","","","","","","","","","","","","","","","feedback_test"
"","","","","","psychophysics","63","291530","0.0-7.0-0.0-0.26","761","","j","","","","","","","","","","","","","key","j","16.666542857143074","768","428","j","true","img/H_ambi40.png","自我","prac",""
"","","","","","html-keyboard-response","64","292037","0.0-7.0-0.0-1.26","null","<span style='color:GreenYellow; font-size: 70px;'>正确! </span>","null","","","","","","","","","","","","","","","","","","","","","","","feedback_test"
"","","","","","psychophysics","65","293741","0.0-7.0-0.0-0.27","699","","f","","","","","","","","","","","","","key","f","16.66556862745133","768","428","f","true","img/H_ambi40.png","朋友","prac",""
"","","","","","html-keyboard-response","66","294251","0.0-7.0-0.0-1.27","null","<span style='color:GreenYellow; font-size: 70px;'>正确! </span>","null","","","","","","","","","","","","","","","","","","","","","","","feedback_test"
"","","","","","psychophysics","67","296080","0.0-7.0-0.0-0.28","822","","j","","","","","","","","","","","","","key","j","16.66572477064232","768","428","j","true","img/S_ambi40.png","朋友","prac",""
"","","","","","html-keyboard-response","68","296593","0.0-7.0-0.0-1.28","null","<span style='color:GreenYellow; font-size: 70px;'>正确! </span>","null","","","","","","","","","","","","","","","","","","","","","","","feedback_test"
"","","","","","psychophysics","69","298746","0.0-7.0-0.0-0.29","1152","","j","","","","","","","","","","","","","key","j","16.66585937500031","768","428","j","true","img/C_ambi40.png","生人","prac",""
"","","","","","html-keyboard-response","70","299247","0.0-7.0-0.0-1.29","null","<span style='color:GreenYellow; font-size: 70px;'>正确! </span>","null","","","","","","","","","","","","","","","","","","","","","","","feedback_test"
"","","","","","psychophysics","71","300696","0.0-7.0-0.0-0.30","439","","j","","","","","","","","","","","","","key","j","16.665593023255582","768","428","j","true","img/C_ambi40.png","生人","prac",""
"","","","","","html-keyboard-response","72","301198","0.0-7.0-0.0-1.30","null","<span style='color:GreenYellow; font-size: 70px;'>正确! </span>","null","","","","","","","","","","","","","","","","","","","","","","","feedback_test"
"","","","","","psychophysics","73","302583","0.0-7.0-0.0-0.31","383","","j","","","","","","","","","","","","","key","j","16.667853658536178","768","428","j","true","img/H_ambi40.png","自我","prac",""
"","","","","","html-keyboard-response","74","303089","0.0-7.0-0.0-1.31","null","<span style='color:GreenYellow; font-size: 70px;'>正确! </span>","null","","","","","","","","","","","","","","","","","","","","","","","feedback_test"
"","","","","","html-keyboard-response","75","308951","0.0-7.0-1.0-0.0","5861","<style>.context{color:white; font-size: 35px; line-height:40px}</style>                          <div><p class='context'>您正确回答了69% 的试次。</p ><p class='context'>您的平均反应时为764毫秒。</p >"," ","","","","","","","","","","","","","","","","","","","","","","",""
"","","","","","instructions","76","334731","0.0-7.0-1.0-1.0","25777","","","","","","","","","","","","","","[{""page_index"":0,""viewing_time"":2377},{""page_index"":1,""viewing_time"":22040},{""page_index"":2,""viewing_time"":1360}]","","","","","","","","","","",""
"","","","","","psychophysics","77","336166","0.0-7.1-0.1-0.32","427","","j","","","","","","","","","","","","","key","j","16.665976470588323","768","428","j","true","img/H_ambi40.png","自我","prac",""
"","","","","","html-keyboard-response","78","336679","0.0-7.1-0.1-1.32","null","<span style='color:GreenYellow; font-size: 70px;'>正确! </span>","null","","","","","","","","","","","","","","","","","","","","","","","feedback_test"
"","","","","","psychophysics","79","338180","0.0-7.1-0.1-0.33","497","","j","","","","","","","","","","","","","key","j","16.66584269662932","768","428","f","false","img/S_ambi40.png","生人","prac",""
"","","","","","html-keyboard-response","80","338684","0.0-7.1-0.1-1.33","null","<span style='color:red; font-size: 70px;'>错误! </span>","null","","","","","","","","","","","","","","","","","","","","","","","feedback_test"
"","","","","","psychophysics","81","340325","0.0-7.1-0.1-0.34","636","","j","","","","","","","","","","","","","key","j","16.665020408163475","768","428","j","true","img/T_ambi40.png","をる","prac",""
"","","","","","html-keyboard-response","82","340840","0.0-7.1-0.1-1.34","null","<span style='color:GreenYellow; font-size: 70px;'>正确! </span>","null","","","","","","","","","","","","","","","","","","","","","","","feedback_test"
"","","","","","psychophysics","83","342463","0.0-7.1-0.1-0.35","620","","j","","","","","","","","","","","","","key","j","16.665729166667006","768","428","j","true","img/S_ambi40.png","朋友","prac",""
"","","","","","html-keyboard-response","84","342971","0.0-7.1-0.1-1.35","null","<span style='color:GreenYellow; font-size: 70px;'>正确! </span>","null","","","","","","","","","","","","","","","","","","","","","","","feedback_test"
"","","","","","psychophysics","85","344500","0.0-7.1-0.1-0.36","528","","j","","","","","","","","","","","","","key","j","16.665366666666362","768","428","j","true","img/T_ambi40.png","をる","prac",""
"","","","","","html-keyboard-response","86","345011","0.0-7.1-0.1-1.36","null","<span style='color:GreenYellow; font-size: 70px;'>正确! </span>","null","","","","","","","","","","","","","","","","","","","","","","","feedback_test"
"","","","","","psychophysics","87","346523","0.0-7.1-0.1-0.37","502","","j","","","","","","","","","","","","","key","j","16.666633333333042","768","428","j","true","img/T_ambi40.png","をる","prac",""
"","","","","","html-keyboard-response","88","347030","0.0-7.1-0.1-1.37","null","<span style='color:GreenYellow; font-size: 70px;'>正确! </span>","null","","","","","","","","","","","","","","","","","","","","","","","feedback_test"
"","","","","","psychophysics","89","348456","0.0-7.1-0.1-0.38","417","","j","","","","","","","","","","","","","key","j","16.66562352941221","768","428","j","true","img/T_ambi40.png","をる","prac",""
"","","","","","html-keyboard-response","90","348963","0.0-7.1-0.1-1.38","null","<span style='color:GreenYellow; font-size: 70px;'>正确! </span>","null","","","","","","","","","","","","","","","","","","","","","","","feedback_test"
"","","","","","psychophysics","91","350545","0.0-7.1-0.1-0.39","573","","j","","","","","","","","","","","","","key","j","16.66617021276591","768","428","j","true","img/H_ambi40.png","自我","prac",""
"","","","","","html-keyboard-response","92","351052","0.0-7.1-0.1-1.39","null","<span style='color:GreenYellow; font-size: 70px;'>正确! </span>","null","","","","","","","","","","","","","","","","","","","","","","","feedback_test"
"","","","","","psychophysics","93","352767","0.0-7.1-0.1-0.40","713","","j","","","","","","","","","","","","","key","j","16.665333333333347","768","428","f","false","img/C_ambi40.png","自我","prac",""
"","","","","","html-keyboard-response","94","353283","0.0-7.1-0.1-1.40","null","<span style='color:red; font-size: 70px;'>错误! </span>","null","","","","","","","","","","","","","","","","","","","","","","","feedback_test"
"","","","","","psychophysics","95","354887","0.0-7.1-0.1-0.41","599","","f","","","","","","","","","","","","","key","f","16.666684210526537","768","428","f","true","img/C_ambi40.png","朋友","prac",""
"","","","","","html-keyboard-response","96","355399","0.0-7.1-0.1-1.41","null","<span style='color:GreenYellow; font-size: 70px;'>正确! </span>","null","","","","","","","","","","","","","","","","","","","","","","","feedback_test"
"","","","","","psychophysics","97","356962","0.0-7.1-0.1-0.42","557","","j","","","","","","","","","","","","","key","j","16.664860215053707","768","428","j","true","img/S_ambi40.png","朋友","prac",""
"","","","","","html-keyboard-response","98","357477","0.0-7.1-0.1-1.42","null","<span style='color:GreenYellow; font-size: 70px;'>正确! </span>","null","","","","","","","","","","","","","","","","","","","","","","","feedback_test"
"","","","","","psychophysics","99","359103","0.0-7.1-0.1-0.43","616","","j","","","","","","","","","","","","","key","j","16.665625000000244","768","428","f","false","img/H_ambi40.png","生人","prac",""
"","","","","","html-keyboard-response","100","359618","0.0-7.1-0.1-1.43","null","<span style='color:red; font-size: 70px;'>错误! </span>","null","","","","","","","","","","","","","","","","","","","","","","","feedback_test"
"","","","","","psychophysics","101","361272","0.0-7.1-0.1-0.44","651","","j","","","","","","","","","","","","","key","j","16.666173469387495","768","428","f","false","img/S_ambi40.png","自我","prac",""
"","","","","","html-keyboard-response","102","361775","0.0-7.1-0.1-1.44","null","<span style='color:red; font-size: 70px;'>错误! </span>","null","","","","","","","","","","","","","","","","","","","","","","","feedback_test"
"","","","","","psychophysics","103","363538","0.0-7.1-0.1-0.45","752","","f","","","","","","","","","","","","","key","f","16.665399999999707","768","428","f","true","img/H_ambi40.png","朋友","prac",""
"","","","","","html-keyboard-response","104","364054","0.0-7.1-0.1-1.45","null","<span style='color:GreenYellow; font-size: 70px;'>正确! </span>","null","","","","","","","","","","","","","","","","","","","","","","","feedback_test"
"","","","","","psychophysics","105","365748","0.0-7.1-0.1-0.46","694","","j","","","","","","","","","","","","","key","j","16.66100999999966","768","428","j","true","img/C_ambi40.png","生人","prac",""
"","","","","","html-keyboard-response","106","366251","0.0-7.1-0.1-1.46","null","<span style='color:GreenYellow; font-size: 70px;'>正确! </span>","null","","","","","","","","","","","","","","","","","","","","","","","feedback_test"
"","","","","","psychophysics","107","368015","0.0-7.1-0.1-0.47","761","","j","","","","","","","","","","","","","key","j","16.666352380951867","768","428","j","true","img/C_ambi40.png","生人","prac",""
"","","","","","html-keyboard-response","108","368517","0.0-7.1-0.1-1.47","null","<span style='color:GreenYellow; font-size: 70px;'>正确! </span>","null","","","","","","","","","","","","","","","","","","","","","","","feedback_test"
"","","","","","psychophysics","109","370248","0.0-7.1-0.1-0.48","729","","j","","","","","","","","","","","","","key","j","16.66574757281596","768","428","j","true","img/S_ambi40.png","朋友","prac",""
"","","","","","html-keyboard-response","110","370752","0.0-7.1-0.1-1.48","null","<span style='color:GreenYellow; font-size: 70px;'>正确! </span>","null","","","","","","","","","","","","","","","","","","","","","","","feedback_test"
"","","","","","psychophysics","111","372346","0.0-7.1-0.1-0.49","591","","j","","","","","","","","","","","","","key","j","16.665347368420885","768","428","j","true","img/S_ambi40.png","朋友","prac",""
"","","","","","html-keyboard-response","112","372849","0.0-7.1-0.1-1.49","null","<span style='color:GreenYellow; font-size: 70px;'>正确! </span>","null","","","","","","","","","","","","","","","","","","","","","","","feedback_test"
"","","","","","psychophysics","113","374415","0.0-7.1-0.1-0.50","560","","j","","","","","","","","","","","","","key","j","16.6666021505377","768","428","j","true","img/T_ambi40.png","をる","prac",""
"","","","","","html-keyboard-response","114","374924","0.0-7.1-0.1-1.50","null","<span style='color:GreenYellow; font-size: 70px;'>正确! </span>","null","","","","","","","","","","","","","","","","","","","","","","","feedback_test"
"","","","","","psychophysics","115","376248","0.0-7.1-0.1-0.51","310","","j","","","","","","","","","","","","","key","j","16.66655128205177","768","428","j","true","img/T_ambi40.png","をる","prac",""
"","","","","","html-keyboard-response","116","376763","0.0-7.1-0.1-1.51","null","<span style='color:GreenYellow; font-size: 70px;'>正确! </span>","null","","","","","","","","","","","","","","","","","","","","","","","feedback_test"
"","","","","","psychophysics","117","378215","0.0-7.1-0.1-0.52","444","","j","","","","","","","","","","","","","key","j","16.66629069767416","768","428","j","true","img/H_ambi40.png","自我","prac",""
"","","","","","html-keyboard-response","118","378731","0.0-7.1-0.1-1.52","null","<span style='color:GreenYellow; font-size: 70px;'>正确! </span>","null","","","","","","","","","","","","","","","","","","","","","","","feedback_test"
"","","","","","psychophysics","119","380108","0.0-7.1-0.1-0.53","370","","j","","","","","","","","","","","","","key","j","16.666134146341726","768","428","j","true","img/C_ambi40.png","生人","prac",""
"","","","","","html-keyboard-response","120","380616","0.0-7.1-0.1-1.53","null","<span style='color:GreenYellow; font-size: 70px;'>正确! </span>","null","","","","","","","","","","","","","","","","","","","","","","","feedback_test"
"","","","","","psychophysics","121","382183","0.0-7.1-0.1-0.54","563","","j","","","","","","","","","","","","","key","j","16.66740860215073","768","428","j","true","img/C_ambi40.png","生人","prac",""
"","","","","","html-keyboard-response","122","382697","0.0-7.1-0.1-1.54","null","<span style='color:GreenYellow; font-size: 70px;'>正确! </span>","null","","","","","","","","","","","","","","","","","","","","","","","feedback_test"
"","","","","","psychophysics","123","384348","0.0-7.1-0.1-0.55","650","","j","","","","","","","","","","","","","key","j","16.66720408163264","768","428","j","true","img/H_ambi40.png","自我","prac",""
"","","","","","html-keyboard-response","124","384853","0.0-7.1-0.1-1.55","null","<span style='color:GreenYellow; font-size: 70px;'>正确! </span>","null","","","","","","","","","","","","","","","","","","","","","","","feedback_test"
"","","","","","psychophysics","125","386378","0.0-7.1-0.1-0.56","524","","j","","","","","","","","","","","","","key","j","16.664366666666076","768","428","f","false","img/H_ambi40.png","朋友","prac",""
"","","","","","html-keyboard-response","126","386883","0.0-7.1-0.1-1.56","null","<span style='color:red; font-size: 70px;'>错误! </span>","null","","","","","","","","","","","","","","","","","","","","","","","feedback_test"
"","","","","","psychophysics","127","388514","0.0-7.1-0.1-0.57","629","","f","","","","","","","","","","","","","key","f","16.66689690721663","768","428","f","true","img/C_ambi40.png","朋友","prac",""
"","","","","","html-keyboard-response","128","389025","0.0-7.1-0.1-1.57","null","<span style='color:GreenYellow; font-size: 70px;'>正确! </span>","null","","","","","","","","","","","","","","","","","","","","","","","feedback_test"
"","","","","","psychophysics","129","390517","0.0-7.1-0.1-0.58","480","","j","","","","","","","","","","","","","key","j","16.666102272726924","768","428","j","true","img/T_ambi40.png","をる","prac",""
"","","","","","html-keyboard-response","130","391025","0.0-7.1-0.1-1.58","null","<span style='color:GreenYellow; font-size: 70px;'>正确! </span>","null","","","","","","","","","","","","","","","","","","","","","","","feedback_test"
"","","","","","psychophysics","131","392529","0.0-7.1-0.1-0.59","492","","j","","","","","","","","","","","","","key","j","16.666382022472124","768","428","f","false","img/S_ambi40.png","生人","prac",""
"","","","","","html-keyboard-response","132","393042","0.0-7.1-0.1-1.59","null","<span style='color:red; font-size: 70px;'>错误! </span>","null","","","","","","","","","","","","","","","","","","","","","","","feedback_test"
"","","","","","psychophysics","133","394682","0.0-7.1-0.1-0.60","629","","f","","","","","","","","","","","","","key","f","16.666742268041226","768","428","f","true","img/H_ambi40.png","生人","prac",""
"","","","","","html-keyboard-response","134","395194","0.0-7.1-0.1-1.60","null","<span style='color:GreenYellow; font-size: 70px;'>正确! </span>","null","","","","","","","","","","","","","","","","","","","","","","","feedback_test"
"","","","","","psychophysics","135","396786","0.0-7.1-0.1-0.61","584","","j","","","","","","","","","","","","","key","j","16.66598947368452","768","428","j","true","img/T_ambi40.png","をる","prac",""
"","","","","","html-keyboard-response","136","397300","0.0-7.1-0.1-1.61","null","<span style='color:GreenYellow; font-size: 70px;'>正确! </span>","null","","","","","","","","","","","","","","","","","","","","","","","feedback_test"
"","","","","","psychophysics","137","399164","0.0-7.1-0.1-0.62","860","","f","","","","","","","","","","","","","key","f","16.6658378378378","768","428","f","true","img/C_ambi40.png","自我","prac",""
"","","","","","html-keyboard-response","138","399677","0.0-7.1-0.1-1.62","null","<span style='color:GreenYellow; font-size: 70px;'>正确! </span>","null","","","","","","","","","","","","","","","","","","","","","","","feedback_test"
"","","","","","psychophysics","139","401233","0.0-7.1-0.1-0.63","555","","j","","","","","","","","","","","","","key","j","16.665478260869428","768","428","f","false","img/S_ambi40.png","自我","prac",""
"","","","","","html-keyboard-response","140","401738","0.0-7.1-0.1-1.63","null","<span style='color:red; font-size: 70px;'>错误! </span>","null","","","","","","","","","","","","","","","","","","","","","","","feedback_test"
"","","","","","html-keyboard-response","141","404960","0.0-8.0","3220","<style>.context{color:white; font-size: 35px; line-height:40px}</style>                          <div><p class='context'>您正确回答了78% 的试次。</p ><p class='context'>您的平均反应时为579毫秒。</p ><p class='context'>恭喜您完成练习。按任意键进入正式实验。</p ><p class='footer' style='font-size: 35px; line-height:40px;'>请在进入正式实验实验之前将您的<span style='color: lightgreen;'>食指</span>放在电脑键盘的相应键位上进行按键。</p >"," ","","","","","","","","","","","","","","","","","","","","","","",""
"","","","","","psychophysics","142","406877","0.0-9.0-0.0-0.0-0.0-0.0","908","","f","","","","","","","","","","","","","key","f","16.666298245613895","768","428","j","false","img/C_ambi40.png","生人","same",""
"","","","","","html-keyboard-response","143","407390","0.0-9.0-0.0-0.0-0.0-1.0","null","<span style='color:red; font-size: 70px;'>错误! </span>","null","","","","","","","","","","","","","","","","","","","","","","","feedback_test"
"","","","","","psychophysics","144","408845","0.0-9.0-0.0-0.0-0.0-0.1","443","","j","","","","","","","","","","","","","key","j","16.66588372093027","768","428","j","true","img/T_ambi40.png","をる","same",""
"","","","","","html-keyboard-response","145","409357","0.0-9.0-0.0-0.0-0.0-1.1","null","<span style='color:GreenYellow; font-size: 70px;'>正确! </span>","null","","","","","","","","","","","","","","","","","","","","","","","feedback_test"
"","","","","","psychophysics","146","411104","0.0-9.0-0.0-0.0-0.0-0.2","737","","f","","","","","","","","","","","","","key","f","16.665740384615603","768","428","f","true","img/C_ambi40.png","自我","same",""
"","","","","","html-keyboard-response","147","411617","0.0-9.0-0.0-0.0-0.0-1.2","null","<span style='color:GreenYellow; font-size: 70px;'>正确! </span>","null","","","","","","","","","","","","","","","","","","","","","","","feedback_test"
"","","","","","psychophysics","148","413177","0.0-9.0-0.0-0.0-0.0-0.3","559","","f","","","","","","","","","","","","","key","f","16.665645161290623","768","428","f","true","img/C_ambi40.png","朋友","same",""
"","","","","","html-keyboard-response","149","413693","0.0-9.0-0.0-0.0-0.0-1.3","null","<span style='color:GreenYellow; font-size: 70px;'>正确! </span>","null","","","","","","","","","","","","","","","","","","","","","","","feedback_test"
"","","","","","psychophysics","150","415246","0.0-9.0-0.0-0.0-0.0-0.4","543","","j","","","","","","","","","","","","","key","j","16.66578260869542","768","428","f","false","img/H_ambi40.png","生人","same",""
"","","","","","html-keyboard-response","151","415762","0.0-9.0-0.0-0.0-0.0-1.4","null","<span style='color:red; font-size: 70px;'>错误! </span>","null","","","","","","","","","","","","","","","","","","","","","","","feedback_test"
"","","","","","psychophysics","152","417664","0.0-9.0-0.0-0.0-0.0-0.5","895","","f","","","","","","","","","","","","","key","f","16.66541592920337","768","428","f","true","img/C_ambi40.png","朋友","same",""
"","","","","","html-keyboard-response","153","418168","0.0-9.0-0.0-0.0-0.0-1.5","null","<span style='color:GreenYellow; font-size: 70px;'>正确! </span>","null","","","","","","","","","","","","","","","","","","","","","","","feedback_test"
"","","","","","psychophysics","154","419928","0.0-9.0-0.0-0.0-0.0-0.6","759","","j","","","","","","","","","","","","","key","j","16.662028846153518","768","428","j","true","img/H_ambi40.png","自我","same",""
"","","","","","html-keyboard-response","155","420443","0.0-9.0-0.0-0.0-0.0-1.6","null","<span style='color:GreenYellow; font-size: 70px;'>正确! </span>","null","","","","","","","","","","","","","","","","","","","","","","","feedback_test"
"","","","","","psychophysics","156","422107","0.0-9.0-0.0-0.0-0.0-0.7","654","","f","","","","","","","","","","","","","key","f","16.665828282827857","768","428","f","true","img/H_ambi40.png","生人","same",""
"","","","","","html-keyboard-response","157","422612","0.0-9.0-0.0-0.0-0.0-1.7","null","<span style='color:GreenYellow; font-size: 70px;'>正确! </span>","null","","","","","","","","","","","","","","","","","","","","","","","feedback_test"
"","","","","","psychophysics","158","424345","0.0-9.0-0.0-0.0-0.0-0.8","726","","j","","","","","","","","","","","","","key","j","16.66565048543723","768","428","j","true","img/S_ambi40.png","朋友","same",""
"","","","","","html-keyboard-response","159","424853","0.0-9.0-0.0-0.0-0.0-1.8","null","<span style='color:GreenYellow; font-size: 70px;'>正确! </span>","null","","","","","","","","","","","","","","","","","","","","","","","feedback_test"
"","","","","","psychophysics","160","426652","0.0-9.0-0.0-0.0-0.0-0.9","784","","f","","","","","","","","","","","","","key","f","16.665093457944273","768","428","f","true","img/S_ambi40.png","自我","same",""
"","","","","","html-keyboard-response","161","427168","0.0-9.0-0.0-0.0-0.0-1.9","null","<span style='color:GreenYellow; font-size: 70px;'>正确! </span>","null","","","","","","","","","","","","","","","","","","","","","","","feedback_test"
"","","","","","psychophysics","162","428795","0.0-9.0-0.0-0.0-0.0-0.10","618","","f","","","","","","","","","","","","","key","f","16.665291666666842","768","428","f","true","img/S_ambi40.png","自我","same",""
"","","","","","html-keyboard-response","163","429307","0.0-9.0-0.0-0.0-0.0-1.10","null","<span style='color:GreenYellow; font-size: 70px;'>正确! </span>","null","","","","","","","","","","","","","","","","","","","","","","","feedback_test"
"","","","","","psychophysics","164","430941","0.0-9.0-0.0-0.0-0.0-0.11","622","","f","","","","","","","","","","","","","key","f","16.666360824742142","768","428","f","true","img/S_ambi40.png","生人","same",""
"","","","","","html-keyboard-response","165","431453","0.0-9.0-0.0-0.0-0.0-1.11","null","<span style='color:GreenYellow; font-size: 70px;'>正确! </span>","null","","","","","","","","","","","","","","","","","","","","","","","feedback_test"
"","","","","","psychophysics","166","433117","0.0-9.0-0.0-0.0-0.0-0.12","652","","f","","","","","","","","","","","","","key","f","16.664826530612153","768","428","f","true","img/H_ambi40.png","朋友","same",""
"","","","","","html-keyboard-response","167","433622","0.0-9.0-0.0-0.0-0.0-1.12","null","<span style='color:GreenYellow; font-size: 70px;'>正确! </span>","null","","","","","","","","","","","","","","","","","","","","","","","feedback_test"
"","","","","","psychophysics","168","435186","0.0-9.0-0.0-0.0-0.0-0.13","551","","j","","","","","","","","","","","","","key","j","16.66663440860187","768","428","j","true","img/H_ambi40.png","自我","same",""
"","","","","","html-keyboard-response","169","435697","0.0-9.0-0.0-0.0-0.0-1.13","null","<span style='color:GreenYellow; font-size: 70px;'>正确! </span>","null","","","","","","","","","","","","","","","","","","","","","","","feedback_test"
"","","","","","psychophysics","170","437317","0.0-9.0-0.0-0.0-0.0-0.14","614","","j","","","","","","","","","","","","","key","j","16.669041666666697","768","428","j","true","img/C_ambi40.png","生人","same",""
"","","","","","html-keyboard-response","171","437818","0.0-9.0-0.0-0.0-0.0-1.14","null","<span style='color:GreenYellow; font-size: 70px;'>正确! </span>","null","","","","","","","","","","","","","","","","","","","","","","","feedback_test"
"","","","","","psychophysics","172","439387","0.0-9.0-0.0-0.0-0.0-0.15","554","","f","","","","","","","","","","","","","key","f","16.666032258064426","768","428","j","false","img/S_ambi40.png","朋友","same",""
"","","","","","html-keyboard-response","173","439890","0.0-9.0-0.0-0.0-0.0-1.15","null","<span style='color:red; font-size: 70px;'>错误! </span>","null","","","","","","","","","","","","","","","","","","","","","","","feedback_test"
"","","","","","psychophysics","174","441452","0.0-9.0-0.0-0.0-0.0-0.16","551","","j","","","","","","","","","","","","","key","j","16.66554838709686","768","428","j","true","img/T_ambi40.png","をる","same",""
"","","","","","html-keyboard-response","175","441957","0.0-9.0-0.0-0.0-0.0-1.16","null","<span style='color:GreenYellow; font-size: 70px;'>正确! </span>","null","","","","","","","","","","","","","","","","","","","","","","","feedback_test"
"","","","","","psychophysics","176","443360","0.0-9.0-0.0-0.0-0.0-0.17","392","","j","","","","","","","","","","","","","key","j","16.665144578313193","768","428","j","true","img/T_ambi40.png","をる","same",""
"","","","","","html-keyboard-response","177","443863","0.0-9.0-0.0-0.0-0.0-1.17","null","<span style='color:GreenYellow; font-size: 70px;'>正确! </span>","null","","","","","","","","","","","","","","","","","","","","","","","feedback_test"
"","","","","","psychophysics","178","445507","0.0-9.0-0.0-0.0-0.0-0.18","640","","j","","","","","","","","","","","","","key","j","16.666663265306553","768","428","j","true","img/H_ambi40.png","自我","same",""
"","","","","","html-keyboard-response","179","446022","0.0-9.0-0.0-0.0-0.0-1.18","null","<span style='color:GreenYellow; font-size: 70px;'>正确! </span>","null","","","","","","","","","","","","","","","","","","","","","","","feedback_test"
"","","","","","psychophysics","180","447798","0.0-9.0-0.0-0.0-0.0-0.19","774","","f","","","","","","","","","","","","","key","f","16.66509523809544","768","428","f","true","img/H_ambi40.png","生人","same",""
"","","","","","html-keyboard-response","181","448304","0.0-9.0-0.0-0.0-0.0-1.19","null","<span style='color:GreenYellow; font-size: 70px;'>正确! </span>","null","","","","","","","","","","","","","","","","","","","","","","","feedback_test"
"","","","","","psychophysics","182","450077","0.0-9.0-0.0-0.0-0.0-0.20","764","","j","","","","","","","","","","","","","key","j","16.66497142857129","768","428","j","true","img/C_ambi40.png","生人","same",""
"","","","","","html-keyboard-response","183","450592","0.0-9.0-0.0-0.0-0.0-1.20","null","<span style='color:GreenYellow; font-size: 70px;'>正确! </span>","null","","","","","","","","","","","","","","","","","","","","","","","feedback_test"
"","","","","","psychophysics","184","451996","0.0-9.0-0.0-0.0-0.0-0.21","396","","j","","","","","","","","","","","","","key","j","16.664915662650888","768","428","j","true","img/C_ambi40.png","生人","same",""
"","","","","","html-keyboard-response","185","452510","0.0-9.0-0.0-0.0-0.0-1.21","null","<span style='color:GreenYellow; font-size: 70px;'>正确! </span>","null","","","","","","","","","","","","","","","","","","","","","","","feedback_test"
"","","","","","psychophysics","186","454024","0.0-9.0-0.0-0.0-0.0-0.22","507","","j","","","","","","","","","","","","","key","j","16.665044444444355","768","428","j","true","img/T_ambi40.png","をる","same",""
"","","","","","html-keyboard-response","187","454528","0.0-9.0-0.0-0.0-0.0-1.22","null","<span style='color:GreenYellow; font-size: 70px;'>正确! </span>","null","","","","","","","","","","","","","","","","","","","","","","","feedback_test"
"","","","","","psychophysics","188","456091","0.0-9.0-0.0-0.0-0.0-0.23","557","","j","","","","","","","","","","","","","key","j","16.66627956989224","768","428","f","false","img/C_ambi40.png","朋友","same",""
"","","","","","html-keyboard-response","189","456606","0.0-9.0-0.0-0.0-0.0-1.23","null","<span style='color:red; font-size: 70px;'>错误! </span>","null","","","","","","","","","","","","","","","","","","","","","","","feedback_test"
"","","","","","psychophysics","190","458140","0.0-9.0-0.0-0.0-0.0-0.24","523","","j","","","","","","","","","","","","","key","j","16.66504395604364","768","428","f","false","img/C_ambi40.png","自我","same",""
"","","","","","html-keyboard-response","191","458645","0.0-9.0-0.0-0.0-0.0-1.24","null","<span style='color:red; font-size: 70px;'>错误! </span>","null","","","","","","","","","","","","","","","","","","","","","","","feedback_test"
"","","","","","psychophysics","192","460152","0.0-9.0-0.0-0.0-0.0-0.25","506","","j","","","","","","","","","","","","","key","j","16.665533333333183","768","428","f","false","img/H_ambi40.png","朋友","same",""
"","","","","","html-keyboard-response","193","460663","0.0-9.0-0.0-0.0-0.0-1.25","null","<span style='color:red; font-size: 70px;'>错误! </span>","null","","","","","","","","","","","","","","","","","","","","","","","feedback_test"
"","","","","","psychophysics","194","462332","0.0-9.0-0.0-0.0-0.0-0.26","665","","j","","","","","","","","","","","","","key","j","16.66535353535349","768","428","j","true","img/H_ambi40.png","自我","same",""
"","","","","","html-keyboard-response","195","462845","0.0-9.0-0.0-0.0-0.0-1.26","null","<span style='color:GreenYellow; font-size: 70px;'>正确! </span>","null","","","","","","","","","","","","","","","","","","","","","","","feedback_test"
"","","","","","psychophysics","196","464506","0.0-9.0-0.0-0.0-0.0-0.27","656","","f","","","","","","","","","","","","","key","f","16.665343434343495","768","428","f","true","img/S_ambi40.png","自我","same",""
"","","","","","html-keyboard-response","197","465018","0.0-9.0-0.0-0.0-0.0-1.27","null","<span style='color:GreenYellow; font-size: 70px;'>正确! </span>","null","","","","","","","","","","","","","","","","","","","","","","","feedback_test"
"","","","","","psychophysics","198","466839","0.0-9.0-0.0-0.0-0.0-0.28","813","","f","","","","","","","","","","","","","key","f","16.66451851851835","768","428","f","true","img/S_ambi40.png","自我","same",""
"","","","","","html-keyboard-response","199","467354","0.0-9.0-0.0-0.0-0.0-1.28","null","<span style='color:GreenYellow; font-size: 70px;'>正确! </span>","null","","","","","","","","","","","","","","","","","","","","","","","feedback_test"
"","","","","","psychophysics","200","469006","0.0-9.0-0.0-0.0-0.0-0.29","648","","j","","","","","","","","","","","","","key","j","16.664459183673156","768","428","j","true","img/S_ambi40.png","朋友","same",""
"","","","","","html-keyboard-response","201","469514","0.0-9.0-0.0-0.0-0.0-1.29","null","<span style='color:GreenYellow; font-size: 70px;'>正确! </span>","null","","","","","","","","","","","","","","","","","","","","","","","feedback_test"
"","","","","","psychophysics","202","471121","0.0-9.0-0.0-0.0-0.0-0.30","604","","f","","","","","","","","","","","","","key","f","16.667489583333616","768","428","j","false","img/S_ambi40.png","朋友","same",""
"","","","","","html-keyboard-response","203","471625","0.0-9.0-0.0-0.0-0.0-1.30","null","<span style='color:red; font-size: 70px;'>错误! </span>","null","","","","","","","","","","","","","","","","","","","","","","","feedback_test"
"","","","","","psychophysics","204","473270","0.0-9.0-0.0-0.0-0.0-0.31","637","","j","","","","","","","","","","","","","key","j","16.667714285714748","768","428","j","true","img/T_ambi40.png","をる","same",""
"","","","","","html-keyboard-response","205","473780","0.0-9.0-0.0-0.0-0.0-1.31","null","<span style='color:GreenYellow; font-size: 70px;'>正确! </span>","null","","","","","","","","","","","","","","","","","","","","","","","feedback_test"
"","","","","","psychophysics","206","475632","0.0-9.0-0.0-0.0-0.0-0.32","850","","f","","","","","","","","","","","","","key","f","16.666590909091013","768","428","f","true","img/S_ambi40.png","生人","same",""
"","","","","","html-keyboard-response","207","476136","0.0-9.0-0.0-0.0-0.0-1.32","null","<span style='color:GreenYellow; font-size: 70px;'>正确! </span>","null","","","","","","","","","","","","","","","","","","","","","","","feedback_test"
"","","","","","psychophysics","208","477814","0.0-9.0-0.0-0.0-0.0-0.33","664","","f","","","","","","","","","","","","","key","f","16.6654444444446","768","428","f","true","img/H_ambi40.png","生人","same",""
"","","","","","html-keyboard-response","209","478324","0.0-9.0-0.0-0.0-0.0-1.33","null","<span style='color:GreenYellow; font-size: 70px;'>正确! </span>","null","","","","","","","","","","","","","","","","","","","","","","","feedback_test"
"","","","","","psychophysics","210","480063","0.0-9.0-0.0-0.0-0.0-0.34","730","","f","","","","","","","","","","","","","key","f","16.667427184465975","768","428","f","true","img/C_ambi40.png","朋友","same",""
"","","","","","html-keyboard-response","211","480572","0.0-9.0-0.0-0.0-0.0-1.34","null","<span style='color:GreenYellow; font-size: 70px;'>正确! </span>","null","","","","","","","","","","","","","","","","","","","","","","","feedback_test"
"","","","","","psychophysics","212","482059","0.0-9.0-0.0-0.0-0.0-0.35","476","","j","","","","","","","","","","","","","key","j","16.665068181818324","768","428","j","true","img/T_ambi40.png","をる","same",""
"","","","","","html-keyboard-response","213","482568","0.0-9.0-0.0-0.0-0.0-1.35","null","<span style='color:GreenYellow; font-size: 70px;'>正确! </span>","null","","","","","","","","","","","","","","","","","","","","","","","feedback_test"
"","","","","","psychophysics","214","484275","0.0-9.0-0.0-0.0-0.0-0.36","703","","f","","","","","","","","","","","","","key","f","16.662752475247185","768","428","f","true","img/H_ambi40.png","生人","same",""
"","","","","","html-keyboard-response","215","484787","0.0-9.0-0.0-0.0-0.0-1.36","null","<span style='color:GreenYellow; font-size: 70px;'>正确! </span>","null","","","","","","","","","","","","","","","","","","","","","","","feedback_test"
"","","","","","psychophysics","216","486317","0.0-9.0-0.0-0.0-0.0-0.37","517","","j","","","","","","","","","","","","","key","j","16.665175824176014","768","428","j","true","img/C_ambi40.png","生人","same",""
"","","","","","html-keyboard-response","217","486832","0.0-9.0-0.0-0.0-0.0-1.37","null","<span style='color:GreenYellow; font-size: 70px;'>正确! </span>","null","","","","","","","","","","","","","","","","","","","","","","","feedback_test"
"","","","","","psychophysics","218","488355","0.0-9.0-0.0-0.0-0.0-0.38","514","","j","","","","","","","","","","","","","key","j","16.666622222222053","768","428","j","true","img/T_ambi40.png","をる","same",""
"","","","","","html-keyboard-response","219","488867","0.0-9.0-0.0-0.0-0.0-1.38","null","<span style='color:GreenYellow; font-size: 70px;'>正确! </span>","null","","","","","","","","","","","","","","","","","","","","","","","feedback_test"
"","","","","","psychophysics","220","490738","0.0-9.0-0.0-0.0-0.0-0.39","866","","j","","","","","","","","","","","","","key","j","16.66482882882911","768","428","j","true","img/S_ambi40.png","朋友","same",""
"","","","","","html-keyboard-response","221","491242","0.0-9.0-0.0-0.0-0.0-1.39","null","<span style='color:GreenYellow; font-size: 70px;'>正确! </span>","null","","","","","","","","","","","","","","","","","","","","","","","feedback_test"
"","","","","","psychophysics","222","492812","0.0-9.0-0.0-0.0-0.0-0.40","563","","j","","","","","","","","","","","","","key","j","16.66406451612936","768","428","j","true","img/H_ambi40.png","自我","same",""
"","","","","","html-keyboard-response","223","493322","0.0-9.0-0.0-0.0-0.0-1.40","null","<span style='color:GreenYellow; font-size: 70px;'>正确! </span>","null","","","","","","","","","","","","","","","","","","","","","","","feedback_test"
"","","","","","psychophysics","224","494905","0.0-9.0-0.0-0.0-0.0-0.41","581","","j","","","","","","","","","","","","","key","j","16.66628723404249","768","428","j","true","img/S_ambi40.png","朋友","same",""
"","","","","","html-keyboard-response","225","495417","0.0-9.0-0.0-0.0-0.0-1.41","null","<span style='color:GreenYellow; font-size: 70px;'>正确! </span>","null","","","","","","","","","","","","","","","","","","","","","","","feedback_test"
"","","","","","psychophysics","226","497206","0.0-9.0-0.0-0.0-0.0-0.42","776","","f","","","","","","","","","","","","","key","f","16.665679245282796","768","428","f","true","img/C_ambi40.png","自我","same",""
"","","","","","html-keyboard-response","227","497708","0.0-9.0-0.0-0.0-0.0-1.42","null","<span style='color:GreenYellow; font-size: 70px;'>正确! </span>","null","","","","","","","","","","","","","","","","","","","","","","","feedback_test"
"","","","","","psychophysics","228","499330","0.0-9.0-0.0-0.0-0.0-0.43","614","","j","","","","","","","","","","","","","key","j","16.665833333333165","768","428","f","false","img/H_ambi40.png","生人","same",""
"","","","","","html-keyboard-response","229","499832","0.0-9.0-0.0-0.0-0.0-1.43","null","<span style='color:red; font-size: 70px;'>错误! </span>","null","","","","","","","","","","","","","","","","","","","","","","","feedback_test"
"","","","","","psychophysics","230","501538","0.0-9.0-0.0-0.0-0.0-0.44","692","","f","","","","","","","","","","","","","key","f","16.66581188118786","768","428","f","true","img/C_ambi40.png","朋友","same",""
"","","","","","html-keyboard-response","231","502041","0.0-9.0-0.0-0.0-0.0-1.44","null","<span style='color:GreenYellow; font-size: 70px;'>正确! </span>","null","","","","","","","","","","","","","","","","","","","","","","","feedback_test"
"","","","","","psychophysics","232","503552","0.0-9.0-0.0-0.0-0.0-0.45","504","","j","","","","","","","","","","","","","key","j","16.665977777777396","768","428","f","false","img/C_ambi40.png","朋友","same",""
"","","","","","html-keyboard-response","233","504065","0.0-9.0-0.0-0.0-0.0-1.45","null","<span style='color:red; font-size: 70px;'>错误! </span>","null","","","","","","","","","","","","","","","","","","","","","","","feedback_test"
"","","","","","psychophysics","234","505978","0.0-9.0-0.0-0.0-0.0-0.46","913","","j","","","","","","","","","","","","","key","j","16.665610619468318","768","428","j","true","img/H_ambi40.png","自我","same",""
"","","","","","html-keyboard-response","235","506487","0.0-9.0-0.0-0.0-0.0-1.46","null","<span style='color:GreenYellow; font-size: 70px;'>正确! </span>","null","","","","","","","","","","","","","","","","","","","","","","","feedback_test"
"","","","","","psychophysics","236","508073","0.0-9.0-0.0-0.0-0.0-0.47","576","","f","","","","","","","","","","","","","key","f","16.66614893617039","768","428","f","true","img/H_ambi40.png","朋友","same",""
"","","","","","html-keyboard-response","237","508581","0.0-9.0-0.0-0.0-0.0-1.47","null","<span style='color:GreenYellow; font-size: 70px;'>正确! </span>","null","","","","","","","","","","","","","","","","","","","","","","","feedback_test"
"","","","","","psychophysics","238","510275","0.0-9.0-0.0-0.0-0.0-0.48","693","","j","","","","","","","","","","","","","key","j","16.665359999999637","768","428","j","true","img/T_ambi40.png","をる","same",""
"","","","","","html-keyboard-response","239","510777","0.0-9.0-0.0-0.0-0.0-1.48","null","<span style='color:GreenYellow; font-size: 70px;'>正确! </span>","null","","","","","","","","","","","","","","","","","","","","","","","feedback_test"
"","","","","","psychophysics","240","512650","0.0-9.0-0.0-0.0-0.0-0.49","872","","f","","","","","","","","","","","","","key","f","16.667616071427933","768","428","j","false","img/C_ambi40.png","生人","same",""
"","","","","","html-keyboard-response","241","513152","0.0-9.0-0.0-0.0-0.0-1.49","null","<span style='color:red; font-size: 70px;'>错误! </span>","null","","","","","","","","","","","","","","","","","","","","","","","feedback_test"
"","","","","","psychophysics","242","514723","0.0-9.0-0.0-0.0-0.0-0.50","561","","j","","","","","","","","","","","","","key","j","16.666612903225758","768","428","f","false","img/S_ambi40.png","自我","same",""
"","","","","","html-keyboard-response","243","515225","0.0-9.0-0.0-0.0-0.0-1.50","null","<span style='color:red; font-size: 70px;'>错误! </span>","null","","","","","","","","","","","","","","","","","","","","","","","feedback_test"
"","","","","","psychophysics","244","517137","0.0-9.0-0.0-0.0-0.0-0.51","906","","f","","","","","","","","","","","","","key","f","16.667412280701427","768","428","f","true","img/S_ambi40.png","生人","same",""
"","","","","","html-keyboard-response","245","517641","0.0-9.0-0.0-0.0-0.0-1.51","null","<span style='color:GreenYellow; font-size: 70px;'>正确! </span>","null","","","","","","","","","","","","","","","","","","","","","","","feedback_test"
"","","","","","psychophysics","246","519289","0.0-9.0-0.0-0.0-0.0-0.52","642","","f","","","","","","","","","","","","","key","f","16.666867346938805","768","428","f","true","img/S_ambi40.png","自我","same",""
"","","","","","html-keyboard-response","247","519797","0.0-9.0-0.0-0.0-0.0-1.52","null","<span style='color:GreenYellow; font-size: 70px;'>正确! </span>","null","","","","","","","","","","","","","","","","","","","","","","","feedback_test"
"","","","","","psychophysics","248","521236","0.0-9.0-0.0-0.0-0.0-0.53","438","","j","","","","","","","","","","","","","key","j","16.665717647058944","768","428","j","true","img/T_ambi40.png","をる","same",""
"","","","","","html-keyboard-response","249","521749","0.0-9.0-0.0-0.0-0.0-1.53","null","<span style='color:GreenYellow; font-size: 70px;'>正确! </span>","null","","","","","","","","","","","","","","","","","","","","","","","feedback_test"
"","","","","","psychophysics","250","523235","0.0-9.0-0.0-0.0-0.0-0.54","473","","j","","","","","","","","","","","","","key","j","16.66568181818134","768","428","j","true","img/T_ambi40.png","をる","same",""
"","","","","","html-keyboard-response","251","523742","0.0-9.0-0.0-0.0-0.0-1.54","null","<span style='color:GreenYellow; font-size: 70px;'>正确! </span>","null","","","","","","","","","","","","","","","","","","","","","","","feedback_test"
"","","","","","psychophysics","252","525548","0.0-9.0-0.0-0.0-0.0-0.55","801","","j","","","","","","","","","","","","","key","j","16.66623148148129","768","428","j","true","img/C_ambi40.png","生人","same",""
"","","","","","html-keyboard-response","253","526054","0.0-9.0-0.0-0.0-0.0-1.55","null","<span style='color:GreenYellow; font-size: 70px;'>正确! </span>","null","","","","","","","","","","","","","","","","","","","","","","","feedback_test"
"","","","","","psychophysics","254","527674","0.0-9.0-0.0-0.0-0.0-0.56","618","","j","","","","","","","","","","","","","key","j","16.66586458333404","768","428","j","true","img/H_ambi40.png","自我","same",""
"","","","","","html-keyboard-response","255","528182","0.0-9.0-0.0-0.0-0.0-1.56","null","<span style='color:GreenYellow; font-size: 70px;'>正确! </span>","null","","","","","","","","","","","","","","","","","","","","","","","feedback_test"
"","","","","","psychophysics","256","530045","0.0-9.0-0.0-0.0-0.0-0.57","854","","f","","","","","","","","","","","","","key","f","16.665272727273194","768","428","f","true","img/S_ambi40.png","自我","same",""
"","","","","","html-keyboard-response","257","530547","0.0-9.0-0.0-0.0-0.0-1.57","null","<span style='color:GreenYellow; font-size: 70px;'>正确! </span>","null","","","","","","","","","","","","","","","","","","","","","","","feedback_test"
"","","","","","psychophysics","258","532425","0.0-9.0-0.0-0.0-0.0-0.58","863","","f","","","","","","","","","","","","","key","f","16.665765765765975","768","428","f","true","img/C_ambi40.png","自我","same",""
"","","","","","html-keyboard-response","259","532926","0.0-9.0-0.0-0.0-0.0-1.58","null","<span style='color:GreenYellow; font-size: 70px;'>正确! </span>","null","","","","","","","","","","","","","","","","","","","","","","","feedback_test"
"","","","","","psychophysics","260","534438","0.0-9.0-0.0-0.0-0.0-0.59","508","","j","","","","","","","","","","","","","key","j","16.66622222222181","768","428","j","true","img/T_ambi40.png","をる","same",""
"","","","","","html-keyboard-response","261","534952","0.0-9.0-0.0-0.0-0.0-1.59","null","<span style='color:GreenYellow; font-size: 70px;'>正确! </span>","null","","","","","","","","","","","","","","","","","","","","","","","feedback_test"
"","","","","","psychophysics","262","536690","0.0-9.0-0.0-0.0-0.0-0.60","727","","f","","","","","","","","","","","","","key","f","16.66692233009793","768","428","f","true","img/H_ambi40.png","生人","same",""
"","","","","","html-keyboard-response","263","537196","0.0-9.0-0.0-0.0-0.0-1.60","null","<span style='color:GreenYellow; font-size: 70px;'>正确! </span>","null","","","","","","","","","","","","","","","","","","","","","","","feedback_test"
"","","","","","psychophysics","264","538861","0.0-9.0-0.0-0.0-0.0-0.61","664","","f","","","","","","","","","","","","","key","f","16.665193877551154","768","428","f","true","img/C_ambi40.png","朋友","same",""
"","","","","","html-keyboard-response","265","539364","0.0-9.0-0.0-0.0-0.0-1.61","null","<span style='color:GreenYellow; font-size: 70px;'>正确! </span>","null","","","","","","","","","","","","","","","","","","","","","","","feedback_test"
"","","","","","psychophysics","266","541342","0.0-9.0-0.0-0.0-0.0-0.62","962","","f","","","","","","","","","","","","","key","f","16.66617948717923","768","428","f","true","img/H_ambi40.png","朋友","same",""
"","","","","","html-keyboard-response","267","541846","0.0-9.0-0.0-0.0-0.0-1.62","null","<span style='color:GreenYellow; font-size: 70px;'>正确! </span>","null","","","","","","","","","","","","","","","","","","","","","","","feedback_test"
"","","","","","psychophysics","268","543676","0.0-9.0-0.0-0.0-0.0-0.63","818","","f","","","","","","","","","","","","","key","f","16.665675925926298","768","428","f","true","img/S_ambi40.png","生人","same",""
"","","","","","html-keyboard-response","269","544188","0.0-9.0-0.0-0.0-0.0-1.63","null","<span style='color:GreenYellow; font-size: 70px;'>正确! </span>","null","","","","","","","","","","","","","","","","","","","","","","","feedback_test"
"","","","","","psychophysics","270","545864","0.0-9.0-0.0-0.0-0.0-0.64","667","","j","","","","","","","","","","","","","key","j","16.665650000000607","768","428","j","true","img/H_ambi40.png","自我","same",""
"","","","","","html-keyboard-response","271","546372","0.0-9.0-0.0-0.0-0.0-1.64","null","<span style='color:GreenYellow; font-size: 70px;'>正确! </span>","null","","","","","","","","","","","","","","","","","","","","","","","feedback_test"
"","","","","","psychophysics","272","548030","0.0-9.0-0.0-0.0-0.0-0.65","657","","j","","","","","","","","","","","","","key","j","16.667272727272117","768","428","j","true","img/S_ambi40.png","朋友","same",""
"","","","","","html-keyboard-response","273","548543","0.0-9.0-0.0-0.0-0.0-1.65","null","<span style='color:GreenYellow; font-size: 70px;'>正确! </span>","null","","","","","","","","","","","","","","","","","","","","","","","feedback_test"
"","","","","","psychophysics","274","550274","0.0-9.0-0.0-0.0-0.0-0.66","730","","f","","","","","","","","","","","","","key","f","16.665679611651072","768","428","f","true","img/C_ambi40.png","朋友","same",""
"","","","","","html-keyboard-response","275","550780","0.0-9.0-0.0-0.0-0.0-1.66","null","<span style='color:GreenYellow; font-size: 70px;'>正确! </span>","null","","","","","","","","","","","","","","","","","","","","","","","feedback_test"
"","","","","","psychophysics","276","552430","0.0-9.0-0.0-0.0-0.0-0.67","634","","f","","","","","","","","","","","","","key","f","16.665295918366386","768","428","j","false","img/S_ambi40.png","朋友","same",""
"","","","","","html-keyboard-response","277","552934","0.0-9.0-0.0-0.0-0.0-1.67","null","<span style='color:red; font-size: 70px;'>错误! </span>","null","","","","","","","","","","","","","","","","","","","","","","","feedback_test"
"","","","","","psychophysics","278","554630","0.0-9.0-0.0-0.0-0.0-0.68","684","","f","","","","","","","","","","","","","key","f","16.66543564356467","768","428","f","true","img/S_ambi40.png","自我","same",""
"","","","","","html-keyboard-response","279","555135","0.0-9.0-0.0-0.0-0.0-1.68","null","<span style='color:GreenYellow; font-size: 70px;'>正确! </span>","null","","","","","","","","","","","","","","","","","","","","","","","feedback_test"
"","","","","","psychophysics","280","556745","0.0-9.0-0.0-0.0-0.0-0.69","601","","f","","","","","","","","","","","","","key","f","16.66625263157889","768","428","f","true","img/H_ambi40.png","生人","same",""
"","","","","","html-keyboard-response","281","557252","0.0-9.0-0.0-0.0-0.0-1.69","null","<span style='color:GreenYellow; font-size: 70px;'>正确! </span>","null","","","","","","","","","","","","","","","","","","","","","","","feedback_test"
"","","","","","psychophysics","282","558534","0.0-9.0-0.0-0.0-0.0-0.70","272","","j","","","","","","","","","","","","","key","j","16.666394736841443","768","428","j","true","img/C_ambi40.png","生人","same",""
"","","","","","html-keyboard-response","283","559042","0.0-9.0-0.0-0.0-0.0-1.70","null","<span style='color:GreenYellow; font-size: 70px;'>正确! </span>","null","","","","","","","","","","","","","","","","","","","","","","","feedback_test"
"","","","","","psychophysics","284","560271","0.0-9.0-0.0-0.0-0.0-0.71","226","","j","","","","","","","","","","","","","key","j","16.667767123287312","768","428","j","true","img/T_ambi40.png","をる","same",""
"","","","","","html-keyboard-response","285","560772","0.0-9.0-0.0-0.0-0.0-1.71","null","<span style='color:GreenYellow; font-size: 70px;'>正确! </span>","null","","","","","","","","","","","","","","","","","","","","","","","feedback_test"
"","","","","","psychophysics","286","562375","0.0-9.0-0.0-0.0-0.0-0.72","596","","j","","","","","","","","","","","","","key","j","16.665378947368527","768","428","f","false","img/S_ambi40.png","自我","same",""
"","","","","","html-keyboard-response","287","562880","0.0-9.0-0.0-0.0-0.0-1.72","null","<span style='color:red; font-size: 70px;'>错误! </span>","null","","","","","","","","","","","","","","","","","","","","","","","feedback_test"
"","","","","","psychophysics","288","564387","0.0-9.0-0.0-0.0-0.0-0.73","505","","j","","","","","","","","","","","","","key","j","16.66540449438224","768","428","j","true","img/H_ambi40.png","自我","same",""
"","","","","","html-keyboard-response","289","564899","0.0-9.0-0.0-0.0-0.0-1.73","null","<span style='color:GreenYellow; font-size: 70px;'>正确! </span>","null","","","","","","","","","","","","","","","","","","","","","","","feedback_test"
"","","","","","psychophysics","290","566411","0.0-9.0-0.0-0.0-0.0-0.74","498","","j","","","","","","","","","","","","","key","j","16.664629213483167","768","428","j","true","img/C_ambi40.png","生人","same",""
"","","","","","html-keyboard-response","291","566913","0.0-9.0-0.0-0.0-0.0-1.74","null","<span style='color:GreenYellow; font-size: 70px;'>正确! </span>","null","","","","","","","","","","","","","","","","","","","","","","","feedback_test"
"","","","","","psychophysics","292","568465","0.0-9.0-0.0-0.0-0.0-0.75","542","","f","","","","","","","","","","","","","key","f","16.666836956522236","768","428","f","true","img/C_ambi40.png","自我","same",""
"","","","","","html-keyboard-response","293","568968","0.0-9.0-0.0-0.0-0.0-1.75","null","<span style='color:GreenYellow; font-size: 70px;'>正确! </span>","null","","","","","","","","","","","","","","","","","","","","","","","feedback_test"
"","","","","","psychophysics","294","570636","0.0-9.0-0.0-0.0-0.0-0.76","658","","f","","","","","","","","","","","","","key","f","16.666646464646682","768","428","f","true","img/H_ambi40.png","生人","same",""
"","","","","","html-keyboard-response","295","571141","0.0-9.0-0.0-0.0-0.0-1.76","null","<span style='color:GreenYellow; font-size: 70px;'>正确! </span>","null","","","","","","","","","","","","","","","","","","","","","","","feedback_test"
"","","","","","psychophysics","296","572694","0.0-9.0-0.0-0.0-0.0-0.77","549","","j","","","","","","","","","","","","","key","j","16.66718478260926","768","428","j","true","img/T_ambi40.png","をる","same",""
"","","","","","html-keyboard-response","297","573203","0.0-9.0-0.0-0.0-0.0-1.77","null","<span style='color:GreenYellow; font-size: 70px;'>正确! </span>","null","","","","","","","","","","","","","","","","","","","","","","","feedback_test"
"","","","","","psychophysics","298","574787","0.0-9.0-0.0-0.0-0.0-0.78","575","","j","","","","","","","","","","","","","key","j","16.666510638297893","768","428","j","true","img/S_ambi40.png","朋友","same",""
"","","","","","html-keyboard-response","299","575295","0.0-9.0-0.0-0.0-0.0-1.78","null","<span style='color:GreenYellow; font-size: 70px;'>正确! </span>","null","","","","","","","","","","","","","","","","","","","","","","","feedback_test"
"","","","","","psychophysics","300","577031","0.0-9.0-0.0-0.0-0.0-0.79","736","","f","","","","","","","","","","","","","key","f","16.665504854369132","768","428","f","true","img/H_ambi40.png","生人","same",""
"","","","","","html-keyboard-response","301","577533","0.0-9.0-0.0-0.0-0.0-1.79","null","<span style='color:GreenYellow; font-size: 70px;'>正确! </span>","null","","","","","","","","","","","","","","","","","","","","","","","feedback_test"
"","","","","","psychophysics","302","579216","0.0-9.0-0.0-0.0-0.0-0.80","671","","f","","","","","","","","","","","","","key","f","16.66761000000057","768","428","f","true","img/S_ambi40.png","生人","same",""
"","","","","","html-keyboard-response","303","579731","0.0-9.0-0.0-0.0-0.0-1.80","null","<span style='color:GreenYellow; font-size: 70px;'>正确! </span>","null","","","","","","","","","","","","","","","","","","","","","","","feedback_test"
"","","","","","psychophysics","304","581469","0.0-9.0-0.0-0.0-0.0-0.81","724","","f","","","","","","","","","","","","","key","f","16.66685436893191","768","428","f","true","img/S_ambi40.png","自我","same",""
"","","","","","html-keyboard-response","305","581982","0.0-9.0-0.0-0.0-0.0-1.81","null","<span style='color:GreenYellow; font-size: 70px;'>正确! </span>","null","","","","","","","","","","","","","","","","","","","","","","","feedback_test"
"","","","","","psychophysics","306","583529","0.0-9.0-0.0-0.0-0.0-0.82","535","","j","","","","","","","","","","","","","key","j","16.666250000000456","768","428","j","true","img/T_ambi40.png","をる","same",""
"","","","","","html-keyboard-response","307","584044","0.0-9.0-0.0-0.0-0.0-1.82","null","<span style='color:GreenYellow; font-size: 70px;'>正确! </span>","null","","","","","","","","","","","","","","","","","","","","","","","feedback_test"
"","","","","","psychophysics","308","585684","0.0-9.0-0.0-0.0-0.0-0.83","639","","j","","","","","","","","","","","","","key","j","16.666247422679703","768","428","j","true","img/S_ambi40.png","朋友","same",""
"","","","","","html-keyboard-response","309","586195","0.0-9.0-0.0-0.0-0.0-1.83","null","<span style='color:GreenYellow; font-size: 70px;'>正确! </span>","null","","","","","","","","","","","","","","","","","","","","","","","feedback_test"
"","","","","","psychophysics","310","587904","0.0-9.0-0.0-0.0-0.0-0.84","694","","j","","","","","","","","","","","","","key","j","16.665851485147833","768","428","j","true","img/H_ambi40.png","自我","same",""
"","","","","","html-keyboard-response","311","588410","0.0-9.0-0.0-0.0-0.0-1.84","null","<span style='color:GreenYellow; font-size: 70px;'>正确! </span>","null","","","","","","","","","","","","","","","","","","","","","","","feedback_test"
"","","","","","psychophysics","312","590035","0.0-9.0-0.0-0.0-0.0-0.85","624","","f","","","","","","","","","","","","","key","f","16.658489583332994","768","428","f","true","img/H_ambi40.png","朋友","same",""
"","","","","","html-keyboard-response","313","590540","0.0-9.0-0.0-0.0-0.0-1.85","null","<span style='color:GreenYellow; font-size: 70px;'>正确! </span>","null","","","","","","","","","","","","","","","","","","","","","","","feedback_test"
"","","","","","psychophysics","314","592152","0.0-9.0-0.0-0.0-0.0-0.86","608","","f","","","","","","","","","","","","","key","f","16.66607291666757","768","428","f","true","img/C_ambi40.png","朋友","same",""
"","","","","","html-keyboard-response","315","592665","0.0-9.0-0.0-0.0-0.0-1.86","null","<span style='color:GreenYellow; font-size: 70px;'>正确! </span>","null","","","","","","","","","","","","","","","","","","","","","","","feedback_test"
"","","","","","psychophysics","316","594127","0.0-9.0-0.0-0.0-0.0-0.87","450","","j","","","","","","","","","","","","","key","j","16.667558139535263","768","428","j","true","img/T_ambi40.png","をる","same",""
"","","","","","html-keyboard-response","317","594628","0.0-9.0-0.0-0.0-0.0-1.87","null","<span style='color:GreenYellow; font-size: 70px;'>正确! </span>","null","","","","","","","","","","","","","","","","","","","","","","","feedback_test"
"","","","","","psychophysics","318","596601","0.0-9.0-0.0-0.0-0.0-0.88","969","","j","","","","","","","","","","","","","key","j","16.66488034188007","768","428","j","true","img/C_ambi40.png","生人","same",""
"","","","","","html-keyboard-response","319","597115","0.0-9.0-0.0-0.0-0.0-1.88","null","<span style='color:GreenYellow; font-size: 70px;'>正确! </span>","null","","","","","","","","","","","","","","","","","","","","","","","feedback_test"
"","","","","","psychophysics","320","598731","0.0-9.0-0.0-0.0-0.0-0.89","603","","f","","","","","","","","","","","","","key","f","16.665333333333063","768","428","f","true","img/C_ambi40.png","朋友","same",""
"","","","","","html-keyboard-response","321","599237","0.0-9.0-0.0-0.0-0.0-1.89","null","<span style='color:GreenYellow; font-size: 70px;'>正确! </span>","null","","","","","","","","","","","","","","","","","","","","","","","feedback_test"
"","","","","","psychophysics","322","600695","0.0-9.0-0.0-0.0-0.0-0.90","451","","j","","","","","","","","","","","","","key","j","16.666517241378905","768","428","j","true","img/T_ambi40.png","をる","same",""
"","","","","","html-keyboard-response","323","601206","0.0-9.0-0.0-0.0-0.0-1.90","null","<span style='color:GreenYellow; font-size: 70px;'>正确! </span>","null","","","","","","","","","","","","","","","","","","","","","","","feedback_test"
"","","","","","psychophysics","324","602867","0.0-9.0-0.0-0.0-0.0-0.91","656","","f","","","","","","","","","","","","","key","f","16.667171717172188","768","428","f","true","img/C_ambi40.png","朋友","same",""
"","","","","","html-keyboard-response","325","603375","0.0-9.0-0.0-0.0-0.0-1.91","null","<span style='color:GreenYellow; font-size: 70px;'>正确! </span>","null","","","","","","","","","","","","","","","","","","","","","","","feedback_test"
"","","","","","psychophysics","326","605472","0.0-9.0-0.0-0.0-0.0-0.92","1095","","f","","","","","","","","","","","","","key","f","16.662112903225445","768","428","f","true","img/H_ambi40.png","生人","same",""
"","","","","","html-keyboard-response","327","605975","0.0-9.0-0.0-0.0-0.0-1.92","null","<span style='color:GreenYellow; font-size: 70px;'>正确! </span>","null","","","","","","","","","","","","","","","","","","","","","","","feedback_test"
"","","","","","psychophysics","328","607664","0.0-9.0-0.0-0.0-0.0-0.93","685","","f","","","","","","","","","","","","","key","f","16.666168316831065","768","428","f","true","img/S_ambi40.png","生人","same",""
"","","","","","html-keyboard-response","329","608173","0.0-9.0-0.0-0.0-0.0-1.93","null","<span style='color:GreenYellow; font-size: 70px;'>正确! </span>","null","","","","","","","","","","","","","","","","","","","","","","","feedback_test"
"","","","","","psychophysics","330","610218","0.0-9.0-0.0-0.0-0.0-0.94","1041","","f","","","","","","","","","","","","","key","f","16.66595081967248","768","428","f","true","img/C_ambi40.png","朋友","same",""
"","","","","","html-keyboard-response","331","610728","0.0-9.0-0.0-0.0-0.0-1.94","null","<span style='color:GreenYellow; font-size: 70px;'>正确! </span>","null","","","","","","","","","","","","","","","","","","","","","","","feedback_test"
"","","","","","psychophysics","332","612298","0.0-9.0-0.0-0.0-0.0-0.95","567","","j","","","","","","","","","","","","","key","j","16.66601075268706","768","428","j","true","img/T_ambi40.png","をる","same",""
"","","","","","html-keyboard-response","333","612806","0.0-9.0-0.0-0.0-0.0-1.95","null","<span style='color:GreenYellow; font-size: 70px;'>正确! </span>","null","","","","","","","","","","","","","","","","","","","","","","","feedback_test"
"","","","","","psychophysics","334","614182","0.0-9.0-0.0-0.0-0.0-0.96","373","","j","","","","","","","","","","","","","key","j","16.666573170731525","768","428","j","true","img/T_ambi40.png","をる","same",""
"","","","","","html-keyboard-response","335","614686","0.0-9.0-0.0-0.0-0.0-1.96","null","<span style='color:GreenYellow; font-size: 70px;'>正确! </span>","null","","","","","","","","","","","","","","","","","","","","","","","feedback_test"
"","","","","","psychophysics","336","616338","0.0-9.0-0.0-0.0-0.0-0.97","644","","j","","","","","","","","","","","","","key","j","16.66605102040743","768","428","f","false","img/C_ambi40.png","自我","same",""
"","","","","","html-keyboard-response","337","616844","0.0-9.0-0.0-0.0-0.0-1.97","null","<span style='color:red; font-size: 70px;'>错误! </span>","null","","","","","","","","","","","","","","","","","","","","","","","feedback_test"
"","","","","","psychophysics","338","618199","0.0-9.0-0.0-0.0-0.0-0.98","342","","j","","","","","","","","","","","","","key","j","16.664812499999243","768","428","j","true","img/H_ambi40.png","自我","same",""
"","","","","","html-keyboard-response","339","618702","0.0-9.0-0.0-0.0-0.0-1.98","null","<span style='color:GreenYellow; font-size: 70px;'>正确! </span>","null","","","","","","","","","","","","","","","","","","","","","","","feedback_test"
"","","","","","psychophysics","340","620250","0.0-9.0-0.0-0.0-0.0-0.99","541","","j","","","","","","","","","","","","","key","j","16.666228260870252","768","428","j","true","img/H_ambi40.png","自我","same",""
"","","","","","html-keyboard-response","341","620761","0.0-9.0-0.0-0.0-0.0-1.99","null","<span style='color:GreenYellow; font-size: 70px;'>正确! </span>","null","","","","","","","","","","","","","","","","","","","","","","","feedback_test"
"","","","","","psychophysics","342","622336","0.0-9.0-0.0-0.0-0.0-0.100","560","","j","","","","","","","","","","","","","key","j","16.665612903225828","768","428","j","true","img/S_ambi40.png","朋友","same",""
"","","","","","html-keyboard-response","343","622837","0.0-9.0-0.0-0.0-0.0-1.100","null","<span style='color:GreenYellow; font-size: 70px;'>正确! </span>","null","","","","","","","","","","","","","","","","","","","","","","","feedback_test"
"","","","","","psychophysics","344","624588","0.0-9.0-0.0-0.0-0.0-0.101","746","","f","","","","","","","","","","","","","key","f","16.664874999999974","768","428","f","true","img/S_ambi40.png","自我","same",""
"","","","","","html-keyboard-response","345","625102","0.0-9.0-0.0-0.0-0.0-1.101","null","<span style='color:GreenYellow; font-size: 70px;'>正确! </span>","null","","","","","","","","","","","","","","","","","","","","","","","feedback_test"
"","","","","","psychophysics","346","626625","0.0-9.0-0.0-0.0-0.0-0.102","516","","j","","","","","","","","","","","","","key","j","16.66309890109831","768","428","f","false","img/H_ambi40.png","生人","same",""
"","","","","","html-keyboard-response","347","627127","0.0-9.0-0.0-0.0-0.0-1.102","null","<span style='color:red; font-size: 70px;'>错误! </span>","null","","","","","","","","","","","","","","","","","","","","","","","feedback_test"
"","","","","","psychophysics","348","628562","0.0-9.0-0.0-0.0-0.0-0.103","420","","j","","","","","","","","","","","","","key","j","16.665470588234637","768","428","j","true","img/C_ambi40.png","生人","same",""
"","","","","","html-keyboard-response","349","629065","0.0-9.0-0.0-0.0-0.0-1.103","null","<span style='color:GreenYellow; font-size: 70px;'>正确! </span>","null","","","","","","","","","","","","","","","","","","","","","","","feedback_test"
"","","","","","psychophysics","350","630688","0.0-9.0-0.0-0.0-0.0-0.104","613","","f","","","","","","","","","","","","","key","f","16.666593750000175","768","428","f","true","img/H_ambi40.png","朋友","same",""
"","","","","","html-keyboard-response","351","631202","0.0-9.0-0.0-0.0-0.0-1.104","null","<span style='color:GreenYellow; font-size: 70px;'>正确! </span>","null","","","","","","","","","","","","","","","","","","","","","","","feedback_test"
"","","","","","psychophysics","352","632927","0.0-9.0-0.0-0.0-0.0-0.105","717","","j","","","","","","","","","","","","","key","j","16.665737864077634","768","428","j","true","img/S_ambi40.png","朋友","same",""
"","","","","","html-keyboard-response","353","633436","0.0-9.0-0.0-0.0-0.0-1.105","null","<span style='color:GreenYellow; font-size: 70px;'>正确! </span>","null","","","","","","","","","","","","","","","","","","","","","","","feedback_test"
"","","","","","psychophysics","354","635026","0.0-9.0-0.0-0.0-0.0-0.106","583","","f","","","","","","","","","","","","","key","f","16.66617894736854","768","428","f","true","img/S_ambi40.png","自我","same",""
"","","","","","html-keyboard-response","355","635528","0.0-9.0-0.0-0.0-0.0-1.106","null","<span style='color:GreenYellow; font-size: 70px;'>正确! </span>","null","","","","","","","","","","","","","","","","","","","","","","","feedback_test"
"","","","","","psychophysics","356","637041","0.0-9.0-0.0-0.0-0.0-0.107","510","","j","","","","","","","","","","","","","key","j","16.665606741572397","768","428","j","true","img/C_ambi40.png","生人","same",""
"","","","","","html-keyboard-response","357","637557","0.0-9.0-0.0-0.0-0.0-1.107","null","<span style='color:GreenYellow; font-size: 70px;'>正确! </span>","null","","","","","","","","","","","","","","","","","","","","","","","feedback_test"
"","","","","","html-keyboard-response","358","642125","0.0-9.0-0.0-0.0-1.0","4566","<style>.context{color:white; font-size: 35px; line-height:40px}</style>                          <div><p class='context'>您正确回答了86% 的试次。</p><p class='context'>您的平均反应时为643毫秒。</p><p class='context'>请按任意键进入休息</p></div>"," ","","","","","","","","","","","","","","","","","","","","","","",""
"","","","","","html-button-response","359","657690","0.0-9.0-0.0-0.0-2.0","15563","
                    <p>您当前还剩余5组实验</p>
                    <p>现在是休息时间，当您结束休息后，您可以点击 结束休息 按钮 继续</p>
                    <p>建议休息时间还剩余<span id=""iii"">60</span>秒</p>","0","","","","","","","","","","","","","","","","","","","","","","",""
"","","","","","psychophysics","360","659280","0.0-9.0-0.0-0.0-0.1-0.108","584","","f","","","","","","","","","","","","","key","f","16.665702127659586","768","428","f","true","img/C_ambi40.png","自我","same",""
"","","","","","html-keyboard-response","361","659788","0.0-9.0-0.0-0.0-0.1-1.108","null","<span style='color:GreenYellow; font-size: 70px;'>正确! </span>","null","","","","","","","","","","","","","","","","","","","","","","","feedback_test"
"","","","","","psychophysics","362","661208","0.0-9.0-0.0-0.0-0.1-0.109","418","","f","","","","","","","","","","","","","key","f","16.665988235294765","768","428","j","false","img/C_ambi40.png","生人","same",""
"","","","","","html-keyboard-response","363","661714","0.0-9.0-0.0-0.0-0.1-1.109","null","<span style='color:red; font-size: 70px;'>错误! </span>","null","","","","","","","","","","","","","","","","","","","","","","","feedback_test"
"","","","","","psychophysics","364","663246","0.0-9.0-0.0-0.0-0.1-0.110","531","","f","","","","","","","","","","","","","key","f","16.666263736263787","768","428","f","true","img/C_ambi40.png","朋友","same",""
"","","","","","html-keyboard-response","365","663761","0.0-9.0-0.0-0.0-0.1-1.110","null","<span style='color:GreenYellow; font-size: 70px;'>正确! </span>","null","","","","","","","","","","","","","","","","","","","","","","","feedback_test"
"","","","","","psychophysics","366","665259","0.0-9.0-0.0-0.0-0.1-0.111","485","","j","","","","","","","","","","","","","key","j","16.666865168539598","768","428","f","false","img/S_ambi40.png","自我","same",""
"","","","","","html-keyboard-response","367","665772","0.0-9.0-0.0-0.0-0.1-1.111","null","<span style='color:red; font-size: 70px;'>错误! </span>","null","","","","","","","","","","","","","","","","","","","","","","","feedback_test"
"","","","","","psychophysics","368","667313","0.0-9.0-0.0-0.0-0.1-0.112","539","","j","","","","","","","","","","","","","key","j","16.656549450548642","768","428","j","true","img/S_ambi40.png","朋友","same",""
"","","","","","html-keyboard-response","369","667815","0.0-9.0-0.0-0.0-0.1-1.112","null","<span style='color:GreenYellow; font-size: 70px;'>正确! </span>","null","","","","","","","","","","","","","","","","","","","","","","","feedback_test"
"","","","","","psychophysics","370","669393","0.0-9.0-0.0-0.0-0.1-0.113","570","","f","","","","","","","","","","","","","key","f","16.666797872340464","768","428","j","false","img/C_ambi40.png","生人","same",""
"","","","","","html-keyboard-response","371","669905","0.0-9.0-0.0-0.0-0.1-1.113","null","<span style='color:red; font-size: 70px;'>错误! </span>","null","","","","","","","","","","","","","","","","","","","","","","","feedback_test"
"","","","","","psychophysics","372","671683","0.0-9.0-0.0-0.0-0.1-0.114","776","","f","","","","","","","","","","","","","key","f","16.659857142856346","768","428","f","true","img/H_ambi40.png","朋友","same",""
"","","","","","html-keyboard-response","373","672185","0.0-9.0-0.0-0.0-0.1-1.114","null","<span style='color:GreenYellow; font-size: 70px;'>正确! </span>","null","","","","","","","","","","","","","","","","","","","","","","","feedback_test"
"","","","","","psychophysics","374","673816","0.0-9.0-0.0-0.0-0.1-0.115","626","","j","","","","","","","","","","","","","key","j","16.666628865979987","768","428","j","true","img/H_ambi40.png","自我","same",""
"","","","","","html-keyboard-response","375","674321","0.0-9.0-0.0-0.0-0.1-1.115","null","<span style='color:GreenYellow; font-size: 70px;'>正确! </span>","null","","","","","","","","","","","","","","","","","","","","","","","feedback_test"
"","","","","","psychophysics","376","676002","0.0-9.0-0.0-0.0-0.1-0.116","679","","f","","","","","","","","","","","","","key","f","16.66609999999986","768","428","f","true","img/H_ambi40.png","生人","same",""
"","","","","","html-keyboard-response","377","676505","0.0-9.0-0.0-0.0-0.1-1.116","null","<span style='color:GreenYellow; font-size: 70px;'>正确! </span>","null","","","","","","","","","","","","","","","","","","","","","","","feedback_test"
"","","","","","psychophysics","378","678012","0.0-9.0-0.0-0.0-0.1-0.117","505","","j","","","","","","","","","","","","","key","j","16.657629213482927","768","428","j","true","img/T_ambi40.png","をる","same",""
"","","","","","html-keyboard-response","379","678518","0.0-9.0-0.0-0.0-0.1-1.117","null","<span style='color:GreenYellow; font-size: 70px;'>正确! </span>","null","","","","","","","","","","","","","","","","","","","","","","","feedback_test"
"","","","","","psychophysics","380","679900","0.0-9.0-0.0-0.0-0.1-0.118","377","","j","","","","","","","","","","","","","key","j","16.665134146341078","768","428","j","true","img/T_ambi40.png","をる","same",""
"","","","","","html-keyboard-response","381","680409","0.0-9.0-0.0-0.0-0.1-1.118","null","<span style='color:GreenYellow; font-size: 70px;'>正确! </span>","null","","","","","","","","","","","","","","","","","","","","","","","feedback_test"
"","","","","","psychophysics","382","682465","0.0-9.0-0.0-0.0-0.1-0.119","1043","","f","","","","","","","","","","","","","key","f","16.665721311475355","768","428","f","true","img/C_ambi40.png","朋友","same",""
"","","","","","html-keyboard-response","383","682980","0.0-9.0-0.0-0.0-0.1-1.119","null","<span style='color:GreenYellow; font-size: 70px;'>正确! </span>","null","","","","","","","","","","","","","","","","","","","","","","","feedback_test"
"","","","","","psychophysics","384","684591","0.0-9.0-0.0-0.0-0.1-0.120","610","","f","","","","","","","","","","","","","key","f","16.666729166666","768","428","f","true","img/H_ambi40.png","生人","same",""
"","","","","","html-keyboard-response","385","685093","0.0-9.0-0.0-0.0-0.1-1.120","null","<span style='color:GreenYellow; font-size: 70px;'>正确! </span>","null","","","","","","","","","","","","","","","","","","","","","","","feedback_test"
"","","","","","psychophysics","386","686668","0.0-9.0-0.0-0.0-0.1-0.121","562","","j","","","","","","","","","","","","","key","j","16.665602150537143","768","428","j","true","img/S_ambi40.png","朋友","same",""
"","","","","","html-keyboard-response","387","687183","0.0-9.0-0.0-0.0-0.1-1.121","null","<span style='color:GreenYellow; font-size: 70px;'>正确! </span>","null","","","","","","","","","","","","","","","","","","","","","","","feedback_test"
"","","","","","psychophysics","388","688756","0.0-9.0-0.0-0.0-0.1-0.122","566","","f","","","","","","","","","","","","","key","f","16.666741935483692","768","428","f","true","img/S_ambi40.png","自我","same",""
"","","","","","html-keyboard-response","389","689259","0.0-9.0-0.0-0.0-0.1-1.122","null","<span style='color:GreenYellow; font-size: 70px;'>正确! </span>","null","","","","","","","","","","","","","","","","","","","","","","","feedback_test"
"","","","","","psychophysics","390","690903","0.0-9.0-0.0-0.0-0.1-0.123","632","","j","","","","","","","","","","","","","key","j","16.66500000000005","768","428","j","true","img/H_ambi40.png","自我","same",""
"","","","","","html-keyboard-response","391","691410","0.0-9.0-0.0-0.0-0.1-1.123","null","<span style='color:GreenYellow; font-size: 70px;'>正确! </span>","null","","","","","","","","","","","","","","","","","","","","","","","feedback_test"
"","","","","","psychophysics","392","692978","0.0-9.0-0.0-0.0-0.1-0.124","556","","j","","","","","","","","","","","","","key","j","16.666150537633676","768","428","j","true","img/T_ambi40.png","をる","same",""
"","","","","","html-keyboard-response","393","693482","0.0-9.0-0.0-0.0-0.1-1.124","null","<span style='color:GreenYellow; font-size: 70px;'>正确! </span>","null","","","","","","","","","","","","","","","","","","","","","","","feedback_test"
"","","","","","psychophysics","394","695139","0.0-9.0-0.0-0.0-0.1-0.125","649","","f","","","","","","","","","","","","","key","f","16.665418367347044","768","428","f","true","img/S_ambi40.png","生人","same",""
"","","","","","html-keyboard-response","395","695649","0.0-9.0-0.0-0.0-0.1-1.125","null","<span style='color:GreenYellow; font-size: 70px;'>正确! </span>","null","","","","","","","","","","","","","","","","","","","","","","","feedback_test"
"","","","","","psychophysics","396","697453","0.0-9.0-0.0-0.0-0.1-0.126","796","","j","","","","","","","","","","","","","key","j","16.665093457944273","768","428","j","true","img/H_ambi40.png","自我","same",""
"","","","","","html-keyboard-response","397","697955","0.0-9.0-0.0-0.0-0.1-1.126","null","<span style='color:GreenYellow; font-size: 70px;'>正确! </span>","null","","","","","","","","","","","","","","","","","","","","","","","feedback_test"
"","","","","","psychophysics","398","699779","0.0-9.0-0.0-0.0-0.1-0.127","823","","f","","","","","","","","","","","","","key","f","16.656564814814676","768","428","f","true","img/C_ambi40.png","朋友","same",""
"","","","","","html-keyboard-response","399","700280","0.0-9.0-0.0-0.0-0.1-1.127","null","<span style='color:GreenYellow; font-size: 70px;'>正确! </span>","null","","","","","","","","","","","","","","","","","","","","","","","feedback_test"
"","","","","","psychophysics","400","701644","0.0-9.0-0.0-0.0-0.1-0.128","355","","j","","","","","","","","","","","","","key","j","16.66558024691372","768","428","j","true","img/T_ambi40.png","をる","same",""
"","","","","","html-keyboard-response","401","702152","0.0-9.0-0.0-0.0-0.1-1.128","null","<span style='color:GreenYellow; font-size: 70px;'>正确! </span>","null","","","","","","","","","","","","","","","","","","","","","","","feedback_test"
"","","","","","psychophysics","402","703542","0.0-9.0-0.0-0.0-0.1-0.129","385","","j","","","","","","","","","","","","","key","j","16.666795180723387","768","428","j","true","img/T_ambi40.png","をる","same",""
"","","","","","html-keyboard-response","403","704044","0.0-9.0-0.0-0.0-0.1-1.129","null","<span style='color:GreenYellow; font-size: 70px;'>正确! </span>","null","","","","","","","","","","","","","","","","","","","","","","","feedback_test"
"","","","","","psychophysics","404","705844","0.0-9.0-0.0-0.0-0.1-0.130","788","","f","","","","","","","","","","","","","key","f","16.666364485982186","768","428","f","true","img/S_ambi40.png","生人","same",""
"","","","","","html-keyboard-response","405","706352","0.0-9.0-0.0-0.0-0.1-1.130","null","<span style='color:GreenYellow; font-size: 70px;'>正确! </span>","null","","","","","","","","","","","","","","","","","","","","","","","feedback_test"
"","","","","","psychophysics","406","707853","0.0-9.0-0.0-0.0-0.1-0.131","500","","j","","","","","","","","","","","","","key","j","16.66620224719119","768","428","j","true","img/T_ambi40.png","をる","same",""
"","","","","","html-keyboard-response","407","708367","0.0-9.0-0.0-0.0-0.1-1.131","null","<span style='color:GreenYellow; font-size: 70px;'>正确! </span>","null","","","","","","","","","","","","","","","","","","","","","","","feedback_test"
"","","","","","psychophysics","408","710091","0.0-9.0-0.0-0.0-0.1-0.132","718","","f","","","","","","","","","","","","","key","f","16.665650485436096","768","428","f","true","img/C_ambi40.png","自我","same",""
"","","","","","html-keyboard-response","409","710607","0.0-9.0-0.0-0.0-0.1-1.132","null","<span style='color:GreenYellow; font-size: 70px;'>正确! </span>","null","","","","","","","","","","","","","","","","","","","","","","","feedback_test"
"","","","","","psychophysics","410","712504","0.0-9.0-0.0-0.0-0.1-0.133","885","","f","","","","","","","","","","","","","key","f","16.664732142856728","768","428","f","true","img/H_ambi40.png","朋友","same",""
"","","","","","html-keyboard-response","411","713007","0.0-9.0-0.0-0.0-0.1-1.133","null","<span style='color:GreenYellow; font-size: 70px;'>正确! </span>","null","","","","","","","","","","","","","","","","","","","","","","","feedback_test"
"","","","","","psychophysics","412","714488","0.0-9.0-0.0-0.0-0.1-0.134","470","","j","","","","","","","","","","","","","key","j","16.666528735632323","768","428","j","true","img/S_ambi40.png","朋友","same",""
"","","","","","html-keyboard-response","413","715002","0.0-9.0-0.0-0.0-0.1-1.134","null","<span style='color:GreenYellow; font-size: 70px;'>正确! </span>","null","","","","","","","","","","","","","","","","","","","","","","","feedback_test"
"","","","","","psychophysics","414","716486","0.0-9.0-0.0-0.0-0.1-0.135","480","","f","","","","","","","","","","","","","key","f","16.665500000000147","768","428","f","true","img/H_ambi40.png","生人","same",""
"","","","","","html-keyboard-response","415","717000","0.0-9.0-0.0-0.0-0.1-1.135","null","<span style='color:GreenYellow; font-size: 70px;'>正确! </span>","null","","","","","","","","","","","","","","","","","","","","","","","feedback_test"
"","","","","","psychophysics","416","718568","0.0-9.0-0.0-0.0-0.1-0.136","563","","f","","","","","","","","","","","","","key","f","16.665139784946316","768","428","f","true","img/S_ambi40.png","自我","same",""
"","","","","","html-keyboard-response","417","719081","0.0-9.0-0.0-0.0-0.1-1.136","null","<span style='color:GreenYellow; font-size: 70px;'>正确! </span>","null","","","","","","","","","","","","","","","","","","","","","","","feedback_test"
"","","","","","psychophysics","418","720559","0.0-9.0-0.0-0.0-0.1-0.137","470","","f","","","","","","","","","","","","","key","f","16.665227272727694","768","428","f","true","img/S_ambi40.png","自我","same",""
"","","","","","html-keyboard-response","419","721060","0.0-9.0-0.0-0.0-0.1-1.137","null","<span style='color:GreenYellow; font-size: 70px;'>正确! </span>","null","","","","","","","","","","","","","","","","","","","","","","","feedback_test"
"","","","","","psychophysics","420","722390","0.0-9.0-0.0-0.0-0.1-0.138","318","","j","","","","","","","","","","","","","key","j","16.665607594936507","768","428","f","false","img/H_ambi40.png","生人","same",""
"","","","","","html-keyboard-response","421","722899","0.0-9.0-0.0-0.0-0.1-1.138","null","<span style='color:red; font-size: 70px;'>错误! </span>","null","","","","","","","","","","","","","","","","","","","","","","","feedback_test"
"","","","","","psychophysics","422","724073","0.0-9.0-0.0-0.0-0.1-0.139","168","","j","","","","","","","","","","","","","key","j","16.66645714285717","768","428","f","false","img/C_ambi40.png","朋友","same",""
"","","","","","html-keyboard-response","423","724581","0.0-9.0-0.0-0.0-0.1-1.139","null","<span style='color:yellow; font-size: 70px;'>过快! </span>","null","","","","","","","","","","","","","","","","","","","","","","","feedback_test"
"","","","","","psychophysics","424","725980","0.0-9.0-0.0-0.0-0.1-0.140","392","","j","","","","","","","","","","","","","key","j","16.6679397590363","768","428","j","true","img/C_ambi40.png","生人","same",""
"","","","","","html-keyboard-response","425","726488","0.0-9.0-0.0-0.0-0.1-1.140","null","<span style='color:GreenYellow; font-size: 70px;'>正确! </span>","null","","","","","","","","","","","","","","","","","","","","","","","feedback_test"
"","","","","","psychophysics","426","728149","0.0-9.0-0.0-0.0-0.1-0.141","659","","j","","","","","","","","","","","","","key","j","16.667469387755215","768","428","j","true","img/S_ambi40.png","朋友","same",""
"","","","","","html-keyboard-response","427","728655","0.0-9.0-0.0-0.0-0.1-1.141","null","<span style='color:GreenYellow; font-size: 70px;'>正确! </span>","null","","","","","","","","","","","","","","","","","","","","","","","feedback_test"
"","","","","","psychophysics","428","730294","0.0-9.0-0.0-0.0-0.1-0.142","624","","f","","","","","","","","","","","","","key","f","16.665556701031015","768","428","j","false","img/H_ambi40.png","自我","same",""
"","","","","","html-keyboard-response","429","730808","0.0-9.0-0.0-0.0-0.1-1.142","null","<span style='color:red; font-size: 70px;'>错误! </span>","null","","","","","","","","","","","","","","","","","","","","","","","feedback_test"
"","","","","","psychophysics","430","732426","0.0-9.0-0.0-0.0-0.1-0.143","616","","j","","","","","","","","","","","","","key","j","16.667156250000215","768","428","j","true","img/C_ambi40.png","生人","same",""
"","","","","","html-keyboard-response","431","732932","0.0-9.0-0.0-0.0-0.1-1.143","null","<span style='color:GreenYellow; font-size: 70px;'>正确! </span>","null","","","","","","","","","","","","","","","","","","","","","","","feedback_test"
"","","","","","psychophysics","432","734374","0.0-9.0-0.0-0.0-0.1-0.144","436","","f","","","","","","","","","","","","","key","f","16.66651162790638","768","428","j","false","img/H_ambi40.png","自我","same",""
"","","","","","html-keyboard-response","433","734883","0.0-9.0-0.0-0.0-0.1-1.144","null","<span style='color:red; font-size: 70px;'>错误! </span>","null","","","","","","","","","","","","","","","","","","","","","","","feedback_test"
"","","","","","psychophysics","434","736368","0.0-9.0-0.0-0.0-0.1-0.145","480","","f","","","","","","","","","","","","","key","f","16.666159090908796","768","428","f","true","img/C_ambi40.png","自我","same",""
"","","","","","html-keyboard-response","435","736880","0.0-9.0-0.0-0.0-0.1-1.145","null","<span style='color:GreenYellow; font-size: 70px;'>正确! </span>","null","","","","","","","","","","","","","","","","","","","","","","","feedback_test"
"","","","","","psychophysics","436","738281","0.0-9.0-0.0-0.0-0.1-0.146","393","","j","","","","","","","","","","","","","key","j","16.66414457831268","768","428","j","true","img/T_ambi40.png","をる","same",""
"","","","","","html-keyboard-response","437","738795","0.0-9.0-0.0-0.0-0.1-1.146","null","<span style='color:GreenYellow; font-size: 70px;'>正确! </span>","null","","","","","","","","","","","","","","","","","","","","","","","feedback_test"
"","","","","","psychophysics","438","740133","0.0-9.0-0.0-0.0-0.1-0.147","330","","j","","","","","","","","","","","","","key","j","16.66839240506421","768","428","f","false","img/S_ambi40.png","自我","same",""
"","","","","","html-keyboard-response","439","740634","0.0-9.0-0.0-0.0-0.1-1.147","null","<span style='color:red; font-size: 70px;'>错误! </span>","null","","","","","","","","","","","","","","","","","","","","","","","feedback_test"
"","","","","","psychophysics","440","742172","0.0-9.0-0.0-0.0-0.1-0.148","535","","j","","","","","","","","","","","","","key","j","16.666228260868987","768","428","f","false","img/S_ambi40.png","自我","same",""
"","","","","","html-keyboard-response","441","742679","0.0-9.0-0.0-0.0-0.1-1.148","null","<span style='color:red; font-size: 70px;'>错误! </span>","null","","","","","","","","","","","","","","","","","","","","","","","feedback_test"
"","","","","","psychophysics","442","744118","0.0-9.0-0.0-0.0-0.1-0.149","431","","j","","","","","","","","","","","","","key","j","16.665482352941076","768","428","f","false","img/H_ambi40.png","生人","same",""
"","","","","","html-keyboard-response","443","744623","0.0-9.0-0.0-0.0-0.1-1.149","null","<span style='color:red; font-size: 70px;'>错误! </span>","null","","","","","","","","","","","","","","","","","","","","","","","feedback_test"
