"success","timeout","failed_images","failed_audio","failed_video","trial_type","trial_index","time_elapsed","internal_node_id","rt","stimulus","response","value","item_width_mm","item_height_mm","item_width_px","px2mm","view_dist_mm","item_width_deg","px2deg","scale_factor","win_width_deg","win_height_deg","view_history","response_type","key_press","avg_frame_time","center_x","center_y","correct_response","correct","Image","word","condition","screen_id"
"true","false","[]","[]","[]","preload","0","1","0.0-0.0","","","","","","","","","","","","","","","","","","","","","","","","","",""
"","","","","","html-keyboard-response","1","2945","0.0-1.0","2943","
     <p>您好，欢迎参加本次实验。</p>
     <p>为充分保障您的权利，请确保您已经知晓并同意《参与实验同意书》以及《数据公开知情同意书》。</p>
     <p>如果您未见过上述内容，请咨询实验员。</p>
     <p>如果您选择继续实验，则表示您已经清楚两份知情同意书的内容并同意。</p>
     <p> <div style = ""color: green""><按任意键至下页></div> </p>
     "," ","","","","","","","","","","","","","","","","","","","","","","",""
"","","","","","html-keyboard-response","2","4829","0.0-2.0","1884","
     <p>本实验首先需要您填写一些基本个人信息。</p>
     <p> <div style = ""color: green""><按任意键至下页></div></p>
     "," ","","","","","","","","","","","","","","","","","","","","","","",""
"","","","","","call-function","3","4830","0.0-3.0-0.0","","","","","","","","","","","","","","","","","","","","","","","","","",""
"","","","","","survey-html-form","4","8202","0.0-3.0-1.0","3372","","{""Q0"":""28""}","","","","","","","","","","","","","","","","","","","","","","",""
"","","","","","html-button-response","5","9066","0.0-3.0-2.0","863","<p style = 'color : white'>您的性别</p>","0","","","","","","","","","","","","","","","","","","","","","","",""
"","","","","","survey-html-form","6","11998","0.0-3.0-3.0","2931","","{""Q0"":""2002""}","","","","","","","","","","","","","","","","","","","","","","",""
"","","","","","survey-html-form","7","13616","0.0-3.0-4.0","1617","","{""Q0"":""5""}","","","","","","","","","","","","","","","","","","","","","","",""
"","","","","","virtual-chinrest","8","71251","0.0-4.0","57635","","","","85.6","53.98","363.94660183107226","4.250674051920157","672.89","7.278932036621446","50","0.7198858257827853","38.4","19.38","","","","","","","","","","","",""
"true","","","","","fullscreen","9","74754","0.0-5.0","","","","","","","","","","","","","","","","","","","","","","","","","",""
"","","","","","instructions","10","115594","0.0-6.0","40839","","","","","","","","","","","","","","[{""page_index"":0,""viewing_time"":2107},{""page_index"":1,""viewing_time"":31940},{""page_index"":2,""viewing_time"":4524},{""page_index"":3,""viewing_time"":2268}]","","","","","","","","","","",""
"","","","","","psychophysics","11","117634","0.0-7.0-0.0-0.0","1027","","j","","","","","","","","","","","","","key","j","16.667644628099204","960","536","f","false","img/H_ambi40.png","朋友","prac",""
"","","","","","html-keyboard-response","12","118145","0.0-7.0-0.0-1.0","null","<span style='color:red; font-size: 70px;'>错误! </span>","null","","","","","","","","","","","","","","","","","","","","","","","feedback_test"
"","","","","","psychophysics","13","119808","0.0-7.0-0.0-0.1","650","","f","","","","","","","","","","","","","key","f","16.665838383838288","960","536","j","false","img/T_ambi40.png","をる","prac",""
"","","","","","html-keyboard-response","14","120315","0.0-7.0-0.0-1.1","null","<span style='color:red; font-size: 70px;'>错误! </span>","null","","","","","","","","","","","","","","","","","","","","","","","feedback_test"
"","","","","","psychophysics","15","121872","0.0-7.0-0.0-0.2","548","","f","","","","","","","","","","","","","key","f","16.666695652173868","960","536","j","false","img/T_ambi40.png","をる","prac",""
"","","","","","html-keyboard-response","16","122380","0.0-7.0-0.0-1.2","null","<span style='color:red; font-size: 70px;'>错误! </span>","null","","","","","","","","","","","","","","","","","","","","","","","feedback_test"
"","","","","","psychophysics","17","123726","0.0-7.0-0.0-0.3","342","","j","","","","","","","","","","","","","key","j","16.66627499999995","960","536","j","true","img/T_ambi40.png","をる","prac",""
"","","","","","html-keyboard-response","18","124238","0.0-7.0-0.0-1.3","null","<span style='color:GreenYellow; font-size: 70px;'>正确! </span>","null","","","","","","","","","","","","","","","","","","","","","","","feedback_test"
"","","","","","psychophysics","19","125939","0.0-7.0-0.0-0.4","698","","f","","","","","","","","","","","","","key","f","16.66689108910891","960","536","j","false","img/T_ambi40.png","をる","prac",""
"","","","","","html-keyboard-response","20","126440","0.0-7.0-0.0-1.4","null","<span style='color:red; font-size: 70px;'>错误! </span>","null","","","","","","","","","","","","","","","","","","","","","","","feedback_test"
"","","","","","psychophysics","21","128144","0.0-7.0-0.0-0.5","703","","j","","","","","","","","","","","","","key","j","16.65765346534663","960","536","f","false","img/C_ambi40.png","生人","prac",""
"","","","","","html-keyboard-response","22","128647","0.0-7.0-0.0-1.5","null","<span style='color:red; font-size: 70px;'>错误! </span>","null","","","","","","","","","","","","","","","","","","","","","","","feedback_test"
"","","","","","psychophysics","23","130438","0.0-7.0-0.0-0.6","782","","f","","","","","","","","","","","","","key","f","16.6676320754717","960","536","j","false","img/H_ambi40.png","生人","prac",""
"","","","","","html-keyboard-response","24","130951","0.0-7.0-0.0-1.6","null","<span style='color:red; font-size: 70px;'>错误! </span>","null","","","","","","","","","","","","","","","","","","","","","","","feedback_test"
"","","","","","psychophysics","25","132294","0.0-7.0-0.0-0.7","336","","f","","","","","","","","","","","","","key","f","16.66813750000001","960","536","j","false","img/C_ambi40.png","自我","prac",""
"","","","","","html-keyboard-response","26","132797","0.0-7.0-0.0-1.7","null","<span style='color:red; font-size: 70px;'>错误! </span>","null","","","","","","","","","","","","","","","","","","","","","","","feedback_test"
"","","","","","psychophysics","27","134351","0.0-7.0-0.0-0.8","546","","j","","","","","","","","","","","","","key","j","16.6674239130437","960","536","j","true","img/H_ambi40.png","自我","prac",""
"","","","","","html-keyboard-response","28","134864","0.0-7.0-0.0-1.8","null","<span style='color:GreenYellow; font-size: 70px;'>正确! </span>","null","","","","","","","","","","","","","","","","","","","","","","","feedback_test"
"","","","","","psychophysics","29","136795","0.0-7.0-0.0-0.9","921","","f","","","","","","","","","","","","","key","f","16.66659130434779","960","536","j","false","img/S_ambi40.png","朋友","prac",""
"","","","","","html-keyboard-response","30","137306","0.0-7.0-0.0-1.9","null","<span style='color:red; font-size: 70px;'>错误! </span>","null","","","","","","","","","","","","","","","","","","","","","","","feedback_test"
"","","","","","psychophysics","31","138913","0.0-7.0-0.0-0.10","605","","j","","","","","","","","","","","","","key","j","16.667510416666726","960","536","j","true","img/C_ambi40.png","朋友","prac",""
"","","","","","html-keyboard-response","32","139420","0.0-7.0-0.0-1.10","null","<span style='color:GreenYellow; font-size: 70px;'>正确! </span>","null","","","","","","","","","","","","","","","","","","","","","","","feedback_test"
"","","","","","psychophysics","33","141216","0.0-7.0-0.0-0.11","792","","f","","","","","","","","","","","","","key","f","16.666317757009093","960","536","f","true","img/C_ambi40.png","生人","prac",""
"","","","","","html-keyboard-response","34","141720","0.0-7.0-0.0-1.11","null","<span style='color:GreenYellow; font-size: 70px;'>正确! </span>","null","","","","","","","","","","","","","","","","","","","","","","","feedback_test"
"","","","","","psychophysics","35","143492","0.0-7.0-0.0-0.12","768","","j","","","","","","","","","","","","","key","j","16.667679245283065","960","536","f","false","img/H_ambi40.png","朋友","prac",""
"","","","","","html-keyboard-response","36","143993","0.0-7.0-0.0-1.12","null","<span style='color:red; font-size: 70px;'>错误! </span>","null","","","","","","","","","","","","","","","","","","","","","","","feedback_test"
"","","","","","psychophysics","37","146012","0.0-7.0-0.0-0.13","1004","","f","","","","","","","","","","","","","key","f","16.666649999999937","960","536","f","true","img/S_ambi40.png","自我","prac",""
"","","","","","html-keyboard-response","38","146527","0.0-7.0-0.0-1.13","null","<span style='color:GreenYellow; font-size: 70px;'>正确! </span>","null","","","","","","","","","","","","","","","","","","","","","","","feedback_test"
"","","","","","psychophysics","39","148461","0.0-7.0-0.0-0.14","920","","f","","","","","","","","","","","","","key","f","16.66659130434779","960","536","f","true","img/S_ambi40.png","自我","prac",""
"","","","","","html-keyboard-response","40","148969","0.0-7.0-0.0-1.14","null","<span style='color:GreenYellow; font-size: 70px;'>正确! </span>","null","","","","","","","","","","","","","","","","","","","","","","","feedback_test"
"","","","","","psychophysics","41","150901","0.0-7.0-0.0-0.15","927","","f","","","","","","","","","","","","","key","f","16.667208695652104","960","536","j","false","img/S_ambi40.png","生人","prac",""
"","","","","","html-keyboard-response","42","151410","0.0-7.0-0.0-1.15","null","<span style='color:red; font-size: 70px;'>错误! </span>","null","","","","","","","","","","","","","","","","","","","","","","","feedback_test"
"","","","","","psychophysics","43","153035","0.0-7.0-0.0-0.16","617","","j","","","","","","","","","","","","","key","j","16.665895833333405","960","536","f","false","img/S_ambi40.png","自我","prac",""
"","","","","","html-keyboard-response","44","153546","0.0-7.0-0.0-1.16","null","<span style='color:red; font-size: 70px;'>错误! </span>","null","","","","","","","","","","","","","","","","","","","","","","","feedback_test"
"","","","","","psychophysics","45","155196","0.0-7.0-0.0-0.17","649","","f","","","","","","","","","","","","","key","f","16.666591836734703","960","536","f","true","img/H_ambi40.png","朋友","prac",""
"","","","","","html-keyboard-response","46","155704","0.0-7.0-0.0-1.17","null","<span style='color:GreenYellow; font-size: 70px;'>正确! </span>","null","","","","","","","","","","","","","","","","","","","","","","","feedback_test"
"","","","","","psychophysics","47","157357","0.0-7.0-0.0-0.18","652","","f","","","","","","","","","","","","","key","f","16.66792857142852","960","536","j","false","img/C_ambi40.png","朋友","prac",""
"","","","","","html-keyboard-response","48","157870","0.0-7.0-0.0-1.18","null","<span style='color:red; font-size: 70px;'>错误! </span>","null","","","","","","","","","","","","","","","","","","","","","","","feedback_test"
"","","","","","psychophysics","49","159458","0.0-7.0-0.0-0.19","587","","j","","","","","","","","","","","","","key","j","16.667694736842225","960","536","j","true","img/S_ambi40.png","生人","prac",""
"","","","","","html-keyboard-response","50","159972","0.0-7.0-0.0-1.19","null","<span style='color:GreenYellow; font-size: 70px;'>正确! </span>","null","","","","","","","","","","","","","","","","","","","","","","","feedback_test"
"","","","","","psychophysics","51","161270","0.0-7.0-0.0-0.20","296","","f","","","","","","","","","","","","","key","f","16.666974025973882","960","536","f","true","img/S_ambi40.png","自我","prac",""
"","","","","","html-keyboard-response","52","161782","0.0-7.0-0.0-1.20","null","<span style='color:GreenYellow; font-size: 70px;'>正确! </span>","null","","","","","","","","","","","","","","","","","","","","","","","feedback_test"
"","","","","","psychophysics","53","163495","0.0-7.0-0.0-0.21","711","","j","","","","","","","","","","","","","key","j","16.66633333333348","960","536","j","true","img/H_ambi40.png","自我","prac",""
"","","","","","html-keyboard-response","54","164005","0.0-7.0-0.0-1.21","null","<span style='color:GreenYellow; font-size: 70px;'>正确! </span>","null","","","","","","","","","","","","","","","","","","","","","","","feedback_test"
"","","","","","psychophysics","55","165920","0.0-7.0-0.0-0.22","912","","f","","","","","","","","","","","","","key","f","16.66704385964917","960","536","j","false","img/C_ambi40.png","自我","prac",""
"","","","","","html-keyboard-response","56","166432","0.0-7.0-0.0-1.22","null","<span style='color:red; font-size: 70px;'>错误! </span>","null","","","","","","","","","","","","","","","","","","","","","","","feedback_test"
"","","","","","psychophysics","57","168445","0.0-7.0-0.0-0.23","1006","","j","","","","","","","","","","","","","key","j","16.667516666666536","960","536","f","false","img/C_ambi40.png","生人","prac",""
"","","","","","html-keyboard-response","58","168961","0.0-7.0-0.0-1.23","null","<span style='color:red; font-size: 70px;'>错误! </span>","null","","","","","","","","","","","","","","","","","","","","","","","feedback_test"
"","","","","","psychophysics","59","170834","0.0-7.0-0.0-0.24","859","","f","","","","","","","","","","","","","key","f","16.666756756756577","960","536","f","true","img/C_ambi40.png","生人","prac",""
"","","","","","html-keyboard-response","60","171347","0.0-7.0-0.0-1.24","null","<span style='color:GreenYellow; font-size: 70px;'>正确! </span>","null","","","","","","","","","","","","","","","","","","","","","","","feedback_test"
"","","","","","psychophysics","61","173325","0.0-7.0-0.0-0.25","977","","f","","","","","","","","","","","","","key","f","16.666491525423798","960","536","f","true","img/H_ambi40.png","朋友","prac",""
"","","","","","html-keyboard-response","62","173840","0.0-7.0-0.0-1.25","null","<span style='color:GreenYellow; font-size: 70px;'>正确! </span>","null","","","","","","","","","","","","","","","","","","","","","","","feedback_test"
"","","","","","psychophysics","63","175717","0.0-7.0-0.0-0.26","876","","f","","","","","","","","","","","","","key","f","16.663531531531547","960","536","j","false","img/T_ambi40.png","をる","prac",""
"","","","","","html-keyboard-response","64","176226","0.0-7.0-0.0-1.26","null","<span style='color:red; font-size: 70px;'>错误! </span>","null","","","","","","","","","","","","","","","","","","","","","","","feedback_test"
"","","","","","psychophysics","65","177974","0.0-7.0-0.0-0.27","737","","f","","","","","","","","","","","","","key","f","16.666679611650537","960","536","j","false","img/T_ambi40.png","をる","prac",""
"","","","","","html-keyboard-response","66","178479","0.0-7.0-0.0-1.27","null","<span style='color:red; font-size: 70px;'>错误! </span>","null","","","","","","","","","","","","","","","","","","","","","","","feedback_test"
"","","","","","psychophysics","67","180186","0.0-7.0-0.0-0.28","704","","j","","","","","","","","","","","","","key","j","16.66638613861379","960","536","j","true","img/T_ambi40.png","をる","prac",""
"","","","","","html-keyboard-response","68","180698","0.0-7.0-0.0-1.28","null","<span style='color:GreenYellow; font-size: 70px;'>正确! </span>","null","","","","","","","","","","","","","","","","","","","","","","","feedback_test"
"","","","","","psychophysics","69","182331","0.0-7.0-0.0-0.29","623","","j","","","","","","","","","","","","","key","j","16.666835051546588","960","536","j","true","img/T_ambi40.png","をる","prac",""
"","","","","","html-keyboard-response","70","182833","0.0-7.0-0.0-1.29","null","<span style='color:GreenYellow; font-size: 70px;'>正确! </span>","null","","","","","","","","","","","","","","","","","","","","","","","feedback_test"
"","","","","","psychophysics","71","184898","0.0-7.0-0.0-0.30","1057","","f","","","","","","","","","","","","","key","f","16.667739837398475","960","536","j","false","img/H_ambi40.png","生人","prac",""
"","","","","","html-keyboard-response","72","185412","0.0-7.0-0.0-1.30","null","<span style='color:red; font-size: 70px;'>错误! </span>","null","","","","","","","","","","","","","","","","","","","","","","","feedback_test"
"","","","","","psychophysics","73","187350","0.0-7.0-0.0-0.31","932","","f","","","","","","","","","","","","","key","f","16.666434782608565","960","536","j","false","img/S_ambi40.png","朋友","prac",""
"","","","","","html-keyboard-response","74","187860","0.0-7.0-0.0-1.31","null","<span style='color:red; font-size: 70px;'>错误! </span>","null","","","","","","","","","","","","","","","","","","","","","","","feedback_test"
"","","","","","html-keyboard-response","75","209310","0.0-7.0-1.0-0.0","21448","<style>.context{color:white; font-size: 35px; line-height:40px}</style>                          <div><p class='context'>您正确回答了44% 的试次。</p ><p class='context'>您的平均反应时为687毫秒。</p >"," ","","","","","","","","","","","","","","","","","","","","","","",""
"","","","","","instructions","76","308958","0.0-7.0-1.0-1.0","99645","","","","","","","","","","","","","","[{""page_index"":0,""viewing_time"":4641},{""page_index"":1,""viewing_time"":93908},{""page_index"":2,""viewing_time"":1096}]","","","","","","","","","","",""
"","","","","","psychophysics","77","310889","0.0-7.1-0.1-0.32","919","","j","","","","","","","","","","","","","key","j","16.665701754386088","960","536","j","true","img/C_ambi40.png","自我","prac",""
"","","","","","html-keyboard-response","78","311396","0.0-7.1-0.1-1.32","null","<span style='color:GreenYellow; font-size: 70px;'>正确! </span>","null","","","","","","","","","","","","","","","","","","","","","","","feedback_test"
"","","","","","psychophysics","79","313326","0.0-7.1-0.1-0.33","919","","f","","","","","","","","","","","","","key","f","16.666704347826357","960","536","j","false","img/S_ambi40.png","朋友","prac",""
"","","","","","html-keyboard-response","80","313837","0.0-7.1-0.1-1.33","null","<span style='color:red; font-size: 70px;'>错误! </span>","null","","","","","","","","","","","","","","","","","","","","","","","feedback_test"
"","","","","","psychophysics","81","315803","0.0-7.1-0.1-0.34","962","","j","","","","","","","","","","","","","key","j","16.668136752136927","960","536","f","false","img/C_ambi40.png","生人","prac",""
"","","","","","html-keyboard-response","82","316311","0.0-7.1-0.1-1.34","null","<span style='color:red; font-size: 70px;'>错误! </span>","null","","","","","","","","","","","","","","","","","","","","","","","feedback_test"
"","","","","","psychophysics","83","318126","0.0-7.1-0.1-0.35","802","","f","","","","","","","","","","","","","key","f","16.666564814814826","960","536","j","false","img/C_ambi40.png","朋友","prac",""
"","","","","","html-keyboard-response","84","318633","0.0-7.1-0.1-1.35","null","<span style='color:red; font-size: 70px;'>错误! </span>","null","","","","","","","","","","","","","","","","","","","","","","","feedback_test"
"","","","","","psychophysics","85","320491","0.0-7.1-0.1-0.36","850","","j","","","","","","","","","","","","","key","j","16.66684545454548","960","536","j","true","img/T_ambi40.png","をる","prac",""
"","","","","","html-keyboard-response","86","321002","0.0-7.1-0.1-1.36","null","<span style='color:GreenYellow; font-size: 70px;'>正确! </span>","null","","","","","","","","","","","","","","","","","","","","","","","feedback_test"
"","","","","","psychophysics","87","323011","0.0-7.1-0.1-0.37","1003","","f","","","","","","","","","","","","","key","f","16.667908333333617","960","536","f","true","img/H_ambi40.png","朋友","prac",""
"","","","","","html-keyboard-response","88","323513","0.0-7.1-0.1-1.37","null","<span style='color:GreenYellow; font-size: 70px;'>正确! </span>","null","","","","","","","","","","","","","","","","","","","","","","","feedback_test"
"","","","","","psychophysics","89","325723","0.0-7.1-0.1-0.38","1206","","j","","","","","","","","","","","","","key","j","16.666572519084387","960","536","j","true","img/H_ambi40.png","生人","prac",""
"","","","","","html-keyboard-response","90","326238","0.0-7.1-0.1-1.38","null","<span style='color:GreenYellow; font-size: 70px;'>正确! </span>","null","","","","","","","","","","","","","","","","","","","","","","","feedback_test"
"","","","","","psychophysics","91","328471","0.0-7.1-0.1-0.39","1230","","j","","","","","","","","","","","","","key","j","16.666887218045083","960","536","f","false","img/C_ambi40.png","生人","prac",""
"","","","","","html-keyboard-response","92","328986","0.0-7.1-0.1-1.39","null","<span style='color:red; font-size: 70px;'>错误! </span>","null","","","","","","","","","","","","","","","","","","","","","","","feedback_test"
"","","","","","psychophysics","93","330849","0.0-7.1-0.1-0.40","859","","f","","","","","","","","","","","","","key","f","16.66815315315349","960","536","f","true","img/S_ambi40.png","自我","prac",""
"","","","","","html-keyboard-response","94","331364","0.0-7.1-0.1-1.40","null","<span style='color:GreenYellow; font-size: 70px;'>正确! </span>","null","","","","","","","","","","","","","","","","","","","","","","","feedback_test"
"","","","","","psychophysics","95","333474","0.0-7.1-0.1-0.41","1106","","j","","","","","","","","","","","","","key","j","16.667344000000043","960","536","j","true","img/H_ambi40.png","自我","prac",""
"","","","","","html-keyboard-response","96","333979","0.0-7.1-0.1-1.41","null","<span style='color:GreenYellow; font-size: 70px;'>正确! </span>","null","","","","","","","","","","","","","","","","","","","","","","","feedback_test"
"","","","","","psychophysics","97","335788","0.0-7.1-0.1-0.42","797","","j","","","","","","","","","","","","","key","j","16.66661682243026","960","536","j","true","img/T_ambi40.png","をる","prac",""
"","","","","","html-keyboard-response","98","336293","0.0-7.1-0.1-1.42","null","<span style='color:GreenYellow; font-size: 70px;'>正确! </span>","null","","","","","","","","","","","","","","","","","","","","","","","feedback_test"
"","","","","","psychophysics","99","338007","0.0-7.1-0.1-0.43","700","","j","","","","","","","","","","","","","key","j","16.66642574257434","960","536","j","true","img/T_ambi40.png","をる","prac",""
"","","","","","html-keyboard-response","100","338514","0.0-7.1-0.1-1.43","null","<span style='color:GreenYellow; font-size: 70px;'>正确! </span>","null","","","","","","","","","","","","","","","","","","","","","","","feedback_test"
"","","","","","psychophysics","101","340714","0.0-7.1-0.1-0.44","1190","","f","","","","","","","","","","","","","key","f","16.6667099236644","960","536","f","true","img/S_ambi40.png","自我","prac",""
"","","","","","html-keyboard-response","102","341216","0.0-7.1-0.1-1.44","null","<span style='color:GreenYellow; font-size: 70px;'>正确! </span>","null","","","","","","","","","","","","","","","","","","","","","","","feedback_test"
"","","","","","psychophysics","103","343235","0.0-7.1-0.1-0.45","1011","","j","","","","","","","","","","","","","key","j","16.666783333333054","960","536","j","true","img/S_ambi40.png","生人","prac",""
"","","","","","html-keyboard-response","104","343742","0.0-7.1-0.1-1.45","null","<span style='color:GreenYellow; font-size: 70px;'>正确! </span>","null","","","","","","","","","","","","","","","","","","","","","","","feedback_test"
"","","","","","psychophysics","105","345700","0.0-7.1-0.1-0.46","953","","f","","","","","","","","","","","","","key","f","16.666629310345062","960","536","f","true","img/H_ambi40.png","朋友","prac",""
"","","","","","html-keyboard-response","106","346215","0.0-7.1-0.1-1.46","null","<span style='color:GreenYellow; font-size: 70px;'>正确! </span>","null","","","","","","","","","","","","","","","","","","","","","","","feedback_test"
"","","","","","psychophysics","107","347975","0.0-7.1-0.1-0.47","753","","j","","","","","","","","","","","","","key","j","16.66654285714252","960","536","j","true","img/T_ambi40.png","をる","prac",""
"","","","","","html-keyboard-response","108","348487","0.0-7.1-0.1-1.47","null","<span style='color:GreenYellow; font-size: 70px;'>正确! </span>","null","","","","","","","","","","","","","","","","","","","","","","","feedback_test"
"","","","","","psychophysics","109","350539","0.0-7.1-0.1-0.48","1048","","f","","","","","","","","","","","","","key","f","16.66690163934445","960","536","j","false","img/S_ambi40.png","朋友","prac",""
"","","","","","html-keyboard-response","110","351054","0.0-7.1-0.1-1.48","null","<span style='color:red; font-size: 70px;'>错误! </span>","null","","","","","","","","","","","","","","","","","","","","","","","feedback_test"
"","","","","","psychophysics","111","352700","0.0-7.1-0.1-0.49","642","","j","","","","","","","","","","","","","key","j","16.66725510204085","960","536","j","true","img/T_ambi40.png","をる","prac",""
"","","","","","html-keyboard-response","112","353207","0.0-7.1-0.1-1.49","null","<span style='color:GreenYellow; font-size: 70px;'>正确! </span>","null","","","","","","","","","","","","","","","","","","","","","","","feedback_test"
"","","","","","psychophysics","113","355325","0.0-7.1-0.1-0.50","1117","","f","","","","","","","","","","","","","key","f","16.65673809523818","960","536","j","false","img/C_ambi40.png","自我","prac",""
"","","","","","html-keyboard-response","114","355826","0.0-7.1-0.1-1.50","null","<span style='color:red; font-size: 70px;'>错误! </span>","null","","","","","","","","","","","","","","","","","","","","","","","feedback_test"
"","","","","","psychophysics","115","357997","0.0-7.1-0.1-0.51","1158","","j","","","","","","","","","","","","","key","j","16.666705426356625","960","536","j","true","img/H_ambi40.png","生人","prac",""
"","","","","","html-keyboard-response","116","358500","0.0-7.1-0.1-1.51","null","<span style='color:GreenYellow; font-size: 70px;'>正确! </span>","null","","","","","","","","","","","","","","","","","","","","","","","feedback_test"
"","","","","","psychophysics","117","360479","0.0-7.1-0.1-0.52","971","","f","","","","","","","","","","","","","key","f","16.66761016949145","960","536","f","true","img/C_ambi40.png","生人","prac",""
"","","","","","html-keyboard-response","118","360985","0.0-7.1-0.1-1.52","null","<span style='color:GreenYellow; font-size: 70px;'>正确! </span>","null","","","","","","","","","","","","","","","","","","","","","","","feedback_test"
"","","","","","psychophysics","119","363085","0.0-7.1-0.1-0.53","1094","","f","","","","","","","","","","","","","key","f","16.667384000000077","960","536","f","true","img/S_ambi40.png","自我","prac",""
"","","","","","html-keyboard-response","120","363590","0.0-7.1-0.1-1.53","null","<span style='color:GreenYellow; font-size: 70px;'>正确! </span>","null","","","","","","","","","","","","","","","","","","","","","","","feedback_test"
"","","","","","psychophysics","121","365564","0.0-7.1-0.1-0.54","973","","f","","","","","","","","","","","","","key","f","16.665864406779537","960","536","j","false","img/S_ambi40.png","生人","prac",""
"","","","","","html-keyboard-response","122","366074","0.0-7.1-0.1-1.54","null","<span style='color:red; font-size: 70px;'>错误! </span>","null","","","","","","","","","","","","","","","","","","","","","","","feedback_test"
"","","","","","psychophysics","123","368192","0.0-7.1-0.1-0.55","1116","","j","","","","","","","","","","","","","key","j","16.66108799999999","960","536","j","true","img/H_ambi40.png","自我","prac",""
"","","","","","html-keyboard-response","124","368692","0.0-7.1-0.1-1.55","null","<span style='color:GreenYellow; font-size: 70px;'>正确! </span>","null","","","","","","","","","","","","","","","","","","","","","","","feedback_test"
"","","","","","psychophysics","125","370503","0.0-7.1-0.1-0.56","803","","j","","","","","","","","","","","","","key","j","16.666915887850337","960","536","j","true","img/T_ambi40.png","をる","prac",""
"","","","","","html-keyboard-response","126","371006","0.0-7.1-0.1-1.56","null","<span style='color:GreenYellow; font-size: 70px;'>正确! </span>","null","","","","","","","","","","","","","","","","","","","","","","","feedback_test"
"","","","","","psychophysics","127","372960","0.0-7.1-0.1-0.57","953","","f","","","","","","","","","","","","","key","f","16.668256410256298","960","536","f","true","img/H_ambi40.png","朋友","prac",""
"","","","","","html-keyboard-response","128","373469","0.0-7.1-0.1-1.57","null","<span style='color:GreenYellow; font-size: 70px;'>正确! </span>","null","","","","","","","","","","","","","","","","","","","","","","","feedback_test"
"","","","","","psychophysics","129","375241","0.0-7.1-0.1-0.58","766","","f","","","","","","","","","","","","","key","f","16.668380952380886","960","536","f","true","img/H_ambi40.png","朋友","prac",""
"","","","","","html-keyboard-response","130","375745","0.0-7.1-0.1-1.58","null","<span style='color:GreenYellow; font-size: 70px;'>正确! </span>","null","","","","","","","","","","","","","","","","","","","","","","","feedback_test"
"","","","","","psychophysics","131","377463","0.0-7.1-0.1-0.59","704","","j","","","","","","","","","","","","","key","j","16.666686274509594","960","536","f","false","img/S_ambi40.png","自我","prac",""
"","","","","","html-keyboard-response","132","377967","0.0-7.1-0.1-1.59","null","<span style='color:red; font-size: 70px;'>错误! </span>","null","","","","","","","","","","","","","","","","","","","","","","","feedback_test"
"","","","","","psychophysics","133","379913","0.0-7.1-0.1-0.60","941","","f","","","","","","","","","","","","","key","f","16.667508620689503","960","536","j","false","img/C_ambi40.png","朋友","prac",""
"","","","","","html-keyboard-response","134","380421","0.0-7.1-0.1-1.60","null","<span style='color:red; font-size: 70px;'>错误! </span>","null","","","","","","","","","","","","","","","","","","","","","","","feedback_test"
"","","","","","psychophysics","135","382069","0.0-7.1-0.1-0.61","644","","j","","","","","","","","","","","","","key","j","16.66847959183672","960","536","j","true","img/T_ambi40.png","をる","prac",""
"","","","","","html-keyboard-response","136","382574","0.0-7.1-0.1-1.61","null","<span style='color:GreenYellow; font-size: 70px;'>正确! </span>","null","","","","","","","","","","","","","","","","","","","","","","","feedback_test"
"","","","","","psychophysics","137","384571","0.0-7.1-0.1-0.62","996","","f","","","","","","","","","","","","","key","f","16.667159663865974","960","536","f","true","img/C_ambi40.png","生人","prac",""
"","","","","","html-keyboard-response","138","385076","0.0-7.1-0.1-1.62","null","<span style='color:GreenYellow; font-size: 70px;'>正确! </span>","null","","","","","","","","","","","","","","","","","","","","","","","feedback_test"
"","","","","","psychophysics","139","386748","0.0-7.1-0.1-0.63","662","","j","","","","","","","","","","","","","key","j","16.666898989898854","960","536","j","true","img/T_ambi40.png","をる","prac",""
"","","","","","html-keyboard-response","140","387249","0.0-7.1-0.1-1.63","null","<span style='color:GreenYellow; font-size: 70px;'>正确! </span>","null","","","","","","","","","","","","","","","","","","","","","","","feedback_test"
"","","","","","html-keyboard-response","141","408141","0.0-8.0","20889","<style>.context{color:white; font-size: 35px; line-height:40px}</style>                          <div><p class='context'>您正确回答了72% 的试次。</p ><p class='context'>您的平均反应时为920毫秒。</p ><p class='context'>恭喜您完成练习。按任意键进入正式实验。</p ><p class='footer' style='font-size: 35px; line-height:40px;'>请在进入正式实验实验之前将您的<span style='color: lightgreen;'>食指</span>放在电脑键盘的相应键位上进行按键。</p >"," ","","","","","","","","","","","","","","","","","","","","","","",""
"","","","","","psychophysics","142","410234","0.0-9.0-0.0-0.0-0.0-0.0","1083","","f","","","","","","","","","","","","","key","f","16.659887096774202","960","536","j","false","img/S_ambi40.png","朋友","same",""
"","","","","","html-keyboard-response","143","410740","0.0-9.0-0.0-0.0-0.0-1.0","null","<span style='color:red; font-size: 70px;'>错误! </span>","null","","","","","","","","","","","","","","","","","","","","","","","feedback_test"
"","","","","","psychophysics","144","412804","0.0-9.0-0.0-0.0-0.0-0.1","1062","","j","","","","","","","","","","","","","key","j","16.667121951219368","960","536","j","true","img/H_ambi40.png","生人","same",""
"","","","","","html-keyboard-response","145","413319","0.0-9.0-0.0-0.0-0.0-1.1","null","<span style='color:GreenYellow; font-size: 70px;'>正确! </span>","null","","","","","","","","","","","","","","","","","","","","","","","feedback_test"
"","","","","","psychophysics","146","415432","0.0-9.0-0.0-0.0-0.0-0.2","1111","","f","","","","","","","","","","","","","key","f","16.66786507936518","960","536","j","false","img/S_ambi40.png","生人","same",""
"","","","","","html-keyboard-response","147","415945","0.0-9.0-0.0-0.0-0.0-1.2","null","<span style='color:red; font-size: 70px;'>错误! </span>","null","","","","","","","","","","","","","","","","","","","","","","","feedback_test"
"","","","","","psychophysics","148","417671","0.0-9.0-0.0-0.0-0.0-0.3","722","","j","","","","","","","","","","","","","key","j","16.66639215686283","960","536","j","true","img/T_ambi40.png","をる","same",""
"","","","","","html-keyboard-response","149","418187","0.0-9.0-0.0-0.0-0.0-1.3","null","<span style='color:GreenYellow; font-size: 70px;'>正确! </span>","null","","","","","","","","","","","","","","","","","","","","","","","feedback_test"
"","","","","","psychophysics","150","420391","0.0-9.0-0.0-0.0-0.0-0.4","1202","","j","","","","","","","","","","","","","key","j","16.667847328244367","960","536","f","false","img/C_ambi40.png","生人","same",""
"","","","","","html-keyboard-response","151","420906","0.0-9.0-0.0-0.0-0.0-1.4","null","<span style='color:red; font-size: 70px;'>错误! </span>","null","","","","","","","","","","","","","","","","","","","","","","","feedback_test"
"","","","","","psychophysics","152","422883","0.0-9.0-0.0-0.0-0.0-0.5","976","","f","","","","","","","","","","","","","key","f","16.667669491525206","960","536","j","false","img/H_ambi40.png","自我","same",""
"","","","","","html-keyboard-response","153","423397","0.0-9.0-0.0-0.0-0.0-1.5","null","<span style='color:red; font-size: 70px;'>错误! </span>","null","","","","","","","","","","","","","","","","","","","","","","","feedback_test"
"","","","","","psychophysics","154","425489","0.0-9.0-0.0-0.0-0.0-0.6","1079","","j","","","","","","","","","","","","","key","j","16.667540322580834","960","536","f","false","img/H_ambi40.png","朋友","same",""
"","","","","","html-keyboard-response","155","425991","0.0-9.0-0.0-0.0-0.0-1.6","null","<span style='color:red; font-size: 70px;'>错误! </span>","null","","","","","","","","","","","","","","","","","","","","","","","feedback_test"
"","","","","","psychophysics","156","427695","0.0-9.0-0.0-0.0-0.0-0.7","703","","f","","","","","","","","","","","","","key","f","16.65923762376222","960","536","f","true","img/H_ambi40.png","朋友","same",""
"","","","","","html-keyboard-response","157","428205","0.0-9.0-0.0-0.0-0.0-1.7","null","<span style='color:GreenYellow; font-size: 70px;'>正确! </span>","null","","","","","","","","","","","","","","","","","","","","","","","feedback_test"
"","","","","","psychophysics","158","430380","0.0-9.0-0.0-0.0-0.0-0.8","1171","","f","","","","","","","","","","","","","key","f","16.666692307692184","960","536","f","true","img/C_ambi40.png","生人","same",""
"","","","","","html-keyboard-response","159","430889","0.0-9.0-0.0-0.0-0.0-1.8","null","<span style='color:GreenYellow; font-size: 70px;'>正确! </span>","null","","","","","","","","","","","","","","","","","","","","","","","feedback_test"
"","","","","","psychophysics","160","432667","0.0-9.0-0.0-0.0-0.0-0.9","775","","f","","","","","","","","","","","","","key","f","16.66858490566033","960","536","f","true","img/S_ambi40.png","自我","same",""
"","","","","","html-keyboard-response","161","433173","0.0-9.0-0.0-0.0-0.0-1.9","null","<span style='color:GreenYellow; font-size: 70px;'>正确! </span>","null","","","","","","","","","","","","","","","","","","","","","","","feedback_test"
"","","","","","psychophysics","162","435117","0.0-9.0-0.0-0.0-0.0-0.10","942","","j","","","","","","","","","","","","","key","j","16.66714655172385","960","536","j","true","img/C_ambi40.png","朋友","same",""
"","","","","","html-keyboard-response","163","435618","0.0-9.0-0.0-0.0-0.0-1.10","null","<span style='color:GreenYellow; font-size: 70px;'>正确! </span>","null","","","","","","","","","","","","","","","","","","","","","","","feedback_test"
"","","","","","psychophysics","164","437545","0.0-9.0-0.0-0.0-0.0-0.11","919","","f","","","","","","","","","","","","","key","f","16.66781739130434","960","536","f","true","img/C_ambi40.png","生人","same",""
"","","","","","html-keyboard-response","165","438052","0.0-9.0-0.0-0.0-0.0-1.11","null","<span style='color:GreenYellow; font-size: 70px;'>正确! </span>","null","","","","","","","","","","","","","","","","","","","","","","","feedback_test"
"","","","","","psychophysics","166","440086","0.0-9.0-0.0-0.0-0.0-0.12","1027","","f","","","","","","","","","","","","","key","f","16.667330578512182","960","536","f","true","img/H_ambi40.png","朋友","same",""
"","","","","","html-keyboard-response","167","440593","0.0-9.0-0.0-0.0-0.0-1.12","null","<span style='color:GreenYellow; font-size: 70px;'>正确! </span>","null","","","","","","","","","","","","","","","","","","","","","","","feedback_test"
"","","","","","psychophysics","168","442341","0.0-9.0-0.0-0.0-0.0-0.13","739","","j","","","","","","","","","","","","","key","j","16.667194174757473","960","536","j","true","img/T_ambi40.png","をる","same",""
"","","","","","html-keyboard-response","169","442849","0.0-9.0-0.0-0.0-0.0-1.13","null","<span style='color:GreenYellow; font-size: 70px;'>正确! </span>","null","","","","","","","","","","","","","","","","","","","","","","","feedback_test"
"","","","","","psychophysics","170","444618","0.0-9.0-0.0-0.0-0.0-0.14","768","","f","","","","","","","","","","","","","key","f","16.665380952380865","960","536","f","true","img/S_ambi40.png","自我","same",""
"","","","","","html-keyboard-response","171","445121","0.0-9.0-0.0-0.0-0.0-1.14","null","<span style='color:GreenYellow; font-size: 70px;'>正确! </span>","null","","","","","","","","","","","","","","","","","","","","","","","feedback_test"
"","","","","","psychophysics","172","446900","0.0-9.0-0.0-0.0-0.0-0.15","774","","j","","","","","","","","","","","","","key","j","16.66694339622638","960","536","j","true","img/C_ambi40.png","自我","same",""
"","","","","","html-keyboard-response","173","447413","0.0-9.0-0.0-0.0-0.0-1.15","null","<span style='color:GreenYellow; font-size: 70px;'>正确! </span>","null","","","","","","","","","","","","","","","","","","","","","","","feedback_test"
"","","","","","psychophysics","174","449172","0.0-9.0-0.0-0.0-0.0-0.16","746","","f","","","","","","","","","","","","","key","f","16.666567307692066","960","536","f","true","img/S_ambi40.png","自我","same",""
"","","","","","html-keyboard-response","175","449684","0.0-9.0-0.0-0.0-0.0-1.16","null","<span style='color:GreenYellow; font-size: 70px;'>正确! </span>","null","","","","","","","","","","","","","","","","","","","","","","","feedback_test"
"","","","","","psychophysics","176","451255","0.0-9.0-0.0-0.0-0.0-0.17","563","","j","","","","","","","","","","","","","key","j","16.667591397849574","960","536","j","true","img/T_ambi40.png","をる","same",""
"","","","","","html-keyboard-response","177","451761","0.0-9.0-0.0-0.0-0.0-1.17","null","<span style='color:GreenYellow; font-size: 70px;'>正确! </span>","null","","","","","","","","","","","","","","","","","","","","","","","feedback_test"
"","","","","","psychophysics","178","453445","0.0-9.0-0.0-0.0-0.0-0.18","670","","j","","","","","","","","","","","","","key","j","16.666689999999946","960","536","j","true","img/T_ambi40.png","をる","same",""
"","","","","","html-keyboard-response","179","453956","0.0-9.0-0.0-0.0-0.0-1.18","null","<span style='color:GreenYellow; font-size: 70px;'>正确! </span>","null","","","","","","","","","","","","","","","","","","","","","","","feedback_test"
"","","","","","psychophysics","180","455696","0.0-9.0-0.0-0.0-0.0-0.19","737","","f","","","","","","","","","","","","","key","f","16.66724038461521","960","536","j","false","img/C_ambi40.png","朋友","same",""
"","","","","","html-keyboard-response","181","456197","0.0-9.0-0.0-0.0-0.0-1.19","null","<span style='color:red; font-size: 70px;'>错误! </span>","null","","","","","","","","","","","","","","","","","","","","","","","feedback_test"
"","","","","","psychophysics","182","458065","0.0-9.0-0.0-0.0-0.0-0.20","859","","f","","","","","","","","","","","","","key","f","16.66667567567558","960","536","f","true","img/H_ambi40.png","朋友","same",""
"","","","","","html-keyboard-response","183","458578","0.0-9.0-0.0-0.0-0.0-1.20","null","<span style='color:GreenYellow; font-size: 70px;'>正确! </span>","null","","","","","","","","","","","","","","","","","","","","","","","feedback_test"
"","","","","","psychophysics","184","460505","0.0-9.0-0.0-0.0-0.0-0.21","917","","f","","","","","","","","","","","","","key","f","16.66647368421055","960","536","f","true","img/C_ambi40.png","生人","same",""
"","","","","","html-keyboard-response","185","461009","0.0-9.0-0.0-0.0-0.0-1.21","null","<span style='color:GreenYellow; font-size: 70px;'>正确! </span>","null","","","","","","","","","","","","","","","","","","","","","","","feedback_test"
"","","","","","psychophysics","186","462913","0.0-9.0-0.0-0.0-0.0-0.22","890","","f","","","","","","","","","","","","","key","f","16.666601769911512","960","536","j","false","img/H_ambi40.png","自我","same",""
"","","","","","html-keyboard-response","187","463421","0.0-9.0-0.0-0.0-0.0-1.22","null","<span style='color:red; font-size: 70px;'>错误! </span>","null","","","","","","","","","","","","","","","","","","","","","","","feedback_test"
"","","","","","psychophysics","188","465259","0.0-9.0-0.0-0.0-0.0-0.23","834","","f","","","","","","","","","","","","","key","f","16.66706363636397","960","536","j","false","img/S_ambi40.png","生人","same",""
"","","","","","html-keyboard-response","189","465766","0.0-9.0-0.0-0.0-0.0-1.23","null","<span style='color:red; font-size: 70px;'>错误! </span>","null","","","","","","","","","","","","","","","","","","","","","","","feedback_test"
"","","","","","psychophysics","190","467397","0.0-9.0-0.0-0.0-0.0-0.24","629","","f","","","","","","","","","","","","","key","f","16.666711340206508","960","536","f","true","img/C_ambi40.png","生人","same",""
"","","","","","html-keyboard-response","191","467903","0.0-9.0-0.0-0.0-0.0-1.24","null","<span style='color:GreenYellow; font-size: 70px;'>正确! </span>","null","","","","","","","","","","","","","","","","","","","","","","","feedback_test"
"","","","","","psychophysics","192","469596","0.0-9.0-0.0-0.0-0.0-0.25","687","","j","","","","","","","","","","","","","key","j","16.667920792079414","960","536","j","true","img/H_ambi40.png","生人","same",""
"","","","","","html-keyboard-response","193","470105","0.0-9.0-0.0-0.0-0.0-1.25","null","<span style='color:GreenYellow; font-size: 70px;'>正确! </span>","null","","","","","","","","","","","","","","","","","","","","","","","feedback_test"
"","","","","","psychophysics","194","471792","0.0-9.0-0.0-0.0-0.0-0.26","684","","f","","","","","","","","","","","","","key","f","16.66700990098969","960","536","f","true","img/H_ambi40.png","朋友","same",""
"","","","","","html-keyboard-response","195","472304","0.0-9.0-0.0-0.0-0.0-1.26","null","<span style='color:GreenYellow; font-size: 70px;'>正确! </span>","null","","","","","","","","","","","","","","","","","","","","","","","feedback_test"
"","","","","","psychophysics","196","473872","0.0-9.0-0.0-0.0-0.0-0.27","563","","f","","","","","","","","","","","","","key","f","16.667827956989328","960","536","j","false","img/C_ambi40.png","自我","same",""
"","","","","","html-keyboard-response","197","474379","0.0-9.0-0.0-0.0-0.0-1.27","null","<span style='color:red; font-size: 70px;'>错误! </span>","null","","","","","","","","","","","","","","","","","","","","","","","feedback_test"
"","","","","","psychophysics","198","476009","0.0-9.0-0.0-0.0-0.0-0.28","628","","j","","","","","","","","","","","","","key","j","16.666427083333474","960","536","j","true","img/T_ambi40.png","をる","same",""
"","","","","","html-keyboard-response","199","476510","0.0-9.0-0.0-0.0-0.0-1.28","null","<span style='color:GreenYellow; font-size: 70px;'>正确! </span>","null","","","","","","","","","","","","","","","","","","","","","","","feedback_test"
"","","","","","psychophysics","200","478191","0.0-9.0-0.0-0.0-0.0-0.29","667","","f","","","","","","","","","","","","","key","f","16.66651515151501","960","536","f","true","img/H_ambi40.png","朋友","same",""
"","","","","","html-keyboard-response","201","478697","0.0-9.0-0.0-0.0-0.0-1.29","null","<span style='color:GreenYellow; font-size: 70px;'>正确! </span>","null","","","","","","","","","","","","","","","","","","","","","","","feedback_test"
"","","","","","psychophysics","202","480628","0.0-9.0-0.0-0.0-0.0-0.30","919","","f","","","","","","","","","","","","","key","f","16.666791304347672","960","536","f","true","img/S_ambi40.png","自我","same",""
"","","","","","html-keyboard-response","203","481140","0.0-9.0-0.0-0.0-0.0-1.30","null","<span style='color:GreenYellow; font-size: 70px;'>正确! </span>","null","","","","","","","","","","","","","","","","","","","","","","","feedback_test"
"","","","","","psychophysics","204","482985","0.0-9.0-0.0-0.0-0.0-0.31","843","","f","","","","","","","","","","","","","key","f","16.66724545454543","960","536","f","true","img/C_ambi40.png","生人","same",""
"","","","","","html-keyboard-response","205","483499","0.0-9.0-0.0-0.0-0.0-1.31","null","<span style='color:GreenYellow; font-size: 70px;'>正确! </span>","null","","","","","","","","","","","","","","","","","","","","","","","feedback_test"
"","","","","","psychophysics","206","485553","0.0-9.0-0.0-0.0-0.0-0.32","1044","","f","","","","","","","","","","","","","key","f","16.66643442622945","960","536","f","true","img/S_ambi40.png","自我","same",""
"","","","","","html-keyboard-response","207","486060","0.0-9.0-0.0-0.0-0.0-1.32","null","<span style='color:GreenYellow; font-size: 70px;'>正确! </span>","null","","","","","","","","","","","","","","","","","","","","","","","feedback_test"
"","","","","","psychophysics","208","487856","0.0-9.0-0.0-0.0-0.0-0.33","781","","j","","","","","","","","","","","","","key","j","16.667122641509128","960","536","j","true","img/T_ambi40.png","をる","same",""
"","","","","","html-keyboard-response","209","488358","0.0-9.0-0.0-0.0-0.0-1.33","null","<span style='color:GreenYellow; font-size: 70px;'>正确! </span>","null","","","","","","","","","","","","","","","","","","","","","","","feedback_test"
"","","","","","psychophysics","210","490180","0.0-9.0-0.0-0.0-0.0-0.34","805","","f","","","","","","","","","","","","","key","f","16.66082407407413","960","536","f","true","img/S_ambi40.png","自我","same",""
"","","","","","html-keyboard-response","211","490686","0.0-9.0-0.0-0.0-0.0-1.34","null","<span style='color:GreenYellow; font-size: 70px;'>正确! </span>","null","","","","","","","","","","","","","","","","","","","","","","","feedback_test"
"","","","","","psychophysics","212","492728","0.0-9.0-0.0-0.0-0.0-0.35","1036","","f","","","","","","","","","","","","","key","f","16.667360655737745","960","536","j","false","img/S_ambi40.png","朋友","same",""
"","","","","","html-keyboard-response","213","493230","0.0-9.0-0.0-0.0-0.0-1.35","null","<span style='color:red; font-size: 70px;'>错误! </span>","null","","","","","","","","","","","","","","","","","","","","","","","feedback_test"
"","","","","","psychophysics","214","495144","0.0-9.0-0.0-0.0-0.0-0.36","908","","f","","","","","","","","","","","","","key","f","16.66685087719254","960","536","f","true","img/C_ambi40.png","生人","same",""
"","","","","","html-keyboard-response","215","495645","0.0-9.0-0.0-0.0-0.0-1.36","null","<span style='color:GreenYellow; font-size: 70px;'>正确! </span>","null","","","","","","","","","","","","","","","","","","","","","","","feedback_test"
"","","","","","psychophysics","216","497527","0.0-9.0-0.0-0.0-0.0-0.37","869","","f","","","","","","","","","","","","","key","f","16.66681249999965","960","536","f","true","img/C_ambi40.png","生人","same",""
"","","","","","html-keyboard-response","217","498038","0.0-9.0-0.0-0.0-0.0-1.37","null","<span style='color:GreenYellow; font-size: 70px;'>正确! </span>","null","","","","","","","","","","","","","","","","","","","","","","","feedback_test"
"","","","","","psychophysics","218","499997","0.0-9.0-0.0-0.0-0.0-0.38","955","","f","","","","","","","","","","","","","key","f","16.66786324786287","960","536","f","true","img/H_ambi40.png","朋友","same",""
"","","","","","html-keyboard-response","219","500511","0.0-9.0-0.0-0.0-0.0-1.38","null","<span style='color:GreenYellow; font-size: 70px;'>正确! </span>","null","","","","","","","","","","","","","","","","","","","","","","","feedback_test"
"","","","","","psychophysics","220","502630","0.0-9.0-0.0-0.0-0.0-0.39","1110","","f","","","","","","","","","","","","","key","f","16.66694444444424","960","536","j","false","img/S_ambi40.png","生人","same",""
"","","","","","html-keyboard-response","221","503142","0.0-9.0-0.0-0.0-0.0-1.39","null","<span style='color:red; font-size: 70px;'>错误! </span>","null","","","","","","","","","","","","","","","","","","","","","","","feedback_test"
"","","","","","psychophysics","222","505170","0.0-9.0-0.0-0.0-0.0-0.40","1017","","f","","","","","","","","","","","","","key","f","16.66771666666658","960","536","f","true","img/H_ambi40.png","朋友","same",""
"","","","","","html-keyboard-response","223","505680","0.0-9.0-0.0-0.0-0.0-1.40","null","<span style='color:GreenYellow; font-size: 70px;'>正确! </span>","null","","","","","","","","","","","","","","","","","","","","","","","feedback_test"
"","","","","","psychophysics","224","507664","0.0-9.0-0.0-0.0-0.0-0.41","981","","j","","","","","","","","","","","","","key","j","16.665449152542752","960","536","j","true","img/C_ambi40.png","朋友","same",""
"","","","","","html-keyboard-response","225","508176","0.0-9.0-0.0-0.0-0.0-1.41","null","<span style='color:GreenYellow; font-size: 70px;'>正确! </span>","null","","","","","","","","","","","","","","","","","","","","","","","feedback_test"
"","","","","","psychophysics","226","509870","0.0-9.0-0.0-0.0-0.0-0.42","691","","j","","","","","","","","","","","","","key","j","16.66667000000016","960","536","j","true","img/T_ambi40.png","をる","same",""
"","","","","","html-keyboard-response","227","510379","0.0-9.0-0.0-0.0-0.0-1.42","null","<span style='color:GreenYellow; font-size: 70px;'>正确! </span>","null","","","","","","","","","","","","","","","","","","","","","","","feedback_test"
"","","","","","psychophysics","228","511831","0.0-9.0-0.0-0.0-0.0-0.43","445","","j","","","","","","","","","","","","","key","j","16.665034883721262","960","536","j","true","img/T_ambi40.png","をる","same",""
"","","","","","html-keyboard-response","229","512347","0.0-9.0-0.0-0.0-0.0-1.43","null","<span style='color:GreenYellow; font-size: 70px;'>正确! </span>","null","","","","","","","","","","","","","","","","","","","","","","","feedback_test"
"","","","","","psychophysics","230","514144","0.0-9.0-0.0-0.0-0.0-0.44","785","","f","","","","","","","","","","","","","key","f","16.667682242990477","960","536","j","false","img/H_ambi40.png","自我","same",""
"","","","","","html-keyboard-response","231","514657","0.0-9.0-0.0-0.0-0.0-1.44","null","<span style='color:red; font-size: 70px;'>错误! </span>","null","","","","","","","","","","","","","","","","","","","","","","","feedback_test"
"","","","","","psychophysics","232","516623","0.0-9.0-0.0-0.0-0.0-0.45","964","","f","","","","","","","","","","","","","key","f","16.65718103448232","960","536","j","false","img/S_ambi40.png","朋友","same",""
"","","","","","html-keyboard-response","233","517124","0.0-9.0-0.0-0.0-0.0-1.45","null","<span style='color:red; font-size: 70px;'>错误! </span>","null","","","","","","","","","","","","","","","","","","","","","","","feedback_test"
"","","","","","psychophysics","234","518845","0.0-9.0-0.0-0.0-0.0-0.46","720","","j","","","","","","","","","","","","","key","j","16.654794117646958","960","536","f","false","img/S_ambi40.png","自我","same",""
"","","","","","html-keyboard-response","235","519349","0.0-9.0-0.0-0.0-0.0-1.46","null","<span style='color:red; font-size: 70px;'>错误! </span>","null","","","","","","","","","","","","","","","","","","","","","","","feedback_test"
"","","","","","psychophysics","236","521342","0.0-9.0-0.0-0.0-0.0-0.47","983","","f","","","","","","","","","","","","","key","f","16.66660169491562","960","536","f","true","img/C_ambi40.png","生人","same",""
"","","","","","html-keyboard-response","237","521844","0.0-9.0-0.0-0.0-0.0-1.47","null","<span style='color:GreenYellow; font-size: 70px;'>正确! </span>","null","","","","","","","","","","","","","","","","","","","","","","","feedback_test"
"","","","","","psychophysics","238","523632","0.0-9.0-0.0-0.0-0.0-0.48","781","","j","","","","","","","","","","","","","key","j","16.667283018868098","960","536","j","true","img/T_ambi40.png","をる","same",""
"","","","","","html-keyboard-response","239","524137","0.0-9.0-0.0-0.0-0.0-1.48","null","<span style='color:GreenYellow; font-size: 70px;'>正确! </span>","null","","","","","","","","","","","","","","","","","","","","","","","feedback_test"
"","","","","","psychophysics","240","525694","0.0-9.0-0.0-0.0-0.0-0.49","552","","f","","","","","","","","","","","","","key","f","16.668043010752967","960","536","j","false","img/C_ambi40.png","自我","same",""
"","","","","","html-keyboard-response","241","526202","0.0-9.0-0.0-0.0-0.0-1.49","null","<span style='color:red; font-size: 70px;'>错误! </span>","null","","","","","","","","","","","","","","","","","","","","","","","feedback_test"
"","","","","","psychophysics","242","527964","0.0-9.0-0.0-0.0-0.0-0.50","754","","f","","","","","","","","","","","","","key","f","16.667104761904504","960","536","f","true","img/S_ambi40.png","自我","same",""
"","","","","","html-keyboard-response","243","528479","0.0-9.0-0.0-0.0-0.0-1.50","null","<span style='color:GreenYellow; font-size: 70px;'>正确! </span>","null","","","","","","","","","","","","","","","","","","","","","","","feedback_test"
"","","","","","psychophysics","244","530426","0.0-9.0-0.0-0.0-0.0-0.51","934","","f","","","","","","","","","","","","","key","f","16.666836206896576","960","536","f","true","img/H_ambi40.png","朋友","same",""
"","","","","","html-keyboard-response","245","530939","0.0-9.0-0.0-0.0-0.0-1.51","null","<span style='color:GreenYellow; font-size: 70px;'>正确! </span>","null","","","","","","","","","","","","","","","","","","","","","","","feedback_test"
"","","","","","psychophysics","246","533236","0.0-9.0-0.0-0.0-0.0-0.52","1294","","f","","","","","","","","","","","","","key","f","16.667036496350086","960","536","j","false","img/H_ambi40.png","生人","same",""
"","","","","","html-keyboard-response","247","533751","0.0-9.0-0.0-0.0-0.0-1.52","null","<span style='color:red; font-size: 70px;'>错误! </span>","null","","","","","","","","","","","","","","","","","","","","","","","feedback_test"
"","","","","","psychophysics","248","535731","0.0-9.0-0.0-0.0-0.0-0.53","972","","f","","","","","","","","","","","","","key","f","16.667838983050295","960","536","f","true","img/S_ambi40.png","自我","same",""
"","","","","","html-keyboard-response","249","536232","0.0-9.0-0.0-0.0-0.0-1.53","null","<span style='color:GreenYellow; font-size: 70px;'>正确! </span>","null","","","","","","","","","","","","","","","","","","","","","","","feedback_test"
"","","","","","psychophysics","250","538310","0.0-9.0-0.0-0.0-0.0-0.54","1075","","j","","","","","","","","","","","","","key","j","16.66645967741891","960","536","j","true","img/S_ambi40.png","生人","same",""
"","","","","","html-keyboard-response","251","538819","0.0-9.0-0.0-0.0-0.0-1.54","null","<span style='color:GreenYellow; font-size: 70px;'>正确! </span>","null","","","","","","","","","","","","","","","","","","","","","","","feedback_test"
"","","","","","psychophysics","252","540839","0.0-9.0-0.0-0.0-0.0-0.55","1017","","j","","","","","","","","","","","","","key","j","16.667874999999185","960","536","j","true","img/S_ambi40.png","朋友","same",""
"","","","","","html-keyboard-response","253","541343","0.0-9.0-0.0-0.0-0.0-1.55","null","<span style='color:GreenYellow; font-size: 70px;'>正确! </span>","null","","","","","","","","","","","","","","","","","","","","","","","feedback_test"
"","","","","","psychophysics","254","543331","0.0-9.0-0.0-0.0-0.0-0.56","980","","f","","","","","","","","","","","","","key","f","16.666584745762766","960","536","f","true","img/H_ambi40.png","朋友","same",""
"","","","","","html-keyboard-response","255","543846","0.0-9.0-0.0-0.0-0.0-1.56","null","<span style='color:GreenYellow; font-size: 70px;'>正确! </span>","null","","","","","","","","","","","","","","","","","","","","","","","feedback_test"
"","","","","","psychophysics","256","545782","0.0-9.0-0.0-0.0-0.0-0.57","923","","j","","","","","","","","","","","","","key","j","16.666408695653082","960","536","f","false","img/S_ambi40.png","自我","same",""
"","","","","","html-keyboard-response","257","546283","0.0-9.0-0.0-0.0-0.0-1.57","null","<span style='color:red; font-size: 70px;'>错误! </span>","null","","","","","","","","","","","","","","","","","","","","","","","feedback_test"
"","","","","","psychophysics","258","547910","0.0-9.0-0.0-0.0-0.0-0.58","617","","j","","","","","","","","","","","","","key","j","16.666525773195186","960","536","j","true","img/T_ambi40.png","をる","same",""
"","","","","","html-keyboard-response","259","548411","0.0-9.0-0.0-0.0-0.0-1.58","null","<span style='color:GreenYellow; font-size: 70px;'>正确! </span>","null","","","","","","","","","","","","","","","","","","","","","","","feedback_test"
"","","","","","psychophysics","260","550545","0.0-9.0-0.0-0.0-0.0-0.59","1127","","j","","","","","","","","","","","","","key","j","16.666992125984127","960","536","j","true","img/C_ambi40.png","朋友","same",""
"","","","","","html-keyboard-response","261","551059","0.0-9.0-0.0-0.0-0.0-1.59","null","<span style='color:GreenYellow; font-size: 70px;'>正确! </span>","null","","","","","","","","","","","","","","","","","","","","","","","feedback_test"
"","","","","","psychophysics","262","552894","0.0-9.0-0.0-0.0-0.0-0.60","827","","f","","","","","","","","","","","","","key","f","16.666752293577776","960","536","f","true","img/S_ambi40.png","自我","same",""
"","","","","","html-keyboard-response","263","553402","0.0-9.0-0.0-0.0-0.0-1.60","null","<span style='color:GreenYellow; font-size: 70px;'>正确! </span>","null","","","","","","","","","","","","","","","","","","","","","","","feedback_test"
"","","","","","psychophysics","264","555473","0.0-9.0-0.0-0.0-0.0-0.61","1065","","j","","","","","","","","","","","","","key","j","16.667081300812825","960","536","j","true","img/H_ambi40.png","生人","same",""
"","","","","","html-keyboard-response","265","555978","0.0-9.0-0.0-0.0-0.0-1.61","null","<span style='color:GreenYellow; font-size: 70px;'>正确! </span>","null","","","","","","","","","","","","","","","","","","","","","","","feedback_test"
"","","","","","psychophysics","266","557803","0.0-9.0-0.0-0.0-0.0-0.62","811","","j","","","","","","","","","","","","","key","j","16.66645370370329","960","536","f","false","img/H_ambi40.png","朋友","same",""
"","","","","","html-keyboard-response","267","558311","0.0-9.0-0.0-0.0-0.0-1.62","null","<span style='color:red; font-size: 70px;'>错误! </span>","null","","","","","","","","","","","","","","","","","","","","","","","feedback_test"
"","","","","","psychophysics","268","559929","0.0-9.0-0.0-0.0-0.0-0.63","616","","j","","","","","","","","","","","","","key","j","16.666552083332743","960","536","j","true","img/T_ambi40.png","をる","same",""
"","","","","","html-keyboard-response","269","560438","0.0-9.0-0.0-0.0-0.0-1.63","null","<span style='color:GreenYellow; font-size: 70px;'>正确! </span>","null","","","","","","","","","","","","","","","","","","","","","","","feedback_test"
"","","","","","psychophysics","270","562399","0.0-9.0-0.0-0.0-0.0-0.64","957","","j","","","","","","","","","","","","","key","j","16.668273504274204","960","536","f","false","img/C_ambi40.png","生人","same",""
"","","","","","html-keyboard-response","271","562907","0.0-9.0-0.0-0.0-0.0-1.64","null","<span style='color:red; font-size: 70px;'>错误! </span>","null","","","","","","","","","","","","","","","","","","","","","","","feedback_test"
"","","","","","psychophysics","272","565025","0.0-9.0-0.0-0.0-0.0-0.65","1116","","f","","","","","","","","","","","","","key","f","16.667158730159002","960","536","f","true","img/S_ambi40.png","自我","same",""
"","","","","","html-keyboard-response","273","565539","0.0-9.0-0.0-0.0-0.0-1.65","null","<span style='color:GreenYellow; font-size: 70px;'>正确! </span>","null","","","","","","","","","","","","","","","","","","","","","","","feedback_test"
"","","","","","psychophysics","274","567453","0.0-9.0-0.0-0.0-0.0-0.66","911","","f","","","","","","","","","","","","","key","f","16.66685087719254","960","536","f","true","img/H_ambi40.png","朋友","same",""
"","","","","","html-keyboard-response","275","567966","0.0-9.0-0.0-0.0-0.0-1.66","null","<span style='color:GreenYellow; font-size: 70px;'>正确! </span>","null","","","","","","","","","","","","","","","","","","","","","","","feedback_test"
"","","","","","psychophysics","276","569926","0.0-9.0-0.0-0.0-0.0-0.67","951","","j","","","","","","","","","","","","","key","j","16.667820512820594","960","536","j","true","img/C_ambi40.png","自我","same",""
"","","","","","html-keyboard-response","277","570441","0.0-9.0-0.0-0.0-0.0-1.67","null","<span style='color:GreenYellow; font-size: 70px;'>正确! </span>","null","","","","","","","","","","","","","","","","","","","","","","","feedback_test"
"","","","","","psychophysics","278","572499","0.0-9.0-0.0-0.0-0.0-0.68","1057","","f","","","","","","","","","","","","","key","f","16.65836065573824","960","536","f","true","img/C_ambi40.png","生人","same",""
"","","","","","html-keyboard-response","279","573008","0.0-9.0-0.0-0.0-0.0-1.68","null","<span style='color:GreenYellow; font-size: 70px;'>正确! </span>","null","","","","","","","","","","","","","","","","","","","","","","","feedback_test"
"","","","","","psychophysics","280","574828","0.0-9.0-0.0-0.0-0.0-0.69","819","","j","","","","","","","","","","","","","key","j","16.665770642202","960","536","j","true","img/H_ambi40.png","自我","same",""
"","","","","","html-keyboard-response","281","575330","0.0-9.0-0.0-0.0-0.0-1.69","null","<span style='color:GreenYellow; font-size: 70px;'>正确! </span>","null","","","","","","","","","","","","","","","","","","","","","","","feedback_test"
"","","","","","psychophysics","282","576962","0.0-9.0-0.0-0.0-0.0-0.70","620","","j","","","","","","","","","","","","","key","j","16.665432989690935","960","536","j","true","img/T_ambi40.png","をる","same",""
"","","","","","html-keyboard-response","283","577473","0.0-9.0-0.0-0.0-0.0-1.70","null","<span style='color:GreenYellow; font-size: 70px;'>正确! </span>","null","","","","","","","","","","","","","","","","","","","","","","","feedback_test"
"","","","","","psychophysics","284","579339","0.0-9.0-0.0-0.0-0.0-0.71","864","","f","","","","","","","","","","","","","key","f","16.666855855855403","960","536","f","true","img/C_ambi40.png","生人","same",""
"","","","","","html-keyboard-response","285","579849","0.0-9.0-0.0-0.0-0.0-1.71","null","<span style='color:GreenYellow; font-size: 70px;'>正确! </span>","null","","","","","","","","","","","","","","","","","","","","","","","feedback_test"
"","","","","","psychophysics","286","581764","0.0-9.0-0.0-0.0-0.0-0.72","905","","j","","","","","","","","","","","","","key","j","16.666798245613137","960","536","f","false","img/H_ambi40.png","朋友","same",""
"","","","","","html-keyboard-response","287","582265","0.0-9.0-0.0-0.0-0.0-1.72","null","<span style='color:red; font-size: 70px;'>错误! </span>","null","","","","","","","","","","","","","","","","","","","","","","","feedback_test"
"","","","","","psychophysics","288","583821","0.0-9.0-0.0-0.0-0.0-0.73","553","","j","","","","","","","","","","","","","key","j","16.667032608696584","960","536","j","true","img/T_ambi40.png","をる","same",""
"","","","","","html-keyboard-response","289","584325","0.0-9.0-0.0-0.0-0.0-1.73","null","<span style='color:GreenYellow; font-size: 70px;'>正确! </span>","null","","","","","","","","","","","","","","","","","","","","","","","feedback_test"
"","","","","","psychophysics","290","586180","0.0-9.0-0.0-0.0-0.0-0.74","854","","f","","","","","","","","","","","","","key","f","16.655090909091417","960","536","j","false","img/C_ambi40.png","自我","same",""
"","","","","","html-keyboard-response","291","586689","0.0-9.0-0.0-0.0-0.0-1.74","null","<span style='color:red; font-size: 70px;'>错误! </span>","null","","","","","","","","","","","","","","","","","","","","","","","feedback_test"
"","","","","","psychophysics","292","588389","0.0-9.0-0.0-0.0-0.0-0.75","697","","j","","","","","","","","","","","","","key","j","16.666287128713286","960","536","j","true","img/T_ambi40.png","をる","same",""
"","","","","","html-keyboard-response","293","588900","0.0-9.0-0.0-0.0-0.0-1.75","null","<span style='color:GreenYellow; font-size: 70px;'>正确! </span>","null","","","","","","","","","","","","","","","","","","","","","","","feedback_test"
"","","","","","psychophysics","294","590753","0.0-9.0-0.0-0.0-0.0-0.76","844","","f","","","","","","","","","","","","","key","f","16.667836363636887","960","536","j","false","img/S_ambi40.png","生人","same",""
"","","","","","html-keyboard-response","295","591262","0.0-9.0-0.0-0.0-0.0-1.76","null","<span style='color:red; font-size: 70px;'>错误! </span>","null","","","","","","","","","","","","","","","","","","","","","","","feedback_test"
"","","","","","psychophysics","296","593367","0.0-9.0-0.0-0.0-0.0-0.77","1103","","j","","","","","","","","","","","","","key","j","16.66696799999941","960","536","j","true","img/H_ambi40.png","生人","same",""
"","","","","","html-keyboard-response","297","593869","0.0-9.0-0.0-0.0-0.0-1.77","null","<span style='color:GreenYellow; font-size: 70px;'>正确! </span>","null","","","","","","","","","","","","","","","","","","","","","","","feedback_test"
"","","","","","psychophysics","298","595890","0.0-9.0-0.0-0.0-0.0-0.78","1020","","f","","","","","","","","","","","","","key","f","16.66670833333337","960","536","j","false","img/S_ambi40.png","朋友","same",""
"","","","","","html-keyboard-response","299","596404","0.0-9.0-0.0-0.0-0.0-1.78","null","<span style='color:red; font-size: 70px;'>错误! </span>","null","","","","","","","","","","","","","","","","","","","","","","","feedback_test"
"","","","","","psychophysics","300","598460","0.0-9.0-0.0-0.0-0.0-0.79","1051","","j","","","","","","","","","","","","","key","j","16.668040650406457","960","536","j","true","img/H_ambi40.png","自我","same",""
"","","","","","html-keyboard-response","301","598962","0.0-9.0-0.0-0.0-0.0-1.79","null","<span style='color:GreenYellow; font-size: 70px;'>正确! </span>","null","","","","","","","","","","","","","","","","","","","","","","","feedback_test"
"","","","","","psychophysics","302","601021","0.0-9.0-0.0-0.0-0.0-0.80","1051","","j","","","","","","","","","","","","","key","j","16.66709836065525","960","536","f","false","img/C_ambi40.png","生人","same",""
"","","","","","html-keyboard-response","303","601524","0.0-9.0-0.0-0.0-0.0-1.80","null","<span style='color:red; font-size: 70px;'>错误! </span>","null","","","","","","","","","","","","","","","","","","","","","","","feedback_test"
"","","","","","psychophysics","304","603278","0.0-9.0-0.0-0.0-0.0-0.81","752","","j","","","","","","","","","","","","","key","j","16.65494230769288","960","536","f","false","img/H_ambi40.png","朋友","same",""
"","","","","","html-keyboard-response","305","603793","0.0-9.0-0.0-0.0-0.0-1.81","null","<span style='color:red; font-size: 70px;'>错误! </span>","null","","","","","","","","","","","","","","","","","","","","","","","feedback_test"
"","","","","","psychophysics","306","605608","0.0-9.0-0.0-0.0-0.0-0.82","812","","j","","","","","","","","","","","","","key","j","16.668140186915156","960","536","f","false","img/S_ambi40.png","自我","same",""
"","","","","","html-keyboard-response","307","606112","0.0-9.0-0.0-0.0-0.0-1.82","null","<span style='color:red; font-size: 70px;'>错误! </span>","null","","","","","","","","","","","","","","","","","","","","","","","feedback_test"
"","","","","","psychophysics","308","607994","0.0-9.0-0.0-0.0-0.0-0.83","871","","j","","","","","","","","","","","","","key","j","16.666919642856687","960","536","j","true","img/C_ambi40.png","朋友","same",""
"","","","","","html-keyboard-response","309","608495","0.0-9.0-0.0-0.0-0.0-1.83","null","<span style='color:GreenYellow; font-size: 70px;'>正确! </span>","null","","","","","","","","","","","","","","","","","","","","","","","feedback_test"
"","","","","","psychophysics","310","610600","0.0-9.0-0.0-0.0-0.0-0.84","1092","","f","","","","","","","","","","","","","key","f","16.666360000000335","960","536","f","true","img/C_ambi40.png","生人","same",""
"","","","","","html-keyboard-response","311","611105","0.0-9.0-0.0-0.0-0.0-1.84","null","<span style='color:GreenYellow; font-size: 70px;'>正确! </span>","null","","","","","","","","","","","","","","","","","","","","","","","feedback_test"
"","","","","","psychophysics","312","613050","0.0-9.0-0.0-0.0-0.0-0.85","944","","f","","","","","","","","","","","","","key","f","16.667836206895903","960","536","f","true","img/S_ambi40.png","自我","same",""
"","","","","","html-keyboard-response","313","613558","0.0-9.0-0.0-0.0-0.0-1.85","null","<span style='color:GreenYellow; font-size: 70px;'>正确! </span>","null","","","","","","","","","","","","","","","","","","","","","","","feedback_test"
"","","","","","psychophysics","314","615285","0.0-9.0-0.0-0.0-0.0-0.86","726","","f","","","","","","","","","","","","","key","f","16.658705882352603","960","536","f","true","img/S_ambi40.png","自我","same",""
"","","","","","html-keyboard-response","315","615787","0.0-9.0-0.0-0.0-0.0-1.86","null","<span style='color:GreenYellow; font-size: 70px;'>正确! </span>","null","","","","","","","","","","","","","","","","","","","","","","","feedback_test"
"","","","","","psychophysics","316","617535","0.0-9.0-0.0-0.0-0.0-0.87","746","","f","","","","","","","","","","","","","key","f","16.667509615385477","960","536","j","false","img/T_ambi40.png","をる","same",""
"","","","","","html-keyboard-response","317","618040","0.0-9.0-0.0-0.0-0.0-1.87","null","<span style='color:red; font-size: 70px;'>错误! </span>","null","","","","","","","","","","","","","","","","","","","","","","","feedback_test"
"","","","","","psychophysics","318","619957","0.0-9.0-0.0-0.0-0.0-0.88","914","","j","","","","","","","","","","","","","key","j","16.667026315789197","960","536","f","false","img/C_ambi40.png","生人","same",""
"","","","","","html-keyboard-response","319","620472","0.0-9.0-0.0-0.0-0.0-1.88","null","<span style='color:red; font-size: 70px;'>错误! </span>","null","","","","","","","","","","","","","","","","","","","","","","","feedback_test"
"","","","","","psychophysics","320","622588","0.0-9.0-0.0-0.0-0.0-0.89","1112","","f","","","","","","","","","","","","","key","f","16.667833333334237","960","536","f","true","img/H_ambi40.png","朋友","same",""
"","","","","","html-keyboard-response","321","623096","0.0-9.0-0.0-0.0-0.0-1.89","null","<span style='color:GreenYellow; font-size: 70px;'>正确! </span>","null","","","","","","","","","","","","","","","","","","","","","","","feedback_test"
"","","","","","psychophysics","322","624762","0.0-9.0-0.0-0.0-0.0-0.90","652","","f","","","","","","","","","","","","","key","f","16.665313131313518","960","536","f","true","img/H_ambi40.png","朋友","same",""
"","","","","","html-keyboard-response","323","625272","0.0-9.0-0.0-0.0-0.0-1.90","null","<span style='color:GreenYellow; font-size: 70px;'>正确! </span>","null","","","","","","","","","","","","","","","","","","","","","","","feedback_test"
"","","","","","psychophysics","324","627107","0.0-9.0-0.0-0.0-0.0-0.91","831","","f","","","","","","","","","","","","","key","f","16.668174311926656","960","536","j","false","img/S_ambi40.png","生人","same",""
"","","","","","html-keyboard-response","325","627610","0.0-9.0-0.0-0.0-0.0-1.91","null","<span style='color:red; font-size: 70px;'>错误! </span>","null","","","","","","","","","","","","","","","","","","","","","","","feedback_test"
"","","","","","psychophysics","326","629463","0.0-9.0-0.0-0.0-0.0-0.92","847","","j","","","","","","","","","","","","","key","j","16.66682727272749","960","536","j","true","img/S_ambi40.png","朋友","same",""
"","","","","","html-keyboard-response","327","629975","0.0-9.0-0.0-0.0-0.0-1.92","null","<span style='color:GreenYellow; font-size: 70px;'>正确! </span>","null","","","","","","","","","","","","","","","","","","","","","","","feedback_test"
"","","","","","psychophysics","328","631682","0.0-9.0-0.0-0.0-0.0-0.93","706","","j","","","","","","","","","","","","","key","j","16.657475247525028","960","536","j","true","img/T_ambi40.png","をる","same",""
"","","","","","html-keyboard-response","329","632185","0.0-9.0-0.0-0.0-0.0-1.93","null","<span style='color:GreenYellow; font-size: 70px;'>正确! </span>","null","","","","","","","","","","","","","","","","","","","","","","","feedback_test"
"","","","","","psychophysics","330","634205","0.0-9.0-0.0-0.0-0.0-0.94","1013","","f","","","","","","","","","","","","","key","f","16.66748333333332","960","536","f","true","img/C_ambi40.png","生人","same",""
"","","","","","html-keyboard-response","331","634706","0.0-9.0-0.0-0.0-0.0-1.94","null","<span style='color:GreenYellow; font-size: 70px;'>正确! </span>","null","","","","","","","","","","","","","","","","","","","","","","","feedback_test"
"","","","","","psychophysics","332","636332","0.0-9.0-0.0-0.0-0.0-0.95","623","","f","","","","","","","","","","","","","key","f","16.668505154638886","960","536","f","true","img/C_ambi40.png","生人","same",""
"","","","","","html-keyboard-response","333","636845","0.0-9.0-0.0-0.0-0.0-1.95","null","<span style='color:GreenYellow; font-size: 70px;'>正确! </span>","null","","","","","","","","","","","","","","","","","","","","","","","feedback_test"
"","","","","","psychophysics","334","638637","0.0-9.0-0.0-0.0-0.0-0.96","778","","j","","","","","","","","","","","","","key","j","16.66642452830137","960","536","j","true","img/C_ambi40.png","朋友","same",""
"","","","","","html-keyboard-response","335","639148","0.0-9.0-0.0-0.0-0.0-1.96","null","<span style='color:GreenYellow; font-size: 70px;'>正确! </span>","null","","","","","","","","","","","","","","","","","","","","","","","feedback_test"
"","","","","","psychophysics","336","641058","0.0-9.0-0.0-0.0-0.0-0.97","903","","j","","","","","","","","","","","","","key","j","16.66670796460167","960","536","j","true","img/H_ambi40.png","自我","same",""
"","","","","","html-keyboard-response","337","641571","0.0-9.0-0.0-0.0-0.0-1.97","null","<span style='color:GreenYellow; font-size: 70px;'>正确! </span>","null","","","","","","","","","","","","","","","","","","","","","","","feedback_test"
"","","","","","psychophysics","338","643236","0.0-9.0-0.0-0.0-0.0-0.98","660","","f","","","","","","","","","","","","","key","f","16.666696969697234","960","536","f","true","img/S_ambi40.png","自我","same",""
"","","","","","html-keyboard-response","339","643751","0.0-9.0-0.0-0.0-0.0-1.98","null","<span style='color:GreenYellow; font-size: 70px;'>正确! </span>","null","","","","","","","","","","","","","","","","","","","","","","","feedback_test"
"","","","","","psychophysics","340","645360","0.0-9.0-0.0-0.0-0.0-0.99","601","","j","","","","","","","","","","","","","key","j","16.6684479166676","960","536","j","true","img/T_ambi40.png","をる","same",""
"","","","","","html-keyboard-response","341","645866","0.0-9.0-0.0-0.0-0.0-1.99","null","<span style='color:GreenYellow; font-size: 70px;'>正确! </span>","null","","","","","","","","","","","","","","","","","","","","","","","feedback_test"
"","","","","","psychophysics","342","647475","0.0-9.0-0.0-0.0-0.0-0.100","606","","f","","","","","","","","","","","","","key","f","16.668400000000226","960","536","f","true","img/S_ambi40.png","自我","same",""
"","","","","","html-keyboard-response","343","647989","0.0-9.0-0.0-0.0-0.0-1.100","null","<span style='color:GreenYellow; font-size: 70px;'>正确! </span>","null","","","","","","","","","","","","","","","","","","","","","","","feedback_test"
"","","","","","psychophysics","344","650154","0.0-9.0-0.0-0.0-0.0-0.101","1161","","f","","","","","","","","","","","","","key","f","16.666798449612344","960","536","f","true","img/H_ambi40.png","朋友","same",""
"","","","","","html-keyboard-response","345","650654","0.0-9.0-0.0-0.0-0.0-1.101","null","<span style='color:GreenYellow; font-size: 70px;'>正确! </span>","null","","","","","","","","","","","","","","","","","","","","","","","feedback_test"
"","","","","","psychophysics","346","652394","0.0-9.0-0.0-0.0-0.0-0.102","734","","f","","","","","","","","","","","","","key","f","16.668355769230402","960","536","f","true","img/S_ambi40.png","自我","same",""
"","","","","","html-keyboard-response","347","652905","0.0-9.0-0.0-0.0-0.0-1.102","null","<span style='color:GreenYellow; font-size: 70px;'>正确! </span>","null","","","","","","","","","","","","","","","","","","","","","","","feedback_test"
"","","","","","psychophysics","348","654593","0.0-9.0-0.0-0.0-0.0-0.103","683","","f","","","","","","","","","","","","","key","f","16.66824752475264","960","536","j","false","img/C_ambi40.png","自我","same",""
"","","","","","html-keyboard-response","349","655100","0.0-9.0-0.0-0.0-0.0-1.103","null","<span style='color:red; font-size: 70px;'>错误! </span>","null","","","","","","","","","","","","","","","","","","","","","","","feedback_test"
"","","","","","psychophysics","350","656852","0.0-9.0-0.0-0.0-0.0-0.104","749","","j","","","","","","","","","","","","","key","j","16.66495192307719","960","536","f","false","img/C_ambi40.png","生人","same",""
"","","","","","html-keyboard-response","351","657358","0.0-9.0-0.0-0.0-0.0-1.104","null","<span style='color:red; font-size: 70px;'>错误! </span>","null","","","","","","","","","","","","","","","","","","","","","","","feedback_test"
"","","","","","psychophysics","352","659126","0.0-9.0-0.0-0.0-0.0-0.105","767","","j","","","","","","","","","","","","","key","j","16.65735576923068","960","536","j","true","img/T_ambi40.png","をる","same",""
"","","","","","html-keyboard-response","353","659627","0.0-9.0-0.0-0.0-0.0-1.105","null","<span style='color:GreenYellow; font-size: 70px;'>正确! </span>","null","","","","","","","","","","","","","","","","","","","","","","","feedback_test"
"","","","","","psychophysics","354","661638","0.0-9.0-0.0-0.0-0.0-0.106","997","","j","","","","","","","","","","","","","key","j","16.666857142856408","960","536","f","false","img/H_ambi40.png","朋友","same",""
"","","","","","html-keyboard-response","355","662153","0.0-9.0-0.0-0.0-0.0-1.106","null","<span style='color:red; font-size: 70px;'>错误! </span>","null","","","","","","","","","","","","","","","","","","","","","","","feedback_test"
"","","","","","psychophysics","356","663654","0.0-9.0-0.0-0.0-0.0-0.107","495","","f","","","","","","","","","","","","","key","f","16.668516853932825","960","536","j","false","img/H_ambi40.png","生人","same",""
"","","","","","html-keyboard-response","357","664160","0.0-9.0-0.0-0.0-0.0-1.107","null","<span style='color:red; font-size: 70px;'>错误! </span>","null","","","","","","","","","","","","","","","","","","","","","","","feedback_test"
"","","","","","html-keyboard-response","358","669774","0.0-9.0-0.0-0.0-1.0","5613","<style>.context{color:white; font-size: 35px; line-height:40px}</style>                          <div><p class='context'>您正确回答了69% 的试次。</p><p class='context'>您的平均反应时为843毫秒。</p><p class='context'>请按任意键进入休息</p></div>"," ","","","","","","","","","","","","","","","","","","","","","","",""
"","","","","","html-button-response","359","715958","0.0-9.0-0.0-0.0-2.0","46180","
                    <p>您当前还剩余5组实验</p>
                    <p>现在是休息时间，当您结束休息后，您可以点击 结束休息 按钮 继续</p>
                    <p>建议休息时间还剩余<span id=""iii"">60</span>秒</p>","0","","","","","","","","","","","","","","","","","","","","","","",""
"","","","","","psychophysics","360","718270","0.0-9.0-0.0-0.0-0.1-0.108","1308","","f","","","","","","","","","","","","","key","f","16.663620437955974","960","536","f","true","img/C_ambi40.png","生人","same",""
"","","","","","html-keyboard-response","361","718786","0.0-9.0-0.0-0.0-0.1-1.108","null","<span style='color:GreenYellow; font-size: 70px;'>正确! </span>","null","","","","","","","","","","","","","","","","","","","","","","","feedback_test"
"","","","","","psychophysics","362","720628","0.0-9.0-0.0-0.0-0.1-0.109","836","","f","","","","","","","","","","","","","key","f","16.668072727272836","960","536","f","true","img/S_ambi40.png","自我","same",""
"","","","","","html-keyboard-response","363","721129","0.0-9.0-0.0-0.0-0.1-1.109","null","<span style='color:GreenYellow; font-size: 70px;'>正确! </span>","null","","","","","","","","","","","","","","","","","","","","","","","feedback_test"
"","","","","","psychophysics","364","722703","0.0-9.0-0.0-0.0-0.1-0.110","563","","f","","","","","","","","","","","","","key","f","16.6654193548383","960","536","f","true","img/S_ambi40.png","自我","same",""
"","","","","","html-keyboard-response","365","723205","0.0-9.0-0.0-0.0-0.1-1.110","null","<span style='color:GreenYellow; font-size: 70px;'>正确! </span>","null","","","","","","","","","","","","","","","","","","","","","","","feedback_test"
"","","","","","psychophysics","366","724919","0.0-9.0-0.0-0.0-0.1-0.111","710","","f","","","","","","","","","","","","","key","f","16.668147058824225","960","536","f","true","img/S_ambi40.png","自我","same",""
"","","","","","html-keyboard-response","367","725433","0.0-9.0-0.0-0.0-0.1-1.111","null","<span style='color:GreenYellow; font-size: 70px;'>正确! </span>","null","","","","","","","","","","","","","","","","","","","","","","","feedback_test"
"","","","","","psychophysics","368","727481","0.0-9.0-0.0-0.0-0.1-0.112","1040","","j","","","","","","","","","","","","","key","j","16.66731967213163","960","536","j","true","img/C_ambi40.png","朋友","same",""
"","","","","","html-keyboard-response","369","727984","0.0-9.0-0.0-0.0-0.1-1.112","null","<span style='color:GreenYellow; font-size: 70px;'>正确! </span>","null","","","","","","","","","","","","","","","","","","","","","","","feedback_test"
"","","","","","psychophysics","370","730013","0.0-9.0-0.0-0.0-0.1-0.113","1021","","f","","","","","","","","","","","","","key","f","16.667033057851324","960","536","f","true","img/H_ambi40.png","朋友","same",""
"","","","","","html-keyboard-response","371","730529","0.0-9.0-0.0-0.0-0.1-1.113","null","<span style='color:GreenYellow; font-size: 70px;'>正确! </span>","null","","","","","","","","","","","","","","","","","","","","","","","feedback_test"
"","","","","","psychophysics","372","732159","0.0-9.0-0.0-0.0-0.1-0.114","620","","f","","","","","","","","","","","","","key","f","16.666371134020984","960","536","f","true","img/H_ambi40.png","朋友","same",""
"","","","","","html-keyboard-response","373","732673","0.0-9.0-0.0-0.0-0.1-1.114","null","<span style='color:GreenYellow; font-size: 70px;'>正确! </span>","null","","","","","","","","","","","","","","","","","","","","","","","feedback_test"
"","","","","","psychophysics","374","734695","0.0-9.0-0.0-0.0-0.1-0.115","1021","","j","","","","","","","","","","","","","key","j","16.66597520661144","960","536","j","true","img/S_ambi40.png","生人","same",""
"","","","","","html-keyboard-response","375","735202","0.0-9.0-0.0-0.0-0.1-1.115","null","<span style='color:GreenYellow; font-size: 70px;'>正确! </span>","null","","","","","","","","","","","","","","","","","","","","","","","feedback_test"
"","","","","","psychophysics","376","737103","0.0-9.0-0.0-0.0-0.1-0.116","895","","f","","","","","","","","","","","","","key","f","16.66677876106212","960","536","f","true","img/H_ambi40.png","朋友","same",""
"","","","","","html-keyboard-response","377","737615","0.0-9.0-0.0-0.0-0.1-1.116","null","<span style='color:GreenYellow; font-size: 70px;'>正确! </span>","null","","","","","","","","","","","","","","","","","","","","","","","feedback_test"
"","","","","","psychophysics","378","739464","0.0-9.0-0.0-0.0-0.1-0.117","848","","j","","","","","","","","","","","","","key","j","16.667427272727416","960","536","j","true","img/S_ambi40.png","朋友","same",""
"","","","","","html-keyboard-response","379","739966","0.0-9.0-0.0-0.0-0.1-1.117","null","<span style='color:GreenYellow; font-size: 70px;'>正确! </span>","null","","","","","","","","","","","","","","","","","","","","","","","feedback_test"
"","","","","","psychophysics","380","741858","0.0-9.0-0.0-0.0-0.1-0.118","886","","j","","","","","","","","","","","","","key","j","16.66808035714348","960","536","j","true","img/C_ambi40.png","自我","same",""
"","","","","","html-keyboard-response","381","742364","0.0-9.0-0.0-0.0-0.1-1.118","null","<span style='color:GreenYellow; font-size: 70px;'>正确! </span>","null","","","","","","","","","","","","","","","","","","","","","","","feedback_test"
"","","","","","psychophysics","382","744472","0.0-9.0-0.0-0.0-0.1-0.119","1097","","f","","","","","","","","","","","","","key","f","16.666824000000023","960","536","f","true","img/C_ambi40.png","生人","same",""
"","","","","","html-keyboard-response","383","744982","0.0-9.0-0.0-0.0-0.1-1.119","null","<span style='color:GreenYellow; font-size: 70px;'>正确! </span>","null","","","","","","","","","","","","","","","","","","","","","","","feedback_test"
"","","","","","psychophysics","384","746749","0.0-9.0-0.0-0.0-0.1-0.120","763","","j","","","","","","","","","","","","","key","j","16.666819047619633","960","536","j","true","img/T_ambi40.png","をる","same",""
"","","","","","html-keyboard-response","385","747260","0.0-9.0-0.0-0.0-0.1-1.120","null","<span style='color:GreenYellow; font-size: 70px;'>正确! </span>","null","","","","","","","","","","","","","","","","","","","","","","","feedback_test"
"","","","","","psychophysics","386","749465","0.0-9.0-0.0-0.0-0.1-0.121","1189","","j","","","","","","","","","","","","","key","j","16.66667175572543","960","536","j","true","img/H_ambi40.png","生人","same",""
"","","","","","html-keyboard-response","387","749966","0.0-9.0-0.0-0.0-0.1-1.121","null","<span style='color:GreenYellow; font-size: 70px;'>正确! </span>","null","","","","","","","","","","","","","","","","","","","","","","","feedback_test"
"","","","","","psychophysics","388","751878","0.0-9.0-0.0-0.0-0.1-0.122","902","","f","","","","","","","","","","","","","key","f","16.668017543859477","960","536","f","true","img/C_ambi40.png","生人","same",""
"","","","","","html-keyboard-response","389","752389","0.0-9.0-0.0-0.0-0.1-1.122","null","<span style='color:GreenYellow; font-size: 70px;'>正确! </span>","null","","","","","","","","","","","","","","","","","","","","","","","feedback_test"
"","","","","","psychophysics","390","754329","0.0-9.0-0.0-0.0-0.1-0.123","937","","j","","","","","","","","","","","","","key","j","16.66646551724086","960","536","j","true","img/H_ambi40.png","自我","same",""
"","","","","","html-keyboard-response","391","754835","0.0-9.0-0.0-0.0-0.1-1.123","null","<span style='color:GreenYellow; font-size: 70px;'>正确! </span>","null","","","","","","","","","","","","","","","","","","","","","","","feedback_test"
"","","","","","psychophysics","392","756493","0.0-9.0-0.0-0.0-0.1-0.124","650","","j","","","","","","","","","","","","","key","j","16.664636363636355","960","536","j","true","img/T_ambi40.png","をる","same",""
"","","","","","html-keyboard-response","393","757008","0.0-9.0-0.0-0.0-0.1-1.124","null","<span style='color:GreenYellow; font-size: 70px;'>正确! </span>","null","","","","","","","","","","","","","","","","","","","","","","","feedback_test"
"","","","","","psychophysics","394","758555","0.0-9.0-0.0-0.0-0.1-0.125","547","","j","","","","","","","","","","","","","key","j","16.659505494505648","960","536","j","true","img/T_ambi40.png","をる","same",""
"","","","","","html-keyboard-response","395","759069","0.0-9.0-0.0-0.0-0.1-1.125","null","<span style='color:GreenYellow; font-size: 70px;'>正确! </span>","null","","","","","","","","","","","","","","","","","","","","","","","feedback_test"
"","","","","","psychophysics","396","760801","0.0-9.0-0.0-0.0-0.1-0.126","729","","j","","","","","","","","","","","","","key","j","16.66823300970854","960","536","j","true","img/S_ambi40.png","生人","same",""
"","","","","","html-keyboard-response","397","761305","0.0-9.0-0.0-0.0-0.1-1.126","null","<span style='color:GreenYellow; font-size: 70px;'>正确! </span>","null","","","","","","","","","","","","","","","","","","","","","","","feedback_test"
"","","","","","psychophysics","398","763259","0.0-9.0-0.0-0.0-0.1-0.127","950","","f","","","","","","","","","","","","","key","f","16.667706896551955","960","536","f","true","img/H_ambi40.png","朋友","same",""
"","","","","","html-keyboard-response","399","763774","0.0-9.0-0.0-0.0-0.1-1.127","null","<span style='color:GreenYellow; font-size: 70px;'>正确! </span>","null","","","","","","","","","","","","","","","","","","","","","","","feedback_test"
"","","","","","psychophysics","400","765727","0.0-9.0-0.0-0.0-0.1-0.128","952","","j","","","","","","","","","","","","","key","j","16.66701709401782","960","536","f","false","img/C_ambi40.png","生人","same",""
"","","","","","html-keyboard-response","401","766243","0.0-9.0-0.0-0.0-0.1-1.128","null","<span style='color:red; font-size: 70px;'>错误! </span>","null","","","","","","","","","","","","","","","","","","","","","","","feedback_test"
"","","","","","psychophysics","402","768098","0.0-9.0-0.0-0.0-0.1-0.129","841","","f","","","","","","","","","","","","","key","f","16.666509090909013","960","536","f","true","img/C_ambi40.png","生人","same",""
"","","","","","html-keyboard-response","403","768609","0.0-9.0-0.0-0.0-0.1-1.129","null","<span style='color:GreenYellow; font-size: 70px;'>正确! </span>","null","","","","","","","","","","","","","","","","","","","","","","","feedback_test"
"","","","","","psychophysics","404","770496","0.0-9.0-0.0-0.0-0.1-0.130","871","","j","","","","","","","","","","","","","key","j","16.667875000000226","960","536","j","true","img/S_ambi40.png","朋友","same",""
"","","","","","html-keyboard-response","405","771009","0.0-9.0-0.0-0.0-0.1-1.130","null","<span style='color:GreenYellow; font-size: 70px;'>正确! </span>","null","","","","","","","","","","","","","","","","","","","","","","","feedback_test"
"","","","","","psychophysics","406","772623","0.0-9.0-0.0-0.0-0.1-0.131","614","","j","","","","","","","","","","","","","key","j","16.668284210525943","960","536","j","true","img/T_ambi40.png","をる","same",""
"","","","","","html-keyboard-response","407","773135","0.0-9.0-0.0-0.0-0.1-1.131","null","<span style='color:GreenYellow; font-size: 70px;'>正确! </span>","null","","","","","","","","","","","","","","","","","","","","","","","feedback_test"
"","","","","","psychophysics","408","774953","0.0-9.0-0.0-0.0-0.1-0.132","810","","f","","","","","","","","","","","","","key","f","16.66799074074111","960","536","f","true","img/S_ambi40.png","自我","same",""
"","","","","","html-keyboard-response","409","775460","0.0-9.0-0.0-0.0-0.1-1.132","null","<span style='color:GreenYellow; font-size: 70px;'>正确! </span>","null","","","","","","","","","","","","","","","","","","","","","","","feedback_test"
"","","","","","psychophysics","410","777506","0.0-9.0-0.0-0.0-0.1-0.133","1045","","j","","","","","","","","","","","","","key","j","16.666925619835464","960","536","j","true","img/C_ambi40.png","自我","same",""
"","","","","","html-keyboard-response","411","778011","0.0-9.0-0.0-0.0-0.1-1.133","null","<span style='color:GreenYellow; font-size: 70px;'>正确! </span>","null","","","","","","","","","","","","","","","","","","","","","","","feedback_test"
"","","","","","psychophysics","412","779511","0.0-9.0-0.0-0.0-0.1-0.134","494","","f","","","","","","","","","","","","","key","f","16.66673033707906","960","536","f","true","img/S_ambi40.png","自我","same",""
"","","","","","html-keyboard-response","413","780021","0.0-9.0-0.0-0.0-0.1-1.134","null","<span style='color:GreenYellow; font-size: 70px;'>正确! </span>","null","","","","","","","","","","","","","","","","","","","","","","","feedback_test"
"","","","","","psychophysics","414","781567","0.0-9.0-0.0-0.0-0.1-0.135","542","","f","","","","","","","","","","","","","key","f","16.66811956521807","960","536","f","true","img/S_ambi40.png","自我","same",""
"","","","","","html-keyboard-response","415","782077","0.0-9.0-0.0-0.0-0.1-1.135","null","<span style='color:GreenYellow; font-size: 70px;'>正确! </span>","null","","","","","","","","","","","","","","","","","","","","","","","feedback_test"
"","","","","","psychophysics","416","783821","0.0-9.0-0.0-0.0-0.1-0.136","741","","j","","","","","","","","","","","","","key","j","16.666689320388294","960","536","f","false","img/H_ambi40.png","朋友","same",""
"","","","","","html-keyboard-response","417","784324","0.0-9.0-0.0-0.0-0.1-1.136","null","<span style='color:red; font-size: 70px;'>错误! </span>","null","","","","","","","","","","","","","","","","","","","","","","","feedback_test"
"","","","","","psychophysics","418","786146","0.0-9.0-0.0-0.0-0.1-0.137","821","","j","","","","","","","","","","","","","key","j","16.667550458715922","960","536","j","true","img/H_ambi40.png","生人","same",""
"","","","","","html-keyboard-response","419","786652","0.0-9.0-0.0-0.0-0.1-1.137","null","<span style='color:GreenYellow; font-size: 70px;'>正确! </span>","null","","","","","","","","","","","","","","","","","","","","","","","feedback_test"
"","","","","","psychophysics","420","788548","0.0-9.0-0.0-0.0-0.1-0.138","889","","j","","","","","","","","","","","","","key","j","16.668079646017848","960","536","f","false","img/C_ambi40.png","生人","same",""
"","","","","","html-keyboard-response","421","789062","0.0-9.0-0.0-0.0-0.1-1.138","null","<span style='color:red; font-size: 70px;'>错误! </span>","null","","","","","","","","","","","","","","","","","","","","","","","feedback_test"
"","","","","","psychophysics","422","790843","0.0-9.0-0.0-0.0-0.1-0.139","774","","j","","","","","","","","","","","","","key","j","16.667094339623187","960","536","j","true","img/H_ambi40.png","自我","same",""
"","","","","","html-keyboard-response","423","791358","0.0-9.0-0.0-0.0-0.1-1.139","null","<span style='color:GreenYellow; font-size: 70px;'>正确! </span>","null","","","","","","","","","","","","","","","","","","","","","","","feedback_test"
"","","","","","psychophysics","424","793105","0.0-9.0-0.0-0.0-0.1-0.140","746","","f","","","","","","","","","","","","","key","f","16.658320388349804","960","536","f","true","img/H_ambi40.png","朋友","same",""
"","","","","","html-keyboard-response","425","793617","0.0-9.0-0.0-0.0-0.1-1.140","null","<span style='color:GreenYellow; font-size: 70px;'>正确! </span>","null","","","","","","","","","","","","","","","","","","","","","","","feedback_test"
"","","","","","psychophysics","426","795293","0.0-9.0-0.0-0.0-0.1-0.141","667","","j","","","","","","","","","","","","","key","j","16.66786868686816","960","536","j","true","img/T_ambi40.png","をる","same",""
"","","","","","html-keyboard-response","427","795800","0.0-9.0-0.0-0.0-0.1-1.141","null","<span style='color:GreenYellow; font-size: 70px;'>正确! </span>","null","","","","","","","","","","","","","","","","","","","","","","","feedback_test"
"","","","","","psychophysics","428","797694","0.0-9.0-0.0-0.0-0.1-0.142","893","","f","","","","","","","","","","","","","key","f","16.66715044247716","960","536","j","false","img/C_ambi40.png","朋友","same",""
"","","","","","html-keyboard-response","429","798198","0.0-9.0-0.0-0.0-0.1-1.142","null","<span style='color:red; font-size: 70px;'>错误! </span>","null","","","","","","","","","","","","","","","","","","","","","","","feedback_test"
"","","","","","psychophysics","430","799810","0.0-9.0-0.0-0.0-0.1-0.143","602","","j","","","","","","","","","","","","","key","j","16.666947916666686","960","536","j","true","img/T_ambi40.png","をる","same",""
"","","","","","html-keyboard-response","431","800318","0.0-9.0-0.0-0.0-0.1-1.143","null","<span style='color:GreenYellow; font-size: 70px;'>正确! </span>","null","","","","","","","","","","","","","","","","","","","","","","","feedback_test"
"","","","","","psychophysics","432","802282","0.0-9.0-0.0-0.0-0.1-0.144","956","","j","","","","","","","","","","","","","key","j","16.667675213675356","960","536","j","true","img/H_ambi40.png","生人","same",""
"","","","","","html-keyboard-response","433","802796","0.0-9.0-0.0-0.0-0.1-1.144","null","<span style='color:GreenYellow; font-size: 70px;'>正确! </span>","null","","","","","","","","","","","","","","","","","","","","","","","feedback_test"
"","","","","","psychophysics","434","804639","0.0-9.0-0.0-0.0-0.1-0.145","833","","j","","","","","","","","","","","","","key","j","16.6655137614676","960","536","j","true","img/T_ambi40.png","をる","same",""
"","","","","","html-keyboard-response","435","805155","0.0-9.0-0.0-0.0-0.1-1.145","null","<span style='color:GreenYellow; font-size: 70px;'>正确! </span>","null","","","","","","","","","","","","","","","","","","","","","","","feedback_test"
"","","","","","psychophysics","436","806856","0.0-9.0-0.0-0.0-0.1-0.146","697","","f","","","","","","","","","","","","","key","f","16.66858415841586","960","536","f","true","img/C_ambi40.png","生人","same",""
"","","","","","html-keyboard-response","437","807369","0.0-9.0-0.0-0.0-0.1-1.146","null","<span style='color:GreenYellow; font-size: 70px;'>正确! </span>","null","","","","","","","","","","","","","","","","","","","","","","","feedback_test"
"","","","","","psychophysics","438","809076","0.0-9.0-0.0-0.0-0.1-0.147","702","","j","","","","","","","","","","","","","key","j","16.667623762376746","960","536","j","true","img/H_ambi40.png","自我","same",""
"","","","","","html-keyboard-response","439","809583","0.0-9.0-0.0-0.0-0.1-1.147","null","<span style='color:GreenYellow; font-size: 70px;'>正确! </span>","null","","","","","","","","","","","","","","","","","","","","","","","feedback_test"
"","","","","","psychophysics","440","811762","0.0-9.0-0.0-0.0-0.1-0.148","1177","","j","","","","","","","","","","","","","key","j","16.666376923076594","960","536","j","true","img/C_ambi40.png","朋友","same",""
"","","","","","html-keyboard-response","441","812268","0.0-9.0-0.0-0.0-0.1-1.148","null","<span style='color:GreenYellow; font-size: 70px;'>正确! </span>","null","","","","","","","","","","","","","","","","","","","","","","","feedback_test"
"","","","","","psychophysics","442","814212","0.0-9.0-0.0-0.0-0.1-0.149","939","","f","","","","","","","","","","","","","key","f","16.668086206896735","960","536","f","true","img/C_ambi40.png","生人","same",""
"","","","","","html-keyboard-response","443","814725","0.0-9.0-0.0-0.0-0.1-1.149","null","<span style='color:GreenYellow; font-size: 70px;'>正确! </span>","null","","","","","","","","","","","","","","","","","","","","","","","feedback_test"
"","","","","","psychophysics","444","816783","0.0-9.0-0.0-0.0-0.1-0.150","1058","","f","","","","","","","","","","","","","key","f","16.661254098361212","960","536","f","true","img/H_ambi40.png","朋友","same",""
