"success","timeout","failed_images","failed_audio","failed_video","trial_type","trial_index","time_elapsed","internal_node_id","rt","stimulus","response","value","item_width_mm","item_height_mm","item_width_px","px2mm","view_dist_mm","item_width_deg","px2deg","scale_factor","win_width_deg","win_height_deg","view_history","response_type","key_press","avg_frame_time","center_x","center_y","correct_response","correct","Image","word","condition","screen_id"
"true","false","[]","[]","[]","preload","0","60","0.0-0.0","","","","","","","","","","","","","","","","","","","","","","","","","",""
"","","","","","html-keyboard-response","1","15856","0.0-1.0","15794","
     <p>您好，欢迎参加本次实验。</p>
     <p>为充分保障您的权利，请确保您已经知晓并同意《参与实验同意书》以及《数据公开知情同意书》。</p>
     <p>如果您未见过上述内容，请咨询实验员。</p>
     <p>如果您选择继续实验，则表示您已经清楚两份知情同意书的内容并同意。</p>
     <p> <div style = ""color: green""><按任意键至下页></div> </p>
     ","enter","","","","","","","","","","","","","","","","","","","","","","",""
"","","","","","html-keyboard-response","2","16305","0.0-2.0","448","
     <p>本实验首先需要您填写一些基本个人信息。</p>
     <p> <div style = ""color: green""><按任意键至下页></div></p>
     ","enter","","","","","","","","","","","","","","","","","","","","","","",""
"","","","","","call-function","3","16305","0.0-3.0-0.0","","","","","","","","","","","","","","","","","","","","","","","","","",""
"","","","","","survey-html-form","4","21531","0.0-3.0-1.0","5224","","{""Q0"":""13""}","","","","","","","","","","","","","","","","","","","","","","",""
"","","","","","html-button-response","5","23110","0.0-3.0-2.0","1577","<p style = 'color : white'>您的性别</p>","1","","","","","","","","","","","","","","","","","","","","","","",""
"","","","","","survey-html-form","6","27293","0.0-3.0-3.0","4182","","{""Q0"":""2002""}","","","","","","","","","","","","","","","","","","","","","","",""
"","","","","","survey-html-form","7","29558","0.0-3.0-4.0","2265","","{""Q0"":""5""}","","","","","","","","","","","","","","","","","","","","","","",""
"","","","","","virtual-chinrest","8","106717","0.0-4.0","77156","","","","85.6","53.98","374.70922055880715","4.3785082954799845","653.51","7.494184411176143","50","0.9660824451027552","23.94","12.42","","","","","","","","","","","",""
"true","","","","","fullscreen","9","109897","0.0-5.0","","","","","","","","","","","","","","","","","","","","","","","","","",""
"","","","","","instructions","10","192984","0.0-6.0","83087","","","","","","","","","","","","","","[{""page_index"":0,""viewing_time"":2460},{""page_index"":1,""viewing_time"":56700},{""page_index"":2,""viewing_time"":5490},{""page_index"":3,""viewing_time"":18437}]","","","","","","","","","","",""
"","","","","","psychophysics","11","195504","0.0-7.0-0.0","null","","null","","","","","","","","","","","","","key","null","16.65319463087249","650.8014241391193","362.34725125245757","f","false","img/H_ambi40.png","生人","prac",""
"","","","","","html-keyboard-response","12","196020","0.0-7.0-1.0","null","<span class='add_' style='color:yellow; font-size: 70px;'> 太慢! </span>","null","","","","","","","","","","","","","","","","","","","","","","","feedback_test"
"","","","","","psychophysics","13","198534","0.0-7.0-0.1","null","","null","","","","","","","","","","","","","key","null","16.653040268456472","650.8014241391193","362.34725125245757","f","false","img/T_ambi40.png","をる","prac",""
"","","","","","html-keyboard-response","14","199048","0.0-7.0-1.1","null","<span class='add_' style='color:yellow; font-size: 70px;'> 太慢! </span>","null","","","","","","","","","","","","","","","","","","","","","","","feedback_test"
"","","","","","psychophysics","15","201566","0.0-7.0-0.2","null","","null","","","","","","","","","","","","","key","null","16.573657718120845","650.8014241391193","362.34725125245757","f","false","img/T_ambi40.png","をる","prac",""
"","","","","","html-keyboard-response","16","202083","0.0-7.0-1.2","null","<span class='add_' style='color:yellow; font-size: 70px;'> 太慢! </span>","null","","","","","","","","","","","","","","","","","","","","","","","feedback_test"
"","","","","","psychophysics","17","204596","0.0-7.0-0.3","null","","null","","","","","","","","","","","","","key","null","16.652785234899422","650.8014241391193","362.34725125245757","j","false","img/S_ambi40.png","生人","prac",""
"","","","","","html-keyboard-response","18","205105","0.0-7.0-1.3","null","<span class='add_' style='color:yellow; font-size: 70px;'> 太慢! </span>","null","","","","","","","","","","","","","","","","","","","","","","","feedback_test"
"","","","","","psychophysics","19","206988","0.0-7.0-0.4","881","","f","","","","","","","","","","","","","key","f","16.652875000000027","650.8014241391193","362.34725125245757","j","false","img/H_ambi40.png","朋友","prac",""
"","","","","","html-keyboard-response","20","207499","0.0-7.0-1.4","null","<span style='color:red; font-size: 70px;'>错误! </span>","null","","","","","","","","","","","","","","","","","","","","","","","feedback_test"
"","","","","","psychophysics","21","209485","0.0-7.0-0.5","981","","j","","","","","","","","","","","","","key","j","16.653059322033787","650.8014241391193","362.34725125245757","f","false","img/C_ambi40.png","朋友","prac",""
"","","","","","html-keyboard-response","22","209989","0.0-7.0-1.5","null","<span style='color:red; font-size: 70px;'>错误! </span>","null","","","","","","","","","","","","","","","","","","","","","","","feedback_test"
"","","","","","psychophysics","23","211831","0.0-7.0-0.6","807","","f","","","","","","","","","","","","","key","f","16.65310909090913","650.8014241391193","362.34725125245757","f","true","img/T_ambi40.png","をる","prac",""
"","","","","","html-keyboard-response","24","212336","0.0-7.0-1.6","null","<span style='color:GreenYellow; font-size: 70px;'>正确! </span>","null","","","","","","","","","","","","","","","","","","","","","","","feedback_test"
"","","","","","psychophysics","25","214698","0.0-7.0-0.7","1360","","j","","","","","","","","","","","","","key","j","16.65348226950357","650.8014241391193","362.34725125245757","j","true","img/C_ambi40.png","自我","prac",""
"","","","","","html-keyboard-response","26","215212","0.0-7.0-1.7","null","<span style='color:GreenYellow; font-size: 70px;'>正确! </span>","null","","","","","","","","","","","","","","","","","","","","","","","feedback_test"
"","","","","","psychophysics","27","216961","0.0-7.0-0.8","743","","f","","","","","","","","","","","","","key","f","16.652865384615254","650.8014241391193","362.34725125245757","f","true","img/C_ambi40.png","生人","prac",""
"","","","","","html-keyboard-response","28","217466","0.0-7.0-1.8","null","<span style='color:GreenYellow; font-size: 70px;'>正确! </span>","null","","","","","","","","","","","","","","","","","","","","","","","feedback_test"
"","","","","","psychophysics","29","219444","0.0-7.0-0.9","977","","j","","","","","","","","","","","","","key","j","16.652813559321842","650.8014241391193","362.34725125245757","f","false","img/T_ambi40.png","をる","prac",""
"","","","","","html-keyboard-response","30","219950","0.0-7.0-1.9","null","<span style='color:red; font-size: 70px;'>错误! </span>","null","","","","","","","","","","","","","","","","","","","","","","","feedback_test"
"","","","","","psychophysics","31","221689","0.0-7.0-0.10","738","","f","","","","","","","","","","","","","key","f","16.652932038835026","650.8014241391193","362.34725125245757","j","false","img/C_ambi40.png","自我","prac",""
"","","","","","html-keyboard-response","32","222209","0.0-7.0-1.10","null","<span style='color:red; font-size: 70px;'>错误! </span>","null","","","","","","","","","","","","","","","","","","","","","","","feedback_test"
"","","","","","psychophysics","33","224729","0.0-7.0-0.11","null","","null","","","","","","","","","","","","","key","null","16.65364666666661","650.8014241391193","362.34725125245757","j","false","img/H_ambi40.png","朋友","prac",""
"","","","","","html-keyboard-response","34","225240","0.0-7.0-1.11","null","<span class='add_' style='color:yellow; font-size: 70px;'> 太慢! </span>","null","","","","","","","","","","","","","","","","","","","","","","","feedback_test"
"","","","","","psychophysics","35","226694","0.0-7.0-0.12","450","","j","","","","","","","","","","","","","key","j","16.653627906976737","650.8014241391193","362.34725125245757","j","true","img/S_ambi40.png","生人","prac",""
"","","","","","html-keyboard-response","36","227199","0.0-7.0-1.12","null","<span style='color:GreenYellow; font-size: 70px;'>正确! </span>","null","","","","","","","","","","","","","","","","","","","","","","","feedback_test"
"","","","","","psychophysics","37","229014","0.0-7.0-0.13","804","","j","","","","","","","","","","","","","key","j","16.65273148148144","650.8014241391193","362.34725125245757","f","false","img/S_ambi40.png","朋友","prac",""
"","","","","","html-keyboard-response","38","229524","0.0-7.0-1.13","null","<span style='color:red; font-size: 70px;'>错误! </span>","null","","","","","","","","","","","","","","","","","","","","","","","feedback_test"
"","","","","","psychophysics","39","231315","0.0-7.0-0.14","762","","f","","","","","","","","","","","","","key","f","16.653429906542204","650.8014241391193","362.34725125245757","f","true","img/H_ambi40.png","自我","prac",""
"","","","","","html-keyboard-response","40","231822","0.0-7.0-1.14","null","<span style='color:GreenYellow; font-size: 70px;'>正确! </span>","null","","","","","","","","","","","","","","","","","","","","","","","feedback_test"
"","","","","","psychophysics","41","233730","0.0-7.0-0.15","907","","j","","","","","","","","","","","","","key","j","16.65426548672567","650.8014241391193","362.34725125245757","f","false","img/S_ambi40.png","自我","prac",""
"","","","","","html-keyboard-response","42","234233","0.0-7.0-1.15","null","<span style='color:red; font-size: 70px;'>错误! </span>","null","","","","","","","","","","","","","","","","","","","","","","","feedback_test"
"","","","","","psychophysics","43","235975","0.0-7.0-0.16","737","","f","","","","","","","","","","","","","key","f","16.653394230769315","650.8014241391193","362.34725125245757","f","true","img/S_ambi40.png","朋友","prac",""
"","","","","","html-keyboard-response","44","236496","0.0-7.0-1.16","null","<span style='color:GreenYellow; font-size: 70px;'>正确! </span>","null","","","","","","","","","","","","","","","","","","","","","","","feedback_test"
"","","","","","psychophysics","45","238387","0.0-7.0-0.17","884","","j","","","","","","","","","","","","","key","j","16.65361946902652","650.8014241391193","362.34725125245757","j","true","img/H_ambi40.png","朋友","prac",""
"","","","","","html-keyboard-response","46","238892","0.0-7.0-1.17","null","<span style='color:GreenYellow; font-size: 70px;'>正确! </span>","null","","","","","","","","","","","","","","","","","","","","","","","feedback_test"
"","","","","","psychophysics","47","240470","0.0-7.0-0.18","571","","f","","","","","","","","","","","","","key","f","16.652968085106547","650.8014241391193","362.34725125245757","f","true","img/H_ambi40.png","生人","prac",""
"","","","","","html-keyboard-response","48","240978","0.0-7.0-1.18","null","<span style='color:GreenYellow; font-size: 70px;'>正确! </span>","null","","","","","","","","","","","","","","","","","","","","","","","feedback_test"
"","","","","","psychophysics","49","242663","0.0-7.0-0.19","680","","j","","","","","","","","","","","","","key","j","16.652848484848608","650.8014241391193","362.34725125245757","f","false","img/T_ambi40.png","をる","prac",""
"","","","","","html-keyboard-response","50","243176","0.0-7.0-1.19","null","<span style='color:red; font-size: 70px;'>错误! </span>","null","","","","","","","","","","","","","","","","","","","","","","","feedback_test"
"","","","","","psychophysics","51","244790","0.0-7.0-0.20","593","","f","","","","","","","","","","","","","key","f","16.653312500000236","650.8014241391193","362.34725125245757","f","true","img/T_ambi40.png","をる","prac",""
"","","","","","html-keyboard-response","52","245303","0.0-7.0-1.20","null","<span style='color:GreenYellow; font-size: 70px;'>正确! </span>","null","","","","","","","","","","","","","","","","","","","","","","","feedback_test"
"","","","","","psychophysics","53","246947","0.0-7.0-0.21","641","","f","","","","","","","","","","","","","key","f","16.65268367346957","650.8014241391193","362.34725125245757","f","true","img/C_ambi40.png","朋友","prac",""
"","","","","","html-keyboard-response","54","247452","0.0-7.0-1.21","null","<span style='color:GreenYellow; font-size: 70px;'>正确! </span>","null","","","","","","","","","","","","","","","","","","","","","","","feedback_test"
"","","","","","psychophysics","55","248867","0.0-7.0-0.22","414","","f","","","","","","","","","","","","","key","f","16.653261904761685","650.8014241391193","362.34725125245757","j","false","img/S_ambi40.png","生人","prac",""
"","","","","","html-keyboard-response","56","249377","0.0-7.0-1.22","null","<span style='color:red; font-size: 70px;'>错误! </span>","null","","","","","","","","","","","","","","","","","","","","","","","feedback_test"
"","","","","","psychophysics","57","250765","0.0-7.0-0.23","360","","j","","","","","","","","","","","","","key","j","16.6528780487804","650.8014241391193","362.34725125245757","f","false","img/S_ambi40.png","自我","prac",""
"","","","","","html-keyboard-response","58","251270","0.0-7.0-1.23","null","<span style='color:red; font-size: 70px;'>错误! </span>","null","","","","","","","","","","","","","","","","","","","","","","","feedback_test"
"","","","","","psychophysics","59","252744","0.0-7.0-0.24","471","","f","","","","","","","","","","","","","key","f","16.65372727272717","650.8014241391193","362.34725125245757","j","false","img/C_ambi40.png","自我","prac",""
"","","","","","html-keyboard-response","60","253255","0.0-7.0-1.24","null","<span style='color:red; font-size: 70px;'>错误! </span>","null","","","","","","","","","","","","","","","","","","","","","","","feedback_test"
"","","","","","psychophysics","61","255062","0.0-7.0-0.25","805","","j","","","","","","","","","","","","","key","j","16.653299065420477","650.8014241391193","362.34725125245757","j","true","img/C_ambi40.png","自我","prac",""
"","","","","","html-keyboard-response","62","255574","0.0-7.0-1.25","null","<span style='color:GreenYellow; font-size: 70px;'>正确! </span>","null","","","","","","","","","","","","","","","","","","","","","","","feedback_test"
"","","","","","psychophysics","63","257876","0.0-7.0-0.26","1292","","f","","","","","","","","","","","","","key","f","16.65279562043788","650.8014241391193","362.34725125245757","f","true","img/H_ambi40.png","自我","prac",""
"","","","","","html-keyboard-response","64","258389","0.0-7.0-1.26","null","<span style='color:GreenYellow; font-size: 70px;'>正确! </span>","null","","","","","","","","","","","","","","","","","","","","","","","feedback_test"
"","","","","","psychophysics","65","259962","0.0-7.0-0.27","570","","j","","","","","","","","","","","","","key","j","16.65351612903228","650.8014241391193","362.34725125245757","f","false","img/T_ambi40.png","をる","prac",""
"","","","","","html-keyboard-response","66","260476","0.0-7.0-1.27","null","<span style='color:red; font-size: 70px;'>错误! </span>","null","","","","","","","","","","","","","","","","","","","","","","","feedback_test"
"","","","","","psychophysics","67","262291","0.0-7.0-0.28","807","","f","","","","","","","","","","","","","key","f","16.65342592592599","650.8014241391193","362.34725125245757","j","false","img/S_ambi40.png","生人","prac",""
"","","","","","html-keyboard-response","68","262800","0.0-7.0-1.28","null","<span style='color:red; font-size: 70px;'>错误! </span>","null","","","","","","","","","","","","","","","","","","","","","","","feedback_test"
"","","","","","psychophysics","69","264715","0.0-7.0-0.29","900","","j","","","","","","","","","","","","","key","j","16.653368421052605","650.8014241391193","362.34725125245757","f","false","img/C_ambi40.png","生人","prac",""
"","","","","","html-keyboard-response","70","265220","0.0-7.0-1.29","null","<span style='color:red; font-size: 70px;'>错误! </span>","null","","","","","","","","","","","","","","","","","","","","","","","feedback_test"
"","","","","","psychophysics","71","267728","0.0-7.0-0.30","null","","null","","","","","","","","","","","","","key","null","16.653268456375837","650.8014241391193","362.34725125245757","j","false","img/H_ambi40.png","朋友","prac",""
"","","","","","html-keyboard-response","72","268240","0.0-7.0-1.30","null","<span class='add_' style='color:yellow; font-size: 70px;'> 太慢! </span>","null","","","","","","","","","","","","","","","","","","","","","","","feedback_test"
"","","","","","psychophysics","73","270055","0.0-7.0-0.31","811","","f","","","","","","","","","","","","","key","f","16.65284259259244","650.8014241391193","362.34725125245757","f","true","img/T_ambi40.png","をる","prac",""
"","","","","","html-keyboard-response","74","270562","0.0-7.0-1.31","null","<span style='color:GreenYellow; font-size: 70px;'>正确! </span>","null","","","","","","","","","","","","","","","","","","","","","","","feedback_test"
"","","","","","psychophysics","75","272336","0.0-8.0-0.0-0.0","762","","f","","","","","","","","","","","","","key","f","16.652799999999946","650.8014241391193","362.34725125245757","f","true","img/S_ambi40.png","朋友","prac",""
"","","","","","html-keyboard-response","76","272838","0.0-8.0-0.0-1.0","null","<span style='color:GreenYellow; font-size: 70px;'>正确! </span>","null","","","","","","","","","","","","","","","","","","","","","","","feedback_test"
"","","","","","psychophysics","77","274418","0.0-8.0-0.0-0.1","579","","f","","","","","","","","","","","","","key","f","16.52554838709666","650.8014241391193","362.34725125245757","f","true","img/H_ambi40.png","自我","prac",""
"","","","","","html-keyboard-response","78","274924","0.0-8.0-0.0-1.1","null","<span style='color:GreenYellow; font-size: 70px;'>正确! </span>","null","","","","","","","","","","","","","","","","","","","","","","","feedback_test"
"","","","","","psychophysics","79","276392","0.0-8.0-0.0-0.2","454","","f","","","","","","","","","","","","","key","f","16.649034482758793","650.8014241391193","362.34725125245757","j","false","img/S_ambi40.png","生人","prac",""
"","","","","","html-keyboard-response","80","276906","0.0-8.0-0.0-1.2","null","<span style='color:red; font-size: 70px;'>错误! </span>","null","","","","","","","","","","","","","","","","","","","","","","","feedback_test"
"","","","","","psychophysics","81","278624","0.0-8.0-0.0-0.3","711","","j","","","","","","","","","","","","","key","j","16.653401960784286","650.8014241391193","362.34725125245757","f","false","img/H_ambi40.png","生人","prac",""
"","","","","","html-keyboard-response","82","279137","0.0-8.0-0.0-1.3","null","<span style='color:red; font-size: 70px;'>错误! </span>","null","","","","","","","","","","","","","","","","","","","","","","","feedback_test"
"","","","","","psychophysics","83","280813","0.0-8.0-0.0-0.4","673","","f","","","","","","","","","","","","","key","f","16.652555555555583","650.8014241391193","362.34725125245757","f","true","img/T_ambi40.png","をる","prac",""
"","","","","","html-keyboard-response","84","281314","0.0-8.0-0.0-1.4","null","<span style='color:GreenYellow; font-size: 70px;'>正确! </span>","null","","","","","","","","","","","","","","","","","","","","","","","feedback_test"
"","","","","","psychophysics","85","282902","0.0-8.0-0.0-0.5","569","","f","","","","","","","","","","","","","key","f","16.653800000000352","650.8014241391193","362.34725125245757","j","false","img/C_ambi40.png","自我","prac",""
"","","","","","html-keyboard-response","86","283417","0.0-8.0-0.0-1.5","null","<span style='color:red; font-size: 70px;'>错误! </span>","null","","","","","","","","","","","","","","","","","","","","","","","feedback_test"
"","","","","","psychophysics","87","285082","0.0-8.0-0.0-0.6","661","","f","","","","","","","","","","","","","key","f","16.65385858585818","650.8014241391193","362.34725125245757","j","false","img/C_ambi40.png","自我","prac",""
"","","","","","html-keyboard-response","88","285591","0.0-8.0-0.0-1.6","null","<span style='color:red; font-size: 70px;'>错误! </span>","null","","","","","","","","","","","","","","","","","","","","","","","feedback_test"
"","","","","","psychophysics","89","287389","0.0-8.0-0.0-0.7","793","","j","","","","","","","","","","","","","key","j","16.65270093457978","650.8014241391193","362.34725125245757","j","true","img/H_ambi40.png","朋友","prac",""
"","","","","","html-keyboard-response","90","287903","0.0-8.0-0.0-1.7","null","<span style='color:GreenYellow; font-size: 70px;'>正确! </span>","null","","","","","","","","","","","","","","","","","","","","","","","feedback_test"
"","","","","","psychophysics","91","289324","0.0-8.0-0.0-0.8","397","","j","","","","","","","","","","","","","key","j","16.65291666666703","650.8014241391193","362.34725125245757","j","true","img/S_ambi40.png","生人","prac",""
"","","","","","html-keyboard-response","92","289833","0.0-8.0-0.0-1.8","null","<span style='color:GreenYellow; font-size: 70px;'>正确! </span>","null","","","","","","","","","","","","","","","","","","","","","","","feedback_test"
"","","","","","psychophysics","93","291265","0.0-8.0-0.0-0.9","423","","j","","","","","","","","","","","","","key","j","16.653611764706234","650.8014241391193","362.34725125245757","f","false","img/T_ambi40.png","をる","prac",""
"","","","","","html-keyboard-response","94","291781","0.0-8.0-0.0-1.9","null","<span style='color:red; font-size: 70px;'>错误! </span>","null","","","","","","","","","","","","","","","","","","","","","","","feedback_test"
"","","","","","psychophysics","95","292803","0.0-8.0-0.0-0.10","11","","j","","","","","","","","","","","","","key","j","16.66103333333352","650.8014241391193","362.34725125245757","f","false","img/T_ambi40.png","をる","prac",""
"","","","","","html-keyboard-response","96","293308","0.0-8.0-0.0-1.10","null","<span style='color:yellow; font-size: 70px;'>过快! </span>","null","","","","","","","","","","","","","","","","","","","","","","","feedback_test"
"","","","","","psychophysics","97","294879","0.0-8.0-0.0-0.11","565","","j","","","","","","","","","","","","","key","j","16.65253763440846","650.8014241391193","362.34725125245757","j","true","img/H_ambi40.png","朋友","prac",""
"","","","","","html-keyboard-response","98","295383","0.0-8.0-0.0-1.11","null","<span style='color:GreenYellow; font-size: 70px;'>正确! </span>","null","","","","","","","","","","","","","","","","","","","","","","","feedback_test"
"","","","","","psychophysics","99","296870","0.0-8.0-0.0-0.12","482","","j","","","","","","","","","","","","","key","j","16.558931034482512","650.8014241391193","362.34725125245757","f","false","img/S_ambi40.png","自我","prac",""
"","","","","","html-keyboard-response","100","297372","0.0-8.0-0.0-1.12","null","<span style='color:red; font-size: 70px;'>错误! </span>","null","","","","","","","","","","","","","","","","","","","","","","","feedback_test"
"","","","","","psychophysics","101","298689","0.0-8.0-0.0-0.13","313","","f","","","","","","","","","","","","","key","f","16.654166666666217","650.8014241391193","362.34725125245757","f","true","img/C_ambi40.png","生人","prac",""
"","","","","","html-keyboard-response","102","299195","0.0-8.0-0.0-1.13","null","<span style='color:GreenYellow; font-size: 70px;'>正确! </span>","null","","","","","","","","","","","","","","","","","","","","","","","feedback_test"
"","","","","","psychophysics","103","300632","0.0-8.0-0.0-0.14","420","","f","","","","","","","","","","","","","key","f","16.654364705882173","650.8014241391193","362.34725125245757","f","true","img/C_ambi40.png","朋友","prac",""
"","","","","","html-keyboard-response","104","301140","0.0-8.0-0.0-1.14","null","<span style='color:GreenYellow; font-size: 70px;'>正确! </span>","null","","","","","","","","","","","","","","","","","","","","","","","feedback_test"
"","","","","","psychophysics","105","302560","0.0-8.0-0.0-0.15","412","","f","","","","","","","","","","","","","key","f","16.653797619047552","650.8014241391193","362.34725125245757","f","true","img/T_ambi40.png","をる","prac",""
"","","","","","html-keyboard-response","106","303072","0.0-8.0-0.0-1.15","null","<span style='color:GreenYellow; font-size: 70px;'>正确! </span>","null","","","","","","","","","","","","","","","","","","","","","","","feedback_test"
"","","","","","psychophysics","107","304481","0.0-8.0-0.0-0.16","404","","f","","","","","","","","","","","","","key","f","16.65310714285685","650.8014241391193","362.34725125245757","f","true","img/C_ambi40.png","生人","prac",""
"","","","","","html-keyboard-response","108","304984","0.0-8.0-0.0-1.16","null","<span style='color:GreenYellow; font-size: 70px;'>正确! </span>","null","","","","","","","","","","","","","","","","","","","","","","","feedback_test"
"","","","","","psychophysics","109","306333","0.0-8.0-0.0-0.17","337","","f","","","","","","","","","","","","","key","f","16.653174999999464","650.8014241391193","362.34725125245757","j","false","img/C_ambi40.png","自我","prac",""
"","","","","","html-keyboard-response","110","306848","0.0-8.0-0.0-1.17","null","<span style='color:red; font-size: 70px;'>错误! </span>","null","","","","","","","","","","","","","","","","","","","","","","","feedback_test"
"","","","","","psychophysics","111","308171","0.0-8.0-0.0-0.18","318","","j","","","","","","","","","","","","","key","j","16.652935897435945","650.8014241391193","362.34725125245757","f","false","img/H_ambi40.png","自我","prac",""
"","","","","","html-keyboard-response","112","308676","0.0-8.0-0.0-1.18","null","<span style='color:red; font-size: 70px;'>错误! </span>","null","","","","","","","","","","","","","","","","","","","","","","","feedback_test"
"","","","","","psychophysics","113","310083","0.0-8.0-0.0-0.19","405","","f","","","","","","","","","","","","","key","f","16.652771084337264","650.8014241391193","362.34725125245757","j","false","img/S_ambi40.png","生人","prac",""
"","","","","","html-keyboard-response","114","310586","0.0-8.0-0.0-1.19","null","<span style='color:red; font-size: 70px;'>错误! </span>","null","","","","","","","","","","","","","","","","","","","","","","","feedback_test"
"","","","","","psychophysics","115","311804","0.0-8.0-0.0-0.20","197","","f","","","","","","","","","","","","","key","f","16.646561643835923","650.8014241391193","362.34725125245757","f","true","img/T_ambi40.png","をる","prac",""
"","","","","","html-keyboard-response","116","312318","0.0-8.0-0.0-1.20","null","<span style='color:yellow; font-size: 70px;'>过快! </span>","null","","","","","","","","","","","","","","","","","","","","","","","feedback_test"
"","","","","","psychophysics","117","313844","0.0-8.0-0.0-0.21","521","","f","","","","","","","","","","","","","key","f","16.653164835164457","650.8014241391193","362.34725125245757","f","true","img/S_ambi40.png","自我","prac",""
"","","","","","html-keyboard-response","118","314359","0.0-8.0-0.0-1.21","null","<span style='color:GreenYellow; font-size: 70px;'>正确! </span>","null","","","","","","","","","","","","","","","","","","","","","","","feedback_test"
"","","","","","psychophysics","119","316050","0.0-8.0-0.0-0.22","686","","f","","","","","","","","","","","","","key","f","16.65369000000006","650.8014241391193","362.34725125245757","f","true","img/H_ambi40.png","生人","prac",""
"","","","","","html-keyboard-response","120","316565","0.0-8.0-0.0-1.22","null","<span style='color:GreenYellow; font-size: 70px;'>正确! </span>","null","","","","","","","","","","","","","","","","","","","","","","","feedback_test"
"","","","","","psychophysics","121","318112","0.0-8.0-0.0-0.23","537","","f","","","","","","","","","","","","","key","f","16.652956521738975","650.8014241391193","362.34725125245757","j","false","img/H_ambi40.png","朋友","prac",""
"","","","","","html-keyboard-response","122","318627","0.0-8.0-0.0-1.23","null","<span style='color:red; font-size: 70px;'>错误! </span>","null","","","","","","","","","","","","","","","","","","","","","","","feedback_test"
"","","","","","psychophysics","123","320105","0.0-8.0-0.0-0.24","469","","f","","","","","","","","","","","","","key","f","16.647988636364143","650.8014241391193","362.34725125245757","j","false","img/C_ambi40.png","自我","prac",""
"","","","","","html-keyboard-response","124","320609","0.0-8.0-0.0-1.24","null","<span style='color:red; font-size: 70px;'>错误! </span>","null","","","","","","","","","","","","","","","","","","","","","","","feedback_test"
"","","","","","psychophysics","125","322042","0.0-8.0-0.0-0.25","425","","j","","","","","","","","","","","","","key","j","16.653529411765255","650.8014241391193","362.34725125245757","f","false","img/T_ambi40.png","をる","prac",""
"","","","","","html-keyboard-response","126","322552","0.0-8.0-0.0-1.25","null","<span style='color:red; font-size: 70px;'>错误! </span>","null","","","","","","","","","","","","","","","","","","","","","","","feedback_test"
"","","","","","psychophysics","127","325081","0.0-8.0-0.0-0.26","null","","null","","","","","","","","","","","","","key","null","16.65329999999997","650.8014241391193","362.34725125245757","f","false","img/T_ambi40.png","をる","prac",""
"","","","","","html-keyboard-response","128","325594","0.0-8.0-0.0-1.26","null","<span class='add_' style='color:yellow; font-size: 70px;'> 太慢! </span>","null","","","","","","","","","","","","","","","","","","","","","","","feedback_test"
"","","","","","psychophysics","129","326972","0.0-8.0-0.0-0.27","376","","f","","","","","","","","","","","","","key","f","16.502580246913254","650.8014241391193","362.34725125245757","j","false","img/H_ambi40.png","朋友","prac",""
"","","","","","html-keyboard-response","130","327482","0.0-8.0-0.0-1.27","null","<span style='color:red; font-size: 70px;'>错误! </span>","null","","","","","","","","","","","","","","","","","","","","","","","feedback_test"
"","","","","","psychophysics","131","329429","0.0-8.0-0.0-0.28","941","","j","","","","","","","","","","","","","key","j","16.65385344827594","650.8014241391193","362.34725125245757","f","false","img/C_ambi40.png","朋友","prac",""
"","","","","","html-keyboard-response","132","329940","0.0-8.0-0.0-1.28","null","<span style='color:red; font-size: 70px;'>错误! </span>","null","","","","","","","","","","","","","","","","","","","","","","","feedback_test"
"","","","","","psychophysics","133","331392","0.0-8.0-0.0-0.29","432","","f","","","","","","","","","","","","","key","f","16.653953488371986","650.8014241391193","362.34725125245757","f","true","img/T_ambi40.png","をる","prac",""
"","","","","","html-keyboard-response","134","331901","0.0-8.0-0.0-1.29","null","<span style='color:GreenYellow; font-size: 70px;'>正确! </span>","null","","","","","","","","","","","","","","","","","","","","","","","feedback_test"
"","","","","","psychophysics","135","333356","0.0-8.0-0.0-0.30","448","","f","","","","","","","","","","","","","key","f","16.653290697673963","650.8014241391193","362.34725125245757","f","true","img/S_ambi40.png","朋友","prac",""
"","","","","","html-keyboard-response","136","333858","0.0-8.0-0.0-1.30","null","<span style='color:GreenYellow; font-size: 70px;'>正确! </span>","null","","","","","","","","","","","","","","","","","","","","","","","feedback_test"
"","","","","","psychophysics","137","335342","0.0-8.0-0.0-0.31","475","","f","","","","","","","","","","","","","key","f","16.652386363636072","650.8014241391193","362.34725125245757","j","false","img/S_ambi40.png","生人","prac",""
"","","","","","html-keyboard-response","138","335857","0.0-8.0-0.0-1.31","null","<span style='color:red; font-size: 70px;'>错误! </span>","null","","","","","","","","","","","","","","","","","","","","","","","feedback_test"
"","","","","","html-keyboard-response","139","342980","0.0-8.0-1.0-0.0","7121","<style>.context{color:white; font-size: 35px; line-height:40px}</style>                          <div><p class='context'>您正确回答了47% 的试次。</p ><p class='context'>您的平均反应时为507毫秒。</p >","enter","","","","","","","","","","","","","","","","","","","","","","",""
"","","","","","instructions","140","447493","0.0-8.0-1.0-1.0","104511","","","","","","","","","","","","","","[{""page_index"":0,""viewing_time"":98470},{""page_index"":1,""viewing_time"":3908},{""page_index"":2,""viewing_time"":2132}]","","","","","","","","","","",""
"","","","","","psychophysics","141","449219","0.0-8.1-0.1-0.32","724","","f","","","","","","","","","","","","","key","f","16.653401960784286","650.8014241391193","362.34725125245757","j","false","img/S_ambi40.png","生人","prac",""
"","","","","","html-keyboard-response","142","449729","0.0-8.1-0.1-1.32","null","<span style='color:red; font-size: 70px;'>错误! </span>","null","","","","","","","","","","","","","","","","","","","","","","","feedback_test"
"","","","","","psychophysics","143","451671","0.0-8.1-0.1-0.33","935","","f","","","","","","","","","","","","","key","f","16.65372173913056","650.8014241391193","362.34725125245757","f","true","img/C_ambi40.png","生人","prac",""
"","","","","","html-keyboard-response","144","452174","0.0-8.1-0.1-1.33","null","<span style='color:GreenYellow; font-size: 70px;'>正确! </span>","null","","","","","","","","","","","","","","","","","","","","","","","feedback_test"
"","","","","","psychophysics","145","453960","0.0-8.1-0.1-0.34","752","","j","","","","","","","","","","","","","key","j","16.5276792452831","650.8014241391193","362.34725125245757","f","false","img/T_ambi40.png","をる","prac",""
"","","","","","html-keyboard-response","146","454461","0.0-8.1-0.1-1.34","null","<span style='color:red; font-size: 70px;'>错误! </span>","null","","","","","","","","","","","","","","","","","","","","","","","feedback_test"
"","","","","","psychophysics","147","456336","0.0-8.1-0.1-0.35","864","","f","","","","","","","","","","","","","key","f","16.652981981981718","650.8014241391193","362.34725125245757","j","false","img/S_ambi40.png","生人","prac",""
"","","","","","html-keyboard-response","148","456852","0.0-8.1-0.1-1.35","null","<span style='color:red; font-size: 70px;'>错误! </span>","null","","","","","","","","","","","","","","","","","","","","","","","feedback_test"
"","","","","","psychophysics","149","458955","0.0-8.1-0.1-0.36","1100","","f","","","","","","","","","","","","","key","f","16.653357142856944","650.8014241391193","362.34725125245757","j","false","img/H_ambi40.png","朋友","prac",""
"","","","","","html-keyboard-response","150","459467","0.0-8.1-0.1-1.36","null","<span style='color:red; font-size: 70px;'>错误! </span>","null","","","","","","","","","","","","","","","","","","","","","","","feedback_test"
"","","","","","psychophysics","151","461200","0.0-8.1-0.1-0.37","731","","j","","","","","","","","","","","","","key","j","16.652669902912397","650.8014241391193","362.34725125245757","f","false","img/S_ambi40.png","朋友","prac",""
"","","","","","html-keyboard-response","152","461709","0.0-8.1-0.1-1.37","null","<span style='color:red; font-size: 70px;'>错误! </span>","null","","","","","","","","","","","","","","","","","","","","","","","feedback_test"
"","","","","","psychophysics","153","464093","0.0-8.1-0.1-0.38","1380","","f","","","","","","","","","","","","","key","f","16.654999999999852","650.8014241391193","362.34725125245757","f","true","img/H_ambi40.png","自我","prac",""
"","","","","","html-keyboard-response","154","464606","0.0-8.1-0.1-1.38","null","<span style='color:GreenYellow; font-size: 70px;'>正确! </span>","null","","","","","","","","","","","","","","","","","","","","","","","feedback_test"
"","","","","","psychophysics","155","466989","0.0-8.1-0.1-0.39","1379","","j","","","","","","","","","","","","","key","j","16.653091549295784","650.8014241391193","362.34725125245757","f","false","img/H_ambi40.png","生人","prac",""
"","","","","","html-keyboard-response","156","467493","0.0-8.1-0.1-1.39","null","<span style='color:red; font-size: 70px;'>错误! </span>","null","","","","","","","","","","","","","","","","","","","","","","","feedback_test"
"","","","","","psychophysics","157","469650","0.0-8.1-0.1-0.40","1155","","j","","","","","","","","","","","","","key","j","16.652713178294665","650.8014241391193","362.34725125245757","f","false","img/T_ambi40.png","をる","prac",""
"","","","","","html-keyboard-response","158","470161","0.0-8.1-0.1-1.40","null","<span style='color:red; font-size: 70px;'>错误! </span>","null","","","","","","","","","","","","","","","","","","","","","","","feedback_test"
"","","","","","psychophysics","159","472331","0.0-8.1-0.1-0.41","1169","","f","","","","","","","","","","","","","key","f","16.653046511627586","650.8014241391193","362.34725125245757","j","false","img/C_ambi40.png","自我","prac",""
"","","","","","html-keyboard-response","160","472845","0.0-8.1-0.1-1.41","null","<span style='color:red; font-size: 70px;'>错误! </span>","null","","","","","","","","","","","","","","","","","","","","","","","feedback_test"
"","","","","","psychophysics","161","474682","0.0-8.1-0.1-0.42","835","","j","","","","","","","","","","","","","key","j","16.652330275229286","650.8014241391193","362.34725125245757","f","false","img/T_ambi40.png","をる","prac",""
"","","","","","html-keyboard-response","162","475198","0.0-8.1-0.1-1.42","null","<span style='color:red; font-size: 70px;'>错误! </span>","null","","","","","","","","","","","","","","","","","","","","","","","feedback_test"
"","","","","","psychophysics","163","477419","0.0-8.1-0.1-0.43","1213","","f","","","","","","","","","","","","","key","f","16.653727272727394","650.8014241391193","362.34725125245757","f","true","img/S_ambi40.png","自我","prac",""
"","","","","","html-keyboard-response","164","477927","0.0-8.1-0.1-1.43","null","<span style='color:GreenYellow; font-size: 70px;'>正确! </span>","null","","","","","","","","","","","","","","","","","","","","","","","feedback_test"
"","","","","","psychophysics","165","480279","0.0-8.1-0.1-0.44","1347","","j","","","","","","","","","","","","","key","j","16.65329285714293","650.8014241391193","362.34725125245757","j","true","img/H_ambi40.png","朋友","prac",""
"","","","","","html-keyboard-response","166","480790","0.0-8.1-0.1-1.44","null","<span style='color:GreenYellow; font-size: 70px;'>正确! </span>","null","","","","","","","","","","","","","","","","","","","","","","","feedback_test"
"","","","","","psychophysics","167","482711","0.0-8.1-0.1-0.45","918","","f","","","","","","","","","","","","","key","f","16.653561403508718","650.8014241391193","362.34725125245757","f","true","img/T_ambi40.png","をる","prac",""
"","","","","","html-keyboard-response","168","483215","0.0-8.1-0.1-1.45","null","<span style='color:GreenYellow; font-size: 70px;'>正确! </span>","null","","","","","","","","","","","","","","","","","","","","","","","feedback_test"
"","","","","","psychophysics","169","485122","0.0-8.1-0.1-0.46","906","","f","","","","","","","","","","","","","key","f","16.539690265486602","650.8014241391193","362.34725125245757","j","false","img/C_ambi40.png","自我","prac",""
"","","","","","html-keyboard-response","170","485633","0.0-8.1-0.1-1.46","null","<span style='color:red; font-size: 70px;'>错误! </span>","null","","","","","","","","","","","","","","","","","","","","","","","feedback_test"
"","","","","","psychophysics","171","487833","0.0-8.1-0.1-0.47","1184","","f","","","","","","","","","","","","","key","f","16.653167938931315","650.8014241391193","362.34725125245757","f","true","img/C_ambi40.png","朋友","prac",""
"","","","","","html-keyboard-response","172","488336","0.0-8.1-0.1-1.47","null","<span style='color:GreenYellow; font-size: 70px;'>正确! </span>","null","","","","","","","","","","","","","","","","","","","","","","","feedback_test"
"","","","","","psychophysics","173","490418","0.0-8.1-0.1-0.48","1075","","f","","","","","","","","","","","","","key","f","16.653040322580754","650.8014241391193","362.34725125245757","f","true","img/S_ambi40.png","自我","prac",""
"","","","","","html-keyboard-response","174","490921","0.0-8.1-0.1-1.48","null","<span style='color:GreenYellow; font-size: 70px;'>正确! </span>","null","","","","","","","","","","","","","","","","","","","","","","","feedback_test"
"","","","","","psychophysics","175","492755","0.0-8.1-0.1-0.49","832","","j","","","","","","","","","","","","","key","j","16.65370642201849","650.8014241391193","362.34725125245757","j","true","img/C_ambi40.png","自我","prac",""
"","","","","","html-keyboard-response","176","493268","0.0-8.1-0.1-1.49","null","<span style='color:GreenYellow; font-size: 70px;'>正确! </span>","null","","","","","","","","","","","","","","","","","","","","","","","feedback_test"
"","","","","","psychophysics","177","495347","0.0-8.1-0.1-0.50","1074","","f","","","","","","","","","","","","","key","f","16.653169354838845","650.8014241391193","362.34725125245757","f","true","img/H_ambi40.png","自我","prac",""
"","","","","","html-keyboard-response","178","495862","0.0-8.1-0.1-1.50","null","<span style='color:GreenYellow; font-size: 70px;'>正确! </span>","null","","","","","","","","","","","","","","","","","","","","","","","feedback_test"
"","","","","","psychophysics","179","498311","0.0-8.1-0.1-0.51","1439","","f","","","","","","","","","","","","","key","f","16.652835616438047","650.8014241391193","362.34725125245757","f","true","img/C_ambi40.png","朋友","prac",""
"","","","","","html-keyboard-response","180","498825","0.0-8.1-0.1-1.51","null","<span style='color:GreenYellow; font-size: 70px;'>正确! </span>","null","","","","","","","","","","","","","","","","","","","","","","","feedback_test"
"","","","","","psychophysics","181","500978","0.0-8.1-0.1-0.52","1142","","f","","","","","","","","","","","","","key","f","16.653148437499567","650.8014241391193","362.34725125245757","f","true","img/C_ambi40.png","生人","prac",""
"","","","","","html-keyboard-response","182","501484","0.0-8.1-0.1-1.52","null","<span style='color:GreenYellow; font-size: 70px;'>正确! </span>","null","","","","","","","","","","","","","","","","","","","","","","","feedback_test"
"","","","","","psychophysics","183","503711","0.0-8.1-0.1-0.53","1227","","f","","","","","","","","","","","","","key","f","16.652878787879175","650.8014241391193","362.34725125245757","j","false","img/H_ambi40.png","朋友","prac",""
"","","","","","html-keyboard-response","184","504219","0.0-8.1-0.1-1.53","null","<span style='color:red; font-size: 70px;'>错误! </span>","null","","","","","","","","","","","","","","","","","","","","","","","feedback_test"
"","","","","","psychophysics","185","506352","0.0-8.1-0.1-0.54","1126","","f","","","","","","","","","","","","","key","f","16.652385826771674","650.8014241391193","362.34725125245757","f","true","img/T_ambi40.png","をる","prac",""
"","","","","","html-keyboard-response","186","506862","0.0-8.1-0.1-1.54","null","<span style='color:GreenYellow; font-size: 70px;'>正确! </span>","null","","","","","","","","","","","","","","","","","","","","","","","feedback_test"
"","","","","","psychophysics","187","508760","0.0-8.1-0.1-0.55","897","","f","","","","","","","","","","","","","key","f","16.65325892857124","650.8014241391193","362.34725125245757","f","true","img/T_ambi40.png","をる","prac",""
"","","","","","html-keyboard-response","188","509272","0.0-8.1-0.1-1.55","null","<span style='color:GreenYellow; font-size: 70px;'>正确! </span>","null","","","","","","","","","","","","","","","","","","","","","","","feedback_test"
"","","","","","psychophysics","189","510940","0.0-8.1-0.1-0.56","667","","f","","","","","","","","","","","","","key","f","16.634360000000452","650.8014241391193","362.34725125245757","f","true","img/T_ambi40.png","をる","prac",""
"","","","","","html-keyboard-response","190","511464","0.0-8.1-0.1-1.56","null","<span style='color:GreenYellow; font-size: 70px;'>正确! </span>","null","","","","","","","","","","","","","","","","","","","","","","","feedback_test"
"","","","","","psychophysics","191","513612","0.0-8.1-0.1-0.57","1120","","f","","","","","","","","","","","","","key","f","16.653125000000273","650.8014241391193","362.34725125245757","f","true","img/H_ambi40.png","生人","prac",""
"","","","","","html-keyboard-response","192","514116","0.0-8.1-0.1-1.57","null","<span style='color:GreenYellow; font-size: 70px;'>正确! </span>","null","","","","","","","","","","","","","","","","","","","","","","","feedback_test"
"","","","","","psychophysics","193","515903","0.0-8.1-0.1-0.58","780","","j","","","","","","","","","","","","","key","j","16.654877358490165","650.8014241391193","362.34725125245757","j","true","img/C_ambi40.png","自我","prac",""
"","","","","","html-keyboard-response","194","516406","0.0-8.1-0.1-1.58","null","<span style='color:GreenYellow; font-size: 70px;'>正确! </span>","null","","","","","","","","","","","","","","","","","","","","","","","feedback_test"
"","","","","","psychophysics","195","518351","0.0-8.1-0.1-0.59","944","","f","","","","","","","","","","","","","key","f","16.652521739130254","650.8014241391193","362.34725125245757","f","true","img/S_ambi40.png","朋友","prac",""
"","","","","","html-keyboard-response","196","518886","0.0-8.1-0.1-1.59","null","<span style='color:GreenYellow; font-size: 70px;'>正确! </span>","null","","","","","","","","","","","","","","","","","","","","","","","feedback_test"
"","","","","","psychophysics","197","520804","0.0-8.1-0.1-0.60","901","","f","","","","","","","","","","","","","key","f","16.53352631578935","650.8014241391193","362.34725125245757","j","false","img/S_ambi40.png","生人","prac",""
"","","","","","html-keyboard-response","198","521308","0.0-8.1-0.1-1.60","null","<span style='color:red; font-size: 70px;'>错误! </span>","null","","","","","","","","","","","","","","","","","","","","","","","feedback_test"
"","","","","","psychophysics","199","523384","0.0-8.1-0.1-0.61","1067","","f","","","","","","","","","","","","","key","f","16.65354032258056","650.8014241391193","362.34725125245757","j","false","img/H_ambi40.png","朋友","prac",""
"","","","","","html-keyboard-response","200","523897","0.0-8.1-0.1-1.61","null","<span style='color:red; font-size: 70px;'>错误! </span>","null","","","","","","","","","","","","","","","","","","","","","","","feedback_test"
"","","","","","psychophysics","201","525881","0.0-8.1-0.1-0.62","983","","f","","","","","","","","","","","","","key","f","16.55358119658095","650.8014241391193","362.34725125245757","j","false","img/S_ambi40.png","生人","prac",""
"","","","","","html-keyboard-response","202","526391","0.0-8.1-0.1-1.62","null","<span style='color:red; font-size: 70px;'>错误! </span>","null","","","","","","","","","","","","","","","","","","","","","","","feedback_test"
"","","","","","psychophysics","203","528360","0.0-8.1-0.1-0.63","964","","j","","","","","","","","","","","","","key","j","16.65321367521448","650.8014241391193","362.34725125245757","f","false","img/T_ambi40.png","をる","prac",""
"","","","","","html-keyboard-response","204","528875","0.0-8.1-0.1-1.63","null","<span style='color:red; font-size: 70px;'>错误! </span>","null","","","","","","","","","","","","","","","","","","","","","","","feedback_test"
"","","","","","html-keyboard-response","205","536134","0.0-8.1-1.1-0.1","7257","<style>.context{color:white; font-size: 35px; line-height:40px}</style>                          <div><p class='context'>您正确回答了53% 的试次。</p ><p class='context'>您的平均反应时为1063毫秒。</p >","enter","","","","","","","","","","","","","","","","","","","","","","",""
"","","","","","instructions","206","547697","0.0-8.1-1.1-1.1","11561","","","","","","","","","","","","","","[{""page_index"":0,""viewing_time"":2799},{""page_index"":1,""viewing_time"":6466},{""page_index"":2,""viewing_time"":2296}]","","","","","","","","","","",""
"","","","","","psychophysics","207","549805","0.0-8.2-0.2-0.64","1097","","j","","","","","","","","","","","","","key","j","16.652975999999793","650.8014241391193","362.34725125245757","j","true","img/C_ambi40.png","自我","prac",""
"","","","","","html-keyboard-response","208","550310","0.0-8.2-0.2-1.64","null","<span style='color:GreenYellow; font-size: 70px;'>正确! </span>","null","","","","","","","","","","","","","","","","","","","","","","","feedback_test"
"","","","","","psychophysics","209","552082","0.0-8.2-0.2-0.65","747","","j","","","","","","","","","","","","","key","j","16.523485714285854","650.8014241391193","362.34725125245757","f","false","img/T_ambi40.png","をる","prac",""
"","","","","","html-keyboard-response","210","552584","0.0-8.2-0.2-1.65","null","<span style='color:red; font-size: 70px;'>错误! </span>","null","","","","","","","","","","","","","","","","","","","","","","","feedback_test"
"","","","","","psychophysics","211","554638","0.0-8.2-0.2-0.66","1050","","f","","","","","","","","","","","","","key","f","16.65416393442591","650.8014241391193","362.34725125245757","j","false","img/H_ambi40.png","朋友","prac",""
"","","","","","html-keyboard-response","212","555154","0.0-8.2-0.2-1.66","null","<span style='color:red; font-size: 70px;'>错误! </span>","null","","","","","","","","","","","","","","","","","","","","","","","feedback_test"
"","","","","","psychophysics","213","557568","0.0-8.2-0.2-0.67","1412","","f","","","","","","","","","","","","","key","f","16.653124999999516","650.8014241391193","362.34725125245757","f","true","img/H_ambi40.png","自我","prac",""
"","","","","","html-keyboard-response","214","558076","0.0-8.2-0.2-1.67","null","<span style='color:GreenYellow; font-size: 70px;'>正确! </span>","null","","","","","","","","","","","","","","","","","","","","","","","feedback_test"
"","","","","","psychophysics","215","560540","0.0-8.2-0.2-0.68","1453","","f","","","","","","","","","","","","","key","f","16.652952380951962","650.8014241391193","362.34725125245757","f","true","img/H_ambi40.png","生人","prac",""
"","","","","","html-keyboard-response","216","561046","0.0-8.2-0.2-1.68","null","<span style='color:GreenYellow; font-size: 70px;'>正确! </span>","null","","","","","","","","","","","","","","","","","","","","","","","feedback_test"
"","","","","","psychophysics","217","562933","0.0-8.2-0.2-0.69","880","","f","","","","","","","","","","","","","key","f","16.653419642856793","650.8014241391193","362.34725125245757","f","true","img/T_ambi40.png","をる","prac",""
"","","","","","html-keyboard-response","218","563449","0.0-8.2-0.2-1.69","null","<span style='color:GreenYellow; font-size: 70px;'>正确! </span>","null","","","","","","","","","","","","","","","","","","","","","","","feedback_test"
"","","","","","psychophysics","219","564897","0.0-8.2-0.2-0.70","447","","f","","","","","","","","","","","","","key","f","16.651999999999155","650.8014241391193","362.34725125245757","f","true","img/T_ambi40.png","をる","prac",""
"","","","","","html-keyboard-response","220","565403","0.0-8.2-0.2-1.70","null","<span style='color:GreenYellow; font-size: 70px;'>正确! </span>","null","","","","","","","","","","","","","","","","","","","","","","","feedback_test"
"","","","","","psychophysics","221","567427","0.0-8.2-0.2-0.71","1023","","j","","","","","","","","","","","","","key","j","16.65274166666689","650.8014241391193","362.34725125245757","j","true","img/S_ambi40.png","生人","prac",""
"","","","","","html-keyboard-response","222","567937","0.0-8.2-0.2-1.71","null","<span style='color:GreenYellow; font-size: 70px;'>正确! </span>","null","","","","","","","","","","","","","","","","","","","","","","","feedback_test"
"","","","","","psychophysics","223","569674","0.0-8.2-0.2-0.72","727","","f","","","","","","","","","","","","","key","f","16.654106796116714","650.8014241391193","362.34725125245757","f","true","img/S_ambi40.png","朋友","prac",""
"","","","","","html-keyboard-response","224","570177","0.0-8.2-0.2-1.72","null","<span style='color:GreenYellow; font-size: 70px;'>正确! </span>","null","","","","","","","","","","","","","","","","","","","","","","","feedback_test"
"","","","","","psychophysics","225","572109","0.0-8.2-0.2-0.73","930","","f","","","","","","","","","","","","","key","f","16.547710526315903","650.8014241391193","362.34725125245757","f","true","img/C_ambi40.png","朋友","prac",""
"","","","","","html-keyboard-response","226","572624","0.0-8.2-0.2-1.73","null","<span style='color:GreenYellow; font-size: 70px;'>正确! </span>","null","","","","","","","","","","","","","","","","","","","","","","","feedback_test"
"","","","","","psychophysics","227","574529","0.0-8.2-0.2-0.74","903","","j","","","","","","","","","","","","","key","j","16.653421052631497","650.8014241391193","362.34725125245757","f","false","img/T_ambi40.png","をる","prac",""
"","","","","","html-keyboard-response","228","575041","0.0-8.2-0.2-1.74","null","<span style='color:red; font-size: 70px;'>错误! </span>","null","","","","","","","","","","","","","","","","","","","","","","","feedback_test"
"","","","","","psychophysics","229","577212","0.0-8.2-0.2-0.75","1162","","f","","","","","","","","","","","","","key","f","16.65270542635676","650.8014241391193","362.34725125245757","f","true","img/C_ambi40.png","生人","prac",""
"","","","","","html-keyboard-response","230","577727","0.0-8.2-0.2-1.75","null","<span style='color:GreenYellow; font-size: 70px;'>正确! </span>","null","","","","","","","","","","","","","","","","","","","","","","","feedback_test"
"","","","","","psychophysics","231","579960","0.0-8.2-0.2-0.76","1231","","j","","","","","","","","","","","","","key","j","16.65415037593969","650.8014241391193","362.34725125245757","j","true","img/H_ambi40.png","朋友","prac",""
"","","","","","html-keyboard-response","232","580473","0.0-8.2-0.2-1.76","null","<span style='color:GreenYellow; font-size: 70px;'>正确! </span>","null","","","","","","","","","","","","","","","","","","","","","","","feedback_test"
"","","","","","psychophysics","233","582879","0.0-8.2-0.2-0.77","1404","","j","","","","","","","","","","","","","key","j","16.653391608391185","650.8014241391193","362.34725125245757","j","true","img/C_ambi40.png","自我","prac",""
"","","","","","html-keyboard-response","234","583391","0.0-8.2-0.2-1.77","null","<span style='color:GreenYellow; font-size: 70px;'>正确! </span>","null","","","","","","","","","","","","","","","","","","","","","","","feedback_test"
"","","","","","psychophysics","235","585317","0.0-8.2-0.2-0.78","917","","f","","","","","","","","","","","","","key","f","16.652701754386438","650.8014241391193","362.34725125245757","f","true","img/S_ambi40.png","自我","prac",""
"","","","","","html-keyboard-response","236","585829","0.0-8.2-0.2-1.78","null","<span style='color:GreenYellow; font-size: 70px;'>正确! </span>","null","","","","","","","","","","","","","","","","","","","","","","","feedback_test"
"","","","","","psychophysics","237","588236","0.0-8.2-0.2-0.79","1405","","j","","","","","","","","","","","","","key","j","16.65315972222258","650.8014241391193","362.34725125245757","j","true","img/S_ambi40.png","生人","prac",""
"","","","","","html-keyboard-response","238","588751","0.0-8.2-0.2-1.79","null","<span style='color:GreenYellow; font-size: 70px;'>正确! </span>","null","","","","","","","","","","","","","","","","","","","","","","","feedback_test"
"","","","","","psychophysics","239","590659","0.0-8.2-0.2-0.80","896","","j","","","","","","","","","","","","","key","j","16.653194690265373","650.8014241391193","362.34725125245757","f","false","img/T_ambi40.png","をる","prac",""
"","","","","","html-keyboard-response","240","591168","0.0-8.2-0.2-1.80","null","<span style='color:red; font-size: 70px;'>错误! </span>","null","","","","","","","","","","","","","","","","","","","","","","","feedback_test"
"","","","","","psychophysics","241","593219","0.0-8.2-0.2-0.81","1047","","j","","","","","","","","","","","","","key","j","16.653565573770376","650.8014241391193","362.34725125245757","j","true","img/C_ambi40.png","自我","prac",""
"","","","","","html-keyboard-response","242","593722","0.0-8.2-0.2-1.81","null","<span style='color:GreenYellow; font-size: 70px;'>正确! </span>","null","","","","","","","","","","","","","","","","","","","","","","","feedback_test"
"","","","","","psychophysics","243","595702","0.0-8.2-0.2-0.82","976","","f","","","","","","","","","","","","","key","f","16.653576271187205","650.8014241391193","362.34725125245757","j","false","img/H_ambi40.png","朋友","prac",""
"","","","","","html-keyboard-response","244","596209","0.0-8.2-0.2-1.82","null","<span style='color:red; font-size: 70px;'>错误! </span>","null","","","","","","","","","","","","","","","","","","","","","","","feedback_test"
"","","","","","psychophysics","245","598708","0.0-8.2-0.2-0.83","1493","","f","","","","","","","","","","","","","key","f","16.652838926174798","650.8014241391193","362.34725125245757","f","true","img/S_ambi40.png","朋友","prac",""
"","","","","","html-keyboard-response","246","599213","0.0-8.2-0.2-1.83","null","<span style='color:GreenYellow; font-size: 70px;'>正确! </span>","null","","","","","","","","","","","","","","","","","","","","","","","feedback_test"
"","","","","","psychophysics","247","601293","0.0-8.2-0.2-0.84","1072","","f","","","","","","","","","","","","","key","f","16.653951612903903","650.8014241391193","362.34725125245757","f","true","img/T_ambi40.png","をる","prac",""
"","","","","","html-keyboard-response","248","601808","0.0-8.2-0.2-1.84","null","<span style='color:GreenYellow; font-size: 70px;'>正确! </span>","null","","","","","","","","","","","","","","","","","","","","","","","feedback_test"
"","","","","","psychophysics","249","604170","0.0-8.2-0.2-0.85","1354","","f","","","","","","","","","","","","","key","f","16.652957446808788","650.8014241391193","362.34725125245757","f","true","img/S_ambi40.png","自我","prac",""
"","","","","","html-keyboard-response","250","604674","0.0-8.2-0.2-1.85","null","<span style='color:GreenYellow; font-size: 70px;'>正确! </span>","null","","","","","","","","","","","","","","","","","","","","","","","feedback_test"
"","","","","","psychophysics","251","606456","0.0-8.2-0.2-0.86","772","","f","","","","","","","","","","","","","key","f","16.653905660377482","650.8014241391193","362.34725125245757","f","true","img/T_ambi40.png","をる","prac",""
"","","","","","html-keyboard-response","252","606966","0.0-8.2-0.2-1.86","null","<span style='color:GreenYellow; font-size: 70px;'>正确! </span>","null","","","","","","","","","","","","","","","","","","","","","","","feedback_test"
"","","","","","psychophysics","253","608690","0.0-8.2-0.2-0.87","720","","f","","","","","","","","","","","","","key","f","16.653205882352733","650.8014241391193","362.34725125245757","f","true","img/T_ambi40.png","をる","prac",""
"","","","","","html-keyboard-response","254","609198","0.0-8.2-0.2-1.87","null","<span style='color:GreenYellow; font-size: 70px;'>正确! </span>","null","","","","","","","","","","","","","","","","","","","","","","","feedback_test"
"","","","","","psychophysics","255","611107","0.0-8.2-0.2-0.88","900","","f","","","","","","","","","","","","","key","f","16.653725663716163","650.8014241391193","362.34725125245757","f","true","img/C_ambi40.png","朋友","prac",""
"","","","","","html-keyboard-response","256","611646","0.0-8.2-0.2-1.88","null","<span style='color:GreenYellow; font-size: 70px;'>正确! </span>","null","","","","","","","","","","","","","","","","","","","","","","","feedback_test"
"","","","","","psychophysics","257","613789","0.0-8.2-0.2-0.89","1129","","j","","","","","","","","","","","","","key","j","16.6527637795272","650.8014241391193","362.34725125245757","j","true","img/H_ambi40.png","朋友","prac",""
"","","","","","html-keyboard-response","258","614301","0.0-8.2-0.2-1.89","null","<span style='color:GreenYellow; font-size: 70px;'>正确! </span>","null","","","","","","","","","","","","","","","","","","","","","","","feedback_test"
"","","","","","psychophysics","259","616227","0.0-8.2-0.2-0.90","920","","f","","","","","","","","","","","","","key","f","16.652469565217263","650.8014241391193","362.34725125245757","f","true","img/H_ambi40.png","生人","prac",""
"","","","","","html-keyboard-response","260","616731","0.0-8.2-0.2-1.90","null","<span style='color:GreenYellow; font-size: 70px;'>正确! </span>","null","","","","","","","","","","","","","","","","","","","","","","","feedback_test"
"","","","","","psychophysics","261","619090","0.0-8.2-0.2-0.91","1354","","j","","","","","","","","","","","","","key","j","16.653489361702075","650.8014241391193","362.34725125245757","j","true","img/S_ambi40.png","生人","prac",""
"","","","","","html-keyboard-response","262","619592","0.0-8.2-0.2-1.91","null","<span style='color:GreenYellow; font-size: 70px;'>正确! </span>","null","","","","","","","","","","","","","","","","","","","","","","","feedback_test"
"","","","","","psychophysics","263","621422","0.0-8.2-0.2-0.92","822","","j","","","","","","","","","","","","","key","j","16.653568807339997","650.8014241391193","362.34725125245757","j","true","img/C_ambi40.png","自我","prac",""
"","","","","","html-keyboard-response","264","621928","0.0-8.2-0.2-1.92","null","<span style='color:GreenYellow; font-size: 70px;'>正确! </span>","null","","","","","","","","","","","","","","","","","","","","","","","feedback_test"
"","","","","","psychophysics","265","623870","0.0-8.2-0.2-0.93","939","","f","","","","","","","","","","","","","key","f","16.652155172413995","650.8014241391193","362.34725125245757","f","true","img/C_ambi40.png","生人","prac",""
"","","","","","html-keyboard-response","266","624383","0.0-8.2-0.2-1.93","null","<span style='color:GreenYellow; font-size: 70px;'>正确! </span>","null","","","","","","","","","","","","","","","","","","","","","","","feedback_test"
"","","","","","psychophysics","267","626431","0.0-8.2-0.2-0.94","1027","","j","","","","","","","","","","","","","key","j","16.65293388429756","650.8014241391193","362.34725125245757","j","true","img/S_ambi40.png","生人","prac",""
"","","","","","html-keyboard-response","268","626938","0.0-8.2-0.2-1.94","null","<span style='color:GreenYellow; font-size: 70px;'>正确! </span>","null","","","","","","","","","","","","","","","","","","","","","","","feedback_test"
"","","","","","psychophysics","269","628989","0.0-8.2-0.2-0.95","1048","","f","","","","","","","","","","","","","key","f","16.653049180327084","650.8014241391193","362.34725125245757","f","true","img/H_ambi40.png","自我","prac",""
"","","","","","html-keyboard-response","270","629493","0.0-8.2-0.2-1.95","null","<span style='color:GreenYellow; font-size: 70px;'>正确! </span>","null","","","","","","","","","","","","","","","","","","","","","","","feedback_test"
"","","","","","html-keyboard-response","271","638868","0.0-9.0","9373","<style>.context{color:white; font-size: 35px; line-height:40px}</style>                          <div><p class='context'>您正确回答了84% 的试次。</p ><p class='context'>您的平均反应时为1062毫秒。</p ><p class='context'>恭喜您完成练习。按任意键进入正式实验。</p ><p class='footer' style='font-size: 35px; line-height:40px;'>请在进入正式实验实验之前将您的<span style='color: lightgreen;'>食指</span>放在电脑键盘的相应键位上进行按键。</p >","enter","","","","","","","","","","","","","","","","","","","","","","",""
"","","","","","psychophysics","272","641376","0.0-10.0-0.0-0.0-0.0-0.0","null","","null","","","","","","","","","","","","","key","null","16.653026666666847","650.8014241391193","362.34725125245757","j","false","img/C_ambi40.png","自我","same",""
"","","","","","html-keyboard-response","273","641885","0.0-10.0-0.0-0.0-0.0-1.0","null","<span class='add_' style='color:yellow; font-size: 70px;'> 太慢! </span>","null","","","","","","","","","","","","","","","","","","","","","","","feedback_test"
"","","","","","psychophysics","274","643931","0.0-10.0-0.0-0.0-0.0-0.1","1039","","j","","","","","","","","","","","","","key","j","16.65288429752027","650.8014241391193","362.34725125245757","f","false","img/S_ambi40.png","朋友","same",""
"","","","","","html-keyboard-response","275","644435","0.0-10.0-0.0-0.0-0.0-1.1","null","<span style='color:red; font-size: 70px;'>错误! </span>","null","","","","","","","","","","","","","","","","","","","","","","","feedback_test"
"","","","","","psychophysics","276","646594","0.0-10.0-0.0-0.0-0.0-0.2","1152","","f","","","","","","","","","","","","","key","f","16.65300781249971","650.8014241391193","362.34725125245757","j","false","img/C_ambi40.png","自我","same",""
"","","","","","html-keyboard-response","277","647106","0.0-10.0-0.0-0.0-0.0-1.2","null","<span style='color:red; font-size: 70px;'>错误! </span>","null","","","","","","","","","","","","","","","","","","","","","","","feedback_test"
"","","","","","psychophysics","278","649110","0.0-10.0-0.0-0.0-0.0-0.3","1001","","j","","","","","","","","","","","","","key","j","16.653613445378387","650.8014241391193","362.34725125245757","f","false","img/S_ambi40.png","自我","same",""
"","","","","","html-keyboard-response","279","649614","0.0-10.0-0.0-0.0-0.0-1.3","null","<span style='color:red; font-size: 70px;'>错误! </span>","null","","","","","","","","","","","","","","","","","","","","","","","feedback_test"
"","","","","","psychophysics","280","652128","0.0-10.0-0.0-0.0-0.0-0.4","null","","null","","","","","","","","","","","","","key","null","16.651986577181653","650.8014241391193","362.34725125245757","j","false","img/S_ambi40.png","生人","same",""
"","","","","","html-keyboard-response","281","652629","0.0-10.0-0.0-0.0-0.0-1.4","null","<span class='add_' style='color:yellow; font-size: 70px;'> 太慢! </span>","null","","","","","","","","","","","","","","","","","","","","","","","feedback_test"
"","","","","","psychophysics","282","654747","0.0-10.0-0.0-0.0-0.0-0.5","1106","","f","","","","","","","","","","","","","key","f","16.653031746031797","650.8014241391193","362.34725125245757","j","false","img/H_ambi40.png","朋友","same",""
"","","","","","html-keyboard-response","283","655258","0.0-10.0-0.0-0.0-0.0-1.5","null","<span style='color:red; font-size: 70px;'>错误! </span>","null","","","","","","","","","","","","","","","","","","","","","","","feedback_test"
"","","","","","psychophysics","284","657591","0.0-10.0-0.0-0.0-0.0-0.6","1322","","f","","","","","","","","","","","","","key","f","16.653410071942606","650.8014241391193","362.34725125245757","f","true","img/T_ambi40.png","をる","same",""
"","","","","","html-keyboard-response","285","658092","0.0-10.0-0.0-0.0-0.0-1.6","null","<span style='color:GreenYellow; font-size: 70px;'>正确! </span>","null","","","","","","","","","","","","","","","","","","","","","","","feedback_test"
"","","","","","psychophysics","286","660274","0.0-10.0-0.0-0.0-0.0-0.7","1177","","f","","","","","","","","","","","","","key","f","16.653046153845768","650.8014241391193","362.34725125245757","f","true","img/C_ambi40.png","生人","same",""
"","","","","","html-keyboard-response","287","660785","0.0-10.0-0.0-0.0-0.0-1.7","null","<span style='color:GreenYellow; font-size: 70px;'>正确! </span>","null","","","","","","","","","","","","","","","","","","","","","","","feedback_test"
"","","","","","psychophysics","288","662938","0.0-10.0-0.0-0.0-0.0-0.8","1152","","j","","","","","","","","","","","","","key","j","16.55335156250021","650.8014241391193","362.34725125245757","j","true","img/H_ambi40.png","朋友","same",""
"","","","","","html-keyboard-response","289","663439","0.0-10.0-0.0-0.0-0.0-1.8","null","<span style='color:GreenYellow; font-size: 70px;'>正确! </span>","null","","","","","","","","","","","","","","","","","","","","","","","feedback_test"
"","","","","","psychophysics","290","665549","0.0-10.0-0.0-0.0-0.0-0.9","1106","","f","","","","","","","","","","","","","key","f","16.652783999999986","650.8014241391193","362.34725125245757","j","false","img/H_ambi40.png","朋友","same",""
"","","","","","html-keyboard-response","291","666065","0.0-10.0-0.0-0.0-0.0-1.9","null","<span style='color:red; font-size: 70px;'>错误! </span>","null","","","","","","","","","","","","","","","","","","","","","","","feedback_test"
"","","","","","psychophysics","292","667800","0.0-10.0-0.0-0.0-0.0-0.10","735","","f","","","","","","","","","","","","","key","f","16.521728155339922","650.8014241391193","362.34725125245757","f","true","img/T_ambi40.png","をる","same",""
"","","","","","html-keyboard-response","293","668304","0.0-10.0-0.0-0.0-0.0-1.10","null","<span style='color:GreenYellow; font-size: 70px;'>正确! </span>","null","","","","","","","","","","","","","","","","","","","","","","","feedback_test"
"","","","","","psychophysics","294","670702","0.0-10.0-0.0-0.0-0.0-0.11","1389","","f","","","","","","","","","","","","","key","f","16.65327972027968","650.8014241391193","362.34725125245757","f","true","img/H_ambi40.png","生人","same",""
"","","","","","html-keyboard-response","295","671214","0.0-10.0-0.0-0.0-0.0-1.11","null","<span style='color:GreenYellow; font-size: 70px;'>正确! </span>","null","","","","","","","","","","","","","","","","","","","","","","","feedback_test"
"","","","","","psychophysics","296","673089","0.0-10.0-0.0-0.0-0.0-0.12","872","","f","","","","","","","","","","","","","key","f","16.653306306306238","650.8014241391193","362.34725125245757","f","true","img/H_ambi40.png","自我","same",""
"","","","","","html-keyboard-response","297","673591","0.0-10.0-0.0-0.0-0.0-1.12","null","<span style='color:GreenYellow; font-size: 70px;'>正确! </span>","null","","","","","","","","","","","","","","","","","","","","","","","feedback_test"
"","","","","","psychophysics","298","675295","0.0-10.0-0.0-0.0-0.0-0.13","703","","j","","","","","","","","","","","","","key","j","16.531990099009032","650.8014241391193","362.34725125245757","j","true","img/C_ambi40.png","自我","same",""
"","","","","","html-keyboard-response","299","675810","0.0-10.0-0.0-0.0-0.0-1.13","null","<span style='color:GreenYellow; font-size: 70px;'>正确! </span>","null","","","","","","","","","","","","","","","","","","","","","","","feedback_test"
"","","","","","psychophysics","300","677760","0.0-10.0-0.0-0.0-0.0-0.14","936","","f","","","","","","","","","","","","","key","f","16.6533706896549","650.8014241391193","362.34725125245757","j","false","img/S_ambi40.png","生人","same",""
"","","","","","html-keyboard-response","301","678267","0.0-10.0-0.0-0.0-0.0-1.14","null","<span style='color:red; font-size: 70px;'>错误! </span>","null","","","","","","","","","","","","","","","","","","","","","","","feedback_test"
"","","","","","psychophysics","302","679974","0.0-10.0-0.0-0.0-0.0-0.15","705","","f","","","","","","","","","","","","","key","f","16.656568627450707","650.8014241391193","362.34725125245757","f","true","img/T_ambi40.png","をる","same",""
"","","","","","html-keyboard-response","303","680479","0.0-10.0-0.0-0.0-0.0-1.15","null","<span style='color:GreenYellow; font-size: 70px;'>正确! </span>","null","","","","","","","","","","","","","","","","","","","","","","","feedback_test"
"","","","","","psychophysics","304","682390","0.0-10.0-0.0-0.0-0.0-0.16","903","","f","","","","","","","","","","","","","key","f","16.653263157895324","650.8014241391193","362.34725125245757","f","true","img/C_ambi40.png","朋友","same",""
"","","","","","html-keyboard-response","305","682919","0.0-10.0-0.0-0.0-0.0-1.16","null","<span style='color:GreenYellow; font-size: 70px;'>正确! </span>","null","","","","","","","","","","","","","","","","","","","","","","","feedback_test"
"","","","","","psychophysics","306","684994","0.0-10.0-0.0-0.0-0.0-0.17","1059","","j","","","","","","","","","","","","","key","j","16.653056910569113","650.8014241391193","362.34725125245757","j","true","img/S_ambi40.png","生人","same",""
"","","","","","html-keyboard-response","307","685507","0.0-10.0-0.0-0.0-0.0-1.17","null","<span style='color:GreenYellow; font-size: 70px;'>正确! </span>","null","","","","","","","","","","","","","","","","","","","","","","","feedback_test"
"","","","","","psychophysics","308","687746","0.0-10.0-0.0-0.0-0.0-0.18","1235","","j","","","","","","","","","","","","","key","j","16.65318045112798","650.8014241391193","362.34725125245757","j","true","img/S_ambi40.png","生人","same",""
"","","","","","html-keyboard-response","309","688248","0.0-10.0-0.0-0.0-0.0-1.18","null","<span style='color:GreenYellow; font-size: 70px;'>正确! </span>","null","","","","","","","","","","","","","","","","","","","","","","","feedback_test"
"","","","","","psychophysics","310","689961","0.0-10.0-0.0-0.0-0.0-0.19","710","","j","","","","","","","","","","","","","key","j","16.65274257425652","650.8014241391193","362.34725125245757","j","true","img/S_ambi40.png","生人","same",""
"","","","","","html-keyboard-response","311","690477","0.0-10.0-0.0-0.0-0.0-1.19","null","<span style='color:GreenYellow; font-size: 70px;'>正确! </span>","null","","","","","","","","","","","","","","","","","","","","","","","feedback_test"
"","","","","","psychophysics","312","692119","0.0-10.0-0.0-0.0-0.0-0.20","641","","f","","","","","","","","","","","","","key","f","16.653092783504913","650.8014241391193","362.34725125245757","f","true","img/T_ambi40.png","をる","same",""
"","","","","","html-keyboard-response","313","692628","0.0-10.0-0.0-0.0-0.0-1.20","null","<span style='color:GreenYellow; font-size: 70px;'>正确! </span>","null","","","","","","","","","","","","","","","","","","","","","","","feedback_test"
"","","","","","psychophysics","314","694657","0.0-10.0-0.0-0.0-0.0-0.21","1024","","f","","","","","","","","","","","","","key","f","16.652424999999734","650.8014241391193","362.34725125245757","f","true","img/S_ambi40.png","自我","same",""
"","","","","","html-keyboard-response","315","695185","0.0-10.0-0.0-0.0-0.0-1.21","null","<span style='color:GreenYellow; font-size: 70px;'>正确! </span>","null","","","","","","","","","","","","","","","","","","","","","","","feedback_test"
"","","","","","psychophysics","316","697280","0.0-10.0-0.0-0.0-0.0-0.22","1073","","f","","","","","","","","","","","","","key","f","16.652608000000008","650.8014241391193","362.34725125245757","f","true","img/H_ambi40.png","生人","same",""
"","","","","","html-keyboard-response","317","697795","0.0-10.0-0.0-0.0-0.0-1.22","null","<span style='color:GreenYellow; font-size: 70px;'>正确! </span>","null","","","","","","","","","","","","","","","","","","","","","","","feedback_test"
"","","","","","psychophysics","318","699516","0.0-10.0-0.0-0.0-0.0-0.23","714","","f","","","","","","","","","","","","","key","f","16.652254901961058","650.8014241391193","362.34725125245757","f","true","img/T_ambi40.png","をる","same",""
"","","","","","html-keyboard-response","319","700021","0.0-10.0-0.0-0.0-0.0-1.23","null","<span style='color:GreenYellow; font-size: 70px;'>正确! </span>","null","","","","","","","","","","","","","","","","","","","","","","","feedback_test"
"","","","","","psychophysics","320","701835","0.0-10.0-0.0-0.0-0.0-0.24","812","","j","","","","","","","","","","","","","key","j","17.133923076923775","650.8014241391193","362.34725125245757","j","true","img/S_ambi40.png","生人","same",""
"","","","","","html-keyboard-response","321","702366","0.0-10.0-0.0-0.0-0.0-1.24","null","<span style='color:GreenYellow; font-size: 70px;'>正确! </span>","null","","","","","","","","","","","","","","","","","","","","","","","feedback_test"
"","","","","","psychophysics","322","704116","0.0-10.0-0.0-0.0-0.0-0.25","731","","j","","","","","","","","","","","","","key","j","16.652874999999767","650.8014241391193","362.34725125245757","j","true","img/C_ambi40.png","自我","same",""
"","","","","","html-keyboard-response","323","704618","0.0-10.0-0.0-0.0-0.0-1.25","null","<span style='color:GreenYellow; font-size: 70px;'>正确! </span>","null","","","","","","","","","","","","","","","","","","","","","","","feedback_test"
"","","","","","psychophysics","324","706340","0.0-10.0-0.0-0.0-0.0-0.26","714","","j","","","","","","","","","","","","","key","j","16.654205882353434","650.8014241391193","362.34725125245757","j","true","img/C_ambi40.png","自我","same",""
"","","","","","html-keyboard-response","325","706849","0.0-10.0-0.0-0.0-0.0-1.26","null","<span style='color:GreenYellow; font-size: 70px;'>正确! </span>","null","","","","","","","","","","","","","","","","","","","","","","","feedback_test"
"","","","","","psychophysics","326","708704","0.0-10.0-0.0-0.0-0.0-0.27","846","","f","","","","","","","","","","","","","key","f","16.65342727272708","650.8014241391193","362.34725125245757","f","true","img/C_ambi40.png","朋友","same",""
"","","","","","html-keyboard-response","327","709237","0.0-10.0-0.0-0.0-0.0-1.27","null","<span style='color:GreenYellow; font-size: 70px;'>正确! </span>","null","","","","","","","","","","","","","","","","","","","","","","","feedback_test"
"","","","","","psychophysics","328","711272","0.0-10.0-0.0-0.0-0.0-0.28","1025","","j","","","","","","","","","","","","","key","j","16.65423140495877","650.8014241391193","362.34725125245757","j","true","img/H_ambi40.png","朋友","same",""
"","","","","","html-keyboard-response","329","711774","0.0-10.0-0.0-0.0-0.0-1.28","null","<span style='color:GreenYellow; font-size: 70px;'>正确! </span>","null","","","","","","","","","","","","","","","","","","","","","","","feedback_test"
"","","","","","psychophysics","330","713371","0.0-10.0-0.0-0.0-0.0-0.29","593","","f","","","","","","","","","","","","","key","f","16.652978947367764","650.8014241391193","362.34725125245757","f","true","img/T_ambi40.png","をる","same",""
"","","","","","html-keyboard-response","331","713876","0.0-10.0-0.0-0.0-0.0-1.29","null","<span style='color:GreenYellow; font-size: 70px;'>正确! </span>","null","","","","","","","","","","","","","","","","","","","","","","","feedback_test"
"","","","","","psychophysics","332","715841","0.0-10.0-0.0-0.0-0.0-0.30","964","","j","","","","","","","","","","","","","key","j","16.65299137931012","650.8014241391193","362.34725125245757","j","true","img/H_ambi40.png","朋友","same",""
"","","","","","html-keyboard-response","333","716366","0.0-10.0-0.0-0.0-0.0-1.30","null","<span style='color:GreenYellow; font-size: 70px;'>正确! </span>","null","","","","","","","","","","","","","","","","","","","","","","","feedback_test"
"","","","","","psychophysics","334","718159","0.0-10.0-0.0-0.0-0.0-0.31","768","","j","","","","","","","","","","","","","key","j","16.655027777776855","650.8014241391193","362.34725125245757","j","true","img/H_ambi40.png","朋友","same",""
"","","","","","html-keyboard-response","335","718670","0.0-10.0-0.0-0.0-0.0-1.31","null","<span style='color:GreenYellow; font-size: 70px;'>正确! </span>","null","","","","","","","","","","","","","","","","","","","","","","","feedback_test"
"","","","","","psychophysics","336","720449","0.0-10.0-0.0-0.0-0.0-0.32","777","","f","","","","","","","","","","","","","key","f","16.65307547169834","650.8014241391193","362.34725125245757","f","true","img/H_ambi40.png","自我","same",""
"","","","","","html-keyboard-response","337","720955","0.0-10.0-0.0-0.0-0.0-1.32","null","<span style='color:GreenYellow; font-size: 70px;'>正确! </span>","null","","","","","","","","","","","","","","","","","","","","","","","feedback_test"
"","","","","","psychophysics","338","722756","0.0-10.0-0.0-0.0-0.0-0.33","793","","j","","","","","","","","","","","","","key","j","16.652953271028395","650.8014241391193","362.34725125245757","j","true","img/C_ambi40.png","自我","same",""
"","","","","","html-keyboard-response","339","723278","0.0-10.0-0.0-0.0-0.0-1.33","null","<span style='color:GreenYellow; font-size: 70px;'>正确! </span>","null","","","","","","","","","","","","","","","","","","","","","","","feedback_test"
"","","","","","psychophysics","340","725502","0.0-10.0-0.0-0.0-0.0-0.34","1217","","j","","","","","","","","","","","","","key","j","16.652451127819205","650.8014241391193","362.34725125245757","f","false","img/S_ambi40.png","朋友","same",""
"","","","","","html-keyboard-response","341","726017","0.0-10.0-0.0-0.0-0.0-1.34","null","<span style='color:red; font-size: 70px;'>错误! </span>","null","","","","","","","","","","","","","","","","","","","","","","","feedback_test"
"","","","","","psychophysics","342","728341","0.0-10.0-0.0-0.0-0.0-0.35","1319","","f","","","","","","","","","","","","","key","f","16.653123188406177","650.8014241391193","362.34725125245757","f","true","img/C_ambi40.png","生人","same",""
"","","","","","html-keyboard-response","343","728854","0.0-10.0-0.0-0.0-0.0-1.35","null","<span style='color:GreenYellow; font-size: 70px;'>正确! </span>","null","","","","","","","","","","","","","","","","","","","","","","","feedback_test"
"","","","","","psychophysics","344","730933","0.0-10.0-0.0-0.0-0.0-0.36","1071","","f","","","","","","","","","","","","","key","f","16.652790322580614","650.8014241391193","362.34725125245757","f","true","img/C_ambi40.png","生人","same",""
"","","","","","html-keyboard-response","345","731442","0.0-10.0-0.0-0.0-0.0-1.36","null","<span style='color:GreenYellow; font-size: 70px;'>正确! </span>","null","","","","","","","","","","","","","","","","","","","","","","","feedback_test"
"","","","","","psychophysics","346","733123","0.0-10.0-0.0-0.0-0.0-0.37","680","","f","","","","","","","","","","","","","key","f","16.65454000000027","650.8014241391193","362.34725125245757","j","false","img/S_ambi40.png","生人","same",""
"","","","","","html-keyboard-response","347","733627","0.0-10.0-0.0-0.0-0.0-1.37","null","<span style='color:red; font-size: 70px;'>错误! </span>","null","","","","","","","","","","","","","","","","","","","","","","","feedback_test"
"","","","","","psychophysics","348","735623","0.0-10.0-0.0-0.0-0.0-0.38","992","","f","","","","","","","","","","","","","key","f","16.65440677966078","650.8014241391193","362.34725125245757","f","true","img/S_ambi40.png","自我","same",""
"","","","","","html-keyboard-response","349","736134","0.0-10.0-0.0-0.0-0.0-1.38","null","<span style='color:GreenYellow; font-size: 70px;'>正确! </span>","null","","","","","","","","","","","","","","","","","","","","","","","feedback_test"
"","","","","","psychophysics","350","737965","0.0-10.0-0.0-0.0-0.0-0.39","807","","f","","","","","","","","","","","","","key","f","16.652853211008843","650.8014241391193","362.34725125245757","f","true","img/H_ambi40.png","自我","same",""
"","","","","","html-keyboard-response","351","738472","0.0-10.0-0.0-0.0-0.0-1.39","null","<span style='color:GreenYellow; font-size: 70px;'>正确! </span>","null","","","","","","","","","","","","","","","","","","","","","","","feedback_test"
"","","","","","psychophysics","352","740628","0.0-10.0-0.0-0.0-0.0-0.40","1154","","f","","","","","","","","","","","","","key","f","16.653304687500167","650.8014241391193","362.34725125245757","f","true","img/H_ambi40.png","生人","same",""
"","","","","","html-keyboard-response","353","741141","0.0-10.0-0.0-0.0-0.0-1.40","null","<span style='color:GreenYellow; font-size: 70px;'>正确! </span>","null","","","","","","","","","","","","","","","","","","","","","","","feedback_test"
"","","","","","psychophysics","354","742850","0.0-10.0-0.0-0.0-0.0-0.41","705","","f","","","","","","","","","","","","","key","f","16.653079207920893","650.8014241391193","362.34725125245757","f","true","img/T_ambi40.png","をる","same",""
"","","","","","html-keyboard-response","355","743354","0.0-10.0-0.0-0.0-0.0-1.41","null","<span style='color:GreenYellow; font-size: 70px;'>正确! </span>","null","","","","","","","","","","","","","","","","","","","","","","","feedback_test"
"","","","","","psychophysics","356","745495","0.0-10.0-0.0-0.0-0.0-0.42","1128","","f","","","","","","","","","","","","","key","f","16.65288976377965","650.8014241391193","362.34725125245757","f","true","img/S_ambi40.png","朋友","same",""
"","","","","","html-keyboard-response","357","745998","0.0-10.0-0.0-0.0-0.0-1.42","null","<span style='color:GreenYellow; font-size: 70px;'>正确! </span>","null","","","","","","","","","","","","","","","","","","","","","","","feedback_test"
"","","","","","psychophysics","358","748036","0.0-10.0-0.0-0.0-0.0-0.43","1036","","j","","","","","","","","","","","","","key","j","16.54919008264503","650.8014241391193","362.34725125245757","j","true","img/H_ambi40.png","朋友","same",""
"","","","","","html-keyboard-response","359","748549","0.0-10.0-0.0-0.0-0.0-1.43","null","<span style='color:GreenYellow; font-size: 70px;'>正确! </span>","null","","","","","","","","","","","","","","","","","","","","","","","feedback_test"
"","","","","","psychophysics","360","750217","0.0-10.0-0.0-0.0-0.0-0.44","667","","j","","","","","","","","","","","","","key","j","16.653519999999553","650.8014241391193","362.34725125245757","j","true","img/C_ambi40.png","自我","same",""
"","","","","","html-keyboard-response","361","750722","0.0-10.0-0.0-0.0-0.0-1.44","null","<span style='color:GreenYellow; font-size: 70px;'>正确! </span>","null","","","","","","","","","","","","","","","","","","","","","","","feedback_test"
"","","","","","psychophysics","362","752468","0.0-10.0-0.0-0.0-0.0-0.45","742","","j","","","","","","","","","","","","","key","j","16.65293269230796","650.8014241391193","362.34725125245757","j","true","img/C_ambi40.png","自我","same",""
"","","","","","html-keyboard-response","363","752974","0.0-10.0-0.0-0.0-0.0-1.45","null","<span style='color:GreenYellow; font-size: 70px;'>正确! </span>","null","","","","","","","","","","","","","","","","","","","","","","","feedback_test"
"","","","","","psychophysics","364","754592","0.0-10.0-0.0-0.0-0.0-0.46","605","","f","","","","","","","","","","","","","key","f","16.636814432990374","650.8014241391193","362.34725125245757","f","true","img/T_ambi40.png","をる","same",""
"","","","","","html-keyboard-response","365","755102","0.0-10.0-0.0-0.0-0.0-1.46","null","<span style='color:GreenYellow; font-size: 70px;'>正确! </span>","null","","","","","","","","","","","","","","","","","","","","","","","feedback_test"
"","","","","","psychophysics","366","757030","0.0-10.0-0.0-0.0-0.0-0.47","924","","f","","","","","","","","","","","","","key","f","16.652730434782722","650.8014241391193","362.34725125245757","f","true","img/C_ambi40.png","朋友","same",""
"","","","","","html-keyboard-response","367","757541","0.0-10.0-0.0-0.0-0.0-1.47","null","<span style='color:GreenYellow; font-size: 70px;'>正确! </span>","null","","","","","","","","","","","","","","","","","","","","","","","feedback_test"
"","","","","","psychophysics","368","759180","0.0-10.0-0.0-0.0-0.0-0.48","638","","f","","","","","","","","","","","","","key","f","16.65246391752567","650.8014241391193","362.34725125245757","f","true","img/T_ambi40.png","をる","same",""
"","","","","","html-keyboard-response","369","759691","0.0-10.0-0.0-0.0-0.0-1.48","null","<span style='color:GreenYellow; font-size: 70px;'>正确! </span>","null","","","","","","","","","","","","","","","","","","","","","","","feedback_test"
"","","","","","psychophysics","370","761609","0.0-10.0-0.0-0.0-0.0-0.49","904","","j","","","","","","","","","","","","","key","j","16.652991228070103","650.8014241391193","362.34725125245757","j","true","img/H_ambi40.png","朋友","same",""
"","","","","","html-keyboard-response","371","762125","0.0-10.0-0.0-0.0-0.0-1.49","null","<span style='color:GreenYellow; font-size: 70px;'>正确! </span>","null","","","","","","","","","","","","","","","","","","","","","","","feedback_test"
"","","","","","psychophysics","372","764006","0.0-10.0-0.0-0.0-0.0-0.50","873","","j","","","","","","","","","","","","","key","j","16.652964285714138","650.8014241391193","362.34725125245757","j","true","img/H_ambi40.png","朋友","same",""
"","","","","","html-keyboard-response","373","764511","0.0-10.0-0.0-0.0-0.0-1.50","null","<span style='color:GreenYellow; font-size: 70px;'>正确! </span>","null","","","","","","","","","","","","","","","","","","","","","","","feedback_test"
"","","","","","psychophysics","374","766403","0.0-10.0-0.0-0.0-0.0-0.51","885","","f","","","","","","","","","","","","","key","f","16.653168141592573","650.8014241391193","362.34725125245757","j","false","img/S_ambi40.png","生人","same",""
"","","","","","html-keyboard-response","375","766927","0.0-10.0-0.0-0.0-0.0-1.51","null","<span style='color:red; font-size: 70px;'>错误! </span>","null","","","","","","","","","","","","","","","","","","","","","","","feedback_test"
"","","","","","psychophysics","376","768566","0.0-10.0-0.0-0.0-0.0-0.52","627","","j","","","","","","","","","","","","","key","j","16.653479591836412","650.8014241391193","362.34725125245757","j","true","img/C_ambi40.png","自我","same",""
"","","","","","html-keyboard-response","377","769079","0.0-10.0-0.0-0.0-0.0-1.52","null","<span style='color:GreenYellow; font-size: 70px;'>正确! </span>","null","","","","","","","","","","","","","","","","","","","","","","","feedback_test"
"","","","","","psychophysics","378","770939","0.0-10.0-0.0-0.0-0.0-0.53","858","","j","","","","","","","","","","","","","key","j","16.547681818181776","650.8014241391193","362.34725125245757","j","true","img/S_ambi40.png","生人","same",""
"","","","","","html-keyboard-response","379","771456","0.0-10.0-0.0-0.0-0.0-1.53","null","<span style='color:GreenYellow; font-size: 70px;'>正确! </span>","null","","","","","","","","","","","","","","","","","","","","","","","feedback_test"
"","","","","","psychophysics","380","773219","0.0-10.0-0.0-0.0-0.0-0.54","757","","j","","","","","","","","","","","","","key","j","16.653133333333592","650.8014241391193","362.34725125245757","j","true","img/C_ambi40.png","自我","same",""
"","","","","","html-keyboard-response","381","773738","0.0-10.0-0.0-0.0-0.0-1.54","null","<span style='color:GreenYellow; font-size: 70px;'>正确! </span>","null","","","","","","","","","","","","","","","","","","","","","","","feedback_test"
"","","","","","psychophysics","382","775705","0.0-10.0-0.0-0.0-0.0-0.55","962","","j","","","","","","","","","","","","","key","j","16.653999999999346","650.8014241391193","362.34725125245757","j","true","img/S_ambi40.png","生人","same",""
"","","","","","html-keyboard-response","383","776219","0.0-10.0-0.0-0.0-0.0-1.55","null","<span style='color:GreenYellow; font-size: 70px;'>正确! </span>","null","","","","","","","","","","","","","","","","","","","","","","","feedback_test"
"","","","","","psychophysics","384","777857","0.0-10.0-0.0-0.0-0.0-0.56","637","","j","","","","","","","","","","","","","key","j","16.65283505154711","650.8014241391193","362.34725125245757","f","false","img/C_ambi40.png","生人","same",""
"","","","","","html-keyboard-response","385","778367","0.0-10.0-0.0-0.0-0.0-1.56","null","<span style='color:red; font-size: 70px;'>错误! </span>","null","","","","","","","","","","","","","","","","","","","","","","","feedback_test"
"","","","","","psychophysics","386","780901","0.0-10.0-0.0-0.0-0.0-0.57","null","","null","","","","","","","","","","","","","key","null","16.65288741721861","650.8014241391193","362.34725125245757","f","false","img/S_ambi40.png","朋友","same",""
"","","","","","html-keyboard-response","387","781413","0.0-10.0-0.0-0.0-0.0-1.57","null","<span class='add_' style='color:yellow; font-size: 70px;'> 太慢! </span>","null","","","","","","","","","","","","","","","","","","","","","","","feedback_test"
"","","","","","psychophysics","388","783165","0.0-10.0-0.0-0.0-0.0-0.58","749","","f","","","","","","","","","","","","","key","f","16.65292307692289","650.8014241391193","362.34725125245757","f","true","img/T_ambi40.png","をる","same",""
"","","","","","html-keyboard-response","389","783675","0.0-10.0-0.0-0.0-0.0-1.58","null","<span style='color:GreenYellow; font-size: 70px;'>正确! </span>","null","","","","","","","","","","","","","","","","","","","","","","","feedback_test"
"","","","","","psychophysics","390","785702","0.0-10.0-0.0-0.0-0.0-0.59","1023","","f","","","","","","","","","","","","","key","f","16.65361983471065","650.8014241391193","362.34725125245757","f","true","img/H_ambi40.png","自我","same",""
"","","","","","html-keyboard-response","391","786210","0.0-10.0-0.0-0.0-0.0-1.59","null","<span style='color:GreenYellow; font-size: 70px;'>正确! </span>","null","","","","","","","","","","","","","","","","","","","","","","","feedback_test"
"","","","","","psychophysics","392","788402","0.0-10.0-0.0-0.0-0.0-0.60","1173","","f","","","","","","","","","","","","","key","f","16.653496183206165","650.8014241391193","362.34725125245757","f","true","img/S_ambi40.png","自我","same",""
"","","","","","html-keyboard-response","393","788914","0.0-10.0-0.0-0.0-0.0-1.60","null","<span style='color:GreenYellow; font-size: 70px;'>正确! </span>","null","","","","","","","","","","","","","","","","","","","","","","","feedback_test"
"","","","","","psychophysics","394","791424","0.0-10.0-0.0-0.0-0.0-0.61","null","","null","","","","","","","","","","","","","key","null","16.65281333333347","650.8014241391193","362.34725125245757","f","false","img/C_ambi40.png","朋友","same",""
"","","","","","html-keyboard-response","395","791929","0.0-10.0-0.0-0.0-0.0-1.61","null","<span class='add_' style='color:yellow; font-size: 70px;'> 太慢! </span>","null","","","","","","","","","","","","","","","","","","","","","","","feedback_test"
"","","","","","psychophysics","396","793978","0.0-10.0-0.0-0.0-0.0-0.62","1048","","f","","","","","","","","","","","","","key","f","16.652305785123996","650.8014241391193","362.34725125245757","j","false","img/H_ambi40.png","朋友","same",""
"","","","","","html-keyboard-response","397","794493","0.0-10.0-0.0-0.0-0.0-1.62","null","<span style='color:red; font-size: 70px;'>错误! </span>","null","","","","","","","","","","","","","","","","","","","","","","","feedback_test"
"","","","","","psychophysics","398","796145","0.0-10.0-0.0-0.0-0.0-0.63","650","","f","","","","","","","","","","","","","key","f","16.652214285714447","650.8014241391193","362.34725125245757","f","true","img/T_ambi40.png","をる","same",""
"","","","","","html-keyboard-response","399","796653","0.0-10.0-0.0-0.0-0.0-1.63","null","<span style='color:GreenYellow; font-size: 70px;'>正确! </span>","null","","","","","","","","","","","","","","","","","","","","","","","feedback_test"
"","","","","","psychophysics","400","798351","0.0-10.0-0.0-0.0-0.0-0.64","695","","j","","","","","","","","","","","","","key","j","16.65375247524733","650.8014241391193","362.34725125245757","j","true","img/C_ambi40.png","自我","same",""
"","","","","","html-keyboard-response","401","798853","0.0-10.0-0.0-0.0-0.0-1.64","null","<span style='color:GreenYellow; font-size: 70px;'>正确! </span>","null","","","","","","","","","","","","","","","","","","","","","","","feedback_test"
"","","","","","psychophysics","402","800889","0.0-10.0-0.0-0.0-0.0-0.65","1000","","j","","","","","","","","","","","","","key","j","16.652631147541335","650.8014241391193","362.34725125245757","f","false","img/H_ambi40.png","生人","same",""
"","","","","","html-keyboard-response","403","801399","0.0-10.0-0.0-0.0-0.0-1.65","null","<span style='color:red; font-size: 70px;'>错误! </span>","null","","","","","","","","","","","","","","","","","","","","","","","feedback_test"
"","","","","","psychophysics","404","803276","0.0-10.0-0.0-0.0-0.0-0.66","873","","f","","","","","","","","","","","","","key","f","16.653455357143166","650.8014241391193","362.34725125245757","j","false","img/H_ambi40.png","朋友","same",""
"","","","","","html-keyboard-response","405","803781","0.0-10.0-0.0-0.0-0.0-1.66","null","<span style='color:red; font-size: 70px;'>错误! </span>","null","","","","","","","","","","","","","","","","","","","","","","","feedback_test"
"","","","","","psychophysics","406","805701","0.0-10.0-0.0-0.0-0.0-0.67","917","","j","","","","","","","","","","","","","key","j","16.553438596490754","650.8014241391193","362.34725125245757","j","true","img/C_ambi40.png","自我","same",""
"","","","","","html-keyboard-response","407","806222","0.0-10.0-0.0-0.0-0.0-1.67","null","<span style='color:GreenYellow; font-size: 70px;'>正确! </span>","null","","","","","","","","","","","","","","","","","","","","","","","feedback_test"
"","","","","","psychophysics","408","808495","0.0-10.0-0.0-0.0-0.0-0.68","1262","","j","","","","","","","","","","","","","key","j","16.652785185185536","650.8014241391193","362.34725125245757","j","true","img/H_ambi40.png","朋友","same",""
"","","","","","html-keyboard-response","409","809006","0.0-10.0-0.0-0.0-0.0-1.68","null","<span style='color:GreenYellow; font-size: 70px;'>正确! </span>","null","","","","","","","","","","","","","","","","","","","","","","","feedback_test"
"","","","","","psychophysics","410","810795","0.0-10.0-0.0-0.0-0.0-0.69","781","","f","","","","","","","","","","","","","key","f","16.652452830188988","650.8014241391193","362.34725125245757","f","true","img/T_ambi40.png","をる","same",""
"","","","","","html-keyboard-response","411","811310","0.0-10.0-0.0-0.0-0.0-1.69","null","<span style='color:GreenYellow; font-size: 70px;'>正确! </span>","null","","","","","","","","","","","","","","","","","","","","","","","feedback_test"
"","","","","","psychophysics","412","813267","0.0-10.0-0.0-0.0-0.0-0.70","955","","f","","","","","","","","","","","","","key","f","16.652456896552206","650.8014241391193","362.34725125245757","j","false","img/S_ambi40.png","生人","same",""
"","","","","","html-keyboard-response","413","813787","0.0-10.0-0.0-0.0-0.0-1.70","null","<span style='color:red; font-size: 70px;'>错误! </span>","null","","","","","","","","","","","","","","","","","","","","","","","feedback_test"
"","","","","","psychophysics","414","816008","0.0-10.0-0.0-0.0-0.0-0.71","1215","","j","","","","","","","","","","","","","key","j","16.653507575757843","650.8014241391193","362.34725125245757","j","true","img/S_ambi40.png","生人","same",""
"","","","","","html-keyboard-response","415","816515","0.0-10.0-0.0-0.0-0.0-1.71","null","<span style='color:GreenYellow; font-size: 70px;'>正确! </span>","null","","","","","","","","","","","","","","","","","","","","","","","feedback_test"
"","","","","","psychophysics","416","818431","0.0-10.0-0.0-0.0-0.0-0.72","907","","f","","","","","","","","","","","","","key","f","16.65271929824488","650.8014241391193","362.34725125245757","f","true","img/H_ambi40.png","生人","same",""
"","","","","","html-keyboard-response","417","818944","0.0-10.0-0.0-0.0-0.0-1.72","null","<span style='color:GreenYellow; font-size: 70px;'>正确! </span>","null","","","","","","","","","","","","","","","","","","","","","","","feedback_test"
"","","","","","psychophysics","418","820685","0.0-10.0-0.0-0.0-0.0-0.73","729","","j","","","","","","","","","","","","","key","j","16.653572815533693","650.8014241391193","362.34725125245757","j","true","img/C_ambi40.png","自我","same",""
"","","","","","html-keyboard-response","419","821222","0.0-10.0-0.0-0.0-0.0-1.73","null","<span style='color:GreenYellow; font-size: 70px;'>正确! </span>","null","","","","","","","","","","","","","","","","","","","","","","","feedback_test"
"","","","","","psychophysics","420","822837","0.0-10.0-0.0-0.0-0.0-0.74","599","","j","","","","","","","","","","","","","key","j","16.653831578947997","650.8014241391193","362.34725125245757","j","true","img/C_ambi40.png","自我","same",""
"","","","","","html-keyboard-response","421","823339","0.0-10.0-0.0-0.0-0.0-1.74","null","<span style='color:GreenYellow; font-size: 70px;'>正确! </span>","null","","","","","","","","","","","","","","","","","","","","","","","feedback_test"
"","","","","","psychophysics","422","824850","0.0-10.0-0.0-0.0-0.0-0.75","505","","j","","","","","","","","","","","","","key","j","16.65278651685391","650.8014241391193","362.34725125245757","f","false","img/C_ambi40.png","生人","same",""
"","","","","","html-keyboard-response","423","825361","0.0-10.0-0.0-0.0-0.0-1.75","null","<span style='color:red; font-size: 70px;'>错误! </span>","null","","","","","","","","","","","","","","","","","","","","","","","feedback_test"
