"success","timeout","failed_images","failed_audio","failed_video","trial_type","trial_index","time_elapsed","internal_node_id","rt","stimulus","response","value","item_width_mm","item_height_mm","item_width_px","px2mm","view_dist_mm","item_width_deg","px2deg","scale_factor","win_width_deg","win_height_deg","view_history","response_type","key_press","avg_frame_time","center_x","center_y","correct_response","correct","Image","word","condition","screen_id"
"true","false","[]","[]","[]","preload","0","18835","0.0-0.0","","","","","","","","","","","","","","","","","","","","","","","","","",""
"","","","","","html-keyboard-response","1","69248","0.0-1.0","50413","
     <p>您好，欢迎参加本次实验。</p>
     <p>为充分保障您的权利，请确保您已经知晓并同意《参与实验同意书》以及《数据公开知情同意书》。</p>
     <p>如果您未见过上述内容，请咨询实验员。</p>
     <p>如果您选择继续实验，则表示您已经清楚两份知情同意书的内容并同意。</p>
     <p> <div style = ""color: green""><按任意键至下页></div> </p>
     ","enter","","","","","","","","","","","","","","","","","","","","","","",""
"","","","","","html-keyboard-response","2","71150","0.0-2.0","1902","
     <p>本实验首先需要您填写一些基本个人信息。</p>
     <p> <div style = ""color: green""><按任意键至下页></div></p>
     ","enter","","","","","","","","","","","","","","","","","","","","","","",""
"","","","","","call-function","3","71151","0.0-3.0-0.0","","","","","","","","","","","","","","","","","","","","","","","","","",""
"","","","","","survey-html-form","4","75948","0.0-3.0-1.0","4795","","{""Q0"":""22""}","","","","","","","","","","","","","","","","","","","","","","",""
"","","","","","html-button-response","5","77044","0.0-3.0-2.0","1095","<p style = 'color : white'>您的性别</p>","0","","","","","","","","","","","","","","","","","","","","","","",""
"","","","","","survey-html-form","6","89118","0.0-3.0-3.0","12073","","{""Q0"":""2003""}","","","","","","","","","","","","","","","","","","","","","","",""
"","","","","","survey-html-form","7","94481","0.0-3.0-4.0","5363","","{""Q0"":""5""}","","","","","","","","","","","","","","","","","","","","","","",""
"","","","","","virtual-chinrest","8","286688","0.0-4.0","192210","","","","85.6","53.98","458.41598098813336","5.3562288304929275","533.8","9.168319619762666","50","0.8289414325846479","30.72","14.28","","","","","","","","","","","",""
"true","","","","","fullscreen","9","290102","0.0-5.0","","","","","","","","","","","","","","","","","","","","","","","","","",""
"","","","","","instructions","10","364128","0.0-6.0","74020","","","","","","","","","","","","","","[{""page_index"":0,""viewing_time"":3389},{""page_index"":1,""viewing_time"":64827},{""page_index"":2,""viewing_time"":2695},{""page_index"":3,""viewing_time"":3109}]","","","","","","","","","","",""
"","","","","","psychophysics","11","366638","0.0-7.0-0.0-0.0","null","","null","","","","","","","","","","","","","key","null","7.002938375350137","768","428","j","false","img/H_ambi40.png","自我","prac",""
"","","","","","html-keyboard-response","12","367148","0.0-7.0-0.0-1.0","null","<span class='add_' style='color:yellow; font-size: 70px;'> 太慢! </span>","null","","","","","","","","","","","","","","","","","","","","","","","feedback_test"
"","","","","","psychophysics","13","368949","0.0-7.0-0.0-0.1","798","","f","","","","","","","","","","","","","key","f","6.94455813953487","768","428","f","true","img/T_ambi40.png","をる","prac",""
"","","","","","html-keyboard-response","14","369451","0.0-7.0-0.0-1.1","null","<span style='color:GreenYellow; font-size: 70px;'>正确! </span>","null","","","","","","","","","","","","","","","","","","","","","","","feedback_test"
"","","","","","psychophysics","15","370862","0.0-7.0-0.0-0.2","410","","j","","","","","","","","","","","","","key","j","6.978860696517359","768","428","j","true","img/S_ambi40.png","朋友","prac",""
"","","","","","html-keyboard-response","16","371374","0.0-7.0-0.0-1.2","null","<span style='color:GreenYellow; font-size: 70px;'>正确! </span>","null","","","","","","","","","","","","","","","","","","","","","","","feedback_test"
"","","","","","psychophysics","17","372911","0.0-7.0-0.0-0.3","536","","j","","","","","","","","","","","","","key","j","6.944495454545673","768","428","f","false","img/C_ambi40.png","生人","prac",""
"","","","","","html-keyboard-response","18","373427","0.0-7.0-0.0-1.3","null","<span style='color:red; font-size: 70px;'>错误! </span>","null","","","","","","","","","","","","","","","","","","","","","","","feedback_test"
"","","","","","psychophysics","19","375181","0.0-7.0-0.0-0.4","752","","j","","","","","","","","","","","","","key","j","6.944253968253929","768","428","j","true","img/C_ambi40.png","自我","prac",""
"","","","","","html-keyboard-response","20","375684","0.0-7.0-0.0-1.4","null","<span style='color:GreenYellow; font-size: 70px;'>正确! </span>","null","","","","","","","","","","","","","","","","","","","","","","","feedback_test"
"","","","","","psychophysics","21","377430","0.0-7.0-0.0-0.5","744","","f","","","","","","","","","","","","","key","f","7.115921810699565","768","428","f","true","img/H_ambi40.png","朋友","prac",""
"","","","","","html-keyboard-response","22","377946","0.0-7.0-0.0-1.5","null","<span style='color:GreenYellow; font-size: 70px;'>正确! </span>","null","","","","","","","","","","","","","","","","","","","","","","","feedback_test"
"","","","","","psychophysics","23","379742","0.0-7.0-0.0-0.6","795","","j","","","","","","","","","","","","","key","j","7.0262480314961255","768","428","f","false","img/C_ambi40.png","生人","prac",""
"","","","","","html-keyboard-response","24","380254","0.0-7.0-0.0-1.6","null","<span style='color:red; font-size: 70px;'>错误! </span>","null","","","","","","","","","","","","","","","","","","","","","","","feedback_test"
"","","","","","psychophysics","25","382069","0.0-7.0-0.0-0.7","814","","f","","","","","","","","","","","","","key","f","7.025031250000211","768","428","f","true","img/T_ambi40.png","をる","prac",""
"","","","","","html-keyboard-response","26","382584","0.0-7.0-0.0-1.7","null","<span style='color:GreenYellow; font-size: 70px;'>正确! </span>","null","","","","","","","","","","","","","","","","","","","","","","","feedback_test"
"","","","","","psychophysics","27","384390","0.0-7.0-0.0-0.8","804","","f","","","","","","","","","","","","","key","f","7.311552845528425","768","428","f","true","img/S_ambi40.png","自我","prac",""
"","","","","","html-keyboard-response","28","384899","0.0-7.0-0.0-1.8","null","<span style='color:GreenYellow; font-size: 70px;'>正确! </span>","null","","","","","","","","","","","","","","","","","","","","","","","feedback_test"
"","","","","","psychophysics","29","386517","0.0-7.0-0.0-0.9","616","","f","","","","","","","","","","","","","key","f","7.097299559471364","768","428","f","true","img/S_ambi40.png","自我","prac",""
"","","","","","html-keyboard-response","30","387020","0.0-7.0-0.0-1.9","null","<span style='color:GreenYellow; font-size: 70px;'>正确! </span>","null","","","","","","","","","","","","","","","","","","","","","","","feedback_test"
"","","","","","psychophysics","31","388797","0.0-7.0-0.0-0.10","777","","j","","","","","","","","","","","","","key","j","6.944086274509911","768","428","f","false","img/H_ambi40.png","朋友","prac",""
"","","","","","html-keyboard-response","32","389300","0.0-7.0-0.0-1.10","null","<span style='color:red; font-size: 70px;'>错误! </span>","null","","","","","","","","","","","","","","","","","","","","","","","feedback_test"
"","","","","","psychophysics","33","391149","0.0-7.0-0.0-0.11","846","","f","","","","","","","","","","","","","key","f","6.944369811320871","768","428","f","true","img/T_ambi40.png","をる","prac",""
"","","","","","html-keyboard-response","34","391659","0.0-7.0-0.0-1.11","null","<span style='color:GreenYellow; font-size: 70px;'>正确! </span>","null","","","","","","","","","","","","","","","","","","","","","","","feedback_test"
"","","","","","psychophysics","35","393430","0.0-7.0-0.0-0.12","764","","f","","","","","","","","","","","","","key","f","6.971952569169884","768","428","j","false","img/H_ambi40.png","生人","prac",""
"","","","","","html-keyboard-response","36","393935","0.0-7.0-0.0-1.12","null","<span style='color:red; font-size: 70px;'>错误! </span>","null","","","","","","","","","","","","","","","","","","","","","","","feedback_test"
"","","","","","psychophysics","37","395917","0.0-7.0-0.0-0.13","982","","f","","","","","","","","","","","","","key","f","6.993085106383144","768","428","f","true","img/T_ambi40.png","をる","prac",""
"","","","","","html-keyboard-response","38","396421","0.0-7.0-0.0-1.13","null","<span style='color:GreenYellow; font-size: 70px;'>正确! </span>","null","","","","","","","","","","","","","","","","","","","","","","","feedback_test"
"","","","","","psychophysics","39","398093","0.0-7.0-0.0-0.14","672","","f","","","","","","","","","","","","","key","f","6.972739495798268","768","428","j","false","img/C_ambi40.png","朋友","prac",""
"","","","","","html-keyboard-response","40","398611","0.0-7.0-0.0-1.14","null","<span style='color:red; font-size: 70px;'>错误! </span>","null","","","","","","","","","","","","","","","","","","","","","","","feedback_test"
"","","","","","psychophysics","41","400613","0.0-7.0-0.0-0.15","997","","f","","","","","","","","","","","","","key","f","6.9687797202797075","768","428","j","false","img/S_ambi40.png","生人","prac",""
"","","","","","html-keyboard-response","42","401119","0.0-7.0-0.0-1.15","null","<span style='color:red; font-size: 70px;'>错误! </span>","null","","","","","","","","","","","","","","","","","","","","","","","feedback_test"
"","","","","","psychophysics","43","403301","0.0-7.0-0.0-0.16","1178","","j","","","","","","","","","","","","","key","j","6.96668910256416","768","428","f","false","img/S_ambi40.png","自我","prac",""
"","","","","","html-keyboard-response","44","403817","0.0-7.0-0.0-1.16","null","<span style='color:red; font-size: 70px;'>错误! </span>","null","","","","","","","","","","","","","","","","","","","","","","","feedback_test"
"","","","","","psychophysics","45","405535","0.0-7.0-0.0-0.17","717","","f","","","","","","","","","","","","","key","f","7.057896265560081","768","428","f","true","img/T_ambi40.png","をる","prac",""
"","","","","","html-keyboard-response","46","406035","0.0-7.0-0.0-1.17","null","<span style='color:GreenYellow; font-size: 70px;'>正确! </span>","null","","","","","","","","","","","","","","","","","","","","","","","feedback_test"
"","","","","","psychophysics","47","408077","0.0-7.0-0.0-0.18","1037","","f","","","","","","","","","","","","","key","f","6.968023972602741","768","428","f","true","img/T_ambi40.png","をる","prac",""
"","","","","","html-keyboard-response","48","408592","0.0-7.0-0.0-1.18","null","<span style='color:GreenYellow; font-size: 70px;'>正确! </span>","null","","","","","","","","","","","","","","","","","","","","","","","feedback_test"
"","","","","","psychophysics","49","410781","0.0-7.0-0.0-0.19","1186","","j","","","","","","","","","","","","","key","j","7.05676051779932","768","428","f","false","img/S_ambi40.png","自我","prac",""
"","","","","","html-keyboard-response","50","411291","0.0-7.0-0.0-1.19","null","<span style='color:red; font-size: 70px;'>错误! </span>","null","","","","","","","","","","","","","","","","","","","","","","","feedback_test"
"","","","","","psychophysics","51","413398","0.0-7.0-0.0-0.20","1106","","f","","","","","","","","","","","","","key","f","6.944102649006642","768","428","f","true","img/H_ambi40.png","朋友","prac",""
"","","","","","html-keyboard-response","52","413899","0.0-7.0-0.0-1.20","null","<span style='color:GreenYellow; font-size: 70px;'>正确! </span>","null","","","","","","","","","","","","","","","","","","","","","","","feedback_test"
"","","","","","psychophysics","53","416382","0.0-7.0-0.0-0.21","1481","","f","","","","","","","","","","","","","key","f","7.003384180790889","768","428","j","false","img/S_ambi40.png","生人","prac",""
"","","","","","html-keyboard-response","54","416883","0.0-7.0-0.0-1.21","null","<span style='color:red; font-size: 70px;'>错误! </span>","null","","","","","","","","","","","","","","","","","","","","","","","feedback_test"
"","","","","","psychophysics","55","419387","0.0-7.0-0.0-0.22","null","","null","","","","","","","","","","","","","key","null","6.944610027855127","768","428","f","false","img/C_ambi40.png","生人","prac",""
"","","","","","html-keyboard-response","56","419895","0.0-7.0-0.0-1.22","null","<span class='add_' style='color:yellow; font-size: 70px;'> 太慢! </span>","null","","","","","","","","","","","","","","","","","","","","","","","feedback_test"
"","","","","","psychophysics","57","421725","0.0-7.0-0.0-0.23","824","","f","","","","","","","","","","","","","key","f","6.94429770992373","768","428","f","true","img/T_ambi40.png","をる","prac",""
"","","","","","html-keyboard-response","58","422230","0.0-7.0-0.0-1.23","null","<span style='color:GreenYellow; font-size: 70px;'>正确! </span>","null","","","","","","","","","","","","","","","","","","","","","","","feedback_test"
"","","","","","psychophysics","59","424382","0.0-7.0-0.0-0.24","1148","","j","","","","","","","","","","","","","key","j","6.944631067961176","768","428","j","true","img/S_ambi40.png","朋友","prac",""
"","","","","","html-keyboard-response","60","424893","0.0-7.0-0.0-1.24","null","<span style='color:GreenYellow; font-size: 70px;'>正确! </span>","null","","","","","","","","","","","","","","","","","","","","","","","feedback_test"
"","","","","","psychophysics","61","427396","0.0-7.0-0.0-0.25","null","","null","","","","","","","","","","","","","key","null","6.944420612813428","768","428","f","false","img/C_ambi40.png","生人","prac",""
"","","","","","html-keyboard-response","62","427900","0.0-7.0-0.0-1.25","null","<span class='add_' style='color:yellow; font-size: 70px;'> 太慢! </span>","null","","","","","","","","","","","","","","","","","","","","","","","feedback_test"
"","","","","","psychophysics","63","430205","0.0-7.0-0.0-0.26","1303","","f","","","","","","","","","","","","","key","f","6.98654878048777","768","428","j","false","img/C_ambi40.png","自我","prac",""
"","","","","","html-keyboard-response","64","430723","0.0-7.0-0.0-1.26","null","<span style='color:red; font-size: 70px;'>错误! </span>","null","","","","","","","","","","","","","","","","","","","","","","","feedback_test"
"","","","","","psychophysics","65","432485","0.0-7.0-0.0-0.27","761","","f","","","","","","","","","","","","","key","f","7.231144628099075","768","428","f","true","img/T_ambi40.png","をる","prac",""
"","","","","","html-keyboard-response","66","432999","0.0-7.0-0.0-1.27","null","<span style='color:GreenYellow; font-size: 70px;'>正确! </span>","null","","","","","","","","","","","","","","","","","","","","","","","feedback_test"
"","","","","","psychophysics","67","435504","0.0-7.0-0.0-0.28","null","","null","","","","","","","","","","","","","key","null","7.04258474576258","768","428","j","false","img/H_ambi40.png","生人","prac",""
"","","","","","html-keyboard-response","68","436021","0.0-7.0-0.0-1.28","null","<span class='add_' style='color:yellow; font-size: 70px;'> 太慢! </span>","null","","","","","","","","","","","","","","","","","","","","","","","feedback_test"
"","","","","","psychophysics","69","437949","0.0-7.0-0.0-0.29","926","","f","","","","","","","","","","","","","key","f","7.020926739926699","768","428","j","false","img/H_ambi40.png","自我","prac",""
"","","","","","html-keyboard-response","70","438461","0.0-7.0-0.0-1.29","null","<span style='color:red; font-size: 70px;'>错误! </span>","null","","","","","","","","","","","","","","","","","","","","","","","feedback_test"
"","","","","","psychophysics","71","440118","0.0-7.0-0.0-0.30","654","","f","","","","","","","","","","","","","key","f","6.944579831932764","768","428","f","true","img/H_ambi40.png","朋友","prac",""
"","","","","","html-keyboard-response","72","440623","0.0-7.0-0.0-1.30","null","<span style='color:GreenYellow; font-size: 70px;'>正确! </span>","null","","","","","","","","","","","","","","","","","","","","","","","feedback_test"
"","","","","","psychophysics","73","442597","0.0-7.0-0.0-0.31","973","","j","","","","","","","","","","","","","key","j","6.94434628975265","768","428","j","true","img/C_ambi40.png","朋友","prac",""
"","","","","","html-keyboard-response","74","443099","0.0-7.0-0.0-1.31","null","<span style='color:GreenYellow; font-size: 70px;'>正确! </span>","null","","","","","","","","","","","","","","","","","","","","","","","feedback_test"
"","","","","","html-keyboard-response","75","448205","0.0-7.0-1.0-0.0","5105","<style>.context{color:white; font-size: 35px; line-height:40px}</style>                          <div><p class='context'>您正确回答了53% 的试次。</p ><p class='context'>您的平均反应时为823毫秒。</p >","j","","","","","","","","","","","","","","","","","","","","","","",""
"","","","","","instructions","76","487722","0.0-7.0-1.0-1.0","39516","","","","","","","","","","","","","","[{""page_index"":0,""viewing_time"":8800},{""page_index"":1,""viewing_time"":28565},{""page_index"":2,""viewing_time"":2150}]","","","","","","","","","","",""
"","","","","","psychophysics","77","490227","0.0-7.1-0.1-0.32","null","","null","","","","","","","","","","","","","key","null","6.983226890756431","768","428","j","false","img/C_ambi40.png","自我","prac",""
"","","","","","html-keyboard-response","78","490733","0.0-7.1-0.1-1.32","null","<span class='add_' style='color:yellow; font-size: 70px;'> 太慢! </span>","null","","","","","","","","","","","","","","","","","","","","","","","feedback_test"
"","","","","","psychophysics","79","492500","0.0-7.1-0.1-0.33","766","","f","","","","","","","","","","","","","key","f","6.944134387351699","768","428","f","true","img/T_ambi40.png","をる","prac",""
"","","","","","html-keyboard-response","80","493014","0.0-7.1-0.1-1.33","null","<span style='color:GreenYellow; font-size: 70px;'>正确! </span>","null","","","","","","","","","","","","","","","","","","","","","","","feedback_test"
"","","","","","psychophysics","81","495196","0.0-7.1-0.1-0.34","1180","","f","","","","","","","","","","","","","key","f","6.989321543408372","768","428","j","false","img/S_ambi40.png","朋友","prac",""
"","","","","","html-keyboard-response","82","495699","0.0-7.1-0.1-1.34","null","<span style='color:red; font-size: 70px;'>错误! </span>","null","","","","","","","","","","","","","","","","","","","","","","","feedback_test"
"","","","","","psychophysics","83","497524","0.0-7.1-0.1-0.35","825","","f","","","","","","","","","","","","","key","f","7.080074218750042","768","428","f","true","img/T_ambi40.png","をる","prac",""
"","","","","","html-keyboard-response","84","498039","0.0-7.1-0.1-1.35","null","<span style='color:GreenYellow; font-size: 70px;'>正确! </span>","null","","","","","","","","","","","","","","","","","","","","","","","feedback_test"
"","","","","","psychophysics","85","500020","0.0-7.1-0.1-0.36","980","","f","","","","","","","","","","","","","key","f","6.944429577464766","768","428","j","false","img/S_ambi40.png","生人","prac",""
"","","","","","html-keyboard-response","86","500528","0.0-7.1-0.1-1.36","null","<span style='color:red; font-size: 70px;'>错误! </span>","null","","","","","","","","","","","","","","","","","","","","","","","feedback_test"
"","","","","","psychophysics","87","502244","0.0-7.1-0.1-0.37","712","","f","","","","","","","","","","","","","key","f","6.944626016260268","768","428","j","false","img/C_ambi40.png","朋友","prac",""
"","","","","","html-keyboard-response","88","502747","0.0-7.1-0.1-1.37","null","<span style='color:red; font-size: 70px;'>错误! </span>","null","","","","","","","","","","","","","","","","","","","","","","","feedback_test"
"","","","","","psychophysics","89","504684","0.0-7.1-0.1-0.38","936","","f","","","","","","","","","","","","","key","f","7.098328413284337","768","428","f","true","img/T_ambi40.png","をる","prac",""
"","","","","","html-keyboard-response","90","505193","0.0-7.1-0.1-1.38","null","<span style='color:GreenYellow; font-size: 70px;'>正确! </span>","null","","","","","","","","","","","","","","","","","","","","","","","feedback_test"
"","","","","","psychophysics","91","507444","0.0-7.1-0.1-0.39","1248","","f","","","","","","","","","","","","","key","f","7.330591503267855","768","428","f","true","img/H_ambi40.png","朋友","prac",""
"","","","","","html-keyboard-response","92","507946","0.0-7.1-0.1-1.39","null","<span style='color:GreenYellow; font-size: 70px;'>正确! </span>","null","","","","","","","","","","","","","","","","","","","","","","","feedback_test"
"","","","","","psychophysics","93","509893","0.0-7.1-0.1-0.40","945","","j","","","","","","","","","","","","","key","j","7.483096899224677","768","428","f","false","img/C_ambi40.png","生人","prac",""
"","","","","","html-keyboard-response","94","510395","0.0-7.1-0.1-1.40","null","<span style='color:red; font-size: 70px;'>错误! </span>","null","","","","","","","","","","","","","","","","","","","","","","","feedback_test"
"","","","","","psychophysics","95","512117","0.0-7.1-0.1-0.41","720","","f","","","","","","","","","","","","","key","f","7.626580357142822","768","428","j","false","img/H_ambi40.png","自我","prac",""
"","","","","","html-keyboard-response","96","512618","0.0-7.1-0.1-1.41","null","<span style='color:red; font-size: 70px;'>错误! </span>","null","","","","","","","","","","","","","","","","","","","","","","","feedback_test"
"","","","","","psychophysics","97","514652","0.0-7.1-0.1-0.42","1030","","f","","","","","","","","","","","","","key","f","7.090339160839362","768","428","j","false","img/H_ambi40.png","生人","prac",""
"","","","","","html-keyboard-response","98","515167","0.0-7.1-0.1-1.42","null","<span style='color:red; font-size: 70px;'>错误! </span>","null","","","","","","","","","","","","","","","","","","","","","","","feedback_test"
"","","","","","psychophysics","99","517165","0.0-7.1-0.1-0.43","994","","j","","","","","","","","","","","","","key","j","6.944522648083552","768","428","f","false","img/S_ambi40.png","自我","prac",""
"","","","","","html-keyboard-response","100","517669","0.0-7.1-0.1-1.43","null","<span style='color:red; font-size: 70px;'>错误! </span>","null","","","","","","","","","","","","","","","","","","","","","","","feedback_test"
"","","","","","psychophysics","101","519533","0.0-7.1-0.1-0.44","862","","j","","","","","","","","","","","","","key","j","7.04939393939408","768","428","f","false","img/S_ambi40.png","自我","prac",""
"","","","","","html-keyboard-response","102","520041","0.0-7.1-0.1-1.44","null","<span style='color:red; font-size: 70px;'>错误! </span>","null","","","","","","","","","","","","","","","","","","","","","","","feedback_test"
"","","","","","psychophysics","103","521661","0.0-7.1-0.1-0.45","615","","f","","","","","","","","","","","","","key","f","6.944431034482791","768","428","f","true","img/T_ambi40.png","をる","prac",""
"","","","","","html-keyboard-response","104","522164","0.0-7.1-0.1-1.45","null","<span style='color:GreenYellow; font-size: 70px;'>正确! </span>","null","","","","","","","","","","","","","","","","","","","","","","","feedback_test"
"","","","","","psychophysics","105","524005","0.0-7.1-0.1-0.46","837","","f","","","","","","","","","","","","","key","f","6.944403041824752","768","428","f","true","img/C_ambi40.png","生人","prac",""
"","","","","","html-keyboard-response","106","524507","0.0-7.1-0.1-1.46","null","<span style='color:GreenYellow; font-size: 70px;'>正确! </span>","null","","","","","","","","","","","","","","","","","","","","","","","feedback_test"
"","","","","","psychophysics","107","526589","0.0-7.1-0.1-0.47","1078","","f","","","","","","","","","","","","","key","f","6.967765100671044","768","428","f","true","img/H_ambi40.png","朋友","prac",""
"","","","","","html-keyboard-response","108","527099","0.0-7.1-0.1-1.47","null","<span style='color:GreenYellow; font-size: 70px;'>正确! </span>","null","","","","","","","","","","","","","","","","","","","","","","","feedback_test"
"","","","","","psychophysics","109","529180","0.0-7.1-0.1-0.48","1080","","f","","","","","","","","","","","","","key","f","6.944418060200454","768","428","j","false","img/S_ambi40.png","生人","prac",""
"","","","","","html-keyboard-response","110","529690","0.0-7.1-0.1-1.48","null","<span style='color:red; font-size: 70px;'>错误! </span>","null","","","","","","","","","","","","","","","","","","","","","","","feedback_test"
"","","","","","psychophysics","111","531764","0.0-7.1-0.1-0.49","1072","","f","","","","","","","","","","","","","key","f","6.9913108108106625","768","428","f","true","img/S_ambi40.png","自我","prac",""
"","","","","","html-keyboard-response","112","532280","0.0-7.1-0.1-1.49","null","<span style='color:GreenYellow; font-size: 70px;'>正确! </span>","null","","","","","","","","","","","","","","","","","","","","","","","feedback_test"
"","","","","","psychophysics","113","534140","0.0-7.1-0.1-0.50","858","","f","","","","","","","","","","","","","key","f","6.9705939849626795","768","428","f","true","img/H_ambi40.png","朋友","prac",""
"","","","","","html-keyboard-response","114","534653","0.0-7.1-0.1-1.50","null","<span style='color:GreenYellow; font-size: 70px;'>正确! </span>","null","","","","","","","","","","","","","","","","","","","","","","","feedback_test"
"","","","","","psychophysics","115","536741","0.0-7.1-0.1-0.51","1084","","j","","","","","","","","","","","","","key","j","6.944473333333153","768","428","f","false","img/H_ambi40.png","朋友","prac",""
"","","","","","html-keyboard-response","116","537246","0.0-7.1-0.1-1.51","null","<span style='color:red; font-size: 70px;'>错误! </span>","null","","","","","","","","","","","","","","","","","","","","","","","feedback_test"
"","","","","","psychophysics","117","539020","0.0-7.1-0.1-0.52","773","","f","","","","","","","","","","","","","key","f","6.944220472441154","768","428","f","true","img/T_ambi40.png","をる","prac",""
"","","","","","html-keyboard-response","118","539532","0.0-7.1-0.1-1.52","null","<span style='color:GreenYellow; font-size: 70px;'>正确! </span>","null","","","","","","","","","","","","","","","","","","","","","","","feedback_test"
"","","","","","psychophysics","119","541444","0.0-7.1-0.1-0.53","905","","f","","","","","","","","","","","","","key","f","7.047100000000231","768","428","f","true","img/T_ambi40.png","をる","prac",""
"","","","","","html-keyboard-response","120","541957","0.0-7.1-0.1-1.53","null","<span style='color:GreenYellow; font-size: 70px;'>正确! </span>","null","","","","","","","","","","","","","","","","","","","","","","","feedback_test"
"","","","","","psychophysics","121","543820","0.0-7.1-0.1-0.54","861","","f","","","","","","","","","","","","","key","f","6.944775280898894","768","428","j","false","img/C_ambi40.png","朋友","prac",""
"","","","","","html-keyboard-response","122","544329","0.0-7.1-0.1-1.54","null","<span style='color:red; font-size: 70px;'>错误! </span>","null","","","","","","","","","","","","","","","","","","","","","","","feedback_test"
"","","","","","psychophysics","123","546832","0.0-7.1-0.1-0.55","null","","null","","","","","","","","","","","","","key","null","7.020811267605733","768","428","f","false","img/C_ambi40.png","生人","prac",""
"","","","","","html-keyboard-response","124","547349","0.0-7.1-0.1-1.55","null","<span class='add_' style='color:yellow; font-size: 70px;'> 太慢! </span>","null","","","","","","","","","","","","","","","","","","","","","","","feedback_test"
"","","","","","psychophysics","125","549188","0.0-7.1-0.1-0.56","837","","f","","","","","","","","","","","","","key","f","7.078513513513819","768","428","f","true","img/C_ambi40.png","生人","prac",""
"","","","","","html-keyboard-response","126","549700","0.0-7.1-0.1-1.56","null","<span style='color:GreenYellow; font-size: 70px;'>正确! </span>","null","","","","","","","","","","","","","","","","","","","","","","","feedback_test"
"","","","","","psychophysics","127","551909","0.0-7.1-0.1-0.57","1204","","j","","","","","","","","","","","","","key","j","6.944438485804378","768","428","j","true","img/S_ambi40.png","朋友","prac",""
"","","","","","html-keyboard-response","128","552411","0.0-7.1-0.1-1.57","null","<span style='color:GreenYellow; font-size: 70px;'>正确! </span>","null","","","","","","","","","","","","","","","","","","","","","","","feedback_test"
"","","","","","psychophysics","129","554589","0.0-7.1-0.1-0.58","1175","","j","","","","","","","","","","","","","key","j","6.944392971246289","768","428","j","true","img/H_ambi40.png","生人","prac",""
"","","","","","html-keyboard-response","130","555101","0.0-7.1-0.1-1.58","null","<span style='color:GreenYellow; font-size: 70px;'>正确! </span>","null","","","","","","","","","","","","","","","","","","","","","","","feedback_test"
"","","","","","psychophysics","131","557603","0.0-7.1-0.1-0.59","null","","null","","","","","","","","","","","","","key","null","6.9637877094971055","768","428","j","false","img/C_ambi40.png","自我","prac",""
"","","","","","html-keyboard-response","132","558106","0.0-7.1-0.1-1.59","null","<span class='add_' style='color:yellow; font-size: 70px;'> 太慢! </span>","null","","","","","","","","","","","","","","","","","","","","","","","feedback_test"
"","","","","","psychophysics","133","559749","0.0-7.1-0.1-0.60","642","","f","","","","","","","","","","","","","key","f","7.221128318583967","768","428","f","true","img/T_ambi40.png","をる","prac",""
"","","","","","html-keyboard-response","134","560264","0.0-7.1-0.1-1.60","null","<span style='color:GreenYellow; font-size: 70px;'>正确! </span>","null","","","","","","","","","","","","","","","","","","","","","","","feedback_test"
"","","","","","psychophysics","135","561853","0.0-7.1-0.1-0.61","585","","f","","","","","","","","","","","","","key","f","7.196881818181877","768","428","f","true","img/T_ambi40.png","をる","prac",""
"","","","","","html-keyboard-response","136","562359","0.0-7.1-0.1-1.61","null","<span style='color:GreenYellow; font-size: 70px;'>正确! </span>","null","","","","","","","","","","","","","","","","","","","","","","","feedback_test"
"","","","","","psychophysics","137","564356","0.0-7.1-0.1-0.62","991","","j","","","","","","","","","","","","","key","j","6.944489510489752","768","428","f","false","img/S_ambi40.png","自我","prac",""
"","","","","","html-keyboard-response","138","564873","0.0-7.1-0.1-1.62","null","<span style='color:red; font-size: 70px;'>错误! </span>","null","","","","","","","","","","","","","","","","","","","","","","","feedback_test"
"","","","","","psychophysics","139","566780","0.0-7.1-0.1-0.63","907","","j","","","","","","","","","","","","","key","j","7.021299999999745","768","428","j","true","img/H_ambi40.png","自我","prac",""
"","","","","","html-keyboard-response","140","567293","0.0-7.1-0.1-1.63","null","<span style='color:GreenYellow; font-size: 70px;'>正确! </span>","null","","","","","","","","","","","","","","","","","","","","","","","feedback_test"
"","","","","","html-keyboard-response","141","569349","0.0-7.1-1.1-0.1","2055","<style>.context{color:white; font-size: 35px; line-height:40px}</style>                          <div><p class='context'>您正确回答了53% 的试次。</p ><p class='context'>您的平均反应时为898毫秒。</p >","h","","","","","","","","","","","","","","","","","","","","","","",""
"","","","","","instructions","142","583948","0.0-7.1-1.1-1.1","14597","","","","","","","","","","","","","","[{""page_index"":0,""viewing_time"":1503},{""page_index"":1,""viewing_time"":11936},{""page_index"":2,""viewing_time"":1158}]","","","","","","","","","","",""
"","","","","","psychophysics","143","586364","0.0-7.2-0.2-0.64","1414","","f","","","","","","","","","","","","","key","f","7.129611275964403","768","428","j","false","img/C_ambi40.png","自我","prac",""
"","","","","","html-keyboard-response","144","586879","0.0-7.2-0.2-1.64","null","<span style='color:red; font-size: 70px;'>错误! </span>","null","","","","","","","","","","","","","","","","","","","","","","","feedback_test"
"","","","","","psychophysics","145","588541","0.0-7.2-0.2-0.65","655","","f","","","","","","","","","","","","","key","f","7.0635321888415135","768","428","f","true","img/T_ambi40.png","をる","prac",""
"","","","","","html-keyboard-response","146","589052","0.0-7.2-0.2-1.65","null","<span style='color:GreenYellow; font-size: 70px;'>正确! </span>","null","","","","","","","","","","","","","","","","","","","","","","","feedback_test"
"","","","","","psychophysics","147","591109","0.0-7.2-0.2-0.66","1056","","f","","","","","","","","","","","","","key","f","7.01612371133994","768","428","j","false","img/H_ambi40.png","生人","prac",""
"","","","","","html-keyboard-response","148","591613","0.0-7.2-0.2-1.66","null","<span style='color:red; font-size: 70px;'>错误! </span>","null","","","","","","","","","","","","","","","","","","","","","","","feedback_test"
"","","","","","psychophysics","149","593157","0.0-7.2-0.2-0.67","541","","f","","","","","","","","","","","","","key","f","6.944325791855187","768","428","f","true","img/T_ambi40.png","をる","prac",""
"","","","","","html-keyboard-response","150","593663","0.0-7.2-0.2-1.67","null","<span style='color:GreenYellow; font-size: 70px;'>正确! </span>","null","","","","","","","","","","","","","","","","","","","","","","","feedback_test"
"","","","","","psychophysics","151","595364","0.0-7.2-0.2-0.68","700","","f","","","","","","","","","","","","","key","f","7.059866108786447","768","428","f","true","img/T_ambi40.png","をる","prac",""
"","","","","","html-keyboard-response","152","595877","0.0-7.2-0.2-1.68","null","<span style='color:GreenYellow; font-size: 70px;'>正确! </span>","null","","","","","","","","","","","","","","","","","","","","","","","feedback_test"
"","","","","","psychophysics","153","597828","0.0-7.2-0.2-0.69","949","","f","","","","","","","","","","","","","key","f","7.045054347826289","768","428","f","true","img/H_ambi40.png","朋友","prac",""
"","","","","","html-keyboard-response","154","598343","0.0-7.2-0.2-1.69","null","<span style='color:GreenYellow; font-size: 70px;'>正确! </span>","null","","","","","","","","","","","","","","","","","","","","","","","feedback_test"
"","","","","","psychophysics","155","600396","0.0-7.2-0.2-0.70","1051","","j","","","","","","","","","","","","","key","j","6.991728522336747","768","428","j","true","img/S_ambi40.png","朋友","prac",""
"","","","","","html-keyboard-response","156","600912","0.0-7.2-0.2-1.70","null","<span style='color:GreenYellow; font-size: 70px;'>正确! </span>","null","","","","","","","","","","","","","","","","","","","","","","","feedback_test"
"","","","","","psychophysics","157","603413","0.0-7.2-0.2-0.71","null","","null","","","","","","","","","","","","","key","null","7.0031460674157175","768","428","f","false","img/C_ambi40.png","生人","prac",""
"","","","","","html-keyboard-response","158","603917","0.0-7.2-0.2-1.71","null","<span class='add_' style='color:yellow; font-size: 70px;'> 太慢! </span>","null","","","","","","","","","","","","","","","","","","","","","","","feedback_test"
"","","","","","psychophysics","159","605997","0.0-7.2-0.2-0.72","1079","","f","","","","","","","","","","","","","key","f","6.944479865772062","768","428","j","false","img/H_ambi40.png","自我","prac",""
"","","","","","html-keyboard-response","160","606510","0.0-7.2-0.2-1.72","null","<span style='color:red; font-size: 70px;'>错误! </span>","null","","","","","","","","","","","","","","","","","","","","","","","feedback_test"
"","","","","","psychophysics","161","608917","0.0-7.2-0.2-0.73","1406","","f","","","","","","","","","","","","","key","f","7.3716338461540785","768","428","f","true","img/S_ambi40.png","自我","prac",""
"","","","","","html-keyboard-response","162","609432","0.0-7.2-0.2-1.73","null","<span style='color:GreenYellow; font-size: 70px;'>正确! </span>","null","","","","","","","","","","","","","","","","","","","","","","","feedback_test"
"","","","","","psychophysics","163","611917","0.0-7.2-0.2-0.74","1482","","f","","","","","","","","","","","","","key","f","6.944352941176364","768","428","j","false","img/C_ambi40.png","朋友","prac",""
"","","","","","html-keyboard-response","164","612430","0.0-7.2-0.2-1.74","null","<span style='color:red; font-size: 70px;'>错误! </span>","null","","","","","","","","","","","","","","","","","","","","","","","feedback_test"
"","","","","","psychophysics","165","614021","0.0-7.2-0.2-0.75","586","","f","","","","","","","","","","","","","key","f","6.975132158590227","768","428","f","true","img/T_ambi40.png","をる","prac",""
"","","","","","html-keyboard-response","166","614536","0.0-7.2-0.2-1.75","null","<span style='color:GreenYellow; font-size: 70px;'>正确! </span>","null","","","","","","","","","","","","","","","","","","","","","","","feedback_test"
"","","","","","psychophysics","167","616581","0.0-7.2-0.2-0.76","1042","","j","","","","","","","","","","","","","key","j","6.944453924914597","768","428","j","true","img/S_ambi40.png","生人","prac",""
"","","","","","html-keyboard-response","168","617083","0.0-7.2-0.2-1.76","null","<span style='color:GreenYellow; font-size: 70px;'>正确! </span>","null","","","","","","","","","","","","","","","","","","","","","","","feedback_test"
"","","","","","psychophysics","169","619068","0.0-7.2-0.2-0.77","981","","f","","","","","","","","","","","","","key","f","6.993705673758782","768","428","f","true","img/C_ambi40.png","生人","prac",""
"","","","","","html-keyboard-response","170","619579","0.0-7.2-0.2-1.77","null","<span style='color:GreenYellow; font-size: 70px;'>正确! </span>","null","","","","","","","","","","","","","","","","","","","","","","","feedback_test"
"","","","","","psychophysics","171","621653","0.0-7.2-0.2-0.78","1072","","f","","","","","","","","","","","","","key","f","7.039027210884113","768","428","f","true","img/H_ambi40.png","朋友","prac",""
"","","","","","html-keyboard-response","172","622164","0.0-7.2-0.2-1.78","null","<span style='color:GreenYellow; font-size: 70px;'>正确! </span>","null","","","","","","","","","","","","","","","","","","","","","","","feedback_test"
"","","","","","psychophysics","173","624013","0.0-7.2-0.2-0.79","847","","f","","","","","","","","","","","","","key","f","6.997433460075869","768","428","f","true","img/S_ambi40.png","自我","prac",""
"","","","","","html-keyboard-response","174","624516","0.0-7.2-0.2-1.79","null","<span style='color:GreenYellow; font-size: 70px;'>正确! </span>","null","","","","","","","","","","","","","","","","","","","","","","","feedback_test"
"","","","","","psychophysics","175","626813","0.0-7.2-0.2-0.80","1295","","f","","","","","","","","","","","","","key","f","7.094944099379018","768","428","j","false","img/C_ambi40.png","自我","prac",""
"","","","","","html-keyboard-response","176","627331","0.0-7.2-0.2-1.80","null","<span style='color:red; font-size: 70px;'>错误! </span>","null","","","","","","","","","","","","","","","","","","","","","","","feedback_test"
"","","","","","psychophysics","177","629356","0.0-7.2-0.2-0.81","1024","","f","","","","","","","","","","","","","key","f","6.94447586206912","768","428","j","false","img/S_ambi40.png","朋友","prac",""
"","","","","","html-keyboard-response","178","629866","0.0-7.2-0.2-1.81","null","<span style='color:red; font-size: 70px;'>错误! </span>","null","","","","","","","","","","","","","","","","","","","","","","","feedback_test"
"","","","","","psychophysics","179","631788","0.0-7.2-0.2-0.82","920","","j","","","","","","","","","","","","","key","j","6.944632727272639","768","428","j","true","img/S_ambi40.png","生人","prac",""
"","","","","","html-keyboard-response","180","632298","0.0-7.2-0.2-1.82","null","<span style='color:GreenYellow; font-size: 70px;'>正确! </span>","null","","","","","","","","","","","","","","","","","","","","","","","feedback_test"
"","","","","","psychophysics","181","633910","0.0-7.2-0.2-0.83","610","","f","","","","","","","","","","","","","key","f","6.974865217390977","768","428","f","true","img/T_ambi40.png","をる","prac",""
"","","","","","html-keyboard-response","182","634423","0.0-7.2-0.2-1.83","null","<span style='color:GreenYellow; font-size: 70px;'>正确! </span>","null","","","","","","","","","","","","","","","","","","","","","","","feedback_test"
"","","","","","psychophysics","183","636820","0.0-7.2-0.2-0.84","1393","","j","","","","","","","","","","","","","key","j","6.96477842565596","768","428","f","false","img/S_ambi40.png","自我","prac",""
"","","","","","html-keyboard-response","184","637326","0.0-7.2-0.2-1.84","null","<span style='color:red; font-size: 70px;'>错误! </span>","null","","","","","","","","","","","","","","","","","","","","","","","feedback_test"
"","","","","","psychophysics","185","639549","0.0-7.2-0.2-0.85","1218","","f","","","","","","","","","","","","","key","f","6.944708463949732","768","428","f","true","img/C_ambi40.png","生人","prac",""
"","","","","","html-keyboard-response","186","640064","0.0-7.2-0.2-1.85","null","<span style='color:GreenYellow; font-size: 70px;'>正确! </span>","null","","","","","","","","","","","","","","","","","","","","","","","feedback_test"
"","","","","","psychophysics","187","642236","0.0-7.2-0.2-0.86","1172","","f","","","","","","","","","","","","","key","f","6.98933870967763","768","428","f","true","img/H_ambi40.png","朋友","prac",""
"","","","","","html-keyboard-response","188","642751","0.0-7.2-0.2-1.86","null","<span style='color:GreenYellow; font-size: 70px;'>正确! </span>","null","","","","","","","","","","","","","","","","","","","","","","","feedback_test"
"","","","","","psychophysics","189","644756","0.0-7.2-0.2-0.87","1002","","j","","","","","","","","","","","","","key","j","6.9445937500002195","768","428","j","true","img/H_ambi40.png","自我","prac",""
"","","","","","html-keyboard-response","190","645270","0.0-7.2-0.2-1.87","null","<span style='color:GreenYellow; font-size: 70px;'>正确! </span>","null","","","","","","","","","","","","","","","","","","","","","","","feedback_test"
"","","","","","psychophysics","191","647021","0.0-7.2-0.2-0.88","745","","f","","","","","","","","","","","","","key","f","6.944669322709022","768","428","f","true","img/T_ambi40.png","をる","prac",""
"","","","","","html-keyboard-response","192","647523","0.0-7.2-0.2-1.88","null","<span style='color:GreenYellow; font-size: 70px;'>正确! </span>","null","","","","","","","","","","","","","","","","","","","","","","","feedback_test"
"","","","","","psychophysics","193","649780","0.0-7.2-0.2-0.89","1255","","j","","","","","","","","","","","","","key","j","6.987593167701878","768","428","j","true","img/C_ambi40.png","朋友","prac",""
"","","","","","html-keyboard-response","194","650286","0.0-7.2-0.2-1.89","null","<span style='color:GreenYellow; font-size: 70px;'>正确! </span>","null","","","","","","","","","","","","","","","","","","","","","","","feedback_test"
"","","","","","psychophysics","195","651996","0.0-7.2-0.2-0.90","708","","f","","","","","","","","","","","","","key","f","7.11883682008369","768","428","f","true","img/S_ambi40.png","自我","prac",""
"","","","","","html-keyboard-response","196","652512","0.0-7.2-0.2-1.90","null","<span style='color:GreenYellow; font-size: 70px;'>正确! </span>","null","","","","","","","","","","","","","","","","","","","","","","","feedback_test"
"","","","","","psychophysics","197","654660","0.0-7.2-0.2-0.91","1142","","j","","","","","","","","","","","","","key","j","6.944301948051858","768","428","f","false","img/C_ambi40.png","生人","prac",""
"","","","","","html-keyboard-response","198","655169","0.0-7.2-0.2-1.91","null","<span style='color:red; font-size: 70px;'>错误! </span>","null","","","","","","","","","","","","","","","","","","","","","","","feedback_test"
"","","","","","psychophysics","199","656884","0.0-7.2-0.2-0.92","714","","f","","","","","","","","","","","","","key","f","6.9438775510204085","768","428","f","true","img/T_ambi40.png","をる","prac",""
"","","","","","html-keyboard-response","200","657387","0.0-7.2-0.2-1.92","null","<span style='color:GreenYellow; font-size: 70px;'>正确! </span>","null","","","","","","","","","","","","","","","","","","","","","","","feedback_test"
"","","","","","psychophysics","201","659348","0.0-7.2-0.2-0.93","956","","f","","","","","","","","","","","","","key","f","6.969444444444361","768","428","j","false","img/H_ambi40.png","生人","prac",""
"","","","","","html-keyboard-response","202","659849","0.0-7.2-0.2-1.93","null","<span style='color:red; font-size: 70px;'>错误! </span>","null","","","","","","","","","","","","","","","","","","","","","","","feedback_test"
"","","","","","psychophysics","203","661860","0.0-7.2-0.2-0.94","1008","","f","","","","","","","","","","","","","key","f","6.967972125435404","768","428","f","true","img/H_ambi40.png","朋友","prac",""
"","","","","","html-keyboard-response","204","662361","0.0-7.2-0.2-1.94","null","<span style='color:GreenYellow; font-size: 70px;'>正确! </span>","null","","","","","","","","","","","","","","","","","","","","","","","feedback_test"
"","","","","","psychophysics","205","664060","0.0-7.2-0.2-0.95","695","","f","","","","","","","","","","","","","key","f","6.944618852459349","768","428","f","true","img/T_ambi40.png","をる","prac",""
"","","","","","html-keyboard-response","206","664566","0.0-7.2-0.2-1.95","null","<span style='color:GreenYellow; font-size: 70px;'>正确! </span>","null","","","","","","","","","","","","","","","","","","","","","","","feedback_test"
"","","","","","html-keyboard-response","207","672132","0.0-7.2-1.2-0.2","7564","<style>.context{color:white; font-size: 35px; line-height:40px}</style>                          <div><p class='context'>您正确回答了69% 的试次。</p ><p class='context'>您的平均反应时为904毫秒。</p >","enter","","","","","","","","","","","","","","","","","","","","","","",""
"","","","","","instructions","208","687701","0.0-7.2-1.2-1.2","15568","","","","","","","","","","","","","","[{""page_index"":0,""viewing_time"":7331},{""page_index"":1,""viewing_time"":7171},{""page_index"":2,""viewing_time"":1066}]","","","","","","","","","","",""
"","","","","","psychophysics","209","690205","0.0-7.3-0.3-0.96","null","","null","","","","","","","","","","","","","key","null","7.042677966101716","768","428","j","false","img/S_ambi40.png","朋友","prac",""
"","","","","","html-keyboard-response","210","690712","0.0-7.3-0.3-1.96","null","<span class='add_' style='color:yellow; font-size: 70px;'> 太慢! </span>","null","","","","","","","","","","","","","","","","","","","","","","","feedback_test"
"","","","","","psychophysics","211","692956","0.0-7.3-0.3-0.97","1237","","f","","","","","","","","","","","","","key","f","6.944605590061933","768","428","f","true","img/H_ambi40.png","朋友","prac",""
"","","","","","html-keyboard-response","212","693463","0.0-7.3-0.3-1.97","null","<span style='color:GreenYellow; font-size: 70px;'>正确! </span>","null","","","","","","","","","","","","","","","","","","","","","","","feedback_test"
"","","","","","psychophysics","213","695644","0.0-7.3-0.3-0.98","1175","","f","","","","","","","","","","","","","key","f","6.9443769968050075","768","428","f","true","img/S_ambi40.png","自我","prac",""
"","","","","","html-keyboard-response","214","696158","0.0-7.3-0.3-1.98","null","<span style='color:GreenYellow; font-size: 70px;'>正确! </span>","null","","","","","","","","","","","","","","","","","","","","","","","feedback_test"
"","","","","","psychophysics","215","698540","0.0-7.3-0.3-0.99","1377","","j","","","","","","","","","","","","","key","j","6.944353801169711","768","428","j","true","img/H_ambi40.png","自我","prac",""
"","","","","","html-keyboard-response","216","699054","0.0-7.3-0.3-1.99","null","<span style='color:GreenYellow; font-size: 70px;'>正确! </span>","null","","","","","","","","","","","","","","","","","","","","","","","feedback_test"
"","","","","","psychophysics","217","700675","0.0-7.3-0.3-0.100","616","","f","","","","","","","","","","","","","key","f","7.066017543859759","768","428","f","true","img/T_ambi40.png","をる","prac",""
"","","","","","html-keyboard-response","218","701178","0.0-7.3-0.3-1.100","null","<span style='color:GreenYellow; font-size: 70px;'>正确! </span>","null","","","","","","","","","","","","","","","","","","","","","","","feedback_test"
"","","","","","psychophysics","219","703349","0.0-7.3-0.3-0.101","1170","","f","","","","","","","","","","","","","key","f","6.94410610932466","768","428","f","true","img/S_ambi40.png","自我","prac",""
"","","","","","html-keyboard-response","220","703862","0.0-7.3-0.3-1.101","null","<span style='color:GreenYellow; font-size: 70px;'>正确! </span>","null","","","","","","","","","","","","","","","","","","","","","","","feedback_test"
"","","","","","psychophysics","221","705685","0.0-7.3-0.3-0.102","820","","j","","","","","","","","","","","","","key","j","6.9707662835248865","768","428","j","true","img/C_ambi40.png","朋友","prac",""
"","","","","","html-keyboard-response","222","706193","0.0-7.3-0.3-1.102","null","<span style='color:GreenYellow; font-size: 70px;'>正确! </span>","null","","","","","","","","","","","","","","","","","","","","","","","feedback_test"
"","","","","","psychophysics","223","708412","0.0-7.3-0.3-0.103","1215","","j","","","","","","","","","","","","","key","j","7.077826923076944","768","428","j","true","img/H_ambi40.png","生人","prac",""
"","","","","","html-keyboard-response","224","708916","0.0-7.3-0.3-1.103","null","<span style='color:GreenYellow; font-size: 70px;'>正确! </span>","null","","","","","","","","","","","","","","","","","","","","","","","feedback_test"
"","","","","","psychophysics","225","710813","0.0-7.3-0.3-0.104","892","","f","","","","","","","","","","","","","key","f","6.996059259259211","768","428","f","true","img/C_ambi40.png","生人","prac",""
"","","","","","html-keyboard-response","226","711318","0.0-7.3-0.3-1.104","null","<span style='color:GreenYellow; font-size: 70px;'>正确! </span>","null","","","","","","","","","","","","","","","","","","","","","","","feedback_test"
"","","","","","psychophysics","227","713676","0.0-7.3-0.3-0.105","1358","","f","","","","","","","","","","","","","key","f","6.944550295858079","768","428","f","true","img/H_ambi40.png","朋友","prac",""
"","","","","","html-keyboard-response","228","714180","0.0-7.3-0.3-1.105","null","<span style='color:GreenYellow; font-size: 70px;'>正确! </span>","null","","","","","","","","","","","","","","","","","","","","","","","feedback_test"
"","","","","","psychophysics","229","716508","0.0-7.3-0.3-0.106","1327","","f","","","","","","","","","","","","","key","f","7.007580060423197","768","428","j","false","img/S_ambi40.png","生人","prac",""
"","","","","","html-keyboard-response","230","717013","0.0-7.3-0.3-1.106","null","<span style='color:red; font-size: 70px;'>错误! </span>","null","","","","","","","","","","","","","","","","","","","","","","","feedback_test"
"","","","","","psychophysics","231","719141","0.0-7.3-0.3-0.107","1127","","f","","","","","","","","","","","","","key","f","6.944350819672137","768","428","j","false","img/C_ambi40.png","自我","prac",""
"","","","","","html-keyboard-response","232","719643","0.0-7.3-0.3-1.107","null","<span style='color:red; font-size: 70px;'>错误! </span>","null","","","","","","","","","","","","","","","","","","","","","","","feedback_test"
"","","","","","psychophysics","233","721196","0.0-7.3-0.3-0.108","553","","f","","","","","","","","","","","","","key","f","6.944472972972755","768","428","f","true","img/T_ambi40.png","をる","prac",""
"","","","","","html-keyboard-response","234","721713","0.0-7.3-0.3-1.108","null","<span style='color:GreenYellow; font-size: 70px;'>正确! </span>","null","","","","","","","","","","","","","","","","","","","","","","","feedback_test"
"","","","","","psychophysics","235","723364","0.0-7.3-0.3-0.109","645","","f","","","","","","","","","","","","","key","f","6.9444194915250606","768","428","f","true","img/T_ambi40.png","をる","prac",""
"","","","","","html-keyboard-response","236","723866","0.0-7.3-0.3-1.109","null","<span style='color:GreenYellow; font-size: 70px;'>正确! </span>","null","","","","","","","","","","","","","","","","","","","","","","","feedback_test"
"","","","","","psychophysics","237","725500","0.0-7.3-0.3-0.110","626","","f","","","","","","","","","","","","","key","f","6.9443162393161195","768","428","f","true","img/T_ambi40.png","をる","prac",""
"","","","","","html-keyboard-response","238","726006","0.0-7.3-0.3-1.110","null","<span style='color:GreenYellow; font-size: 70px;'>正确! </span>","null","","","","","","","","","","","","","","","","","","","","","","","feedback_test"
"","","","","","psychophysics","239","728173","0.0-7.3-0.3-0.111","1164","","j","","","","","","","","","","","","","key","j","6.989339805825261","768","428","f","false","img/C_ambi40.png","生人","prac",""
"","","","","","html-keyboard-response","240","728687","0.0-7.3-0.3-1.111","null","<span style='color:red; font-size: 70px;'>错误! </span>","null","","","","","","","","","","","","","","","","","","","","","","","feedback_test"
"","","","","","psychophysics","241","730805","0.0-7.3-0.3-0.112","1113","","j","","","","","","","","","","","","","key","j","6.967320132013195","768","428","j","true","img/H_ambi40.png","生人","prac",""
"","","","","","html-keyboard-response","242","731311","0.0-7.3-0.3-1.112","null","<span style='color:GreenYellow; font-size: 70px;'>正确! </span>","null","","","","","","","","","","","","","","","","","","","","","","","feedback_test"
"","","","","","psychophysics","243","732797","0.0-7.3-0.3-0.113","480","","f","","","","","","","","","","","","","key","f","6.944023474178631","768","428","f","true","img/T_ambi40.png","をる","prac",""
"","","","","","html-keyboard-response","244","733309","0.0-7.3-0.3-1.113","null","<span style='color:GreenYellow; font-size: 70px;'>正确! </span>","null","","","","","","","","","","","","","","","","","","","","","","","feedback_test"
"","","","","","psychophysics","245","735637","0.0-7.3-0.3-0.114","1327","","f","","","","","","","","","","","","","key","f","6.964507507507454","768","428","f","true","img/S_ambi40.png","自我","prac",""
"","","","","","html-keyboard-response","246","736144","0.0-7.3-0.3-1.114","null","<span style='color:GreenYellow; font-size: 70px;'>正确! </span>","null","","","","","","","","","","","","","","","","","","","","","","","feedback_test"
"","","","","","psychophysics","247","738580","0.0-7.3-0.3-0.115","1435","","j","","","","","","","","","","","","","key","j","7.065784256559465","768","428","j","true","img/C_ambi40.png","朋友","prac",""
"","","","","","html-keyboard-response","248","739097","0.0-7.3-0.3-1.115","null","<span style='color:GreenYellow; font-size: 70px;'>正确! </span>","null","","","","","","","","","","","","","","","","","","","","","","","feedback_test"
"","","","","","psychophysics","249","741084","0.0-7.3-0.3-0.116","985","","f","","","","","","","","","","","","","key","f","6.99379505300335","768","428","f","true","img/H_ambi40.png","朋友","prac",""
"","","","","","html-keyboard-response","250","741593","0.0-7.3-0.3-1.116","null","<span style='color:GreenYellow; font-size: 70px;'>正确! </span>","null","","","","","","","","","","","","","","","","","","","","","","","feedback_test"
"","","","","","psychophysics","251","743180","0.0-7.3-0.3-0.117","586","","f","","","","","","","","","","","","","key","f","6.974628318584343","768","428","f","true","img/H_ambi40.png","朋友","prac",""
"","","","","","html-keyboard-response","252","743697","0.0-7.3-0.3-1.117","null","<span style='color:GreenYellow; font-size: 70px;'>正确! </span>","null","","","","","","","","","","","","","","","","","","","","","","","feedback_test"
"","","","","","psychophysics","253","745772","0.0-7.3-0.3-0.118","1074","","f","","","","","","","","","","","","","key","f","6.991057627118524","768","428","f","true","img/S_ambi40.png","自我","prac",""
"","","","","","html-keyboard-response","254","746278","0.0-7.3-0.3-1.118","null","<span style='color:GreenYellow; font-size: 70px;'>正确! </span>","null","","","","","","","","","","","","","","","","","","","","","","","feedback_test"
"","","","","","psychophysics","255","748325","0.0-7.3-0.3-0.119","1043","","j","","","","","","","","","","","","","key","j","6.944464163822535","768","428","j","true","img/H_ambi40.png","自我","prac",""
"","","","","","html-keyboard-response","256","748828","0.0-7.3-0.3-1.119","null","<span style='color:GreenYellow; font-size: 70px;'>正确! </span>","null","","","","","","","","","","","","","","","","","","","","","","","feedback_test"
"","","","","","psychophysics","257","750508","0.0-7.3-0.3-0.120","678","","f","","","","","","","","","","","","","key","f","6.944535269709671","768","428","f","true","img/T_ambi40.png","をる","prac",""
"","","","","","html-keyboard-response","258","751023","0.0-7.3-0.3-1.120","null","<span style='color:GreenYellow; font-size: 70px;'>正确! </span>","null","","","","","","","","","","","","","","","","","","","","","","","feedback_test"
"","","","","","psychophysics","259","753036","0.0-7.3-0.3-0.121","1011","","j","","","","","","","","","","","","","key","j","6.993097560975509","768","428","j","true","img/S_ambi40.png","朋友","prac",""
"","","","","","html-keyboard-response","260","753544","0.0-7.3-0.3-1.121","null","<span style='color:GreenYellow; font-size: 70px;'>正确! </span>","null","","","","","","","","","","","","","","","","","","","","","","","feedback_test"
"","","","","","psychophysics","261","755228","0.0-7.3-0.3-0.122","682","","f","","","","","","","","","","","","","key","f","6.942792531120285","768","428","f","true","img/T_ambi40.png","をる","prac",""
"","","","","","html-keyboard-response","262","755734","0.0-7.3-0.3-1.122","null","<span style='color:GreenYellow; font-size: 70px;'>正确! </span>","null","","","","","","","","","","","","","","","","","","","","","","","feedback_test"
"","","","","","psychophysics","263","757269","0.0-7.3-0.3-0.123","529","","f","","","","","","","","","","","","","key","f","6.976160550459049","768","428","f","true","img/T_ambi40.png","をる","prac",""
"","","","","","html-keyboard-response","264","757782","0.0-7.3-0.3-1.123","null","<span style='color:GreenYellow; font-size: 70px;'>正确! </span>","null","","","","","","","","","","","","","","","","","","","","","","","feedback_test"
"","","","","","psychophysics","265","759940","0.0-7.3-0.3-0.124","1157","","j","","","","","","","","","","","","","key","j","6.944313915857434","768","428","f","false","img/C_ambi40.png","生人","prac",""
"","","","","","html-keyboard-response","266","760445","0.0-7.3-0.3-1.124","null","<span style='color:red; font-size: 70px;'>错误! </span>","null","","","","","","","","","","","","","","","","","","","","","","","feedback_test"
"","","","","","psychophysics","267","762284","0.0-7.3-0.3-0.125","835","","j","","","","","","","","","","","","","key","j","7.078571428571339","768","428","j","true","img/C_ambi40.png","自我","prac",""
"","","","","","html-keyboard-response","268","762800","0.0-7.3-0.3-1.125","null","<span style='color:GreenYellow; font-size: 70px;'>正确! </span>","null","","","","","","","","","","","","","","","","","","","","","","","feedback_test"
"","","","","","psychophysics","269","764660","0.0-7.3-0.3-0.126","857","","f","","","","","","","","","","","","","key","f","6.94459550561774","768","428","f","true","img/C_ambi40.png","生人","prac",""
"","","","","","html-keyboard-response","270","765163","0.0-7.3-0.3-1.126","null","<span style='color:GreenYellow; font-size: 70px;'>正确! </span>","null","","","","","","","","","","","","","","","","","","","","","","","feedback_test"
"","","","","","psychophysics","271","766868","0.0-7.3-0.3-0.127","704","","j","","","","","","","","","","","","","key","j","6.943774590163766","768","428","j","true","img/S_ambi40.png","生人","prac",""
"","","","","","html-keyboard-response","272","767379","0.0-7.3-0.3-1.127","null","<span style='color:GreenYellow; font-size: 70px;'>正确! </span>","null","","","","","","","","","","","","","","","","","","","","","","","feedback_test"
"","","","","","html-keyboard-response","273","772972","0.0-8.0","5590","<style>.context{color:white; font-size: 35px; line-height:40px}</style>                          <div><p class='context'>您正确回答了84% 的试次。</p ><p class='context'>您的平均反应时为927毫秒。</p ><p class='context'>恭喜您完成练习。按任意键进入正式实验。</p ><p class='footer' style='font-size: 35px; line-height:40px;'>请在进入正式实验实验之前将您的<span style='color: lightgreen;'>食指</span>放在电脑键盘的相应键位上进行按键。</p >"," ","","","","","","","","","","","","","","","","","","","","","","",""
"","","","","","psychophysics","274","775476","0.0-9.0-0.0-0.0-0.0-0.0","null","","null","","","","","","","","","","","","","key","null","6.944412256267394","768","428","j","false","img/C_ambi40.png","朋友","same",""
"","","","","","html-keyboard-response","275","775990","0.0-9.0-0.0-0.0-0.0-1.0","null","<span class='add_' style='color:yellow; font-size: 70px;'> 太慢! </span>","null","","","","","","","","","","","","","","","","","","","","","","","feedback_test"
"","","","","","psychophysics","276","778076","0.0-9.0-0.0-0.0-0.0-0.1","1080","","j","","","","","","","","","","","","","key","j","6.944337792642396","768","428","f","false","img/S_ambi40.png","自我","same",""
"","","","","","html-keyboard-response","277","778580","0.0-9.0-0.0-0.0-0.0-1.1","null","<span style='color:red; font-size: 70px;'>错误! </span>","null","","","","","","","","","","","","","","","","","","","","","","","feedback_test"
"","","","","","psychophysics","278","780252","0.0-9.0-0.0-0.0-0.0-0.2","670","","f","","","","","","","","","","","","","key","f","7.032648305085061","768","428","f","true","img/T_ambi40.png","をる","same",""
"","","","","","html-keyboard-response","279","780762","0.0-9.0-0.0-0.0-0.0-1.2","null","<span style='color:GreenYellow; font-size: 70px;'>正确! </span>","null","","","","","","","","","","","","","","","","","","","","","","","feedback_test"
"","","","","","psychophysics","280","782996","0.0-9.0-0.0-0.0-0.0-0.3","1227","","j","","","","","","","","","","","","","key","j","6.966316614420077","768","428","j","true","img/H_ambi40.png","自我","same",""
"","","","","","html-keyboard-response","281","783511","0.0-9.0-0.0-0.0-0.0-1.3","null","<span style='color:GreenYellow; font-size: 70px;'>正确! </span>","null","","","","","","","","","","","","","","","","","","","","","","","feedback_test"
"","","","","","psychophysics","282","785836","0.0-9.0-0.0-0.0-0.0-0.4","1323","","j","","","","","","","","","","","","","key","j","7.05048780487822","768","428","j","true","img/S_ambi40.png","朋友","same",""
"","","","","","html-keyboard-response","283","786342","0.0-9.0-0.0-0.0-0.0-1.4","null","<span style='color:GreenYellow; font-size: 70px;'>正确! </span>","null","","","","","","","","","","","","","","","","","","","","","","","feedback_test"
"","","","","","psychophysics","284","788300","0.0-9.0-0.0-0.0-0.0-0.5","956","","f","","","","","","","","","","","","","key","f","7.044713768115996","768","428","f","true","img/C_ambi40.png","生人","same",""
"","","","","","html-keyboard-response","285","788803","0.0-9.0-0.0-0.0-0.0-1.5","null","<span style='color:GreenYellow; font-size: 70px;'>正确! </span>","null","","","","","","","","","","","","","","","","","","","","","","","feedback_test"
"","","","","","psychophysics","286","790428","0.0-9.0-0.0-0.0-0.0-0.6","625","","f","","","","","","","","","","","","","key","f","6.974411255411413","768","428","f","true","img/T_ambi40.png","をる","same",""
"","","","","","html-keyboard-response","287","790929","0.0-9.0-0.0-0.0-0.0-1.6","null","<span style='color:GreenYellow; font-size: 70px;'>正确! </span>","null","","","","","","","","","","","","","","","","","","","","","","","feedback_test"
"","","","","","psychophysics","288","792980","0.0-9.0-0.0-0.0-0.0-0.7","1045","","f","","","","","","","","","","","","","key","f","7.01612027491406","768","428","f","true","img/C_ambi40.png","生人","same",""
"","","","","","html-keyboard-response","289","793489","0.0-9.0-0.0-0.0-0.0-1.7","null","<span style='color:GreenYellow; font-size: 70px;'>正确! </span>","null","","","","","","","","","","","","","","","","","","","","","","","feedback_test"
"","","","","","psychophysics","290","795524","0.0-9.0-0.0-0.0-0.0-0.8","1034","","f","","","","","","","","","","","","","key","f","7.090217543859851","768","428","f","true","img/H_ambi40.png","朋友","same",""
"","","","","","html-keyboard-response","291","796032","0.0-9.0-0.0-0.0-0.0-1.8","null","<span style='color:GreenYellow; font-size: 70px;'>正确! </span>","null","","","","","","","","","","","","","","","","","","","","","","","feedback_test"
"","","","","","psychophysics","292","797828","0.0-9.0-0.0-0.0-0.0-0.9","794","","j","","","","","","","","","","","","","key","j","6.944365758755052","768","428","j","true","img/H_ambi40.png","生人","same",""
"","","","","","html-keyboard-response","293","798343","0.0-9.0-0.0-0.0-0.0-1.9","null","<span style='color:GreenYellow; font-size: 70px;'>正确! </span>","null","","","","","","","","","","","","","","","","","","","","","","","feedback_test"
"","","","","","psychophysics","294","800646","0.0-9.0-0.0-0.0-0.0-0.10","1302","","j","","","","","","","","","","","","","key","j","6.96496352583586","768","428","j","true","img/S_ambi40.png","朋友","same",""
"","","","","","html-keyboard-response","295","801147","0.0-9.0-0.0-0.0-0.0-1.10","null","<span style='color:GreenYellow; font-size: 70px;'>正确! </span>","null","","","","","","","","","","","","","","","","","","","","","","","feedback_test"
"","","","","","psychophysics","296","803357","0.0-9.0-0.0-0.0-0.0-0.11","1207","","f","","","","","","","","","","","","","key","f","7.1014870967742265","768","428","f","true","img/H_ambi40.png","朋友","same",""
"","","","","","html-keyboard-response","297","803868","0.0-9.0-0.0-0.0-0.0-1.11","null","<span style='color:GreenYellow; font-size: 70px;'>正确! </span>","null","","","","","","","","","","","","","","","","","","","","","","","feedback_test"
"","","","","","psychophysics","298","806156","0.0-9.0-0.0-0.0-0.0-0.12","1285","","f","","","","","","","","","","","","","key","f","6.987150306748426","768","428","j","false","img/C_ambi40.png","自我","same",""
"","","","","","html-keyboard-response","299","806662","0.0-9.0-0.0-0.0-0.0-1.12","null","<span style='color:red; font-size: 70px;'>错误! </span>","null","","","","","","","","","","","","","","","","","","","","","","","feedback_test"
"","","","","","psychophysics","300","808876","0.0-9.0-0.0-0.0-0.0-0.13","1213","","j","","","","","","","","","","","","","key","j","6.943223974763339","768","428","j","true","img/C_ambi40.png","自我","same",""
"","","","","","html-keyboard-response","301","809380","0.0-9.0-0.0-0.0-0.0-1.13","null","<span style='color:GreenYellow; font-size: 70px;'>正确! </span>","null","","","","","","","","","","","","","","","","","","","","","","","feedback_test"
"","","","","","psychophysics","302","811886","0.0-9.0-0.0-0.0-0.0-0.14","null","","null","","","","","","","","","","","","","key","null","6.963835195530604","768","428","j","false","img/S_ambi40.png","生人","same",""
"","","","","","html-keyboard-response","303","812395","0.0-9.0-0.0-0.0-0.0-1.14","null","<span class='add_' style='color:yellow; font-size: 70px;'> 太慢! </span>","null","","","","","","","","","","","","","","","","","","","","","","","feedback_test"
"","","","","","psychophysics","304","814020","0.0-9.0-0.0-0.0-0.0-0.15","620","","f","","","","","","","","","","","","","key","f","7.288414414414636","768","428","f","true","img/T_ambi40.png","をる","same",""
"","","","","","html-keyboard-response","305","814521","0.0-9.0-0.0-0.0-0.0-1.15","null","<span style='color:GreenYellow; font-size: 70px;'>正确! </span>","null","","","","","","","","","","","","","","","","","","","","","","","feedback_test"
"","","","","","psychophysics","306","816492","0.0-9.0-0.0-0.0-0.0-0.16","969","","j","","","","","","","","","","","","","key","j","7.502908045976866","768","428","f","false","img/S_ambi40.png","自我","same",""
"","","","","","html-keyboard-response","307","817004","0.0-9.0-0.0-0.0-0.0-1.16","null","<span style='color:red; font-size: 70px;'>错误! </span>","null","","","","","","","","","","","","","","","","","","","","","","","feedback_test"
"","","","","","psychophysics","308","819156","0.0-9.0-0.0-0.0-0.0-0.17","1150","","f","","","","","","","","","","","","","key","f","6.989767973856419","768","428","j","false","img/H_ambi40.png","生人","same",""
"","","","","","html-keyboard-response","309","819662","0.0-9.0-0.0-0.0-0.0-1.17","null","<span style='color:red; font-size: 70px;'>错误! </span>","null","","","","","","","","","","","","","","","","","","","","","","","feedback_test"
"","","","","","psychophysics","310","821788","0.0-9.0-0.0-0.0-0.0-0.18","1124","","f","","","","","","","","","","","","","key","f","6.989344370860949","768","428","f","true","img/C_ambi40.png","生人","same",""
"","","","","","html-keyboard-response","311","822292","0.0-9.0-0.0-0.0-0.0-1.18","null","<span style='color:GreenYellow; font-size: 70px;'>正确! </span>","null","","","","","","","","","","","","","","","","","","","","","","","feedback_test"
"","","","","","psychophysics","312","824270","0.0-9.0-0.0-0.0-0.0-0.19","975","","f","","","","","","","","","","","","","key","f","6.94434154929567","768","428","j","false","img/H_ambi40.png","生人","same",""
"","","","","","html-keyboard-response","313","824782","0.0-9.0-0.0-0.0-0.0-1.19","null","<span style='color:red; font-size: 70px;'>错误! </span>","null","","","","","","","","","","","","","","","","","","","","","","","feedback_test"
"","","","","","psychophysics","314","826764","0.0-9.0-0.0-0.0-0.0-0.20","976","","f","","","","","","","","","","","","","key","f","6.969134275618424","768","428","f","true","img/S_ambi40.png","自我","same",""
"","","","","","html-keyboard-response","315","827282","0.0-9.0-0.0-0.0-0.0-1.20","null","<span style='color:GreenYellow; font-size: 70px;'>正确! </span>","null","","","","","","","","","","","","","","","","","","","","","","","feedback_test"
"","","","","","psychophysics","316","829580","0.0-9.0-0.0-0.0-0.0-0.21","1297","","f","","","","","","","","","","","","","key","f","7.008239263803641","768","428","j","false","img/C_ambi40.png","自我","same",""
"","","","","","html-keyboard-response","317","830089","0.0-9.0-0.0-0.0-0.0-1.21","null","<span style='color:red; font-size: 70px;'>错误! </span>","null","","","","","","","","","","","","","","","","","","","","","","","feedback_test"
"","","","","","psychophysics","318","832179","0.0-9.0-0.0-0.0-0.0-0.22","1086","","f","","","","","","","","","","","","","key","f","6.944539999999882","768","428","f","true","img/S_ambi40.png","自我","same",""
"","","","","","html-keyboard-response","319","832695","0.0-9.0-0.0-0.0-0.0-1.22","null","<span style='color:GreenYellow; font-size: 70px;'>正确! </span>","null","","","","","","","","","","","","","","","","","","","","","","","feedback_test"
"","","","","","psychophysics","320","834667","0.0-9.0-0.0-0.0-0.0-0.23","971","","j","","","","","","","","","","","","","key","j","7.225378676470427","768","428","j","true","img/C_ambi40.png","自我","same",""
"","","","","","html-keyboard-response","321","835172","0.0-9.0-0.0-0.0-0.0-1.23","null","<span style='color:GreenYellow; font-size: 70px;'>正确! </span>","null","","","","","","","","","","","","","","","","","","","","","","","feedback_test"
"","","","","","psychophysics","322","837276","0.0-9.0-0.0-0.0-0.0-0.24","1103","","j","","","","","","","","","","","","","key","j","6.944344370860671","768","428","j","true","img/H_ambi40.png","自我","same",""
"","","","","","html-keyboard-response","323","837790","0.0-9.0-0.0-0.0-0.0-1.24","null","<span style='color:GreenYellow; font-size: 70px;'>正确! </span>","null","","","","","","","","","","","","","","","","","","","","","","","feedback_test"
"","","","","","psychophysics","324","839403","0.0-9.0-0.0-0.0-0.0-0.25","609","","f","","","","","","","","","","","","","key","f","6.944454545454521","768","428","f","true","img/T_ambi40.png","をる","same",""
"","","","","","html-keyboard-response","325","839912","0.0-9.0-0.0-0.0-0.0-1.25","null","<span style='color:GreenYellow; font-size: 70px;'>正确! </span>","null","","","","","","","","","","","","","","","","","","","","","","","feedback_test"
"","","","","","psychophysics","326","841957","0.0-9.0-0.0-0.0-0.0-0.26","1044","","f","","","","","","","","","","","","","key","f","7.16416901408434","768","428","j","false","img/S_ambi40.png","朋友","same",""
"","","","","","html-keyboard-response","327","842459","0.0-9.0-0.0-0.0-0.0-1.26","null","<span style='color:red; font-size: 70px;'>错误! </span>","null","","","","","","","","","","","","","","","","","","","","","","","feedback_test"
"","","","","","psychophysics","328","844571","0.0-9.0-0.0-0.0-0.0-0.27","1110","","j","","","","","","","","","","","","","key","j","6.9670198675497925","768","428","j","true","img/S_ambi40.png","生人","same",""
"","","","","","html-keyboard-response","329","845082","0.0-9.0-0.0-0.0-0.0-1.27","null","<span style='color:GreenYellow; font-size: 70px;'>正确! </span>","null","","","","","","","","","","","","","","","","","","","","","","","feedback_test"
"","","","","","psychophysics","330","847523","0.0-9.0-0.0-0.0-0.0-0.28","1441","","j","","","","","","","","","","","","","key","j","7.045136231884185","768","428","j","true","img/C_ambi40.png","朋友","same",""
"","","","","","html-keyboard-response","331","848028","0.0-9.0-0.0-0.0-0.0-1.28","null","<span style='color:GreenYellow; font-size: 70px;'>正确! </span>","null","","","","","","","","","","","","","","","","","","","","","","","feedback_test"
"","","","","","psychophysics","332","850116","0.0-9.0-0.0-0.0-0.0-0.29","1086","","j","","","","","","","","","","","","","key","j","6.944645484949907","768","428","j","true","img/S_ambi40.png","朋友","same",""
"","","","","","html-keyboard-response","333","850629","0.0-9.0-0.0-0.0-0.0-1.29","null","<span style='color:GreenYellow; font-size: 70px;'>正确! </span>","null","","","","","","","","","","","","","","","","","","","","","","","feedback_test"
"","","","","","psychophysics","334","852252","0.0-9.0-0.0-0.0-0.0-0.30","617","","f","","","","","","","","","","","","","key","f","7.0354366812226665","768","428","f","true","img/T_ambi40.png","をる","same",""
"","","","","","html-keyboard-response","335","852769","0.0-9.0-0.0-0.0-0.0-1.30","null","<span style='color:GreenYellow; font-size: 70px;'>正确! </span>","null","","","","","","","","","","","","","","","","","","","","","","","feedback_test"
"","","","","","psychophysics","336","854987","0.0-9.0-0.0-0.0-0.0-0.31","1213","","j","","","","","","","","","","","","","key","j","7.078064102563822","768","428","j","true","img/H_ambi40.png","生人","same",""
"","","","","","html-keyboard-response","337","855490","0.0-9.0-0.0-0.0-0.0-1.31","null","<span style='color:GreenYellow; font-size: 70px;'>正确! </span>","null","","","","","","","","","","","","","","","","","","","","","","","feedback_test"
"","","","","","psychophysics","338","857484","0.0-9.0-0.0-0.0-0.0-0.32","993","","f","","","","","","","","","","","","","key","f","6.944335664335518","768","428","f","true","img/C_ambi40.png","生人","same",""
"","","","","","html-keyboard-response","339","857996","0.0-9.0-0.0-0.0-0.0-1.32","null","<span style='color:GreenYellow; font-size: 70px;'>正确! </span>","null","","","","","","","","","","","","","","","","","","","","","","","feedback_test"
"","","","","","psychophysics","340","859596","0.0-9.0-0.0-0.0-0.0-0.33","598","","f","","","","","","","","","","","","","key","f","6.944414847161353","768","428","f","true","img/T_ambi40.png","をる","same",""
"","","","","","html-keyboard-response","341","860112","0.0-9.0-0.0-0.0-0.0-1.33","null","<span style='color:GreenYellow; font-size: 70px;'>正确! </span>","null","","","","","","","","","","","","","","","","","","","","","","","feedback_test"
"","","","","","psychophysics","342","862347","0.0-9.0-0.0-0.0-0.0-0.34","1232","","f","","","","","","","","","","","","","key","f","6.944102803738411","768","428","f","true","img/H_ambi40.png","朋友","same",""
"","","","","","html-keyboard-response","343","862858","0.0-9.0-0.0-0.0-0.0-1.34","null","<span style='color:GreenYellow; font-size: 70px;'>正确! </span>","null","","","","","","","","","","","","","","","","","","","","","","","feedback_test"
"","","","","","psychophysics","344","864523","0.0-9.0-0.0-0.0-0.0-0.35","664","","f","","","","","","","","","","","","","key","f","6.944323529412054","768","428","f","true","img/H_ambi40.png","朋友","same",""
"","","","","","html-keyboard-response","345","865032","0.0-9.0-0.0-0.0-0.0-1.35","null","<span style='color:GreenYellow; font-size: 70px;'>正确! </span>","null","","","","","","","","","","","","","","","","","","","","","","","feedback_test"
"","","","","","psychophysics","346","867203","0.0-9.0-0.0-0.0-0.0-0.36","1165","","j","","","","","","","","","","","","","key","j","6.944434083601418","768","428","f","false","img/S_ambi40.png","自我","same",""
"","","","","","html-keyboard-response","347","867720","0.0-9.0-0.0-0.0-0.0-1.36","null","<span style='color:red; font-size: 70px;'>错误! </span>","null","","","","","","","","","","","","","","","","","","","","","","","feedback_test"
"","","","","","psychophysics","348","869291","0.0-9.0-0.0-0.0-0.0-0.37","566","","f","","","","","","","","","","","","","key","f","7.2689532710279545","768","428","j","false","img/C_ambi40.png","自我","same",""
"","","","","","html-keyboard-response","349","869803","0.0-9.0-0.0-0.0-0.0-1.37","null","<span style='color:red; font-size: 70px;'>错误! </span>","null","","","","","","","","","","","","","","","","","","","","","","","feedback_test"
"","","","","","psychophysics","350","871365","0.0-9.0-0.0-0.0-0.0-0.38","561","","f","","","","","","","","","","","","","key","f","7.411711538461252","768","428","f","true","img/T_ambi40.png","をる","same",""
"","","","","","html-keyboard-response","351","871873","0.0-9.0-0.0-0.0-0.0-1.38","null","<span style='color:GreenYellow; font-size: 70px;'>正确! </span>","null","","","","","","","","","","","","","","","","","","","","","","","feedback_test"
"","","","","","psychophysics","352","873476","0.0-9.0-0.0-0.0-0.0-0.39","597","","f","","","","","","","","","","","","","key","f","6.944558951965082","768","428","f","true","img/T_ambi40.png","をる","same",""
"","","","","","html-keyboard-response","353","873978","0.0-9.0-0.0-0.0-0.0-1.39","null","<span style='color:GreenYellow; font-size: 70px;'>正确! </span>","null","","","","","","","","","","","","","","","","","","","","","","","feedback_test"
"","","","","","psychophysics","354","876276","0.0-9.0-0.0-0.0-0.0-0.40","1293","","f","","","","","","","","","","","","","key","f","6.965498480243087","768","428","f","true","img/C_ambi40.png","生人","same",""
"","","","","","html-keyboard-response","355","876782","0.0-9.0-0.0-0.0-0.0-1.40","null","<span style='color:GreenYellow; font-size: 70px;'>正确! </span>","null","","","","","","","","","","","","","","","","","","","","","","","feedback_test"
"","","","","","psychophysics","356","878667","0.0-9.0-0.0-0.0-0.0-0.41","884","","f","","","","","","","","","","","","","key","f","6.944355555555645","768","428","f","true","img/C_ambi40.png","生人","same",""
"","","","","","html-keyboard-response","357","879180","0.0-9.0-0.0-0.0-0.0-1.41","null","<span style='color:GreenYellow; font-size: 70px;'>正确! </span>","null","","","","","","","","","","","","","","","","","","","","","","","feedback_test"
"","","","","","psychophysics","358","880964","0.0-9.0-0.0-0.0-0.0-0.42","780","","f","","","","","","","","","","","","","key","f","7.285975409836268","768","428","f","true","img/S_ambi40.png","自我","same",""
"","","","","","html-keyboard-response","359","881477","0.0-9.0-0.0-0.0-0.0-1.42","null","<span style='color:GreenYellow; font-size: 70px;'>正确! </span>","null","","","","","","","","","","","","","","","","","","","","","","","feedback_test"
"","","","","","psychophysics","360","883715","0.0-9.0-0.0-0.0-0.0-0.43","1237","","j","","","","","","","","","","","","","key","j","6.966212499999893","768","428","j","true","img/H_ambi40.png","生人","same",""
"","","","","","html-keyboard-response","361","884227","0.0-9.0-0.0-0.0-0.0-1.43","null","<span style='color:GreenYellow; font-size: 70px;'>正确! </span>","null","","","","","","","","","","","","","","","","","","","","","","","feedback_test"
"","","","","","psychophysics","362","886596","0.0-9.0-0.0-0.0-0.0-0.44","1366","","f","","","","","","","","","","","","","key","f","6.985547337278079","768","428","j","false","img/S_ambi40.png","朋友","same",""
"","","","","","html-keyboard-response","363","887101","0.0-9.0-0.0-0.0-0.0-1.44","null","<span style='color:red; font-size: 70px;'>错误! </span>","null","","","","","","","","","","","","","","","","","","","","","","","feedback_test"
"","","","","","psychophysics","364","889420","0.0-9.0-0.0-0.0-0.0-0.45","1313","","j","","","","","","","","","","","","","key","j","6.944388554216901","768","428","j","true","img/C_ambi40.png","朋友","same",""
"","","","","","html-keyboard-response","365","889929","0.0-9.0-0.0-0.0-0.0-1.45","null","<span style='color:GreenYellow; font-size: 70px;'>正确! </span>","null","","","","","","","","","","","","","","","","","","","","","","","feedback_test"
"","","","","","psychophysics","366","892100","0.0-9.0-0.0-0.0-0.0-0.46","1166","","j","","","","","","","","","","","","","key","j","7.012246753246744","768","428","j","true","img/H_ambi40.png","自我","same",""
"","","","","","html-keyboard-response","367","892613","0.0-9.0-0.0-0.0-0.0-1.46","null","<span style='color:GreenYellow; font-size: 70px;'>正确! </span>","null","","","","","","","","","","","","","","","","","","","","","","","feedback_test"
"","","","","","psychophysics","368","895044","0.0-9.0-0.0-0.0-0.0-0.47","1429","","f","","","","","","","","","","","","","key","f","7.065359649122815","768","428","j","false","img/S_ambi40.png","生人","same",""
"","","","","","html-keyboard-response","369","895545","0.0-9.0-0.0-0.0-0.0-1.47","null","<span style='color:red; font-size: 70px;'>错误! </span>","null","","","","","","","","","","","","","","","","","","","","","","","feedback_test"
"","","","","","psychophysics","370","897110","0.0-9.0-0.0-0.0-0.0-0.48","564","","f","","","","","","","","","","","","","key","f","6.944488789237861","768","428","j","false","img/S_ambi40.png","朋友","same",""
"","","","","","html-keyboard-response","371","897612","0.0-9.0-0.0-0.0-0.0-1.48","null","<span style='color:red; font-size: 70px;'>错误! </span>","null","","","","","","","","","","","","","","","","","","","","","","","feedback_test"
"","","","","","psychophysics","372","899988","0.0-9.0-0.0-0.0-0.0-0.49","1374","","f","","","","","","","","","","","","","key","f","6.964988235294175","768","428","j","false","img/C_ambi40.png","自我","same",""
"","","","","","html-keyboard-response","373","900497","0.0-9.0-0.0-0.0-0.0-1.49","null","<span style='color:red; font-size: 70px;'>错误! </span>","null","","","","","","","","","","","","","","","","","","","","","","","feedback_test"
"","","","","","psychophysics","374","902500","0.0-9.0-0.0-0.0-0.0-0.50","1001","","j","","","","","","","","","","","","","key","j","6.9686958041958755","768","428","f","false","img/H_ambi40.png","朋友","same",""
"","","","","","html-keyboard-response","375","903013","0.0-9.0-0.0-0.0-0.0-1.50","null","<span style='color:red; font-size: 70px;'>错误! </span>","null","","","","","","","","","","","","","","","","","","","","","","","feedback_test"
"","","","","","psychophysics","376","905518","0.0-9.0-0.0-0.0-0.0-0.51","null","","null","","","","","","","","","","","","","key","null","7.0825539772727515","768","428","j","false","img/H_ambi40.png","生人","same",""
"","","","","","html-keyboard-response","377","906028","0.0-9.0-0.0-0.0-0.0-1.51","null","<span class='add_' style='color:yellow; font-size: 70px;'> 太慢! </span>","null","","","","","","","","","","","","","","","","","","","","","","","feedback_test"
"","","","","","psychophysics","378","908052","0.0-9.0-0.0-0.0-0.0-0.52","1021","","j","","","","","","","","","","","","","key","j","7.091376760563383","768","428","f","false","img/H_ambi40.png","朋友","same",""
"","","","","","html-keyboard-response","379","908563","0.0-9.0-0.0-0.0-0.0-1.52","null","<span style='color:red; font-size: 70px;'>错误! </span>","null","","","","","","","","","","","","","","","","","","","","","","","feedback_test"
"","","","","","psychophysics","380","910284","0.0-9.0-0.0-0.0-0.0-0.53","717","","f","","","","","","","","","","","","","key","f","7.059008230452824","768","428","f","true","img/T_ambi40.png","をる","same",""
"","","","","","html-keyboard-response","381","910799","0.0-9.0-0.0-0.0-0.0-1.53","null","<span style='color:GreenYellow; font-size: 70px;'>正确! </span>","null","","","","","","","","","","","","","","","","","","","","","","","feedback_test"
"","","","","","psychophysics","382","912620","0.0-9.0-0.0-0.0-0.0-0.54","818","","j","","","","","","","","","","","","","key","j","6.944180076628284","768","428","j","true","img/H_ambi40.png","自我","same",""
"","","","","","html-keyboard-response","383","913134","0.0-9.0-0.0-0.0-0.0-1.54","null","<span style='color:GreenYellow; font-size: 70px;'>正确! </span>","null","","","","","","","","","","","","","","","","","","","","","","","feedback_test"
"","","","","","psychophysics","384","915363","0.0-9.0-0.0-0.0-0.0-0.55","1228","","j","","","","","","","","","","","","","key","j","6.941507836990643","768","428","j","true","img/S_ambi40.png","生人","same",""
"","","","","","html-keyboard-response","385","915881","0.0-9.0-0.0-0.0-0.0-1.55","null","<span style='color:GreenYellow; font-size: 70px;'>正确! </span>","null","","","","","","","","","","","","","","","","","","","","","","","feedback_test"
"","","","","","psychophysics","386","917804","0.0-9.0-0.0-0.0-0.0-0.56","922","","f","","","","","","","","","","","","","key","f","6.9951678832115975","768","428","f","true","img/H_ambi40.png","朋友","same",""
"","","","","","html-keyboard-response","387","918310","0.0-9.0-0.0-0.0-0.0-1.56","null","<span style='color:GreenYellow; font-size: 70px;'>正确! </span>","null","","","","","","","","","","","","","","","","","","","","","","","feedback_test"
"","","","","","psychophysics","388","920476","0.0-9.0-0.0-0.0-0.0-0.57","1164","","f","","","","","","","","","","","","","key","f","7.081078688524755","768","428","j","false","img/H_ambi40.png","生人","same",""
"","","","","","html-keyboard-response","389","920980","0.0-9.0-0.0-0.0-0.0-1.57","null","<span style='color:red; font-size: 70px;'>错误! </span>","null","","","","","","","","","","","","","","","","","","","","","","","feedback_test"
"","","","","","psychophysics","390","922523","0.0-9.0-0.0-0.0-0.0-0.58","541","","f","","","","","","","","","","","","","key","f","7.171789719626333","768","428","f","true","img/T_ambi40.png","をる","same",""
"","","","","","html-keyboard-response","391","923038","0.0-9.0-0.0-0.0-0.0-1.58","null","<span style='color:GreenYellow; font-size: 70px;'>正确! </span>","null","","","","","","","","","","","","","","","","","","","","","","","feedback_test"
"","","","","","psychophysics","392","925540","0.0-9.0-0.0-0.0-0.0-0.59","null","","null","","","","","","","","","","","","","key","null","6.94430919220051","768","428","j","false","img/C_ambi40.png","自我","same",""
"","","","","","html-keyboard-response","393","926049","0.0-9.0-0.0-0.0-0.0-1.59","null","<span class='add_' style='color:yellow; font-size: 70px;'> 太慢! </span>","null","","","","","","","","","","","","","","","","","","","","","","","feedback_test"
"","","","","","psychophysics","394","927972","0.0-9.0-0.0-0.0-0.0-0.60","920","","j","","","","","","","","","","","","","key","j","7.020553113553237","768","428","j","true","img/C_ambi40.png","朋友","same",""
"","","","","","html-keyboard-response","395","928476","0.0-9.0-0.0-0.0-0.0-1.60","null","<span style='color:GreenYellow; font-size: 70px;'>正确! </span>","null","","","","","","","","","","","","","","","","","","","","","","","feedback_test"
"","","","","","psychophysics","396","930460","0.0-9.0-0.0-0.0-0.0-0.61","982","","j","","","","","","","","","","","","","key","j","6.993886524822533","768","428","f","false","img/S_ambi40.png","自我","same",""
"","","","","","html-keyboard-response","397","930961","0.0-9.0-0.0-0.0-0.0-1.61","null","<span style='color:red; font-size: 70px;'>错误! </span>","null","","","","","","","","","","","","","","","","","","","","","","","feedback_test"
"","","","","","psychophysics","398","932852","0.0-9.0-0.0-0.0-0.0-0.62","888","","j","","","","","","","","","","","","","key","j","6.970040740741037","768","428","j","true","img/C_ambi40.png","自我","same",""
"","","","","","html-keyboard-response","399","933364","0.0-9.0-0.0-0.0-0.0-1.62","null","<span style='color:GreenYellow; font-size: 70px;'>正确! </span>","null","","","","","","","","","","","","","","","","","","","","","","","feedback_test"
"","","","","","psychophysics","400","934956","0.0-9.0-0.0-0.0-0.0-0.63","591","","f","","","","","","","","","","","","","key","f","6.944026315789527","768","428","f","true","img/T_ambi40.png","をる","same",""
"","","","","","html-keyboard-response","401","935460","0.0-9.0-0.0-0.0-0.0-1.63","null","<span style='color:GreenYellow; font-size: 70px;'>正确! </span>","null","","","","","","","","","","","","","","","","","","","","","","","feedback_test"
"","","","","","psychophysics","402","937356","0.0-9.0-0.0-0.0-0.0-0.64","894","","f","","","","","","","","","","","","","key","f","7.3496575875485","768","428","f","true","img/C_ambi40.png","生人","same",""
"","","","","","html-keyboard-response","403","937860","0.0-9.0-0.0-0.0-0.0-1.64","null","<span style='color:GreenYellow; font-size: 70px;'>正确! </span>","null","","","","","","","","","","","","","","","","","","","","","","","feedback_test"
"","","","","","psychophysics","404","939764","0.0-9.0-0.0-0.0-0.0-0.65","899","","j","","","","","","","","","","","","","key","j","6.94457142857149","768","428","j","true","img/H_ambi40.png","生人","same",""
"","","","","","html-keyboard-response","405","940272","0.0-9.0-0.0-0.0-0.0-1.65","null","<span style='color:GreenYellow; font-size: 70px;'>正确! </span>","null","","","","","","","","","","","","","","","","","","","","","","","feedback_test"
"","","","","","psychophysics","406","942515","0.0-9.0-0.0-0.0-0.0-0.66","1241","","f","","","","","","","","","","","","","key","f","7.031955974842803","768","428","j","false","img/S_ambi40.png","朋友","same",""
"","","","","","html-keyboard-response","407","943032","0.0-9.0-0.0-0.0-0.0-1.66","null","<span style='color:red; font-size: 70px;'>错误! </span>","null","","","","","","","","","","","","","","","","","","","","","","","feedback_test"
"","","","","","psychophysics","408","944995","0.0-9.0-0.0-0.0-0.0-0.67","957","","j","","","","","","","","","","","","","key","j","6.9938530465946815","768","428","f","false","img/S_ambi40.png","自我","same",""
"","","","","","html-keyboard-response","409","945498","0.0-9.0-0.0-0.0-0.0-1.67","null","<span style='color:red; font-size: 70px;'>错误! </span>","null","","","","","","","","","","","","","","","","","","","","","","","feedback_test"
"","","","","","psychophysics","410","947147","0.0-9.0-0.0-0.0-0.0-0.68","644","","f","","","","","","","","","","","","","key","f","6.974204255319497","768","428","f","true","img/T_ambi40.png","をる","same",""
"","","","","","html-keyboard-response","411","947652","0.0-9.0-0.0-0.0-0.0-1.68","null","<span style='color:GreenYellow; font-size: 70px;'>正确! </span>","null","","","","","","","","","","","","","","","","","","","","","","","feedback_test"
"","","","","","psychophysics","412","949276","0.0-9.0-0.0-0.0-0.0-0.69","620","","f","","","","","","","","","","","","","key","f","7.0040913043477895","768","428","f","true","img/H_ambi40.png","朋友","same",""
"","","","","","html-keyboard-response","413","949782","0.0-9.0-0.0-0.0-0.0-1.69","null","<span style='color:GreenYellow; font-size: 70px;'>正确! </span>","null","","","","","","","","","","","","","","","","","","","","","","","feedback_test"
"","","","","","psychophysics","414","951749","0.0-9.0-0.0-0.0-0.0-0.70","960","","f","","","","","","","","","","","","","key","f","6.944269503546047","768","428","f","true","img/C_ambi40.png","生人","same",""
"","","","","","html-keyboard-response","415","952254","0.0-9.0-0.0-0.0-0.0-1.70","null","<span style='color:GreenYellow; font-size: 70px;'>正确! </span>","null","","","","","","","","","","","","","","","","","","","","","","","feedback_test"
"","","","","","psychophysics","416","954332","0.0-9.0-0.0-0.0-0.0-0.71","1072","","j","","","","","","","","","","","","","key","j","6.96771717171721","768","428","j","true","img/S_ambi40.png","朋友","same",""
"","","","","","html-keyboard-response","417","954842","0.0-9.0-0.0-0.0-0.0-1.71","null","<span style='color:GreenYellow; font-size: 70px;'>正确! </span>","null","","","","","","","","","","","","","","","","","","","","","","","feedback_test"
"","","","","","psychophysics","418","957012","0.0-9.0-0.0-0.0-0.0-0.72","1168","","f","","","","","","","","","","","","","key","f","6.9661838709677175","768","428","j","false","img/H_ambi40.png","生人","same",""
"","","","","","html-keyboard-response","419","957524","0.0-9.0-0.0-0.0-0.0-1.72","null","<span style='color:red; font-size: 70px;'>错误! </span>","null","","","","","","","","","","","","","","","","","","","","","","","feedback_test"
"","","","","","psychophysics","420","959644","0.0-9.0-0.0-0.0-0.0-0.73","1119","","f","","","","","","","","","","","","","key","f","6.967267326732464","768","428","f","true","img/C_ambi40.png","生人","same",""
"","","","","","html-keyboard-response","421","960152","0.0-9.0-0.0-0.0-0.0-1.73","null","<span style='color:GreenYellow; font-size: 70px;'>正确! </span>","null","","","","","","","","","","","","","","","","","","","","","","","feedback_test"
"","","","","","psychophysics","422","962429","0.0-9.0-0.0-0.0-0.0-0.74","1272","","j","","","","","","","","","","","","","key","j","7.009009287925798","768","428","j","true","img/S_ambi40.png","朋友","same",""
"","","","","","html-keyboard-response","423","962942","0.0-9.0-0.0-0.0-0.0-1.74","null","<span style='color:GreenYellow; font-size: 70px;'>正确! </span>","null","","","","","","","","","","","","","","","","","","","","","","","feedback_test"
"","","","","","psychophysics","424","964908","0.0-9.0-0.0-0.0-0.0-0.75","965","","j","","","","","","","","","","","","","key","j","7.0446534296031205","768","428","j","true","img/S_ambi40.png","生人","same",""
"","","","","","html-keyboard-response","425","965411","0.0-9.0-0.0-0.0-0.0-1.75","null","<span style='color:GreenYellow; font-size: 70px;'>正确! </span>","null","","","","","","","","","","","","","","","","","","","","","","","feedback_test"
"","","","","","psychophysics","426","967828","0.0-9.0-0.0-0.0-0.0-0.76","1415","","j","","","","","","","","","","","","","key","j","6.9421188405795915","768","428","j","true","img/C_ambi40.png","自我","same",""
"","","","","","html-keyboard-response","427","968344","0.0-9.0-0.0-0.0-0.0-1.76","null","<span style='color:GreenYellow; font-size: 70px;'>正确! </span>","null","","","","","","","","","","","","","","","","","","","","","","","feedback_test"
"","","","","","psychophysics","428","970235","0.0-9.0-0.0-0.0-0.0-0.77","885","","j","","","","","","","","","","","","","key","j","6.944380073800831","768","428","f","false","img/C_ambi40.png","生人","same",""
"","","","","","html-keyboard-response","429","970747","0.0-9.0-0.0-0.0-0.0-1.77","null","<span style='color:red; font-size: 70px;'>错误! </span>","null","","","","","","","","","","","","","","","","","","","","","","","feedback_test"
"","","","","","psychophysics","430","972645","0.0-9.0-0.0-0.0-0.0-0.78","892","","j","","","","","","","","","","","","","key","j","7.0219851301119185","768","428","j","true","img/H_ambi40.png","自我","same",""
"","","","","","html-keyboard-response","431","973160","0.0-9.0-0.0-0.0-0.0-1.78","null","<span style='color:GreenYellow; font-size: 70px;'>正确! </span>","null","","","","","","","","","","","","","","","","","","","","","","","feedback_test"
"","","","","","psychophysics","432","974883","0.0-9.0-0.0-0.0-0.0-0.79","721","","f","","","","","","","","","","","","","key","f","6.972556910568913","768","428","f","true","img/H_ambi40.png","朋友","same",""
"","","","","","html-keyboard-response","433","975391","0.0-9.0-0.0-0.0-0.0-1.79","null","<span style='color:GreenYellow; font-size: 70px;'>正确! </span>","null","","","","","","","","","","","","","","","","","","","","","","","feedback_test"
"","","","","","psychophysics","434","976995","0.0-9.0-0.0-0.0-0.0-0.80","603","","f","","","","","","","","","","","","","key","f","6.9442227074233855","768","428","f","true","img/T_ambi40.png","をる","same",""
"","","","","","html-keyboard-response","435","977507","0.0-9.0-0.0-0.0-0.0-1.80","null","<span style='color:GreenYellow; font-size: 70px;'>正确! </span>","null","","","","","","","","","","","","","","","","","","","","","","","feedback_test"
"","","","","","psychophysics","436","979852","0.0-9.0-0.0-0.0-0.0-0.81","1342","","j","","","","","","","","","","","","","key","j","6.985752238805837","768","428","f","false","img/S_ambi40.png","自我","same",""
"","","","","","html-keyboard-response","437","980358","0.0-9.0-0.0-0.0-0.0-1.81","null","<span style='color:red; font-size: 70px;'>错误! </span>","null","","","","","","","","","","","","","","","","","","","","","","","feedback_test"
"","","","","","psychophysics","438","982131","0.0-9.0-0.0-0.0-0.0-0.82","767","","f","","","","","","","","","","","","","key","f","6.944295275590647","768","428","f","true","img/S_ambi40.png","自我","same",""
"","","","","","html-keyboard-response","439","982644","0.0-9.0-0.0-0.0-0.0-1.82","null","<span style='color:GreenYellow; font-size: 70px;'>正确! </span>","null","","","","","","","","","","","","","","","","","","","","","","","feedback_test"
"","","","","","psychophysics","440","984844","0.0-9.0-0.0-0.0-0.0-0.83","1195","","f","","","","","","","","","","","","","key","f","6.966444444444237","768","428","j","false","img/H_ambi40.png","生人","same",""
"","","","","","html-keyboard-response","441","985346","0.0-9.0-0.0-0.0-0.0-1.83","null","<span style='color:red; font-size: 70px;'>错误! </span>","null","","","","","","","","","","","","","","","","","","","","","","","feedback_test"
"","","","","","psychophysics","442","987283","0.0-9.0-0.0-0.0-0.0-0.84","933","","f","","","","","","","","","","","","","key","f","7.045664233576598","768","428","j","false","img/C_ambi40.png","朋友","same",""
"","","","","","html-keyboard-response","443","987792","0.0-9.0-0.0-0.0-0.0-1.84","null","<span style='color:red; font-size: 70px;'>错误! </span>","null","","","","","","","","","","","","","","","","","","","","","","","feedback_test"
"","","","","","psychophysics","444","989380","0.0-9.0-0.0-0.0-0.0-0.85","585","","j","","","","","","","","","","","","","key","j","6.944162280701628","768","428","f","false","img/H_ambi40.png","朋友","same",""
"","","","","","html-keyboard-response","445","989884","0.0-9.0-0.0-0.0-0.0-1.85","null","<span style='color:red; font-size: 70px;'>错误! </span>","null","","","","","","","","","","","","","","","","","","","","","","","feedback_test"
"","","","","","psychophysics","446","992035","0.0-9.0-0.0-0.0-0.0-0.86","1150","","f","","","","","","","","","","","","","key","f","6.989709150326877","768","428","j","false","img/S_ambi40.png","朋友","same",""
"","","","","","html-keyboard-response","447","992540","0.0-9.0-0.0-0.0-0.0-1.86","null","<span style='color:red; font-size: 70px;'>错误! </span>","null","","","","","","","","","","","","","","","","","","","","","","","feedback_test"
"","","","","","psychophysics","448","994203","0.0-9.0-0.0-0.0-0.0-0.87","659","","f","","","","","","","","","","","","","key","f","7.033591489361579","768","428","f","true","img/T_ambi40.png","をる","same",""
