"success","timeout","failed_images","failed_audio","failed_video","trial_type","trial_index","time_elapsed","internal_node_id","rt","stimulus","response","value","item_width_mm","item_height_mm","item_width_px","px2mm","view_dist_mm","item_width_deg","px2deg","scale_factor","win_width_deg","win_height_deg","view_history","response_type","key_press","avg_frame_time","center_x","center_y","correct_response","correct","Image","word","condition","screen_id"
"true","false","[]","[]","[]","preload","0","3716","0.0-0.0","","","","","","","","","","","","","","","","","","","","","","","","","",""
"","","","","","html-keyboard-response","1","80210","0.0-1.0","76493","
     <p>您好，欢迎参加本次实验。</p>
     <p>为充分保障您的权利，请确保您已经知晓并同意《参与实验同意书》以及《数据公开知情同意书》。</p>
     <p>如果您未见过上述内容，请咨询实验员。</p>
     <p>如果您选择继续实验，则表示您已经清楚两份知情同意书的内容并同意。</p>
     <p> <div style = ""color: green""><按任意键至下页></div> </p>
     ","h","","","","","","","","","","","","","","","","","","","","","","",""
"","","","","","html-keyboard-response","2","81714","0.0-2.0","1503","
     <p>本实验首先需要您填写一些基本个人信息。</p>
     <p> <div style = ""color: green""><按任意键至下页></div></p>
     ","h","","","","","","","","","","","","","","","","","","","","","","",""
"","","","","","call-function","3","81715","0.0-3.0-0.0","","","","","","","","","","","","","","","","","","","","","","","","","",""
"","","","","","survey-html-form","4","87113","0.0-3.0-1.0","5396","","{""Q0"":""24""}","","","","","","","","","","","","","","","","","","","","","","",""
"","","","","","html-button-response","5","88675","0.0-3.0-2.0","1561","<p style = 'color : white'>您的性别</p>","0","","","","","","","","","","","","","","","","","","","","","","",""
"","","","","","survey-html-form","6","94486","0.0-3.0-3.0","5810","","{""Q0"":""2003""}","","","","","","","","","","","","","","","","","","","","","","",""
"","","","","","survey-html-form","7","96490","0.0-3.0-4.0","2003","","{""Q0"":""5""}","","","","","","","","","","","","","","","","","","","","","","",""
"","","","","","virtual-chinrest","8","399697","0.0-4.0","303206","","","","85.6","53.98","716.6028301956169","8.377188014962845","340.42","14.332056603912338","50","0.5944715566971893","32.08","19.6","","","","","","","","","","","",""
"true","","","","","fullscreen","9","402781","0.0-5.0","","","","","","","","","","","","","","","","","","","","","","","","","",""
"","","","","","instructions","10","498046","0.0-6.0","95265","","","","","","","","","","","","","","[{""page_index"":0,""viewing_time"":63338},{""page_index"":1,""viewing_time"":25745},{""page_index"":2,""viewing_time"":2565},{""page_index"":3,""viewing_time"":3617}]","","","","","","","","","","",""
"","","","","","psychophysics","11","500551","0.0-7.0-0.0-0.0","null","","null","","","","","","","","","","","","","key","null","4.285226804123675","853.3333333333334","529.3333333333334","j","false","img/C_ambi40.png","朋友","prac",""
"","","","","","html-keyboard-response","12","501064","0.0-7.0-0.0-1.0","null","<span class='add_' style='color:yellow; font-size: 70px;'> 太慢! </span>","null","","","","","","","","","","","","","","","","","","","","","","","feedback_test"
"","","","","","psychophysics","13","502178","0.0-7.0-0.0-0.1","110","","f","","","","","","","","","","","","","key","f","4.2140266159695425","853.3333333333334","529.3333333333334","f","true","img/H_ambi40.png","生人","prac",""
"","","","","","html-keyboard-response","14","502681","0.0-7.0-0.0-1.1","null","<span style='color:yellow; font-size: 70px;'>过快! </span>","null","","","","","","","","","","","","","","","","","","","","","","","feedback_test"
"","","","","","psychophysics","15","505184","0.0-7.0-0.0-0.2","null","","null","","","","","","","","","","","","","key","null","4.187538590604004","853.3333333333334","529.3333333333334","f","false","img/C_ambi40.png","自我","prac",""
"","","","","","html-keyboard-response","16","505699","0.0-7.0-0.0-1.2","null","<span class='add_' style='color:yellow; font-size: 70px;'> 太慢! </span>","null","","","","","","","","","","","","","","","","","","","","","","","feedback_test"
"","","","","","psychophysics","17","506903","0.0-7.0-0.0-0.3","202","","f","","","","","","","","","","","","","key","f","4.1926842105262425","853.3333333333334","529.3333333333334","j","false","img/T_ambi40.png","をる","prac",""
"","","","","","html-keyboard-response","18","507416","0.0-7.0-0.0-1.3","null","<span style='color:red; font-size: 70px;'>错误! </span>","null","","","","","","","","","","","","","","","","","","","","","","","feedback_test"
"","","","","","psychophysics","19","508611","0.0-7.0-0.0-0.4","194","","f","","","","","","","","","","","","","key","f","4.1928975265016515","853.3333333333334","529.3333333333334","j","false","img/H_ambi40.png","朋友","prac",""
"","","","","","html-keyboard-response","20","509126","0.0-7.0-0.0-1.4","null","<span style='color:yellow; font-size: 70px;'>过快! </span>","null","","","","","","","","","","","","","","","","","","","","","","","feedback_test"
"","","","","","psychophysics","21","510189","0.0-7.0-0.0-0.5","63","","f","","","","","","","","","","","","","key","f","4.166681102362203","853.3333333333334","529.3333333333334","j","false","img/T_ambi40.png","をる","prac",""
"","","","","","html-keyboard-response","22","510693","0.0-7.0-0.0-1.5","null","<span style='color:yellow; font-size: 70px;'>过快! </span>","null","","","","","","","","","","","","","","","","","","","","","","","feedback_test"
"","","","","","psychophysics","23","513197","0.0-7.0-0.0-0.6","null","","null","","","","","","","","","","","","","key","null","4.173530100334461","853.3333333333334","529.3333333333334","j","false","img/T_ambi40.png","をる","prac",""
"","","","","","html-keyboard-response","24","513700","0.0-7.0-0.0-1.6","null","<span class='add_' style='color:yellow; font-size: 70px;'> 太慢! </span>","null","","","","","","","","","","","","","","","","","","","","","","","feedback_test"
"","","","","","psychophysics","25","516201","0.0-7.0-0.0-0.7","null","","null","","","","","","","","","","","","","key","null","4.17151170568564","853.3333333333334","529.3333333333334","f","false","img/C_ambi40.png","自我","prac",""
"","","","","","html-keyboard-response","26","516716","0.0-7.0-0.0-1.7","null","<span class='add_' style='color:yellow; font-size: 70px;'> 太慢! </span>","null","","","","","","","","","","","","","","","","","","","","","","","feedback_test"
"","","","","","psychophysics","27","519218","0.0-7.0-0.0-0.8","null","","null","","","","","","","","","","","","","key","null","4.164115191986633","853.3333333333334","529.3333333333334","f","false","img/S_ambi40.png","朋友","prac",""
"","","","","","html-keyboard-response","28","519735","0.0-7.0-0.0-1.8","null","<span class='add_' style='color:yellow; font-size: 70px;'> 太慢! </span>","null","","","","","","","","","","","","","","","","","","","","","","","feedback_test"
"","","","","","psychophysics","29","521084","0.0-7.0-0.0-0.9","346","","f","","","","","","","","","","","","","key","f","4.166509316770124","853.3333333333334","529.3333333333334","j","false","img/H_ambi40.png","自我","prac",""
"","","","","","html-keyboard-response","30","521590","0.0-7.0-0.0-1.9","null","<span style='color:red; font-size: 70px;'>错误! </span>","null","","","","","","","","","","","","","","","","","","","","","","","feedback_test"
"","","","","","psychophysics","31","522665","0.0-7.0-0.0-0.10","73","","f","","","","","","","","","","","","","key","f","4.16662499999984","853.3333333333334","529.3333333333334","j","false","img/S_ambi40.png","生人","prac",""
"","","","","","html-keyboard-response","32","523169","0.0-7.0-0.0-1.10","null","<span style='color:yellow; font-size: 70px;'>过快! </span>","null","","","","","","","","","","","","","","","","","","","","","","","feedback_test"
"","","","","","psychophysics","33","525672","0.0-7.0-0.0-0.11","null","","null","","","","","","","","","","","","","key","null","4.166614357261951","853.3333333333334","529.3333333333334","f","false","img/S_ambi40.png","朋友","prac",""
"","","","","","html-keyboard-response","34","526183","0.0-7.0-0.0-1.11","null","<span class='add_' style='color:yellow; font-size: 70px;'> 太慢! </span>","null","","","","","","","","","","","","","","","","","","","","","","","feedback_test"
"","","","","","psychophysics","35","528684","0.0-7.0-0.0-0.12","null","","null","","","","","","","","","","","","","key","null","4.164981605351145","853.3333333333334","529.3333333333334","j","false","img/C_ambi40.png","生人","prac",""
"","","","","","html-keyboard-response","36","529200","0.0-7.0-0.0-1.12","null","<span class='add_' style='color:yellow; font-size: 70px;'> 太慢! </span>","null","","","","","","","","","","","","","","","","","","","","","","","feedback_test"
"","","","","","psychophysics","37","530248","0.0-7.0-0.0-0.13","47","","f","","","","","","","","","","","","","key","f","4.166615999999922","853.3333333333334","529.3333333333334","j","false","img/T_ambi40.png","をる","prac",""
"","","","","","html-keyboard-response","38","530758","0.0-7.0-0.0-1.13","null","<span style='color:yellow; font-size: 70px;'>过快! </span>","null","","","","","","","","","","","","","","","","","","","","","","","feedback_test"
"","","","","","psychophysics","39","531991","0.0-7.0-0.0-0.14","228","","j","","","","","","","","","","","","","key","j","4.163476190475912","853.3333333333334","529.3333333333334","f","false","img/H_ambi40.png","生人","prac",""
"","","","","","html-keyboard-response","40","532503","0.0-7.0-0.0-1.14","null","<span style='color:red; font-size: 70px;'>错误! </span>","null","","","","","","","","","","","","","","","","","","","","","","","feedback_test"
"","","","","","psychophysics","41","535004","0.0-7.0-0.0-0.15","null","","null","","","","","","","","","","","","","key","null","4.166542570951522","853.3333333333334","529.3333333333334","j","false","img/S_ambi40.png","自我","prac",""
"","","","","","html-keyboard-response","42","535520","0.0-7.0-0.0-1.15","null","<span class='add_' style='color:yellow; font-size: 70px;'> 太慢! </span>","null","","","","","","","","","","","","","","","","","","","","","","","feedback_test"
"","","","","","psychophysics","43","538022","0.0-7.0-0.0-0.16","null","","null","","","","","","","","","","","","","key","null","4.1651923076923625","853.3333333333334","529.3333333333334","f","false","img/H_ambi40.png","生人","prac",""
"","","","","","html-keyboard-response","44","538526","0.0-7.0-0.0-1.16","null","<span class='add_' style='color:yellow; font-size: 70px;'> 太慢! </span>","null","","","","","","","","","","","","","","","","","","","","","","","feedback_test"
"","","","","","psychophysics","45","541030","0.0-7.0-0.0-0.17","null","","null","","","","","","","","","","","","","key","null","4.166567612687967","853.3333333333334","529.3333333333334","j","false","img/T_ambi40.png","をる","prac",""
"","","","","","html-keyboard-response","46","541541","0.0-7.0-0.0-1.17","null","<span class='add_' style='color:yellow; font-size: 70px;'> 太慢! </span>","null","","","","","","","","","","","","","","","","","","","","","","","feedback_test"
"","","","","","psychophysics","47","542789","0.0-7.0-0.0-0.18","247","","j","","","","","","","","","","","","","key","j","4.163728187919356","853.3333333333334","529.3333333333334","j","true","img/C_ambi40.png","朋友","prac",""
"","","","","","html-keyboard-response","48","543301","0.0-7.0-0.0-1.18","null","<span style='color:GreenYellow; font-size: 70px;'>正确! </span>","null","","","","","","","","","","","","","","","","","","","","","","","feedback_test"
"","","","","","psychophysics","49","544531","0.0-7.0-0.0-0.19","229","","j","","","","","","","","","","","","","key","j","4.166578231292276","853.3333333333334","529.3333333333334","j","true","img/T_ambi40.png","をる","prac",""
"","","","","","html-keyboard-response","50","545043","0.0-7.0-0.0-1.19","null","<span style='color:GreenYellow; font-size: 70px;'>正确! </span>","null","","","","","","","","","","","","","","","","","","","","","","","feedback_test"
"","","","","","psychophysics","51","546253","0.0-7.0-0.0-0.20","206","","j","","","","","","","","","","","","","key","j","4.166692041522488","853.3333333333334","529.3333333333334","j","true","img/C_ambi40.png","生人","prac",""
"","","","","","html-keyboard-response","52","546768","0.0-7.0-0.0-1.20","null","<span style='color:GreenYellow; font-size: 70px;'>正确! </span>","null","","","","","","","","","","","","","","","","","","","","","","","feedback_test"
"","","","","","psychophysics","53","547837","0.0-7.0-0.0-0.21","66","","j","","","","","","","","","","","","","key","j","4.182814960630141","853.3333333333334","529.3333333333334","j","true","img/S_ambi40.png","自我","prac",""
"","","","","","html-keyboard-response","54","548352","0.0-7.0-0.0-1.21","null","<span style='color:yellow; font-size: 70px;'>过快! </span>","null","","","","","","","","","","","","","","","","","","","","","","","feedback_test"
"","","","","","psychophysics","55","549413","0.0-7.0-0.0-0.22","60","","f","","","","","","","","","","","","","key","f","4.233558232931562","853.3333333333334","529.3333333333334","f","true","img/H_ambi40.png","生人","prac",""
"","","","","","html-keyboard-response","56","549927","0.0-7.0-0.0-1.22","null","<span style='color:yellow; font-size: 70px;'>过快! </span>","null","","","","","","","","","","","","","","","","","","","","","","","feedback_test"
"","","","","","psychophysics","57","551103","0.0-7.0-0.0-0.23","172","","j","","","","","","","","","","","","","key","j","4.181639285714482","853.3333333333334","529.3333333333334","j","true","img/T_ambi40.png","をる","prac",""
"","","","","","html-keyboard-response","58","551605","0.0-7.0-0.0-1.23","null","<span style='color:yellow; font-size: 70px;'>过快! </span>","null","","","","","","","","","","","","","","","","","","","","","","","feedback_test"
"","","","","","psychophysics","59","552699","0.0-7.0-0.0-0.24","90","","j","","","","","","","","","","","","","key","j","4.215127906976394","853.3333333333334","529.3333333333334","j","true","img/S_ambi40.png","生人","prac",""
"","","","","","html-keyboard-response","60","553210","0.0-7.0-0.0-1.24","null","<span style='color:yellow; font-size: 70px;'>过快! </span>","null","","","","","","","","","","","","","","","","","","","","","","","feedback_test"
"","","","","","psychophysics","61","554418","0.0-7.0-0.0-0.25","205","","j","","","","","","","","","","","","","key","j","4.240204946996476","853.3333333333334","529.3333333333334","j","true","img/H_ambi40.png","朋友","prac",""
"","","","","","html-keyboard-response","62","554920","0.0-7.0-0.0-1.25","null","<span style='color:GreenYellow; font-size: 70px;'>正确! </span>","null","","","","","","","","","","","","","","","","","","","","","","","feedback_test"
"","","","","","psychophysics","63","555956","0.0-7.0-0.0-0.26","34","","f","","","","","","","","","","","","","key","f","4.282535564853853","853.3333333333334","529.3333333333334","f","true","img/S_ambi40.png","朋友","prac",""
"","","","","","html-keyboard-response","64","556468","0.0-7.0-0.0-1.26","null","<span style='color:yellow; font-size: 70px;'>过快! </span>","null","","","","","","","","","","","","","","","","","","","","","","","feedback_test"
"","","","","","psychophysics","65","557525","0.0-7.0-0.0-0.27","54","","j","","","","","","","","","","","","","key","j","4.216787148594303","853.3333333333334","529.3333333333334","f","false","img/C_ambi40.png","自我","prac",""
"","","","","","html-keyboard-response","66","558039","0.0-7.0-0.0-1.27","null","<span style='color:yellow; font-size: 70px;'>过快! </span>","null","","","","","","","","","","","","","","","","","","","","","","","feedback_test"
"","","","","","psychophysics","67","559117","0.0-7.0-0.0-0.28","52","","f","","","","","","","","","","","","","key","f","4.547868644067884","853.3333333333334","529.3333333333334","j","false","img/T_ambi40.png","をる","prac",""
"","","","","","html-keyboard-response","68","559624","0.0-7.0-0.0-1.28","null","<span style='color:yellow; font-size: 70px;'>过快! </span>","null","","","","","","","","","","","","","","","","","","","","","","","feedback_test"
"","","","","","psychophysics","69","560631","0.0-7.0-0.0-0.29","6","","j","","","","","","","","","","","","","key","j","5.737356321838679","853.3333333333334","529.3333333333334","f","false","img/C_ambi40.png","自我","prac",""
"","","","","","html-keyboard-response","70","561137","0.0-7.0-0.0-1.29","null","<span style='color:yellow; font-size: 70px;'>过快! </span>","null","","","","","","","","","","","","","","","","","","","","","","","feedback_test"
"","","","","","psychophysics","71","563642","0.0-7.0-0.0-0.30","null","","null","","","","","","","","","","","","","key","null","4.165115191986612","853.3333333333334","529.3333333333334","j","false","img/H_ambi40.png","自我","prac",""
"","","","","","html-keyboard-response","72","564145","0.0-7.0-0.0-1.30","null","<span class='add_' style='color:yellow; font-size: 70px;'> 太慢! </span>","null","","","","","","","","","","","","","","","","","","","","","","","feedback_test"
"","","","","","psychophysics","73","566650","0.0-7.0-0.0-0.31","null","","null","","","","","","","","","","","","","key","null","4.164686143572617","853.3333333333334","529.3333333333334","f","false","img/S_ambi40.png","朋友","prac",""
"","","","","","html-keyboard-response","74","567157","0.0-7.0-0.0-1.31","null","<span class='add_' style='color:yellow; font-size: 70px;'> 太慢! </span>","null","","","","","","","","","","","","","","","","","","","","","","","feedback_test"
"","","","","","html-keyboard-response","75","577384","0.0-7.0-1.0-0.0","10226","<style>.context{color:white; font-size: 35px; line-height:40px}</style>                          <div><p class='context'>您正确回答了31% 的试次。</p ><p class='context'>您的平均反应时为142毫秒。</p >","j","","","","","","","","","","","","","","","","","","","","","","",""
"","","","","","instructions","76","604775","0.0-7.0-1.0-1.0","27390","","","","","","","","","","","","","","[{""page_index"":0,""viewing_time"":4100},{""page_index"":1,""viewing_time"":19684},{""page_index"":2,""viewing_time"":3606}]","","","","","","","","","","",""
"","","","","","psychophysics","77","607279","0.0-7.1-0.1-0.32","null","","null","","","","","","","","","","","","","key","null","4.166587646076734","853.3333333333334","529.3333333333334","j","false","img/H_ambi40.png","自我","prac",""
"","","","","","html-keyboard-response","78","607791","0.0-7.1-0.1-1.32","null","<span class='add_' style='color:yellow; font-size: 70px;'> 太慢! </span>","null","","","","","","","","","","","","","","","","","","","","","","","feedback_test"
"","","","","","psychophysics","79","608935","0.0-7.1-0.1-0.33","144","","j","","","","","","","","","","","","","key","j","4.166549450549427","853.3333333333334","529.3333333333334","f","false","img/C_ambi40.png","自我","prac",""
"","","","","","html-keyboard-response","80","609444","0.0-7.1-0.1-1.33","null","<span style='color:yellow; font-size: 70px;'>过快! </span>","null","","","","","","","","","","","","","","","","","","","","","","","feedback_test"
"","","","","","psychophysics","81","610653","0.0-7.1-0.1-0.34","208","","f","","","","","","","","","","","","","key","f","4.16664930555554","853.3333333333334","529.3333333333334","f","true","img/H_ambi40.png","生人","prac",""
"","","","","","html-keyboard-response","82","611154","0.0-7.1-0.1-1.34","null","<span style='color:GreenYellow; font-size: 70px;'>正确! </span>","null","","","","","","","","","","","","","","","","","","","","","","","feedback_test"
"","","","","","psychophysics","83","612301","0.0-7.1-0.1-0.35","145","","j","","","","","","","","","","","","","key","j","4.1667992700733425","853.3333333333334","529.3333333333334","f","false","img/H_ambi40.png","生人","prac",""
"","","","","","html-keyboard-response","84","612807","0.0-7.1-0.1-1.35","null","<span style='color:yellow; font-size: 70px;'>过快! </span>","null","","","","","","","","","","","","","","","","","","","","","","","feedback_test"
"","","","","","psychophysics","85","613846","0.0-7.1-0.1-0.36","38","","f","","","","","","","","","","","","","key","f","4.1669437751004725","853.3333333333334","529.3333333333334","j","false","img/T_ambi40.png","をる","prac",""
"","","","","","html-keyboard-response","86","614350","0.0-7.1-0.1-1.36","null","<span style='color:yellow; font-size: 70px;'>过快! </span>","null","","","","","","","","","","","","","","","","","","","","","","","feedback_test"
"","","","","","psychophysics","87","615496","0.0-7.1-0.1-0.37","142","","f","","","","","","","","","","","","","key","f","4.166766423357728","853.3333333333334","529.3333333333334","j","false","img/T_ambi40.png","をる","prac",""
"","","","","","html-keyboard-response","88","616001","0.0-7.1-0.1-1.37","null","<span style='color:yellow; font-size: 70px;'>过快! </span>","null","","","","","","","","","","","","","","","","","","","","","","","feedback_test"
"","","","","","psychophysics","89","617035","0.0-7.1-0.1-0.38","33","","f","","","","","","","","","","","","","key","f","4.166538461538499","853.3333333333334","529.3333333333334","j","false","img/S_ambi40.png","生人","prac",""
"","","","","","html-keyboard-response","90","617548","0.0-7.1-0.1-1.38","null","<span style='color:yellow; font-size: 70px;'>过快! </span>","null","","","","","","","","","","","","","","","","","","","","","","","feedback_test"
"","","","","","psychophysics","91","618685","0.0-7.1-0.1-0.39","136","","j","","","","","","","","","","","","","key","j","4.1618450184501325","853.3333333333334","529.3333333333334","j","true","img/T_ambi40.png","をる","prac",""
"","","","","","html-keyboard-response","92","619193","0.0-7.1-0.1-1.39","null","<span style='color:yellow; font-size: 70px;'>过快! </span>","null","","","","","","","","","","","","","","","","","","","","","","","feedback_test"
"","","","","","psychophysics","93","620276","0.0-7.1-0.1-0.40","81","","f","","","","","","","","","","","","","key","f","4.1665173745174755","853.3333333333334","529.3333333333334","f","true","img/C_ambi40.png","自我","prac",""
"","","","","","html-keyboard-response","94","620782","0.0-7.1-0.1-1.40","null","<span style='color:yellow; font-size: 70px;'>过快! </span>","null","","","","","","","","","","","","","","","","","","","","","","","feedback_test"
"","","","","","psychophysics","95","621851","0.0-7.1-0.1-0.41","69","","j","","","","","","","","","","","","","key","j","4.16212941176468","853.3333333333334","529.3333333333334","j","true","img/H_ambi40.png","朋友","prac",""
"","","","","","html-keyboard-response","96","622353","0.0-7.1-0.1-1.41","null","<span style='color:yellow; font-size: 70px;'>过快! </span>","null","","","","","","","","","","","","","","","","","","","","","","","feedback_test"
"","","","","","psychophysics","97","623398","0.0-7.1-0.1-0.42","44","","f","","","","","","","","","","","","","key","f","4.160566265060357","853.3333333333334","529.3333333333334","f","true","img/S_ambi40.png","朋友","prac",""
"","","","","","html-keyboard-response","98","623910","0.0-7.1-0.1-1.42","null","<span style='color:yellow; font-size: 70px;'>过快! </span>","null","","","","","","","","","","","","","","","","","","","","","","","feedback_test"
"","","","","","psychophysics","99","624981","0.0-7.1-0.1-0.43","69","","j","","","","","","","","","","","","","key","j","4.16656640625024","853.3333333333334","529.3333333333334","j","true","img/S_ambi40.png","自我","prac",""
"","","","","","html-keyboard-response","100","625495","0.0-7.1-0.1-1.43","null","<span style='color:yellow; font-size: 70px;'>过快! </span>","null","","","","","","","","","","","","","","","","","","","","","","","feedback_test"
"","","","","","psychophysics","101","626660","0.0-7.1-0.1-0.44","161","","f","","","","","","","","","","","","","key","f","4.16655035971215","853.3333333333334","529.3333333333334","f","true","img/S_ambi40.png","朋友","prac",""
"","","","","","html-keyboard-response","102","627166","0.0-7.1-0.1-1.44","null","<span style='color:yellow; font-size: 70px;'>过快! </span>","null","","","","","","","","","","","","","","","","","","","","","","","feedback_test"
"","","","","","psychophysics","103","628282","0.0-7.1-0.1-0.45","115","","f","","","","","","","","","","","","","key","f","4.1825827067670645","853.3333333333334","529.3333333333334","j","false","img/C_ambi40.png","朋友","prac",""
"","","","","","html-keyboard-response","104","628785","0.0-7.1-0.1-1.45","null","<span style='color:yellow; font-size: 70px;'>过快! </span>","null","","","","","","","","","","","","","","","","","","","","","","","feedback_test"
"","","","","","psychophysics","105","629939","0.0-7.1-0.1-0.46","152","","f","","","","","","","","","","","","","key","f","4.16145454545463","853.3333333333334","529.3333333333334","j","false","img/C_ambi40.png","生人","prac",""
"","","","","","html-keyboard-response","106","630453","0.0-7.1-0.1-1.46","null","<span style='color:yellow; font-size: 70px;'>过快! </span>","null","","","","","","","","","","","","","","","","","","","","","","","feedback_test"
"","","","","","psychophysics","107","631614","0.0-7.1-0.1-0.47","160","","f","","","","","","","","","","","","","key","f","4.162342960288957","853.3333333333334","529.3333333333334","j","false","img/T_ambi40.png","をる","prac",""
"","","","","","html-keyboard-response","108","632115","0.0-7.1-0.1-1.47","null","<span style='color:yellow; font-size: 70px;'>过快! </span>","null","","","","","","","","","","","","","","","","","","","","","","","feedback_test"
"","","","","","psychophysics","109","633300","0.0-7.1-0.1-0.48","184","","f","","","","","","","","","","","","","key","f","4.162628975264932","853.3333333333334","529.3333333333334","j","false","img/T_ambi40.png","をる","prac",""
"","","","","","html-keyboard-response","110","633812","0.0-7.1-0.1-1.48","null","<span style='color:yellow; font-size: 70px;'>过快! </span>","null","","","","","","","","","","","","","","","","","","","","","","","feedback_test"
"","","","","","psychophysics","111","635205","0.0-7.1-0.1-0.49","389","","f","","","","","","","","","","","","","key","f","4.166567567567755","853.3333333333334","529.3333333333334","j","false","img/C_ambi40.png","朋友","prac",""
"","","","","","html-keyboard-response","112","635708","0.0-7.1-0.1-1.49","null","<span style='color:red; font-size: 70px;'>错误! </span>","null","","","","","","","","","","","","","","","","","","","","","","","feedback_test"
"","","","","","psychophysics","113","636971","0.0-7.1-0.1-0.50","260","","j","","","","","","","","","","","","","key","j","4.166645695364013","853.3333333333334","529.3333333333334","j","true","img/C_ambi40.png","生人","prac",""
"","","","","","html-keyboard-response","114","637484","0.0-7.1-0.1-1.50","null","<span style='color:GreenYellow; font-size: 70px;'>正确! </span>","null","","","","","","","","","","","","","","","","","","","","","","","feedback_test"
"","","","","","psychophysics","115","638729","0.0-7.1-0.1-0.51","245","","f","","","","","","","","","","","","","key","f","4.180521885521854","853.3333333333334","529.3333333333334","j","false","img/H_ambi40.png","自我","prac",""
"","","","","","html-keyboard-response","116","639241","0.0-7.1-0.1-1.51","null","<span style='color:red; font-size: 70px;'>错误! </span>","null","","","","","","","","","","","","","","","","","","","","","","","feedback_test"
"","","","","","psychophysics","117","640301","0.0-7.1-0.1-0.52","57","","j","","","","","","","","","","","","","key","j","4.166762845849769","853.3333333333334","529.3333333333334","j","true","img/S_ambi40.png","生人","prac",""
"","","","","","html-keyboard-response","118","640812","0.0-7.1-0.1-1.52","null","<span style='color:yellow; font-size: 70px;'>过快! </span>","null","","","","","","","","","","","","","","","","","","","","","","","feedback_test"
"","","","","","psychophysics","119","642060","0.0-7.1-0.1-0.53","244","","f","","","","","","","","","","","","","key","f","4.166573825503634","853.3333333333334","529.3333333333334","f","true","img/S_ambi40.png","朋友","prac",""
"","","","","","html-keyboard-response","120","642572","0.0-7.1-0.1-1.53","null","<span style='color:GreenYellow; font-size: 70px;'>正确! </span>","null","","","","","","","","","","","","","","","","","","","","","","","feedback_test"
"","","","","","psychophysics","121","643726","0.0-7.1-0.1-0.54","152","","f","","","","","","","","","","","","","key","f","4.166630434782575","853.3333333333334","529.3333333333334","f","true","img/H_ambi40.png","生人","prac",""
"","","","","","html-keyboard-response","122","644239","0.0-7.1-0.1-1.54","null","<span style='color:yellow; font-size: 70px;'>过快! </span>","null","","","","","","","","","","","","","","","","","","","","","","","feedback_test"
"","","","","","psychophysics","123","645451","0.0-7.1-0.1-0.55","210","","j","","","","","","","","","","","","","key","j","4.16295501730118","853.3333333333334","529.3333333333334","f","false","img/S_ambi40.png","朋友","prac",""
"","","","","","html-keyboard-response","124","645965","0.0-7.1-0.1-1.55","null","<span style='color:red; font-size: 70px;'>错误! </span>","null","","","","","","","","","","","","","","","","","","","","","","","feedback_test"
"","","","","","psychophysics","125","647258","0.0-7.1-0.1-0.56","292","","f","","","","","","","","","","","","","key","f","4.166181229773388","853.3333333333334","529.3333333333334","j","false","img/T_ambi40.png","をる","prac",""
"","","","","","html-keyboard-response","126","647769","0.0-7.1-0.1-1.56","null","<span style='color:red; font-size: 70px;'>错误! </span>","null","","","","","","","","","","","","","","","","","","","","","","","feedback_test"
"","","","","","psychophysics","127","648967","0.0-7.1-0.1-0.57","196","","f","","","","","","","","","","","","","key","f","4.163821678321688","853.3333333333334","529.3333333333334","f","true","img/C_ambi40.png","自我","prac",""
"","","","","","html-keyboard-response","128","649475","0.0-7.1-0.1-1.57","null","<span style='color:yellow; font-size: 70px;'>过快! </span>","null","","","","","","","","","","","","","","","","","","","","","","","feedback_test"
"","","","","","psychophysics","129","650796","0.0-7.1-0.1-0.58","318","","f","","","","","","","","","","","","","key","f","4.166639240506131","853.3333333333334","529.3333333333334","j","false","img/T_ambi40.png","をる","prac",""
"","","","","","html-keyboard-response","130","651306","0.0-7.1-0.1-1.58","null","<span style='color:red; font-size: 70px;'>错误! </span>","null","","","","","","","","","","","","","","","","","","","","","","","feedback_test"
"","","","","","psychophysics","131","652628","0.0-7.1-0.1-0.59","320","","f","","","","","","","","","","","","","key","f","4.1665316455698385","853.3333333333334","529.3333333333334","f","true","img/H_ambi40.png","生人","prac",""
"","","","","","html-keyboard-response","132","653142","0.0-7.1-0.1-1.59","null","<span style='color:GreenYellow; font-size: 70px;'>正确! </span>","null","","","","","","","","","","","","","","","","","","","","","","","feedback_test"
"","","","","","psychophysics","133","654622","0.0-7.1-0.1-0.60","477","","f","","","","","","","","","","","","","key","f","4.166644067796852","853.3333333333334","529.3333333333334","j","false","img/S_ambi40.png","自我","prac",""
"","","","","","html-keyboard-response","134","655133","0.0-7.1-0.1-1.60","null","<span style='color:red; font-size: 70px;'>错误! </span>","null","","","","","","","","","","","","","","","","","","","","","","","feedback_test"
"","","","","","psychophysics","135","656313","0.0-7.1-0.1-0.61","176","","j","","","","","","","","","","","","","key","j","4.166663120567208","853.3333333333334","529.3333333333334","j","true","img/T_ambi40.png","をる","prac",""
"","","","","","html-keyboard-response","136","656828","0.0-7.1-0.1-1.61","null","<span style='color:yellow; font-size: 70px;'>过快! </span>","null","","","","","","","","","","","","","","","","","","","","","","","feedback_test"
"","","","","","psychophysics","137","659333","0.0-7.1-0.1-0.62","null","","null","","","","","","","","","","","","","key","null","4.166624373956723","853.3333333333334","529.3333333333334","j","false","img/H_ambi40.png","朋友","prac",""
"","","","","","html-keyboard-response","138","659837","0.0-7.1-0.1-1.62","null","<span class='add_' style='color:yellow; font-size: 70px;'> 太慢! </span>","null","","","","","","","","","","","","","","","","","","","","","","","feedback_test"
"","","","","","psychophysics","139","661168","0.0-7.1-0.1-0.63","327","","j","","","","","","","","","","","","","key","j","4.1666635220124295","853.3333333333334","529.3333333333334","f","false","img/C_ambi40.png","自我","prac",""
"","","","","","html-keyboard-response","140","661672","0.0-7.1-0.1-1.63","null","<span style='color:red; font-size: 70px;'>错误! </span>","null","","","","","","","","","","","","","","","","","","","","","","","feedback_test"
"","","","","","html-keyboard-response","141","668220","0.0-7.1-1.1-0.1","6546","<style>.context{color:white; font-size: 35px; line-height:40px}</style>                          <div><p class='context'>您正确回答了44% 的试次。</p ><p class='context'>您的平均反应时为155毫秒。</p >","f","","","","","","","","","","","","","","","","","","","","","","",""
"","","","","","instructions","142","686054","0.0-7.1-1.1-1.1","17834","","","","","","","","","","","","","","[{""page_index"":0,""viewing_time"":1086},{""page_index"":1,""viewing_time"":13929},{""page_index"":2,""viewing_time"":2819}]","","","","","","","","","","",""
"","","","","","psychophysics","143","687622","0.0-7.2-0.2-0.64","564","","f","","","","","","","","","","","","","key","f","4.1665360000000025","853.3333333333334","529.3333333333334","j","false","img/T_ambi40.png","をる","prac",""
"","","","","","html-keyboard-response","144","688134","0.0-7.2-0.2-1.64","null","<span style='color:red; font-size: 70px;'>错误! </span>","null","","","","","","","","","","","","","","","","","","","","","","","feedback_test"
"","","","","","psychophysics","145","689268","0.0-7.2-0.2-0.65","132","","f","","","","","","","","","","","","","key","f","4.166597785978024","853.3333333333334","529.3333333333334","j","false","img/C_ambi40.png","朋友","prac",""
"","","","","","html-keyboard-response","146","689771","0.0-7.2-0.2-1.65","null","<span style='color:yellow; font-size: 70px;'>过快! </span>","null","","","","","","","","","","","","","","","","","","","","","","","feedback_test"
"","","","","","psychophysics","147","691000","0.0-7.2-0.2-0.66","226","","j","","","","","","","","","","","","","key","j","4.166534013605477","853.3333333333334","529.3333333333334","j","true","img/T_ambi40.png","をる","prac",""
"","","","","","html-keyboard-response","148","691515","0.0-7.2-0.2-1.66","null","<span style='color:GreenYellow; font-size: 70px;'>正确! </span>","null","","","","","","","","","","","","","","","","","","","","","","","feedback_test"
"","","","","","psychophysics","149","692884","0.0-7.2-0.2-0.67","368","","f","","","","","","","","","","","","","key","f","4.163437308868556","853.3333333333334","529.3333333333334","j","false","img/T_ambi40.png","をる","prac",""
"","","","","","html-keyboard-response","150","693388","0.0-7.2-0.2-1.67","null","<span style='color:red; font-size: 70px;'>错误! </span>","null","","","","","","","","","","","","","","","","","","","","","","","feedback_test"
"","","","","","psychophysics","151","694627","0.0-7.2-0.2-0.68","236","","j","","","","","","","","","","","","","key","j","4.166675675675711","853.3333333333334","529.3333333333334","j","true","img/T_ambi40.png","をる","prac",""
"","","","","","html-keyboard-response","152","695134","0.0-7.2-0.2-1.68","null","<span style='color:GreenYellow; font-size: 70px;'>正确! </span>","null","","","","","","","","","","","","","","","","","","","","","","","feedback_test"
"","","","","","psychophysics","153","696451","0.0-7.2-0.2-0.69","315","","f","","","","","","","","","","","","","key","f","4.166625396825284","853.3333333333334","529.3333333333334","f","true","img/H_ambi40.png","生人","prac",""
"","","","","","html-keyboard-response","154","696957","0.0-7.2-0.2-1.69","null","<span style='color:GreenYellow; font-size: 70px;'>正确! </span>","null","","","","","","","","","","","","","","","","","","","","","","","feedback_test"
"","","","","","psychophysics","155","698342","0.0-7.2-0.2-0.70","385","","j","","","","","","","","","","","","","key","j","4.16408157099694","853.3333333333334","529.3333333333334","j","true","img/S_ambi40.png","自我","prac",""
"","","","","","html-keyboard-response","156","698850","0.0-7.2-0.2-1.70","null","<span style='color:GreenYellow; font-size: 70px;'>正确! </span>","null","","","","","","","","","","","","","","","","","","","","","","","feedback_test"
"","","","","","psychophysics","157","700212","0.0-7.2-0.2-0.71","359","","j","","","","","","","","","","","","","key","j","4.16666564417173","853.3333333333334","529.3333333333334","j","true","img/S_ambi40.png","生人","prac",""
"","","","","","html-keyboard-response","158","700723","0.0-7.2-0.2-1.71","null","<span style='color:GreenYellow; font-size: 70px;'>正确! </span>","null","","","","","","","","","","","","","","","","","","","","","","","feedback_test"
"","","","","","psychophysics","159","702026","0.0-7.2-0.2-0.72","302","","f","","","","","","","","","","","","","key","f","4.176761290322869","853.3333333333334","529.3333333333334","j","false","img/H_ambi40.png","朋友","prac",""
"","","","","","html-keyboard-response","160","702528","0.0-7.2-0.2-1.72","null","<span style='color:red; font-size: 70px;'>错误! </span>","null","","","","","","","","","","","","","","","","","","","","","","","feedback_test"
"","","","","","psychophysics","161","703758","0.0-7.2-0.2-0.73","225","","j","","","","","","","","","","","","","key","j","4.16668707483011","853.3333333333334","529.3333333333334","f","false","img/S_ambi40.png","朋友","prac",""
"","","","","","html-keyboard-response","162","704269","0.0-7.2-0.2-1.73","null","<span style='color:red; font-size: 70px;'>错误! </span>","null","","","","","","","","","","","","","","","","","","","","","","","feedback_test"
"","","","","","psychophysics","163","705656","0.0-7.2-0.2-0.74","386","","j","","","","","","","","","","","","","key","j","4.162661631419985","853.3333333333334","529.3333333333334","f","false","img/S_ambi40.png","朋友","prac",""
"","","","","","html-keyboard-response","164","706170","0.0-7.2-0.2-1.74","null","<span style='color:red; font-size: 70px;'>错误! </span>","null","","","","","","","","","","","","","","","","","","","","","","","feedback_test"
"","","","","","psychophysics","165","707498","0.0-7.2-0.2-0.75","326","","f","","","","","","","","","","","","","key","f","4.16658044164069","853.3333333333334","529.3333333333334","f","true","img/H_ambi40.png","生人","prac",""
"","","","","","html-keyboard-response","166","708005","0.0-7.2-0.2-1.75","null","<span style='color:GreenYellow; font-size: 70px;'>正确! </span>","null","","","","","","","","","","","","","","","","","","","","","","","feedback_test"
"","","","","","psychophysics","167","709386","0.0-7.2-0.2-0.76","378","","f","","","","","","","","","","","","","key","f","4.192012195121895","853.3333333333334","529.3333333333334","f","true","img/C_ambi40.png","自我","prac",""
"","","","","","html-keyboard-response","168","709895","0.0-7.2-0.2-1.76","null","<span style='color:GreenYellow; font-size: 70px;'>正确! </span>","null","","","","","","","","","","","","","","","","","","","","","","","feedback_test"
"","","","","","psychophysics","169","711292","0.0-7.2-0.2-0.77","396","","f","","","","","","","","","","","","","key","f","4.460551282051035","853.3333333333334","529.3333333333334","j","false","img/C_ambi40.png","生人","prac",""
"","","","","","html-keyboard-response","170","711804","0.0-7.2-0.2-1.77","null","<span style='color:red; font-size: 70px;'>错误! </span>","null","","","","","","","","","","","","","","","","","","","","","","","feedback_test"
"","","","","","psychophysics","171","713268","0.0-7.2-0.2-0.78","461","","j","","","","","","","","","","","","","key","j","4.166677142857308","853.3333333333334","529.3333333333334","j","true","img/H_ambi40.png","自我","prac",""
"","","","","","html-keyboard-response","172","713770","0.0-7.2-0.2-1.78","null","<span style='color:GreenYellow; font-size: 70px;'>正确! </span>","null","","","","","","","","","","","","","","","","","","","","","","","feedback_test"
"","","","","","psychophysics","173","715159","0.0-7.2-0.2-0.79","388","","f","","","","","","","","","","","","","key","f","4.16663554216895","853.3333333333334","529.3333333333334","f","true","img/C_ambi40.png","自我","prac",""
"","","","","","html-keyboard-response","174","715672","0.0-7.2-0.2-1.79","null","<span style='color:GreenYellow; font-size: 70px;'>正确! </span>","null","","","","","","","","","","","","","","","","","","","","","","","feedback_test"
"","","","","","psychophysics","175","717341","0.0-7.2-0.2-0.80","667","","j","","","","","","","","","","","","","key","j","4.166686716791765","853.3333333333334","529.3333333333334","j","true","img/S_ambi40.png","自我","prac",""
"","","","","","html-keyboard-response","176","717843","0.0-7.2-0.2-1.80","null","<span style='color:GreenYellow; font-size: 70px;'>正确! </span>","null","","","","","","","","","","","","","","","","","","","","","","","feedback_test"
"","","","","","psychophysics","177","719398","0.0-7.2-0.2-0.81","553","","f","","","","","","","","","","","","","key","f","4.166629032258155","853.3333333333334","529.3333333333334","j","false","img/H_ambi40.png","朋友","prac",""
"","","","","","html-keyboard-response","178","719911","0.0-7.2-0.2-1.81","null","<span style='color:red; font-size: 70px;'>错误! </span>","null","","","","","","","","","","","","","","","","","","","","","","","feedback_test"
"","","","","","psychophysics","179","721407","0.0-7.2-0.2-0.82","495","","j","","","","","","","","","","","","","key","j","4.16441456582632","853.3333333333334","529.3333333333334","f","false","img/H_ambi40.png","生人","prac",""
"","","","","","html-keyboard-response","180","721919","0.0-7.2-0.2-1.82","null","<span style='color:red; font-size: 70px;'>错误! </span>","null","","","","","","","","","","","","","","","","","","","","","","","feedback_test"
"","","","","","psychophysics","181","723594","0.0-7.2-0.2-0.83","674","","f","","","","","","","","","","","","","key","f","4.163234999999986","853.3333333333334","529.3333333333334","j","false","img/C_ambi40.png","朋友","prac",""
"","","","","","html-keyboard-response","182","724103","0.0-7.2-0.2-1.83","null","<span style='color:red; font-size: 70px;'>错误! </span>","null","","","","","","","","","","","","","","","","","","","","","","","feedback_test"
"","","","","","psychophysics","183","725830","0.0-7.2-0.2-0.84","723","","j","","","","","","","","","","","","","key","j","4.166658595641545","853.3333333333334","529.3333333333334","j","true","img/C_ambi40.png","生人","prac",""
"","","","","","html-keyboard-response","184","726338","0.0-7.2-0.2-1.84","null","<span style='color:GreenYellow; font-size: 70px;'>正确! </span>","null","","","","","","","","","","","","","","","","","","","","","","","feedback_test"
"","","","","","psychophysics","185","728168","0.0-7.2-0.2-0.85","828","","f","","","","","","","","","","","","","key","f","4.1666278538812955","853.3333333333334","529.3333333333334","j","false","img/T_ambi40.png","をる","prac",""
"","","","","","html-keyboard-response","186","728672","0.0-7.2-0.2-1.85","null","<span style='color:red; font-size: 70px;'>错误! </span>","null","","","","","","","","","","","","","","","","","","","","","","","feedback_test"
"","","","","","psychophysics","187","730602","0.0-7.2-0.2-0.86","928","","j","","","","","","","","","","","","","key","j","4.166660173160369","853.3333333333334","529.3333333333334","f","false","img/S_ambi40.png","朋友","prac",""
"","","","","","html-keyboard-response","188","731114","0.0-7.2-0.2-1.86","null","<span style='color:red; font-size: 70px;'>错误! </span>","null","","","","","","","","","","","","","","","","","","","","","","","feedback_test"
"","","","","","psychophysics","189","732639","0.0-7.2-0.2-0.87","523","","f","","","","","","","","","","","","","key","f","4.166616438356011","853.3333333333334","529.3333333333334","f","true","img/C_ambi40.png","自我","prac",""
"","","","","","html-keyboard-response","190","733153","0.0-7.2-0.2-1.87","null","<span style='color:GreenYellow; font-size: 70px;'>正确! </span>","null","","","","","","","","","","","","","","","","","","","","","","","feedback_test"
"","","","","","psychophysics","191","735198","0.0-7.2-0.2-0.88","1044","","j","","","","","","","","","","","","","key","j","4.166588957055333","853.3333333333334","529.3333333333334","j","true","img/T_ambi40.png","をる","prac",""
"","","","","","html-keyboard-response","192","735704","0.0-7.2-0.2-1.88","null","<span style='color:GreenYellow; font-size: 70px;'>正确! </span>","null","","","","","","","","","","","","","","","","","","","","","","","feedback_test"
"","","","","","psychophysics","193","738078","0.0-7.2-0.2-0.89","1374","","f","","","","","","","","","","","","","key","f","4.166616197183161","853.3333333333334","529.3333333333334","j","false","img/S_ambi40.png","生人","prac",""
"","","","","","html-keyboard-response","194","738585","0.0-7.2-0.2-1.89","null","<span style='color:red; font-size: 70px;'>错误! </span>","null","","","","","","","","","","","","","","","","","","","","","","","feedback_test"
"","","","","","psychophysics","195","740115","0.0-7.2-0.2-0.90","530","","f","","","","","","","","","","","","","key","f","4.161624657534293","853.3333333333334","529.3333333333334","f","true","img/C_ambi40.png","自我","prac",""
"","","","","","html-keyboard-response","196","740617","0.0-7.2-0.2-1.90","null","<span style='color:GreenYellow; font-size: 70px;'>正确! </span>","null","","","","","","","","","","","","","","","","","","","","","","","feedback_test"
"","","","","","psychophysics","197","742608","0.0-7.2-0.2-0.91","991","","j","","","","","","","","","","","","","key","j","4.166633123689842","853.3333333333334","529.3333333333334","f","false","img/H_ambi40.png","生人","prac",""
"","","","","","html-keyboard-response","198","743115","0.0-7.2-0.2-1.91","null","<span style='color:red; font-size: 70px;'>错误! </span>","null","","","","","","","","","","","","","","","","","","","","","","","feedback_test"
"","","","","","psychophysics","199","744893","0.0-7.2-0.2-0.92","777","","j","","","","","","","","","","","","","key","j","4.166623529411633","853.3333333333334","529.3333333333334","j","true","img/H_ambi40.png","自我","prac",""
"","","","","","html-keyboard-response","200","745394","0.0-7.2-0.2-1.92","null","<span style='color:GreenYellow; font-size: 70px;'>正确! </span>","null","","","","","","","","","","","","","","","","","","","","","","","feedback_test"
"","","","","","psychophysics","201","747178","0.0-7.2-0.2-0.93","784","","f","","","","","","","","","","","","","key","f","4.16665807962543","853.3333333333334","529.3333333333334","j","false","img/T_ambi40.png","をる","prac",""
"","","","","","html-keyboard-response","202","747684","0.0-7.2-0.2-1.93","null","<span style='color:red; font-size: 70px;'>错误! </span>","null","","","","","","","","","","","","","","","","","","","","","","","feedback_test"
"","","","","","psychophysics","203","749718","0.0-7.2-0.2-0.94","1033","","f","","","","","","","","","","","","","key","f","4.166593429158218","853.3333333333334","529.3333333333334","f","true","img/S_ambi40.png","朋友","prac",""
"","","","","","html-keyboard-response","204","750223","0.0-7.2-0.2-1.94","null","<span style='color:GreenYellow; font-size: 70px;'>正确! </span>","null","","","","","","","","","","","","","","","","","","","","","","","feedback_test"
"","","","","","psychophysics","205","752075","0.0-7.2-0.2-0.95","851","","f","","","","","","","","","","","","","key","f","4.1633024830699625","853.3333333333334","529.3333333333334","j","false","img/T_ambi40.png","をる","prac",""
"","","","","","html-keyboard-response","206","752588","0.0-7.2-0.2-1.95","null","<span style='color:red; font-size: 70px;'>错误! </span>","null","","","","","","","","","","","","","","","","","","","","","","","feedback_test"
"","","","","","html-keyboard-response","207","756396","0.0-7.2-1.2-0.2","3807","<style>.context{color:white; font-size: 35px; line-height:40px}</style>                          <div><p class='context'>您正确回答了50% 的试次。</p ><p class='context'>您的平均反应时为523毫秒。</p >","f","","","","","","","","","","","","","","","","","","","","","","",""
"","","","","","instructions","208","771067","0.0-7.2-1.2-1.2","14669","","","","","","","","","","","","","","[{""page_index"":0,""viewing_time"":1130},{""page_index"":1,""viewing_time"":11816},{""page_index"":2,""viewing_time"":1723}]","","","","","","","","","","",""
"","","","","","psychophysics","209","772908","0.0-7.3-0.3-0.96","840","","j","","","","","","","","","","","","","key","j","4.166569160997589","853.3333333333334","529.3333333333334","j","true","img/T_ambi40.png","をる","prac",""
"","","","","","html-keyboard-response","210","773412","0.0-7.3-0.3-1.96","null","<span style='color:GreenYellow; font-size: 70px;'>正确! </span>","null","","","","","","","","","","","","","","","","","","","","","","","feedback_test"
"","","","","","psychophysics","211","775058","0.0-7.3-0.3-0.97","643","","j","","","","","","","","","","","","","key","j","4.166631979695556","853.3333333333334","529.3333333333334","j","true","img/S_ambi40.png","生人","prac",""
"","","","","","html-keyboard-response","212","775567","0.0-7.3-0.3-1.97","null","<span style='color:GreenYellow; font-size: 70px;'>正确! </span>","null","","","","","","","","","","","","","","","","","","","","","","","feedback_test"
"","","","","","psychophysics","213","777327","0.0-7.3-0.3-0.98","758","","j","","","","","","","","","","","","","key","j","4.166548693586625","853.3333333333334","529.3333333333334","f","false","img/S_ambi40.png","朋友","prac",""
"","","","","","html-keyboard-response","214","777832","0.0-7.3-0.3-1.98","null","<span style='color:red; font-size: 70px;'>错误! </span>","null","","","","","","","","","","","","","","","","","","","","","","","feedback_test"
"","","","","","psychophysics","215","779260","0.0-7.3-0.3-0.99","424","","f","","","","","","","","","","","","","key","f","4.166621700880019","853.3333333333334","529.3333333333334","f","true","img/C_ambi40.png","自我","prac",""
"","","","","","html-keyboard-response","216","779771","0.0-7.3-0.3-1.99","null","<span style='color:GreenYellow; font-size: 70px;'>正确! </span>","null","","","","","","","","","","","","","","","","","","","","","","","feedback_test"
"","","","","","psychophysics","217","781451","0.0-7.3-0.3-0.100","678","","f","","","","","","","","","","","","","key","f","4.166552238806037","853.3333333333334","529.3333333333334","j","false","img/T_ambi40.png","をる","prac",""
"","","","","","html-keyboard-response","218","781964","0.0-7.3-0.3-1.100","null","<span style='color:red; font-size: 70px;'>错误! </span>","null","","","","","","","","","","","","","","","","","","","","","","","feedback_test"
"","","","","","psychophysics","219","783574","0.0-7.3-0.3-0.101","608","","j","","","","","","","","","","","","","key","j","4.1666441558439935","853.3333333333334","529.3333333333334","f","false","img/H_ambi40.png","生人","prac",""
"","","","","","html-keyboard-response","220","784084","0.0-7.3-0.3-1.101","null","<span style='color:red; font-size: 70px;'>错误! </span>","null","","","","","","","","","","","","","","","","","","","","","","","feedback_test"
"","","","","","psychophysics","221","785771","0.0-7.3-0.3-0.102","685","","j","","","","","","","","","","","","","key","j","4.1620645161288286","853.3333333333334","529.3333333333334","j","true","img/C_ambi40.png","生人","prac",""
"","","","","","html-keyboard-response","222","786277","0.0-7.3-0.3-1.102","null","<span style='color:GreenYellow; font-size: 70px;'>正确! </span>","null","","","","","","","","","","","","","","","","","","","","","","","feedback_test"
"","","","","","psychophysics","223","787962","0.0-7.3-0.3-0.103","683","","j","","","","","","","","","","","","","key","j","4.166622828784059","853.3333333333334","529.3333333333334","j","true","img/C_ambi40.png","朋友","prac",""
"","","","","","html-keyboard-response","224","788466","0.0-7.3-0.3-1.103","null","<span style='color:GreenYellow; font-size: 70px;'>正确! </span>","null","","","","","","","","","","","","","","","","","","","","","","","feedback_test"
"","","","","","psychophysics","225","790562","0.0-7.3-0.3-0.104","1093","","j","","","","","","","","","","","","","key","j","4.16659163346605","853.3333333333334","529.3333333333334","j","true","img/H_ambi40.png","朋友","prac",""
"","","","","","html-keyboard-response","226","791066","0.0-7.3-0.3-1.104","null","<span style='color:GreenYellow; font-size: 70px;'>正确! </span>","null","","","","","","","","","","","","","","","","","","","","","","","feedback_test"
"","","","","","psychophysics","227","792639","0.0-7.3-0.3-0.105","570","","f","","","","","","","","","","","","","key","f","4.16664361702142","853.3333333333334","529.3333333333334","f","true","img/C_ambi40.png","自我","prac",""
"","","","","","html-keyboard-response","228","793148","0.0-7.3-0.3-1.105","null","<span style='color:GreenYellow; font-size: 70px;'>正确! </span>","null","","","","","","","","","","","","","","","","","","","","","","","feedback_test"
"","","","","","psychophysics","229","794788","0.0-7.3-0.3-0.106","635","","j","","","","","","","","","","","","","key","j","4.166647959183676","853.3333333333334","529.3333333333334","j","true","img/T_ambi40.png","をる","prac",""
"","","","","","html-keyboard-response","230","795294","0.0-7.3-0.3-1.106","null","<span style='color:GreenYellow; font-size: 70px;'>正确! </span>","null","","","","","","","","","","","","","","","","","","","","","","","feedback_test"
"","","","","","psychophysics","231","796986","0.0-7.3-0.3-0.107","688","","j","","","","","","","","","","","","","key","j","4.1666014851483","853.3333333333334","529.3333333333334","f","false","img/H_ambi40.png","生人","prac",""
"","","","","","html-keyboard-response","232","797488","0.0-7.3-0.3-1.107","null","<span style='color:red; font-size: 70px;'>错误! </span>","null","","","","","","","","","","","","","","","","","","","","","","","feedback_test"
"","","","","","psychophysics","233","798986","0.0-7.3-0.3-0.108","496","","j","","","","","","","","","","","","","key","j","4.166578212290529","853.3333333333334","529.3333333333334","j","true","img/S_ambi40.png","自我","prac",""
"","","","","","html-keyboard-response","234","799487","0.0-7.3-0.3-1.108","null","<span style='color:GreenYellow; font-size: 70px;'>正确! </span>","null","","","","","","","","","","","","","","","","","","","","","","","feedback_test"
"","","","","","psychophysics","235","801508","0.0-7.3-0.3-0.109","1019","","f","","","","","","","","","","","","","key","f","4.166626033057845","853.3333333333334","529.3333333333334","f","true","img/S_ambi40.png","朋友","prac",""
"","","","","","html-keyboard-response","236","802024","0.0-7.3-0.3-1.109","null","<span style='color:GreenYellow; font-size: 70px;'>正确! </span>","null","","","","","","","","","","","","","","","","","","","","","","","feedback_test"
"","","","","","psychophysics","237","803529","0.0-7.3-0.3-0.110","502","","j","","","","","","","","","","","","","key","j","4.178752777777845","853.3333333333334","529.3333333333334","j","true","img/H_ambi40.png","自我","prac",""
"","","","","","html-keyboard-response","238","804045","0.0-7.3-0.3-1.110","null","<span style='color:GreenYellow; font-size: 70px;'>正确! </span>","null","","","","","","","","","","","","","","","","","","","","","","","feedback_test"
"","","","","","psychophysics","239","805713","0.0-7.3-0.3-0.111","665","","j","","","","","","","","","","","","","key","j","4.166626566416178","853.3333333333334","529.3333333333334","j","true","img/T_ambi40.png","をる","prac",""
"","","","","","html-keyboard-response","240","806226","0.0-7.3-0.3-1.111","null","<span style='color:GreenYellow; font-size: 70px;'>正确! </span>","null","","","","","","","","","","","","","","","","","","","","","","","feedback_test"
"","","","","","psychophysics","241","807820","0.0-7.3-0.3-0.112","592","","f","","","","","","","","","","","","","key","f","4.164451443569447","853.3333333333334","529.3333333333334","f","true","img/C_ambi40.png","自我","prac",""
"","","","","","html-keyboard-response","242","808326","0.0-7.3-0.3-1.112","null","<span style='color:GreenYellow; font-size: 70px;'>正确! </span>","null","","","","","","","","","","","","","","","","","","","","","","","feedback_test"
"","","","","","psychophysics","243","810287","0.0-7.3-0.3-0.113","959","","f","","","","","","","","","","","","","key","f","4.163942430703553","853.3333333333334","529.3333333333334","f","true","img/H_ambi40.png","生人","prac",""
"","","","","","html-keyboard-response","244","810801","0.0-7.3-0.3-1.113","null","<span style='color:GreenYellow; font-size: 70px;'>正确! </span>","null","","","","","","","","","","","","","","","","","","","","","","","feedback_test"
"","","","","","psychophysics","245","812562","0.0-7.3-0.3-0.114","760","","j","","","","","","","","","","","","","key","j","4.1619691211401735","853.3333333333334","529.3333333333334","j","true","img/C_ambi40.png","朋友","prac",""
"","","","","","html-keyboard-response","246","813077","0.0-7.3-0.3-1.114","null","<span style='color:GreenYellow; font-size: 70px;'>正确! </span>","null","","","","","","","","","","","","","","","","","","","","","","","feedback_test"
"","","","","","psychophysics","247","814662","0.0-7.3-0.3-0.115","581","","j","","","","","","","","","","","","","key","j","4.16660422163599","853.3333333333334","529.3333333333334","j","true","img/T_ambi40.png","をる","prac",""
"","","","","","html-keyboard-response","248","815165","0.0-7.3-0.3-1.115","null","<span style='color:GreenYellow; font-size: 70px;'>正确! </span>","null","","","","","","","","","","","","","","","","","","","","","","","feedback_test"
"","","","","","psychophysics","249","817128","0.0-7.3-0.3-0.116","960","","f","","","","","","","","","","","","","key","f","4.166625531914922","853.3333333333334","529.3333333333334","f","true","img/S_ambi40.png","朋友","prac",""
"","","","","","html-keyboard-response","250","817644","0.0-7.3-0.3-1.116","null","<span style='color:GreenYellow; font-size: 70px;'>正确! </span>","null","","","","","","","","","","","","","","","","","","","","","","","feedback_test"
"","","","","","psychophysics","251","819183","0.0-7.3-0.3-0.117","536","","j","","","","","","","","","","","","","key","j","4.166913043478258","853.3333333333334","529.3333333333334","j","true","img/T_ambi40.png","をる","prac",""
"","","","","","html-keyboard-response","252","819694","0.0-7.3-0.3-1.117","null","<span style='color:GreenYellow; font-size: 70px;'>正确! </span>","null","","","","","","","","","","","","","","","","","","","","","","","feedback_test"
"","","","","","psychophysics","253","821370","0.0-7.3-0.3-0.118","672","","j","","","","","","","","","","","","","key","j","4.166620947631074","853.3333333333334","529.3333333333334","j","true","img/C_ambi40.png","生人","prac",""
"","","","","","html-keyboard-response","254","821875","0.0-7.3-0.3-1.118","null","<span style='color:GreenYellow; font-size: 70px;'>正确! </span>","null","","","","","","","","","","","","","","","","","","","","","","","feedback_test"
"","","","","","psychophysics","255","823584","0.0-7.3-0.3-0.119","707","","f","","","","","","","","","","","","","key","f","4.1666014669924145","853.3333333333334","529.3333333333334","f","true","img/S_ambi40.png","朋友","prac",""
"","","","","","html-keyboard-response","256","824093","0.0-7.3-0.3-1.119","null","<span style='color:GreenYellow; font-size: 70px;'>正确! </span>","null","","","","","","","","","","","","","","","","","","","","","","","feedback_test"
"","","","","","psychophysics","257","825575","0.0-7.3-0.3-0.120","481","","f","","","","","","","","","","","","","key","f","4.166629943502725","853.3333333333334","529.3333333333334","j","false","img/H_ambi40.png","朋友","prac",""
"","","","","","html-keyboard-response","258","826078","0.0-7.3-0.3-1.120","null","<span style='color:red; font-size: 70px;'>错误! </span>","null","","","","","","","","","","","","","","","","","","","","","","","feedback_test"
"","","","","","psychophysics","259","827645","0.0-7.3-0.3-0.121","564","","j","","","","","","","","","","","","","key","j","4.167130319148976","853.3333333333334","529.3333333333334","j","true","img/S_ambi40.png","自我","prac",""
"","","","","","html-keyboard-response","260","828152","0.0-7.3-0.3-1.121","null","<span style='color:GreenYellow; font-size: 70px;'>正确! </span>","null","","","","","","","","","","","","","","","","","","","","","","","feedback_test"
"","","","","","psychophysics","261","829566","0.0-7.3-0.3-0.122","413","","j","","","","","","","","","","","","","key","j","4.16661538461536","853.3333333333334","529.3333333333334","j","true","img/H_ambi40.png","自我","prac",""
"","","","","","html-keyboard-response","262","830073","0.0-7.3-0.3-1.122","null","<span style='color:GreenYellow; font-size: 70px;'>正确! </span>","null","","","","","","","","","","","","","","","","","","","","","","","feedback_test"
"","","","","","psychophysics","263","831820","0.0-7.3-0.3-0.123","745","","j","","","","","","","","","","","","","key","j","4.166601918465223","853.3333333333334","529.3333333333334","f","false","img/H_ambi40.png","生人","prac",""
"","","","","","html-keyboard-response","264","832333","0.0-7.3-0.3-1.123","null","<span style='color:red; font-size: 70px;'>错误! </span>","null","","","","","","","","","","","","","","","","","","","","","","","feedback_test"
"","","","","","psychophysics","265","833713","0.0-7.3-0.3-0.124","379","","f","","","","","","","","","","","","","key","f","4.166706060606168","853.3333333333334","529.3333333333334","f","true","img/C_ambi40.png","自我","prac",""
"","","","","","html-keyboard-response","266","834217","0.0-7.3-0.3-1.124","null","<span style='color:GreenYellow; font-size: 70px;'>正确! </span>","null","","","","","","","","","","","","","","","","","","","","","","","feedback_test"
"","","","","","psychophysics","267","835705","0.0-7.3-0.3-0.125","487","","j","","","","","","","","","","","","","key","j","4.163326760563462","853.3333333333334","529.3333333333334","j","true","img/S_ambi40.png","生人","prac",""
"","","","","","html-keyboard-response","268","836209","0.0-7.3-0.3-1.125","null","<span style='color:GreenYellow; font-size: 70px;'>正确! </span>","null","","","","","","","","","","","","","","","","","","","","","","","feedback_test"
"","","","","","psychophysics","269","837691","0.0-7.3-0.3-0.126","481","","j","","","","","","","","","","","","","key","j","4.166697740113155","853.3333333333334","529.3333333333334","j","true","img/T_ambi40.png","をる","prac",""
"","","","","","html-keyboard-response","270","838205","0.0-7.3-0.3-1.126","null","<span style='color:GreenYellow; font-size: 70px;'>正确! </span>","null","","","","","","","","","","","","","","","","","","","","","","","feedback_test"
"","","","","","psychophysics","271","839671","0.0-7.3-0.3-0.127","465","","j","","","","","","","","","","","","","key","j","4.166640000000064","853.3333333333334","529.3333333333334","j","true","img/T_ambi40.png","をる","prac",""
"","","","","","html-keyboard-response","272","840185","0.0-7.3-0.3-1.127","null","<span style='color:GreenYellow; font-size: 70px;'>正确! </span>","null","","","","","","","","","","","","","","","","","","","","","","","feedback_test"
"","","","","","html-keyboard-response","273","845584","0.0-8.0","5398","<style>.context{color:white; font-size: 35px; line-height:40px}</style>                          <div><p class='context'>您正确回答了81% 的试次。</p ><p class='context'>您的平均反应时为647毫秒。</p ><p class='context'>恭喜您完成练习。按任意键进入正式实验。</p ><p class='footer' style='font-size: 35px; line-height:40px;'>请在进入正式实验实验之前将您的<span style='color: lightgreen;'>食指</span>放在电脑键盘的相应键位上进行按键。</p >","f","","","","","","","","","","","","","","","","","","","","","","",""
"","","","","","psychophysics","274","847053","0.0-9.0-0.0-0.0-0.0-0.0","464","","j","","","","","","","","","","","","","key","j","4.162464387464454","853.3333333333334","529.3333333333334","f","false","img/H_ambi40.png","生人","same",""
"","","","","","html-keyboard-response","275","847560","0.0-9.0-0.0-0.0-0.0-1.0","null","<span style='color:red; font-size: 70px;'>错误! </span>","null","","","","","","","","","","","","","","","","","","","","","","","feedback_test"
"","","","","","psychophysics","276","849043","0.0-9.0-0.0-0.0-0.0-0.1","479","","f","","","","","","","","","","","","","key","f","4.166615819208927","853.3333333333334","529.3333333333334","j","false","img/H_ambi40.png","自我","same",""
"","","","","","html-keyboard-response","277","849550","0.0-9.0-0.0-0.0-0.0-1.1","null","<span style='color:red; font-size: 70px;'>错误! </span>","null","","","","","","","","","","","","","","","","","","","","","","","feedback_test"
"","","","","","psychophysics","278","851197","0.0-9.0-0.0-0.0-0.0-0.2","646","","j","","","","","","","","","","","","","key","j","4.162819338422422","853.3333333333334","529.3333333333334","j","true","img/C_ambi40.png","生人","same",""
"","","","","","html-keyboard-response","279","851698","0.0-9.0-0.0-0.0-0.0-1.2","null","<span style='color:GreenYellow; font-size: 70px;'>正确! </span>","null","","","","","","","","","","","","","","","","","","","","","","","feedback_test"
"","","","","","psychophysics","280","853320","0.0-9.0-0.0-0.0-0.0-0.3","618","","j","","","","","","","","","","","","","key","j","4.166559278350515","853.3333333333334","529.3333333333334","f","false","img/H_ambi40.png","生人","same",""
"","","","","","html-keyboard-response","281","853830","0.0-9.0-0.0-0.0-0.0-1.3","null","<span style='color:red; font-size: 70px;'>错误! </span>","null","","","","","","","","","","","","","","","","","","","","","","","feedback_test"
"","","","","","psychophysics","282","855337","0.0-9.0-0.0-0.0-0.0-0.4","507","","j","","","","","","","","","","","","","key","j","4.166736111111176","853.3333333333334","529.3333333333334","f","false","img/H_ambi40.png","生人","same",""
"","","","","","html-keyboard-response","283","855848","0.0-9.0-0.0-0.0-0.0-1.4","null","<span style='color:red; font-size: 70px;'>错误! </span>","null","","","","","","","","","","","","","","","","","","","","","","","feedback_test"
"","","","","","psychophysics","284","857352","0.0-9.0-0.0-0.0-0.0-0.5","501","","f","","","","","","","","","","","","","key","f","4.166613888888969","853.3333333333334","529.3333333333334","j","false","img/H_ambi40.png","朋友","same",""
"","","","","","html-keyboard-response","285","857854","0.0-9.0-0.0-0.0-0.0-1.5","null","<span style='color:red; font-size: 70px;'>错误! </span>","null","","","","","","","","","","","","","","","","","","","","","","","feedback_test"
"","","","","","psychophysics","286","859637","0.0-9.0-0.0-0.0-0.0-0.6","782","","f","","","","","","","","","","","","","key","f","4.166608899297406","853.3333333333334","529.3333333333334","j","false","img/S_ambi40.png","生人","same",""
"","","","","","html-keyboard-response","287","860138","0.0-9.0-0.0-0.0-0.0-1.6","null","<span style='color:red; font-size: 70px;'>错误! </span>","null","","","","","","","","","","","","","","","","","","","","","","","feedback_test"
"","","","","","psychophysics","288","861721","0.0-9.0-0.0-0.0-0.0-0.7","582","","j","","","","","","","","","","","","","key","j","4.163637566137517","853.3333333333334","529.3333333333334","j","true","img/T_ambi40.png","をる","same",""
"","","","","","html-keyboard-response","289","862224","0.0-9.0-0.0-0.0-0.0-1.7","null","<span style='color:GreenYellow; font-size: 70px;'>正确! </span>","null","","","","","","","","","","","","","","","","","","","","","","","feedback_test"
"","","","","","psychophysics","290","863811","0.0-9.0-0.0-0.0-0.0-0.8","585","","j","","","","","","","","","","","","","key","j","4.166684210526537","853.3333333333334","529.3333333333334","j","true","img/T_ambi40.png","をる","same",""
"","","","","","html-keyboard-response","291","864321","0.0-9.0-0.0-0.0-0.0-1.8","null","<span style='color:GreenYellow; font-size: 70px;'>正确! </span>","null","","","","","","","","","","","","","","","","","","","","","","","feedback_test"
"","","","","","psychophysics","292","866070","0.0-9.0-0.0-0.0-0.0-0.9","748","","f","","","","","","","","","","","","","key","f","4.166593301435543","853.3333333333334","529.3333333333334","f","true","img/S_ambi40.png","朋友","same",""
"","","","","","html-keyboard-response","293","866575","0.0-9.0-0.0-0.0-0.0-1.9","null","<span style='color:GreenYellow; font-size: 70px;'>正确! </span>","null","","","","","","","","","","","","","","","","","","","","","","","feedback_test"
"","","","","","psychophysics","294","868254","0.0-9.0-0.0-0.0-0.0-0.10","678","","j","","","","","","","","","","","","","key","j","4.163344139650992","853.3333333333334","529.3333333333334","j","true","img/S_ambi40.png","自我","same",""
"","","","","","html-keyboard-response","295","868767","0.0-9.0-0.0-0.0-0.0-1.10","null","<span style='color:GreenYellow; font-size: 70px;'>正确! </span>","null","","","","","","","","","","","","","","","","","","","","","","","feedback_test"
"","","","","","psychophysics","296","870240","0.0-9.0-0.0-0.0-0.0-0.11","472","","f","","","","","","","","","","","","","key","f","4.163017045454498","853.3333333333334","529.3333333333334","f","true","img/C_ambi40.png","自我","same",""
"","","","","","html-keyboard-response","297","870751","0.0-9.0-0.0-0.0-0.0-1.11","null","<span style='color:GreenYellow; font-size: 70px;'>正确! </span>","null","","","","","","","","","","","","","","","","","","","","","","","feedback_test"
"","","","","","psychophysics","298","872357","0.0-9.0-0.0-0.0-0.0-0.12","602","","f","","","","","","","","","","","","","key","f","4.166513020833311","853.3333333333334","529.3333333333334","f","true","img/C_ambi40.png","自我","same",""
"","","","","","html-keyboard-response","299","872865","0.0-9.0-0.0-0.0-0.0-1.12","null","<span style='color:GreenYellow; font-size: 70px;'>正确! </span>","null","","","","","","","","","","","","","","","","","","","","","","","feedback_test"
"","","","","","psychophysics","300","874449","0.0-9.0-0.0-0.0-0.0-0.13","581","","f","","","","","","","","","","","","","key","f","4.166514511873496","853.3333333333334","529.3333333333334","j","false","img/C_ambi40.png","朋友","same",""
"","","","","","html-keyboard-response","301","874955","0.0-9.0-0.0-0.0-0.0-1.13","null","<span style='color:red; font-size: 70px;'>错误! </span>","null","","","","","","","","","","","","","","","","","","","","","","","feedback_test"
"","","","","","psychophysics","302","876665","0.0-9.0-0.0-0.0-0.0-0.14","709","","f","","","","","","","","","","","","","key","f","4.166508557457103","853.3333333333334","529.3333333333334","f","true","img/S_ambi40.png","朋友","same",""
"","","","","","html-keyboard-response","303","877181","0.0-9.0-0.0-0.0-0.0-1.14","null","<span style='color:GreenYellow; font-size: 70px;'>正确! </span>","null","","","","","","","","","","","","","","","","","","","","","","","feedback_test"
"","","","","","psychophysics","304","878740","0.0-9.0-0.0-0.0-0.0-0.15","556","","f","","","","","","","","","","","","","key","f","4.166648793565771","853.3333333333334","529.3333333333334","f","true","img/S_ambi40.png","朋友","same",""
"","","","","","html-keyboard-response","305","879248","0.0-9.0-0.0-0.0-0.0-1.15","null","<span style='color:GreenYellow; font-size: 70px;'>正确! </span>","null","","","","","","","","","","","","","","","","","","","","","","","feedback_test"
"","","","","","psychophysics","306","880629","0.0-9.0-0.0-0.0-0.0-0.16","378","","j","","","","","","","","","","","","","key","j","4.166627272727165","853.3333333333334","529.3333333333334","j","true","img/T_ambi40.png","をる","same",""
"","","","","","html-keyboard-response","307","881139","0.0-9.0-0.0-0.0-0.0-1.16","null","<span style='color:GreenYellow; font-size: 70px;'>正确! </span>","null","","","","","","","","","","","","","","","","","","","","","","","feedback_test"
"","","","","","psychophysics","308","882669","0.0-9.0-0.0-0.0-0.0-0.17","527","","f","","","","","","","","","","","","","key","f","4.166633879781136","853.3333333333334","529.3333333333334","f","true","img/C_ambi40.png","自我","same",""
"","","","","","html-keyboard-response","309","883175","0.0-9.0-0.0-0.0-0.0-1.17","null","<span style='color:GreenYellow; font-size: 70px;'>正确! </span>","null","","","","","","","","","","","","","","","","","","","","","","","feedback_test"
"","","","","","psychophysics","310","884786","0.0-9.0-0.0-0.0-0.0-0.18","606","","f","","","","","","","","","","","","","key","f","4.164361038960988","853.3333333333334","529.3333333333334","f","true","img/S_ambi40.png","朋友","same",""
"","","","","","html-keyboard-response","311","885292","0.0-9.0-0.0-0.0-0.0-1.18","null","<span style='color:GreenYellow; font-size: 70px;'>正确! </span>","null","","","","","","","","","","","","","","","","","","","","","","","feedback_test"
"","","","","","psychophysics","312","886686","0.0-9.0-0.0-0.0-0.0-0.19","393","","f","","","","","","","","","","","","","key","f","4.163579579579781","853.3333333333334","529.3333333333334","f","true","img/S_ambi40.png","朋友","same",""
"","","","","","html-keyboard-response","313","887189","0.0-9.0-0.0-0.0-0.0-1.19","null","<span style='color:GreenYellow; font-size: 70px;'>正确! </span>","null","","","","","","","","","","","","","","","","","","","","","","","feedback_test"
"","","","","","psychophysics","314","888612","0.0-9.0-0.0-0.0-0.0-0.20","419","","j","","","","","","","","","","","","","key","j","4.166935294117738","853.3333333333334","529.3333333333334","j","true","img/H_ambi40.png","朋友","same",""
"","","","","","html-keyboard-response","315","889114","0.0-9.0-0.0-0.0-0.0-1.20","null","<span style='color:GreenYellow; font-size: 70px;'>正确! </span>","null","","","","","","","","","","","","","","","","","","","","","","","feedback_test"
"","","","","","psychophysics","316","891197","0.0-9.0-0.0-0.0-0.0-0.21","1082","","f","","","","","","","","","","","","","key","f","4.1666044176705315","853.3333333333334","529.3333333333334","f","true","img/H_ambi40.png","生人","same",""
"","","","","","html-keyboard-response","317","891708","0.0-9.0-0.0-0.0-0.0-1.21","null","<span style='color:GreenYellow; font-size: 70px;'>正确! </span>","null","","","","","","","","","","","","","","","","","","","","","","","feedback_test"
"","","","","","psychophysics","318","893396","0.0-9.0-0.0-0.0-0.0-0.22","686","","f","","","","","","","","","","","","","key","f","4.164501240694775","853.3333333333334","529.3333333333334","f","true","img/H_ambi40.png","生人","same",""
"","","","","","html-keyboard-response","319","893901","0.0-9.0-0.0-0.0-0.0-1.22","null","<span style='color:GreenYellow; font-size: 70px;'>正确! </span>","null","","","","","","","","","","","","","","","","","","","","","","","feedback_test"
"","","","","","psychophysics","320","895550","0.0-9.0-0.0-0.0-0.0-0.23","644","","j","","","","","","","","","","","","","key","j","4.166878172588833","853.3333333333334","529.3333333333334","j","true","img/S_ambi40.png","自我","same",""
"","","","","","html-keyboard-response","321","896060","0.0-9.0-0.0-0.0-0.0-1.23","null","<span style='color:GreenYellow; font-size: 70px;'>正确! </span>","null","","","","","","","","","","","","","","","","","","","","","","","feedback_test"
"","","","","","psychophysics","322","897903","0.0-9.0-0.0-0.0-0.0-0.24","839","","j","","","","","","","","","","","","","key","j","4.16658049886608","853.3333333333334","529.3333333333334","j","true","img/S_ambi40.png","生人","same",""
"","","","","","html-keyboard-response","323","898413","0.0-9.0-0.0-0.0-0.0-1.24","null","<span style='color:GreenYellow; font-size: 70px;'>正确! </span>","null","","","","","","","","","","","","","","","","","","","","","","","feedback_test"
"","","","","","psychophysics","324","899942","0.0-9.0-0.0-0.0-0.0-0.25","528","","j","","","","","","","","","","","","","key","j","4.163208219178072","853.3333333333334","529.3333333333334","j","true","img/T_ambi40.png","をる","same",""
"","","","","","html-keyboard-response","325","900448","0.0-9.0-0.0-0.0-0.0-1.25","null","<span style='color:GreenYellow; font-size: 70px;'>正确! </span>","null","","","","","","","","","","","","","","","","","","","","","","","feedback_test"
"","","","","","psychophysics","326","902649","0.0-9.0-0.0-0.0-0.0-0.26","1197","","f","","","","","","","","","","","","","key","f","4.166597722960191","853.3333333333334","529.3333333333334","f","true","img/H_ambi40.png","生人","same",""
"","","","","","html-keyboard-response","327","903159","0.0-9.0-0.0-0.0-0.0-1.26","null","<span style='color:GreenYellow; font-size: 70px;'>正确! </span>","null","","","","","","","","","","","","","","","","","","","","","","","feedback_test"
"","","","","","psychophysics","328","904684","0.0-9.0-0.0-0.0-0.0-0.27","524","","j","","","","","","","","","","","","","key","j","4.166601648351438","853.3333333333334","529.3333333333334","j","true","img/T_ambi40.png","をる","same",""
"","","","","","html-keyboard-response","329","905200","0.0-9.0-0.0-0.0-0.0-1.27","null","<span style='color:GreenYellow; font-size: 70px;'>正确! </span>","null","","","","","","","","","","","","","","","","","","","","","","","feedback_test"
"","","","","","psychophysics","330","906863","0.0-9.0-0.0-0.0-0.0-0.28","662","","j","","","","","","","","","","","","","key","j","4.1620856423173755","853.3333333333334","529.3333333333334","j","true","img/T_ambi40.png","をる","same",""
"","","","","","html-keyboard-response","331","907372","0.0-9.0-0.0-0.0-0.0-1.28","null","<span style='color:GreenYellow; font-size: 70px;'>正确! </span>","null","","","","","","","","","","","","","","","","","","","","","","","feedback_test"
"","","","","","psychophysics","332","908845","0.0-9.0-0.0-0.0-0.0-0.29","472","","f","","","","","","","","","","","","","key","f","4.166480113636433","853.3333333333334","529.3333333333334","f","true","img/C_ambi40.png","自我","same",""
"","","","","","html-keyboard-response","333","909348","0.0-9.0-0.0-0.0-0.0-1.29","null","<span style='color:GreenYellow; font-size: 70px;'>正确! </span>","null","","","","","","","","","","","","","","","","","","","","","","","feedback_test"
"","","","","","psychophysics","334","911061","0.0-9.0-0.0-0.0-0.0-0.30","710","","f","","","","","","","","","","","","","key","f","4.166641463414857","853.3333333333334","529.3333333333334","f","true","img/S_ambi40.png","朋友","same",""
"","","","","","html-keyboard-response","335","911563","0.0-9.0-0.0-0.0-0.0-1.30","null","<span style='color:GreenYellow; font-size: 70px;'>正确! </span>","null","","","","","","","","","","","","","","","","","","","","","","","feedback_test"
"","","","","","psychophysics","336","913024","0.0-9.0-0.0-0.0-0.0-0.31","460","","f","","","","","","","","","","","","","key","f","4.166487106017002","853.3333333333334","529.3333333333334","f","true","img/C_ambi40.png","自我","same",""
"","","","","","html-keyboard-response","337","913534","0.0-9.0-0.0-0.0-0.0-1.31","null","<span style='color:GreenYellow; font-size: 70px;'>正确! </span>","null","","","","","","","","","","","","","","","","","","","","","","","feedback_test"
"","","","","","psychophysics","338","915098","0.0-9.0-0.0-0.0-0.0-0.32","563","","f","","","","","","","","","","","","","key","f","4.162187165775546","853.3333333333334","529.3333333333334","j","false","img/C_ambi40.png","生人","same",""
"","","","","","html-keyboard-response","339","915611","0.0-9.0-0.0-0.0-0.0-1.32","null","<span style='color:red; font-size: 70px;'>错误! </span>","null","","","","","","","","","","","","","","","","","","","","","","","feedback_test"
"","","","","","psychophysics","340","917217","0.0-9.0-0.0-0.0-0.0-0.33","604","","f","","","","","","","","","","","","","key","f","4.166552083333045","853.3333333333334","529.3333333333334","j","false","img/C_ambi40.png","朋友","same",""
"","","","","","html-keyboard-response","341","917729","0.0-9.0-0.0-0.0-0.0-1.33","null","<span style='color:red; font-size: 70px;'>错误! </span>","null","","","","","","","","","","","","","","","","","","","","","","","feedback_test"
"","","","","","psychophysics","342","919086","0.0-9.0-0.0-0.0-0.0-0.34","356","","f","","","","","","","","","","","","","key","f","4.160953703703629","853.3333333333334","529.3333333333334","f","true","img/C_ambi40.png","自我","same",""
"","","","","","html-keyboard-response","343","919599","0.0-9.0-0.0-0.0-0.0-1.34","null","<span style='color:GreenYellow; font-size: 70px;'>正确! </span>","null","","","","","","","","","","","","","","","","","","","","","","","feedback_test"
"","","","","","psychophysics","344","921276","0.0-9.0-0.0-0.0-0.0-0.35","675","","j","","","","","","","","","","","","","key","j","4.166558603491074","853.3333333333334","529.3333333333334","j","true","img/H_ambi40.png","自我","same",""
"","","","","","html-keyboard-response","345","921776","0.0-9.0-0.0-0.0-0.0-1.35","null","<span style='color:GreenYellow; font-size: 70px;'>正确! </span>","null","","","","","","","","","","","","","","","","","","","","","","","feedback_test"
"","","","","","psychophysics","346","923200","0.0-9.0-0.0-0.0-0.0-0.36","420","","j","","","","","","","","","","","","","key","j","4.166655882353114","853.3333333333334","529.3333333333334","j","true","img/H_ambi40.png","朋友","same",""
"","","","","","html-keyboard-response","347","923715","0.0-9.0-0.0-0.0-0.0-1.36","null","<span style='color:GreenYellow; font-size: 70px;'>正确! </span>","null","","","","","","","","","","","","","","","","","","","","","","","feedback_test"
"","","","","","psychophysics","348","925650","0.0-9.0-0.0-0.0-0.0-0.37","934","","j","","","","","","","","","","","","","key","j","4.166611231101645","853.3333333333334","529.3333333333334","j","true","img/S_ambi40.png","生人","same",""
"","","","","","html-keyboard-response","349","926161","0.0-9.0-0.0-0.0-0.0-1.37","null","<span style='color:GreenYellow; font-size: 70px;'>正确! </span>","null","","","","","","","","","","","","","","","","","","","","","","","feedback_test"
"","","","","","psychophysics","350","927564","0.0-9.0-0.0-0.0-0.0-0.38","401","","f","","","","","","","","","","","","","key","f","4.166639880952495","853.3333333333334","529.3333333333334","f","true","img/C_ambi40.png","自我","same",""
"","","","","","html-keyboard-response","351","928077","0.0-9.0-0.0-0.0-0.0-1.38","null","<span style='color:GreenYellow; font-size: 70px;'>正确! </span>","null","","","","","","","","","","","","","","","","","","","","","","","feedback_test"
"","","","","","psychophysics","352","929603","0.0-9.0-0.0-0.0-0.0-0.39","523","","j","","","","","","","","","","","","","key","j","4.166556164383416","853.3333333333334","529.3333333333334","f","false","img/H_ambi40.png","生人","same",""
"","","","","","html-keyboard-response","353","930112","0.0-9.0-0.0-0.0-0.0-1.39","null","<span style='color:red; font-size: 70px;'>错误! </span>","null","","","","","","","","","","","","","","","","","","","","","","","feedback_test"
"","","","","","psychophysics","354","931749","0.0-9.0-0.0-0.0-0.0-0.40","636","","j","","","","","","","","","","","","","key","j","4.162734015345159","853.3333333333334","529.3333333333334","j","true","img/H_ambi40.png","自我","same",""
"","","","","","html-keyboard-response","355","932261","0.0-9.0-0.0-0.0-0.0-1.40","null","<span style='color:GreenYellow; font-size: 70px;'>正确! </span>","null","","","","","","","","","","","","","","","","","","","","","","","feedback_test"
"","","","","","psychophysics","356","933941","0.0-9.0-0.0-0.0-0.0-0.41","677","","j","","","","","","","","","","","","","key","j","4.166532338308448","853.3333333333334","529.3333333333334","j","true","img/S_ambi40.png","自我","same",""
"","","","","","html-keyboard-response","357","934453","0.0-9.0-0.0-0.0-0.0-1.41","null","<span style='color:GreenYellow; font-size: 70px;'>正确! </span>","null","","","","","","","","","","","","","","","","","","","","","","","feedback_test"
"","","","","","psychophysics","358","935906","0.0-9.0-0.0-0.0-0.0-0.42","451","","f","","","","","","","","","","","","","key","f","4.177456896551737","853.3333333333334","529.3333333333334","f","true","img/C_ambi40.png","自我","same",""
"","","","","","html-keyboard-response","359","936417","0.0-9.0-0.0-0.0-0.0-1.42","null","<span style='color:GreenYellow; font-size: 70px;'>正确! </span>","null","","","","","","","","","","","","","","","","","","","","","","","feedback_test"
"","","","","","psychophysics","360","937894","0.0-9.0-0.0-0.0-0.0-0.43","476","","j","","","","","","","","","","","","","key","j","4.16658356940511","853.3333333333334","529.3333333333334","j","true","img/T_ambi40.png","をる","same",""
"","","","","","html-keyboard-response","361","938410","0.0-9.0-0.0-0.0-0.0-1.43","null","<span style='color:GreenYellow; font-size: 70px;'>正确! </span>","null","","","","","","","","","","","","","","","","","","","","","","","feedback_test"
"","","","","","psychophysics","362","940240","0.0-9.0-0.0-0.0-0.0-0.44","826","","j","","","","","","","","","","","","","key","j","4.166605022831046","853.3333333333334","529.3333333333334","j","true","img/C_ambi40.png","朋友","same",""
"","","","","","html-keyboard-response","363","940750","0.0-9.0-0.0-0.0-0.0-1.44","null","<span style='color:GreenYellow; font-size: 70px;'>正确! </span>","null","","","","","","","","","","","","","","","","","","","","","","","feedback_test"
"","","","","","psychophysics","364","942681","0.0-9.0-0.0-0.0-0.0-0.45","931","","f","","","","","","","","","","","","","key","f","4.164487012987049","853.3333333333334","529.3333333333334","f","true","img/S_ambi40.png","朋友","same",""
"","","","","","html-keyboard-response","365","943194","0.0-9.0-0.0-0.0-0.0-1.45","null","<span style='color:GreenYellow; font-size: 70px;'>正确! </span>","null","","","","","","","","","","","","","","","","","","","","","","","feedback_test"
"","","","","","psychophysics","366","944853","0.0-9.0-0.0-0.0-0.0-0.46","656","","j","","","","","","","","","","","","","key","j","4.1669798488667125","853.3333333333334","529.3333333333334","j","true","img/C_ambi40.png","生人","same",""
"","","","","","html-keyboard-response","367","945355","0.0-9.0-0.0-0.0-0.0-1.46","null","<span style='color:GreenYellow; font-size: 70px;'>正确! </span>","null","","","","","","","","","","","","","","","","","","","","","","","feedback_test"
"","","","","","psychophysics","368","946800","0.0-9.0-0.0-0.0-0.0-0.47","440","","j","","","","","","","","","","","","","key","j","4.166640579710256","853.3333333333334","529.3333333333334","j","true","img/T_ambi40.png","をる","same",""
"","","","","","html-keyboard-response","369","947301","0.0-9.0-0.0-0.0-0.0-1.47","null","<span style='color:GreenYellow; font-size: 70px;'>正确! </span>","null","","","","","","","","","","","","","","","","","","","","","","","feedback_test"
"","","","","","psychophysics","370","949346","0.0-9.0-0.0-0.0-0.0-0.48","1044","","f","","","","","","","","","","","","","key","f","4.166685071574564","853.3333333333334","529.3333333333334","f","true","img/S_ambi40.png","朋友","same",""
"","","","","","html-keyboard-response","371","949859","0.0-9.0-0.0-0.0-0.0-1.48","null","<span style='color:GreenYellow; font-size: 70px;'>正确! </span>","null","","","","","","","","","","","","","","","","","","","","","","","feedback_test"
"","","","","","psychophysics","372","951340","0.0-9.0-0.0-0.0-0.0-0.49","481","","f","","","","","","","","","","","","","key","f","4.1667203389829695","853.3333333333334","529.3333333333334","f","true","img/C_ambi40.png","自我","same",""
"","","","","","html-keyboard-response","373","951845","0.0-9.0-0.0-0.0-0.0-1.49","null","<span style='color:GreenYellow; font-size: 70px;'>正确! </span>","null","","","","","","","","","","","","","","","","","","","","","","","feedback_test"
"","","","","","psychophysics","374","953304","0.0-9.0-0.0-0.0-0.0-0.50","457","","j","","","","","","","","","","","","","key","j","4.166633237822429","853.3333333333334","529.3333333333334","j","true","img/T_ambi40.png","をる","same",""
"","","","","","html-keyboard-response","375","953806","0.0-9.0-0.0-0.0-0.0-1.50","null","<span style='color:GreenYellow; font-size: 70px;'>正确! </span>","null","","","","","","","","","","","","","","","","","","","","","","","feedback_test"
"","","","","","psychophysics","376","955778","0.0-9.0-0.0-0.0-0.0-0.51","969","","f","","","","","","","","","","","","","key","f","4.166622881355826","853.3333333333334","529.3333333333334","f","true","img/H_ambi40.png","生人","same",""
"","","","","","html-keyboard-response","377","956287","0.0-9.0-0.0-0.0-0.0-1.51","null","<span style='color:GreenYellow; font-size: 70px;'>正确! </span>","null","","","","","","","","","","","","","","","","","","","","","","","feedback_test"
"","","","","","psychophysics","378","957982","0.0-9.0-0.0-0.0-0.0-0.52","693","","f","","","","","","","","","","","","","key","f","4.164461728394963","853.3333333333334","529.3333333333334","f","true","img/S_ambi40.png","朋友","same",""
"","","","","","html-keyboard-response","379","958482","0.0-9.0-0.0-0.0-0.0-1.52","null","<span style='color:GreenYellow; font-size: 70px;'>正确! </span>","null","","","","","","","","","","","","","","","","","","","","","","","feedback_test"
"","","","","","psychophysics","380","959996","0.0-9.0-0.0-0.0-0.0-0.53","511","","j","","","","","","","","","","","","","key","j","4.166643646409033","853.3333333333334","529.3333333333334","f","false","img/H_ambi40.png","生人","same",""
"","","","","","html-keyboard-response","381","960502","0.0-9.0-0.0-0.0-0.0-1.53","null","<span style='color:red; font-size: 70px;'>错误! </span>","null","","","","","","","","","","","","","","","","","","","","","","","feedback_test"
"","","","","","psychophysics","382","961938","0.0-9.0-0.0-0.0-0.0-0.54","433","","j","","","","","","","","","","","","","key","j","4.166615160349783","853.3333333333334","529.3333333333334","j","true","img/T_ambi40.png","をる","same",""
"","","","","","html-keyboard-response","383","962442","0.0-9.0-0.0-0.0-0.0-1.54","null","<span style='color:GreenYellow; font-size: 70px;'>正确! </span>","null","","","","","","","","","","","","","","","","","","","","","","","feedback_test"
"","","","","","psychophysics","384","963891","0.0-9.0-0.0-0.0-0.0-0.55","448","","f","","","","","","","","","","","","","key","f","4.163673410404439","853.3333333333334","529.3333333333334","j","false","img/S_ambi40.png","自我","same",""
"","","","","","html-keyboard-response","385","964404","0.0-9.0-0.0-0.0-0.0-1.55","null","<span style='color:red; font-size: 70px;'>错误! </span>","null","","","","","","","","","","","","","","","","","","","","","","","feedback_test"
"","","","","","psychophysics","386","965919","0.0-9.0-0.0-0.0-0.0-0.56","514","","f","","","","","","","","","","","","","key","f","4.163472375690677","853.3333333333334","529.3333333333334","f","true","img/C_ambi40.png","自我","same",""
"","","","","","html-keyboard-response","387","966430","0.0-9.0-0.0-0.0-0.0-1.56","null","<span style='color:GreenYellow; font-size: 70px;'>正确! </span>","null","","","","","","","","","","","","","","","","","","","","","","","feedback_test"
"","","","","","psychophysics","388","967932","0.0-9.0-0.0-0.0-0.0-0.57","498","","j","","","","","","","","","","","","","key","j","4.166651810584901","853.3333333333334","529.3333333333334","j","true","img/C_ambi40.png","朋友","same",""
"","","","","","html-keyboard-response","389","968440","0.0-9.0-0.0-0.0-0.0-1.57","null","<span style='color:GreenYellow; font-size: 70px;'>正确! </span>","null","","","","","","","","","","","","","","","","","","","","","","","feedback_test"
"","","","","","psychophysics","390","970034","0.0-9.0-0.0-0.0-0.0-0.58","591","","f","","","","","","","","","","","","","key","f","4.166619422572073","853.3333333333334","529.3333333333334","f","true","img/H_ambi40.png","生人","same",""
"","","","","","html-keyboard-response","391","970535","0.0-9.0-0.0-0.0-0.0-1.58","null","<span style='color:GreenYellow; font-size: 70px;'>正确! </span>","null","","","","","","","","","","","","","","","","","","","","","","","feedback_test"
"","","","","","psychophysics","392","972038","0.0-9.0-0.0-0.0-0.0-0.59","500","","f","","","","","","","","","","","","","key","f","4.166615598885638","853.3333333333334","529.3333333333334","f","true","img/C_ambi40.png","自我","same",""
"","","","","","html-keyboard-response","393","972553","0.0-9.0-0.0-0.0-0.0-1.59","null","<span style='color:GreenYellow; font-size: 70px;'>正确! </span>","null","","","","","","","","","","","","","","","","","","","","","","","feedback_test"
"","","","","","psychophysics","394","974344","0.0-9.0-0.0-0.0-0.0-0.60","789","","f","","","","","","","","","","","","","key","f","4.164238317756996","853.3333333333334","529.3333333333334","f","true","img/H_ambi40.png","生人","same",""
"","","","","","html-keyboard-response","395","974855","0.0-9.0-0.0-0.0-0.0-1.60","null","<span style='color:GreenYellow; font-size: 70px;'>正确! </span>","null","","","","","","","","","","","","","","","","","","","","","","","feedback_test"
"","","","","","psychophysics","396","976315","0.0-9.0-0.0-0.0-0.0-0.61","456","","j","","","","","","","","","","","","","key","j","4.166624641833816","853.3333333333334","529.3333333333334","j","true","img/T_ambi40.png","をる","same",""
"","","","","","html-keyboard-response","397","976829","0.0-9.0-0.0-0.0-0.0-1.61","null","<span style='color:GreenYellow; font-size: 70px;'>正确! </span>","null","","","","","","","","","","","","","","","","","","","","","","","feedback_test"
"","","","","","psychophysics","398","978420","0.0-9.0-0.0-0.0-0.0-0.62","590","","f","","","","","","","","","","","","","key","f","4.166634210526306","853.3333333333334","529.3333333333334","f","true","img/S_ambi40.png","朋友","same",""
"","","","","","html-keyboard-response","399","978930","0.0-9.0-0.0-0.0-0.0-1.62","null","<span style='color:GreenYellow; font-size: 70px;'>正确! </span>","null","","","","","","","","","","","","","","","","","","","","","","","feedback_test"
"","","","","","psychophysics","400","980494","0.0-9.0-0.0-0.0-0.0-0.63","560","","f","","","","","","","","","","","","","key","f","4.166951871657605","853.3333333333334","529.3333333333334","f","true","img/S_ambi40.png","朋友","same",""
"","","","","","html-keyboard-response","401","981001","0.0-9.0-0.0-0.0-0.0-1.63","null","<span style='color:GreenYellow; font-size: 70px;'>正确! </span>","null","","","","","","","","","","","","","","","","","","","","","","","feedback_test"
"","","","","","psychophysics","402","982532","0.0-9.0-0.0-0.0-0.0-0.64","527","","j","","","","","","","","","","","","","key","j","4.166592896175176","853.3333333333334","529.3333333333334","j","true","img/H_ambi40.png","自我","same",""
"","","","","","html-keyboard-response","403","983038","0.0-9.0-0.0-0.0-0.0-1.64","null","<span style='color:GreenYellow; font-size: 70px;'>正确! </span>","null","","","","","","","","","","","","","","","","","","","","","","","feedback_test"
"","","","","","psychophysics","404","984958","0.0-9.0-0.0-0.0-0.0-0.65","920","","f","","","","","","","","","","","","","key","f","4.166564270152461","853.3333333333334","529.3333333333334","f","true","img/H_ambi40.png","生人","same",""
"","","","","","html-keyboard-response","405","985472","0.0-9.0-0.0-0.0-0.0-1.65","null","<span style='color:GreenYellow; font-size: 70px;'>正确! </span>","null","","","","","","","","","","","","","","","","","","","","","","","feedback_test"
"","","","","","psychophysics","406","986962","0.0-9.0-0.0-0.0-0.0-0.66","487","","f","","","","","","","","","","","","","key","f","4.166629213483329","853.3333333333334","529.3333333333334","j","false","img/H_ambi40.png","朋友","same",""
"","","","","","html-keyboard-response","407","987466","0.0-9.0-0.0-0.0-0.0-1.66","null","<span style='color:red; font-size: 70px;'>错误! </span>","null","","","","","","","","","","","","","","","","","","","","","","","feedback_test"
"","","","","","psychophysics","408","989058","0.0-9.0-0.0-0.0-0.0-0.67","591","","f","","","","","","","","","","","","","key","f","4.163131578947344","853.3333333333334","529.3333333333334","j","false","img/S_ambi40.png","生人","same",""
"","","","","","html-keyboard-response","409","989572","0.0-9.0-0.0-0.0-0.0-1.67","null","<span style='color:red; font-size: 70px;'>错误! </span>","null","","","","","","","","","","","","","","","","","","","","","","","feedback_test"
"","","","","","psychophysics","410","991010","0.0-9.0-0.0-0.0-0.0-0.68","437","","f","","","","","","","","","","","","","key","f","4.166625000000051","853.3333333333334","529.3333333333334","f","true","img/C_ambi40.png","自我","same",""
"","","","","","html-keyboard-response","411","991521","0.0-9.0-0.0-0.0-0.0-1.68","null","<span style='color:GreenYellow; font-size: 70px;'>正确! </span>","null","","","","","","","","","","","","","","","","","","","","","","","feedback_test"
"","","","","","psychophysics","412","994026","0.0-9.0-0.0-0.0-0.0-0.69","null","","null","","","","","","","","","","","","","key","null","4.1666043405675675","853.3333333333334","529.3333333333334","j","false","img/T_ambi40.png","をる","same",""
"","","","","","html-keyboard-response","413","994540","0.0-9.0-0.0-0.0-0.0-1.69","null","<span class='add_' style='color:yellow; font-size: 70px;'> 太慢! </span>","null","","","","","","","","","","","","","","","","","","","","","","","feedback_test"
"","","","","","psychophysics","414","997042","0.0-9.0-0.0-0.0-0.0-0.70","null","","null","","","","","","","","","","","","","key","null","4.166616026711112","853.3333333333334","529.3333333333334","j","false","img/C_ambi40.png","生人","same",""
"","","","","","html-keyboard-response","415","997544","0.0-9.0-0.0-0.0-0.0-1.70","null","<span class='add_' style='color:yellow; font-size: 70px;'> 太慢! </span>","null","","","","","","","","","","","","","","","","","","","","","","","feedback_test"
"","","","","","psychophysics","416","1000046","0.0-9.0-0.0-0.0-0.0-0.71","null","","null","","","","","","","","","","","","","key","null","4.1666260434056905","853.3333333333334","529.3333333333334","f","false","img/S_ambi40.png","朋友","same",""
"","","","","","html-keyboard-response","417","1000557","0.0-9.0-0.0-0.0-0.0-1.71","null","<span class='add_' style='color:yellow; font-size: 70px;'> 太慢! </span>","null","","","","","","","","","","","","","","","","","","","","","","","feedback_test"
"","","","","","psychophysics","418","1002046","0.0-9.0-0.0-0.0-0.0-0.72","488","","j","","","","","","","","","","","","","key","j","4.164180281690099","853.3333333333334","529.3333333333334","j","true","img/T_ambi40.png","をる","same",""
"","","","","","html-keyboard-response","419","1002558","0.0-9.0-0.0-0.0-0.0-1.72","null","<span style='color:GreenYellow; font-size: 70px;'>正确! </span>","null","","","","","","","","","","","","","","","","","","","","","","","feedback_test"
"","","","","","psychophysics","420","1004032","0.0-9.0-0.0-0.0-0.0-0.73","473","","f","","","","","","","","","","","","","key","f","4.166653409090941","853.3333333333334","529.3333333333334","f","true","img/C_ambi40.png","自我","same",""
"","","","","","html-keyboard-response","421","1004537","0.0-9.0-0.0-0.0-0.0-1.73","null","<span style='color:GreenYellow; font-size: 70px;'>正确! </span>","null","","","","","","","","","","","","","","","","","","","","","","","feedback_test"
"","","","","","psychophysics","422","1006270","0.0-9.0-0.0-0.0-0.0-0.74","732","","f","","","","","","","","","","","","","key","f","4.164509661835652","853.3333333333334","529.3333333333334","f","true","img/S_ambi40.png","朋友","same",""
"","","","","","html-keyboard-response","423","1006778","0.0-9.0-0.0-0.0-0.0-1.74","null","<span style='color:GreenYellow; font-size: 70px;'>正确! </span>","null","","","","","","","","","","","","","","","","","","","","","","","feedback_test"
