"success","timeout","failed_images","failed_audio","failed_video","trial_type","trial_index","time_elapsed","internal_node_id","rt","stimulus","response","value","item_width_mm","item_height_mm","item_width_px","px2mm","view_dist_mm","item_width_deg","px2deg","scale_factor","win_width_deg","win_height_deg","view_history","response_type","key_press","avg_frame_time","center_x","center_y","correct_response","correct","Image","word","condition","screen_id"
"true","false","[]","[]","[]","preload","0","9","0.0-0.0","","","","","","","","","","","","","","","","","","","","","","","","","",""
"","","","","","html-keyboard-response","1","3519","0.0-1.0","3509","
     <p>您好，欢迎参加本次实验。</p>
     <p>为充分保障您的权利，请确保您已经知晓并同意《参与实验同意书》以及《数据公开知情同意书》。</p>
     <p>如果您未见过上述内容，请咨询实验员。</p>
     <p>如果您选择继续实验，则表示您已经清楚两份知情同意书的内容并同意。</p>
     <p> <div style = ""color: green""><按任意键至下页></div> </p>
     "," ","","","","","","","","","","","","","","","","","","","","","","",""
"","","","","","html-keyboard-response","2","6705","0.0-2.0","3185","
     <p>本实验首先需要您填写一些基本个人信息。</p>
     <p> <div style = ""color: green""><按任意键至下页></div></p>
     "," ","","","","","","","","","","","","","","","","","","","","","","",""
"","","","","","call-function","3","6705","0.0-3.0-0.0","","","","","","","","","","","","","","","","","","","","","","","","","",""
"","","","","","survey-html-form","4","12288","0.0-3.0-1.0","5582","","{""Q0"":""003""}","","","","","","","","","","","","","","","","","","","","","","",""
"","","","","","html-button-response","5","13222","0.0-3.0-2.0","933","<p style = 'color : white'>您的性别</p>","1","","","","","","","","","","","","","","","","","","","","","","",""
"","","","","","survey-html-form","6","19131","0.0-3.0-3.0","5908","","{""Q0"":""2004""}","","","","","","","","","","","","","","","","","","","","","","",""
"","","","","","survey-html-form","7","22593","0.0-3.0-4.0","3461","","{""Q0"":""5""}","","","","","","","","","","","","","","","","","","","","","","",""
"","","","","","virtual-chinrest","8","114192","0.0-4.0","91596","","","","85.6","53.98","423.83681327232875","4.950324984414339","577.53","8.476736265446574","50","0.8989308811058734","30.72","16.2","","","","","","","","","","","",""
"true","","","","","fullscreen","9","117600","0.0-5.0","","","","","","","","","","","","","","","","","","","","","","","","","",""
"","","","","","instructions","10","170428","0.0-6.0","52827","","","","","","","","","","","","","","[{""page_index"":0,""viewing_time"":6799},{""page_index"":1,""viewing_time"":39150},{""page_index"":2,""viewing_time"":3842},{""page_index"":3,""viewing_time"":3036}]","","","","","","","","","","",""
"","","","","","psychophysics","11","172948","0.0-7.0-0.0","null","","null","","","","","","","","","","","","","key","null","16.663959731543578","768","476","f","false","img/C_ambi40.png","生人","prac",""
"","","","","","html-keyboard-response","12","173471","0.0-7.0-1.0","null","<span class='add_' style='color:yellow; font-size: 70px;'> 太慢! </span>","null","","","","","","","","","","","","","","","","","","","","","","","feedback_test"
"","","","","","psychophysics","13","175979","0.0-7.0-0.1","null","","null","","","","","","","","","","","","","key","null","16.664932885905923","768","476","j","false","img/T_ambi40.png","をる","prac",""
"","","","","","html-keyboard-response","14","176491","0.0-7.0-1.1","null","<span class='add_' style='color:yellow; font-size: 70px;'> 太慢! </span>","null","","","","","","","","","","","","","","","","","","","","","","","feedback_test"
"","","","","","psychophysics","15","178997","0.0-7.0-0.2","null","","null","","","","","","","","","","","","","key","null","16.66416778523497","768","476","f","false","img/C_ambi40.png","自我","prac",""
"","","","","","html-keyboard-response","16","179509","0.0-7.0-1.2","null","<span class='add_' style='color:yellow; font-size: 70px;'> 太慢! </span>","null","","","","","","","","","","","","","","","","","","","","","","","feedback_test"
"","","","","","psychophysics","17","181239","0.0-7.0-0.3","724","","f","","","","","","","","","","","","","key","f","16.66533009708747","768","476","f","true","img/H_ambi40.png","生人","prac",""
"","","","","","html-keyboard-response","18","181759","0.0-7.0-1.3","null","<span style='color:GreenYellow; font-size: 70px;'>正确! </span>","null","","","","","","","","","","","","","","","","","","","","","","","feedback_test"
"","","","","","psychophysics","19","183482","0.0-7.0-0.4","719","","f","","","","","","","","","","","","","key","f","16.663223300970927","768","476","j","false","img/S_ambi40.png","生人","prac",""
"","","","","","html-keyboard-response","20","183993","0.0-7.0-1.4","null","<span style='color:red; font-size: 70px;'>错误! </span>","null","","","","","","","","","","","","","","","","","","","","","","","feedback_test"
"","","","","","psychophysics","21","185620","0.0-7.0-0.5","623","","f","","","","","","","","","","","","","key","f","16.665886597938297","768","476","j","false","img/H_ambi40.png","自我","prac",""
"","","","","","html-keyboard-response","22","186126","0.0-7.0-1.5","null","<span style='color:red; font-size: 70px;'>错误! </span>","null","","","","","","","","","","","","","","","","","","","","","","","feedback_test"
"","","","","","psychophysics","23","187805","0.0-7.0-0.6","674","","j","","","","","","","","","","","","","key","j","16.663399999999964","768","476","j","true","img/T_ambi40.png","をる","prac",""
"","","","","","html-keyboard-response","24","188322","0.0-7.0-1.6","null","<span style='color:GreenYellow; font-size: 70px;'>正确! </span>","null","","","","","","","","","","","","","","","","","","","","","","","feedback_test"
"","","","","","psychophysics","25","189741","0.0-7.0-0.7","412","","j","","","","","","","","","","","","","key","j","16.664107142857183","768","476","j","true","img/H_ambi40.png","自我","prac",""
"","","","","","html-keyboard-response","26","190251","0.0-7.0-1.7","null","<span style='color:GreenYellow; font-size: 70px;'>正确! </span>","null","","","","","","","","","","","","","","","","","","","","","","","feedback_test"
"","","","","","psychophysics","27","191697","0.0-7.0-0.8","434","","j","","","","","","","","","","","","","key","j","16.662418604651087","768","476","f","false","img/H_ambi40.png","朋友","prac",""
"","","","","","html-keyboard-response","28","192205","0.0-7.0-1.8","null","<span style='color:red; font-size: 70px;'>错误! </span>","null","","","","","","","","","","","","","","","","","","","","","","","feedback_test"
"","","","","","psychophysics","29","193907","0.0-7.0-0.9","694","","j","","","","","","","","","","","","","key","j","16.664277227722526","768","476","j","true","img/S_ambi40.png","生人","prac",""
"","","","","","html-keyboard-response","30","194419","0.0-7.0-1.9","null","<span style='color:GreenYellow; font-size: 70px;'>正确! </span>","null","","","","","","","","","","","","","","","","","","","","","","","feedback_test"
"","","","","","psychophysics","31","195940","0.0-7.0-0.10","512","","f","","","","","","","","","","","","","key","f","16.66674444444426","768","476","f","true","img/S_ambi40.png","自我","prac",""
"","","","","","html-keyboard-response","32","196462","0.0-7.0-1.10","null","<span style='color:GreenYellow; font-size: 70px;'>正确! </span>","null","","","","","","","","","","","","","","","","","","","","","","","feedback_test"
"","","","","","psychophysics","33","198021","0.0-7.0-0.11","558","","j","","","","","","","","","","","","","key","j","16.665467391304645","768","476","j","true","img/C_ambi40.png","朋友","prac",""
"","","","","","html-keyboard-response","34","198530","0.0-7.0-1.11","null","<span style='color:GreenYellow; font-size: 70px;'>正确! </span>","null","","","","","","","","","","","","","","","","","","","","","","","feedback_test"
"","","","","","psychophysics","35","200166","0.0-7.0-0.12","628","","j","","","","","","","","","","","","","key","j","16.66539175257737","768","476","j","true","img/T_ambi40.png","をる","prac",""
"","","","","","html-keyboard-response","36","200680","0.0-7.0-1.12","null","<span style='color:GreenYellow; font-size: 70px;'>正确! </span>","null","","","","","","","","","","","","","","","","","","","","","","","feedback_test"
"","","","","","psychophysics","37","202342","0.0-7.0-0.13","650","","j","","","","","","","","","","","","","key","j","16.664653061224474","768","476","f","false","img/S_ambi40.png","朋友","prac",""
"","","","","","html-keyboard-response","38","202859","0.0-7.0-1.13","null","<span style='color:red; font-size: 70px;'>错误! </span>","null","","","","","","","","","","","","","","","","","","","","","","","feedback_test"
"","","","","","psychophysics","39","204320","0.0-7.0-0.14","459","","j","","","","","","","","","","","","","key","j","16.50743023255809","768","476","j","true","img/C_ambi40.png","朋友","prac",""
"","","","","","html-keyboard-response","40","204836","0.0-7.0-1.14","null","<span style='color:GreenYellow; font-size: 70px;'>正确! </span>","null","","","","","","","","","","","","","","","","","","","","","","","feedback_test"
"","","","","","psychophysics","41","206498","0.0-7.0-0.15","653","","j","","","","","","","","","","","","","key","j","16.663838383838396","768","476","j","true","img/T_ambi40.png","をる","prac",""
"","","","","","html-keyboard-response","42","207003","0.0-7.0-1.15","null","<span style='color:GreenYellow; font-size: 70px;'>正确! </span>","null","","","","","","","","","","","","","","","","","","","","","","","feedback_test"
"","","","","","psychophysics","43","208744","0.0-7.0-0.16","735","","j","","","","","","","","","","","","","key","j","16.663336538461756","768","476","f","false","img/H_ambi40.png","朋友","prac",""
"","","","","","html-keyboard-response","44","209253","0.0-7.0-1.16","null","<span style='color:red; font-size: 70px;'>错误! </span>","null","","","","","","","","","","","","","","","","","","","","","","","feedback_test"
"","","","","","psychophysics","45","210851","0.0-7.0-0.17","591","","f","","","","","","","","","","","","","key","f","16.663631578947196","768","476","f","true","img/C_ambi40.png","生人","prac",""
"","","","","","html-keyboard-response","46","211357","0.0-7.0-1.17","null","<span style='color:GreenYellow; font-size: 70px;'>正确! </span>","null","","","","","","","","","","","","","","","","","","","","","","","feedback_test"
"","","","","","psychophysics","47","213117","0.0-7.0-0.18","758","","f","","","","","","","","","","","","","key","f","16.54088461538469","768","476","j","false","img/S_ambi40.png","生人","prac",""
"","","","","","html-keyboard-response","48","213628","0.0-7.0-1.18","null","<span style='color:red; font-size: 70px;'>错误! </span>","null","","","","","","","","","","","","","","","","","","","","","","","feedback_test"
"","","","","","psychophysics","49","215160","0.0-7.0-0.19","518","","j","","","","","","","","","","","","","key","j","16.662670329670487","768","476","j","true","img/T_ambi40.png","をる","prac",""
"","","","","","html-keyboard-response","50","215670","0.0-7.0-1.19","null","<span style='color:GreenYellow; font-size: 70px;'>正确! </span>","null","","","","","","","","","","","","","","","","","","","","","","","feedback_test"
"","","","","","psychophysics","51","218175","0.0-7.0-0.20","null","","null","","","","","","","","","","","","","key","null","16.662489932885975","768","476","f","false","img/S_ambi40.png","朋友","prac",""
"","","","","","html-keyboard-response","52","218695","0.0-7.0-1.20","null","<span class='add_' style='color:yellow; font-size: 70px;'> 太慢! </span>","null","","","","","","","","","","","","","","","","","","","","","","","feedback_test"
"","","","","","psychophysics","53","220417","0.0-7.0-0.21","713","","f","","","","","","","","","","","","","key","f","16.665137254902078","768","476","f","true","img/C_ambi40.png","自我","prac",""
"","","","","","html-keyboard-response","54","220923","0.0-7.0-1.21","null","<span style='color:GreenYellow; font-size: 70px;'>正确! </span>","null","","","","","","","","","","","","","","","","","","","","","","","feedback_test"
"","","","","","psychophysics","55","222858","0.0-7.0-0.22","934","","j","","","","","","","","","","","","","key","j","16.53954782608704","768","476","j","true","img/C_ambi40.png","朋友","prac",""
"","","","","","html-keyboard-response","56","223365","0.0-7.0-1.22","null","<span style='color:GreenYellow; font-size: 70px;'>正确! </span>","null","","","","","","","","","","","","","","","","","","","","","","","feedback_test"
"","","","","","psychophysics","57","225179","0.0-7.0-0.23","805","","j","","","","","","","","","","","","","key","j","16.664138888889013","768","476","j","true","img/C_ambi40.png","朋友","prac",""
"","","","","","html-keyboard-response","58","225687","0.0-7.0-1.23","null","<span style='color:GreenYellow; font-size: 70px;'>正确! </span>","null","","","","","","","","","","","","","","","","","","","","","","","feedback_test"
"","","","","","psychophysics","59","227500","0.0-7.0-0.24","811","","j","","","","","","","","","","","","","key","j","16.665333333333333","768","476","f","false","img/H_ambi40.png","生人","prac",""
"","","","","","html-keyboard-response","60","228020","0.0-7.0-1.24","null","<span style='color:red; font-size: 70px;'>错误! </span>","null","","","","","","","","","","","","","","","","","","","","","","","feedback_test"
"","","","","","psychophysics","61","230334","0.0-7.0-0.25","1311","","f","","","","","","","","","","","","","key","f","16.664630434782694","768","476","j","false","img/H_ambi40.png","自我","prac",""
"","","","","","html-keyboard-response","62","230848","0.0-7.0-1.25","null","<span style='color:red; font-size: 70px;'>错误! </span>","null","","","","","","","","","","","","","","","","","","","","","","","feedback_test"
"","","","","","psychophysics","63","232333","0.0-7.0-0.26","477","","j","","","","","","","","","","","","","key","j","16.66390909090908","768","476","j","true","img/T_ambi40.png","をる","prac",""
"","","","","","html-keyboard-response","64","232842","0.0-7.0-1.26","null","<span style='color:GreenYellow; font-size: 70px;'>正确! </span>","null","","","","","","","","","","","","","","","","","","","","","","","feedback_test"
"","","","","","psychophysics","65","234582","0.0-7.0-0.27","729","","f","","","","","","","","","","","","","key","f","16.665728155339874","768","476","f","true","img/S_ambi40.png","自我","prac",""
"","","","","","html-keyboard-response","66","235096","0.0-7.0-1.27","null","<span style='color:GreenYellow; font-size: 70px;'>正确! </span>","null","","","","","","","","","","","","","","","","","","","","","","","feedback_test"
"","","","","","psychophysics","67","236891","0.0-7.0-0.28","787","","j","","","","","","","","","","","","","key","j","16.66541121495321","768","476","j","true","img/S_ambi40.png","生人","prac",""
"","","","","","html-keyboard-response","68","237402","0.0-7.0-1.28","null","<span style='color:GreenYellow; font-size: 70px;'>正确! </span>","null","","","","","","","","","","","","","","","","","","","","","","","feedback_test"
"","","","","","psychophysics","69","238986","0.0-7.0-0.29","582","","j","","","","","","","","","","","","","key","j","16.664404255319127","768","476","j","true","img/T_ambi40.png","をる","prac",""
"","","","","","html-keyboard-response","70","239491","0.0-7.0-1.29","null","<span style='color:GreenYellow; font-size: 70px;'>正确! </span>","null","","","","","","","","","","","","","","","","","","","","","","","feedback_test"
"","","","","","psychophysics","71","241068","0.0-7.0-0.30","564","","j","","","","","","","","","","","","","key","j","16.66484946236534","768","476","j","true","img/T_ambi40.png","をる","prac",""
"","","","","","html-keyboard-response","72","241580","0.0-7.0-1.30","null","<span style='color:GreenYellow; font-size: 70px;'>正确! </span>","null","","","","","","","","","","","","","","","","","","","","","","","feedback_test"
"","","","","","psychophysics","73","243338","0.0-7.0-0.31","752","","f","","","","","","","","","","","","","key","f","16.664038095237977","768","476","j","false","img/H_ambi40.png","自我","prac",""
"","","","","","html-keyboard-response","74","243850","0.0-7.0-1.31","null","<span style='color:red; font-size: 70px;'>错误! </span>","null","","","","","","","","","","","","","","","","","","","","","","","feedback_test"
"","","","","","psychophysics","75","245377","0.0-8.0-0.0-0.0","524","","j","","","","","","","","","","","","","key","j","16.664670329670496","768","476","j","true","img/S_ambi40.png","生人","prac",""
"","","","","","html-keyboard-response","76","245889","0.0-8.0-0.0-1.0","null","<span style='color:GreenYellow; font-size: 70px;'>正确! </span>","null","","","","","","","","","","","","","","","","","","","","","","","feedback_test"
"","","","","","psychophysics","77","247463","0.0-8.0-0.0-0.1","561","","j","","","","","","","","","","","","","key","j","16.663462365591606","768","476","j","true","img/T_ambi40.png","をる","prac",""
"","","","","","html-keyboard-response","78","247970","0.0-8.0-0.0-1.1","null","<span style='color:GreenYellow; font-size: 70px;'>正确! </span>","null","","","","","","","","","","","","","","","","","","","","","","","feedback_test"
"","","","","","psychophysics","79","249542","0.0-8.0-0.0-0.2","562","","f","","","","","","","","","","","","","key","f","16.666129032257878","768","476","j","false","img/C_ambi40.png","朋友","prac",""
"","","","","","html-keyboard-response","80","250050","0.0-8.0-0.0-1.2","null","<span style='color:red; font-size: 70px;'>错误! </span>","null","","","","","","","","","","","","","","","","","","","","","","","feedback_test"
"","","","","","psychophysics","81","251641","0.0-8.0-0.0-0.3","588","","j","","","","","","","","","","","","","key","j","16.660505263157813","768","476","f","false","img/S_ambi40.png","自我","prac",""
"","","","","","html-keyboard-response","82","252153","0.0-8.0-0.0-1.3","null","<span style='color:red; font-size: 70px;'>错误! </span>","null","","","","","","","","","","","","","","","","","","","","","","","feedback_test"
"","","","","","psychophysics","83","254660","0.0-8.0-0.0-0.4","null","","null","","","","","","","","","","","","","key","null","16.66525503355719","768","476","j","false","img/T_ambi40.png","をる","prac",""
"","","","","","html-keyboard-response","84","255170","0.0-8.0-0.0-1.4","null","<span class='add_' style='color:yellow; font-size: 70px;'> 太慢! </span>","null","","","","","","","","","","","","","","","","","","","","","","","feedback_test"
"","","","","","psychophysics","85","256959","0.0-8.0-0.0-0.5","776","","f","","","","","","","","","","","","","key","f","16.664801886792564","768","476","j","false","img/H_ambi40.png","自我","prac",""
"","","","","","html-keyboard-response","86","257471","0.0-8.0-0.0-1.5","null","<span style='color:red; font-size: 70px;'>错误! </span>","null","","","","","","","","","","","","","","","","","","","","","","","feedback_test"
"","","","","","psychophysics","87","259118","0.0-8.0-0.0-0.6","634","","j","","","","","","","","","","","","","key","j","16.66526530612241","768","476","j","true","img/T_ambi40.png","をる","prac",""
"","","","","","html-keyboard-response","88","259637","0.0-8.0-0.0-1.6","null","<span style='color:GreenYellow; font-size: 70px;'>正确! </span>","null","","","","","","","","","","","","","","","","","","","","","","","feedback_test"
"","","","","","psychophysics","89","262151","0.0-8.0-0.0-0.7","null","","null","","","","","","","","","","","","","key","null","16.664280000000144","768","476","f","false","img/H_ambi40.png","朋友","prac",""
"","","","","","html-keyboard-response","90","262670","0.0-8.0-0.0-1.7","null","<span class='add_' style='color:yellow; font-size: 70px;'> 太慢! </span>","null","","","","","","","","","","","","","","","","","","","","","","","feedback_test"
"","","","","","psychophysics","91","264869","0.0-8.0-0.0-0.8","1186","","j","","","","","","","","","","","","","key","j","16.66480152671739","768","476","f","false","img/S_ambi40.png","朋友","prac",""
"","","","","","html-keyboard-response","92","265381","0.0-8.0-0.0-1.8","null","<span style='color:red; font-size: 70px;'>错误! </span>","null","","","","","","","","","","","","","","","","","","","","","","","feedback_test"
"","","","","","psychophysics","93","267195","0.0-8.0-0.0-0.9","811","","j","","","","","","","","","","","","","key","j","16.66632407407397","768","476","j","true","img/S_ambi40.png","生人","prac",""
"","","","","","html-keyboard-response","94","267707","0.0-8.0-0.0-1.9","null","<span style='color:GreenYellow; font-size: 70px;'>正确! </span>","null","","","","","","","","","","","","","","","","","","","","","","","feedback_test"
"","","","","","psychophysics","95","269420","0.0-8.0-0.0-0.10","705","","f","","","","","","","","","","","","","key","f","16.66578431372581","768","476","j","false","img/H_ambi40.png","自我","prac",""
"","","","","","html-keyboard-response","96","269933","0.0-8.0-0.0-1.10","null","<span style='color:red; font-size: 70px;'>错误! </span>","null","","","","","","","","","","","","","","","","","","","","","","","feedback_test"
"","","","","","psychophysics","97","271853","0.0-8.0-0.0-0.11","909","","j","","","","","","","","","","","","","key","j","16.66452631578942","768","476","j","true","img/C_ambi40.png","朋友","prac",""
"","","","","","html-keyboard-response","98","272374","0.0-8.0-0.0-1.11","null","<span style='color:GreenYellow; font-size: 70px;'>正确! </span>","null","","","","","","","","","","","","","","","","","","","","","","","feedback_test"
"","","","","","psychophysics","99","274809","0.0-8.0-0.0-0.12","1427","","f","","","","","","","","","","","","","key","f","16.66450344827588","768","476","f","true","img/C_ambi40.png","自我","prac",""
"","","","","","html-keyboard-response","100","275319","0.0-8.0-0.0-1.12","null","<span style='color:GreenYellow; font-size: 70px;'>正确! </span>","null","","","","","","","","","","","","","","","","","","","","","","","feedback_test"
"","","","","","psychophysics","101","276813","0.0-8.0-0.0-0.13","487","","j","","","","","","","","","","","","","key","j","16.662147727273062","768","476","j","true","img/T_ambi40.png","をる","prac",""
"","","","","","html-keyboard-response","102","277328","0.0-8.0-0.0-1.13","null","<span style='color:GreenYellow; font-size: 70px;'>正确! </span>","null","","","","","","","","","","","","","","","","","","","","","","","feedback_test"
"","","","","","psychophysics","103","278956","0.0-8.0-0.0-0.14","625","","j","","","","","","","","","","","","","key","j","16.66443298969084","768","476","f","false","img/H_ambi40.png","生人","prac",""
"","","","","","html-keyboard-response","104","279459","0.0-8.0-0.0-1.14","null","<span style='color:red; font-size: 70px;'>错误! </span>","null","","","","","","","","","","","","","","","","","","","","","","","feedback_test"
"","","","","","psychophysics","105","281293","0.0-8.0-0.0-0.15","828","","j","","","","","","","","","","","","","key","j","16.663550458715505","768","476","f","false","img/C_ambi40.png","生人","prac",""
"","","","","","html-keyboard-response","106","281814","0.0-8.0-0.0-1.15","null","<span style='color:red; font-size: 70px;'>错误! </span>","null","","","","","","","","","","","","","","","","","","","","","","","feedback_test"
"","","","","","psychophysics","107","283447","0.0-8.0-0.0-0.16","620","","j","","","","","","","","","","","","","key","j","16.663845360825157","768","476","f","false","img/H_ambi40.png","生人","prac",""
"","","","","","html-keyboard-response","108","283960","0.0-8.0-0.0-1.16","null","<span style='color:red; font-size: 70px;'>错误! </span>","null","","","","","","","","","","","","","","","","","","","","","","","feedback_test"
"","","","","","psychophysics","109","285465","0.0-8.0-0.0-0.17","501","","f","","","","","","","","","","","","","key","f","16.664144444444293","768","476","f","true","img/C_ambi40.png","生人","prac",""
"","","","","","html-keyboard-response","110","285979","0.0-8.0-0.0-1.17","null","<span style='color:GreenYellow; font-size: 70px;'>正确! </span>","null","","","","","","","","","","","","","","","","","","","","","","","feedback_test"
"","","","","","psychophysics","111","287687","0.0-8.0-0.0-0.18","707","","j","","","","","","","","","","","","","key","j","16.664277227722813","768","476","f","false","img/S_ambi40.png","朋友","prac",""
"","","","","","html-keyboard-response","112","288199","0.0-8.0-0.0-1.18","null","<span style='color:red; font-size: 70px;'>错误! </span>","null","","","","","","","","","","","","","","","","","","","","","","","feedback_test"
"","","","","","psychophysics","113","290091","0.0-8.0-0.0-0.19","880","","j","","","","","","","","","","","","","key","j","16.663098214285647","768","476","j","true","img/C_ambi40.png","朋友","prac",""
"","","","","","html-keyboard-response","114","290598","0.0-8.0-0.0-1.19","null","<span style='color:GreenYellow; font-size: 70px;'>正确! </span>","null","","","","","","","","","","","","","","","","","","","","","","","feedback_test"
"","","","","","psychophysics","115","292198","0.0-8.0-0.0-0.20","588","","j","","","","","","","","","","","","","key","j","16.661778947368486","768","476","j","true","img/T_ambi40.png","をる","prac",""
"","","","","","html-keyboard-response","116","292712","0.0-8.0-0.0-1.20","null","<span style='color:GreenYellow; font-size: 70px;'>正确! </span>","null","","","","","","","","","","","","","","","","","","","","","","","feedback_test"
"","","","","","psychophysics","117","294501","0.0-8.0-0.0-0.21","788","","f","","","","","","","","","","","","","key","f","16.66434905660352","768","476","f","true","img/C_ambi40.png","自我","prac",""
"","","","","","html-keyboard-response","118","295008","0.0-8.0-0.0-1.21","null","<span style='color:GreenYellow; font-size: 70px;'>正确! </span>","null","","","","","","","","","","","","","","","","","","","","","","","feedback_test"
"","","","","","psychophysics","119","296583","0.0-8.0-0.0-0.22","572","","j","","","","","","","","","","","","","key","j","16.664414893617195","768","476","j","true","img/T_ambi40.png","をる","prac",""
"","","","","","html-keyboard-response","120","297103","0.0-8.0-0.0-1.22","null","<span style='color:GreenYellow; font-size: 70px;'>正确! </span>","null","","","","","","","","","","","","","","","","","","","","","","","feedback_test"
"","","","","","psychophysics","121","298730","0.0-8.0-0.0-0.23","620","","j","","","","","","","","","","","","","key","j","16.665783505154696","768","476","j","true","img/H_ambi40.png","自我","prac",""
"","","","","","html-keyboard-response","122","299239","0.0-8.0-0.0-1.23","null","<span style='color:GreenYellow; font-size: 70px;'>正确! </span>","null","","","","","","","","","","","","","","","","","","","","","","","feedback_test"
"","","","","","psychophysics","123","300714","0.0-8.0-0.0-0.24","469","","j","","","","","","","","","","","","","key","j","16.66444318181774","768","476","j","true","img/H_ambi40.png","自我","prac",""
"","","","","","html-keyboard-response","124","301227","0.0-8.0-0.0-1.24","null","<span style='color:GreenYellow; font-size: 70px;'>正确! </span>","null","","","","","","","","","","","","","","","","","","","","","","","feedback_test"
"","","","","","psychophysics","125","302769","0.0-8.0-0.0-0.25","540","","j","","","","","","","","","","","","","key","j","16.66602197802206","768","476","j","true","img/T_ambi40.png","をる","prac",""
"","","","","","html-keyboard-response","126","303285","0.0-8.0-0.0-1.25","null","<span style='color:GreenYellow; font-size: 70px;'>正确! </span>","null","","","","","","","","","","","","","","","","","","","","","","","feedback_test"
"","","","","","psychophysics","127","304795","0.0-8.0-0.0-0.26","503","","j","","","","","","","","","","","","","key","j","16.655799999999967","768","476","j","true","img/T_ambi40.png","をる","prac",""
"","","","","","html-keyboard-response","128","305297","0.0-8.0-0.0-1.26","null","<span style='color:GreenYellow; font-size: 70px;'>正确! </span>","null","","","","","","","","","","","","","","","","","","","","","","","feedback_test"
"","","","","","psychophysics","129","306852","0.0-8.0-0.0-0.27","542","","j","","","","","","","","","","","","","key","j","16.66288043478246","768","476","j","true","img/S_ambi40.png","生人","prac",""
"","","","","","html-keyboard-response","130","307353","0.0-8.0-0.0-1.27","null","<span style='color:GreenYellow; font-size: 70px;'>正确! </span>","null","","","","","","","","","","","","","","","","","","","","","","","feedback_test"
"","","","","","psychophysics","131","309045","0.0-8.0-0.0-0.28","686","","j","","","","","","","","","","","","","key","j","16.6638613861385","768","476","j","true","img/S_ambi40.png","生人","prac",""
"","","","","","html-keyboard-response","132","309566","0.0-8.0-0.0-1.28","null","<span style='color:GreenYellow; font-size: 70px;'>正确! </span>","null","","","","","","","","","","","","","","","","","","","","","","","feedback_test"
"","","","","","psychophysics","133","311405","0.0-8.0-0.0-0.29","830","","f","","","","","","","","","","","","","key","f","16.66556880733964","768","476","f","true","img/H_ambi40.png","朋友","prac",""
"","","","","","html-keyboard-response","134","311917","0.0-8.0-0.0-1.29","null","<span style='color:GreenYellow; font-size: 70px;'>正确! </span>","null","","","","","","","","","","","","","","","","","","","","","","","feedback_test"
"","","","","","psychophysics","135","313900","0.0-8.0-0.0-0.30","976","","j","","","","","","","","","","","","","key","j","16.660194915254163","768","476","j","true","img/C_ambi40.png","朋友","prac",""
"","","","","","html-keyboard-response","136","314422","0.0-8.0-0.0-1.30","null","<span style='color:GreenYellow; font-size: 70px;'>正确! </span>","null","","","","","","","","","","","","","","","","","","","","","","","feedback_test"
"","","","","","psychophysics","137","316138","0.0-8.0-0.0-0.31","713","","j","","","","","","","","","","","","","key","j","16.665068627450975","768","476","f","false","img/S_ambi40.png","自我","prac",""
"","","","","","html-keyboard-response","138","316655","0.0-8.0-0.0-1.31","null","<span style='color:red; font-size: 70px;'>错误! </span>","null","","","","","","","","","","","","","","","","","","","","","","","feedback_test"
"","","","","","html-keyboard-response","139","324866","0.0-8.0-1.0-0.0","8209","<style>.context{color:white; font-size: 35px; line-height:40px}</style>                          <div><p class='context'>您正确回答了63% 的试次。</p ><p class='context'>您的平均反应时为692毫秒。</p >"," ","","","","","","","","","","","","","","","","","","","","","","",""
"","","","","","instructions","140","355086","0.0-8.0-1.0-1.0","30219","","","","","","","","","","","","","","[{""page_index"":0,""viewing_time"":3556},{""page_index"":1,""viewing_time"":23651},{""page_index"":2,""viewing_time"":3011}]","","","","","","","","","","",""
"","","","","","psychophysics","141","356756","0.0-8.1-0.1-0.32","655","","f","","","","","","","","","","","","","key","f","16.663878787878662","768","476","j","false","img/H_ambi40.png","自我","prac",""
"","","","","","html-keyboard-response","142","357271","0.0-8.1-0.1-1.32","null","<span style='color:red; font-size: 70px;'>错误! </span>","null","","","","","","","","","","","","","","","","","","","","","","","feedback_test"
"","","","","","psychophysics","143","358812","0.0-8.1-0.1-0.33","528","","f","","","","","","","","","","","","","key","f","16.663428571428284","768","476","j","false","img/H_ambi40.png","自我","prac",""
"","","","","","html-keyboard-response","144","359329","0.0-8.1-0.1-1.33","null","<span style='color:red; font-size: 70px;'>错误! </span>","null","","","","","","","","","","","","","","","","","","","","","","","feedback_test"
"","","","","","psychophysics","145","361191","0.0-8.1-0.1-0.34","856","","j","","","","","","","","","","","","","key","j","16.664873873873674","768","476","f","false","img/C_ambi40.png","生人","prac",""
"","","","","","html-keyboard-response","146","361710","0.0-8.1-0.1-1.34","null","<span style='color:red; font-size: 70px;'>错误! </span>","null","","","","","","","","","","","","","","","","","","","","","","","feedback_test"
"","","","","","psychophysics","147","363422","0.0-8.1-0.1-0.35","704","","j","","","","","","","","","","","","","key","j","16.66481372549064","768","476","f","false","img/S_ambi40.png","自我","prac",""
"","","","","","html-keyboard-response","148","363937","0.0-8.1-0.1-1.35","null","<span style='color:red; font-size: 70px;'>错误! </span>","null","","","","","","","","","","","","","","","","","","","","","","","feedback_test"
"","","","","","psychophysics","149","366448","0.0-8.1-0.1-0.36","null","","null","","","","","","","","","","","","","key","null","16.66547651006684","768","476","j","false","img/T_ambi40.png","をる","prac",""
"","","","","","html-keyboard-response","150","366960","0.0-8.1-0.1-1.36","null","<span class='add_' style='color:yellow; font-size: 70px;'> 太慢! </span>","null","","","","","","","","","","","","","","","","","","","","","","","feedback_test"
"","","","","","psychophysics","151","368575","0.0-8.1-0.1-0.37","608","","j","","","","","","","","","","","","","key","j","16.66587499999999","768","476","j","true","img/T_ambi40.png","をる","prac",""
"","","","","","html-keyboard-response","152","369095","0.0-8.1-0.1-1.37","null","<span style='color:GreenYellow; font-size: 70px;'>正确! </span>","null","","","","","","","","","","","","","","","","","","","","","","","feedback_test"
"","","","","","psychophysics","153","370428","0.0-8.1-0.1-0.38","329","","j","","","","","","","","","","","","","key","j","16.66734177215228","768","476","f","false","img/H_ambi40.png","朋友","prac",""
"","","","","","html-keyboard-response","154","370947","0.0-8.1-0.1-1.38","null","<span style='color:red; font-size: 70px;'>错误! </span>","null","","","","","","","","","","","","","","","","","","","","","","","feedback_test"
"","","","","","psychophysics","155","372450","0.0-8.1-0.1-0.39","500","","f","","","","","","","","","","","","","key","f","16.516157303371052","768","476","j","false","img/C_ambi40.png","朋友","prac",""
"","","","","","html-keyboard-response","156","372955","0.0-8.1-0.1-1.39","null","<span style='color:red; font-size: 70px;'>错误! </span>","null","","","","","","","","","","","","","","","","","","","","","","","feedback_test"
"","","","","","psychophysics","157","374421","0.0-8.1-0.1-0.40","456","","j","","","","","","","","","","","","","key","j","16.66313793103481","768","476","j","true","img/C_ambi40.png","朋友","prac",""
"","","","","","html-keyboard-response","158","374931","0.0-8.1-0.1-1.40","null","<span style='color:GreenYellow; font-size: 70px;'>正确! </span>","null","","","","","","","","","","","","","","","","","","","","","","","feedback_test"
"","","","","","psychophysics","159","376406","0.0-8.1-0.1-0.41","475","","j","","","","","","","","","","","","","key","j","16.665413793103486","768","476","j","true","img/T_ambi40.png","をる","prac",""
"","","","","","html-keyboard-response","160","376916","0.0-8.1-0.1-1.41","null","<span style='color:GreenYellow; font-size: 70px;'>正确! </span>","null","","","","","","","","","","","","","","","","","","","","","","","feedback_test"
"","","","","","psychophysics","161","378545","0.0-8.1-0.1-0.42","614","","j","","","","","","","","","","","","","key","j","16.66170833333369","768","476","j","true","img/S_ambi40.png","生人","prac",""
"","","","","","html-keyboard-response","162","379055","0.0-8.1-0.1-1.42","null","<span style='color:GreenYellow; font-size: 70px;'>正确! </span>","null","","","","","","","","","","","","","","","","","","","","","","","feedback_test"
"","","","","","psychophysics","163","380802","0.0-8.1-0.1-0.43","738","","f","","","","","","","","","","","","","key","f","16.66260576923042","768","476","f","true","img/C_ambi40.png","自我","prac",""
"","","","","","html-keyboard-response","164","381311","0.0-8.1-0.1-1.43","null","<span style='color:GreenYellow; font-size: 70px;'>正确! </span>","null","","","","","","","","","","","","","","","","","","","","","","","feedback_test"
"","","","","","psychophysics","165","382814","0.0-8.1-0.1-0.44","500","","j","","","","","","","","","","","","","key","j","16.666222222222455","768","476","f","false","img/S_ambi40.png","朋友","prac",""
"","","","","","html-keyboard-response","166","383321","0.0-8.1-0.1-1.44","null","<span style='color:red; font-size: 70px;'>错误! </span>","null","","","","","","","","","","","","","","","","","","","","","","","feedback_test"
"","","","","","psychophysics","167","384901","0.0-8.1-0.1-0.45","572","","j","","","","","","","","","","","","","key","j","16.664361702127785","768","476","j","true","img/S_ambi40.png","生人","prac",""
"","","","","","html-keyboard-response","168","385421","0.0-8.1-0.1-1.45","null","<span style='color:GreenYellow; font-size: 70px;'>正确! </span>","null","","","","","","","","","","","","","","","","","","","","","","","feedback_test"
"","","","","","psychophysics","169","386941","0.0-8.1-0.1-0.46","516","","j","","","","","","","","","","","","","key","j","16.662477777778015","768","476","j","true","img/T_ambi40.png","をる","prac",""
"","","","","","html-keyboard-response","170","387456","0.0-8.1-0.1-1.46","null","<span style='color:GreenYellow; font-size: 70px;'>正确! </span>","null","","","","","","","","","","","","","","","","","","","","","","","feedback_test"
"","","","","","psychophysics","171","389190","0.0-8.1-0.1-0.47","728","","j","","","","","","","","","","","","","key","j","16.66350485436851","768","476","f","false","img/H_ambi40.png","生人","prac",""
"","","","","","html-keyboard-response","172","389702","0.0-8.1-0.1-1.47","null","<span style='color:red; font-size: 70px;'>错误! </span>","null","","","","","","","","","","","","","","","","","","","","","","","feedback_test"
"","","","","","psychophysics","173","391448","0.0-8.1-0.1-0.48","736","","j","","","","","","","","","","","","","key","j","16.664259615385024","768","476","f","false","img/S_ambi40.png","朋友","prac",""
"","","","","","html-keyboard-response","174","391961","0.0-8.1-0.1-1.48","null","<span style='color:red; font-size: 70px;'>错误! </span>","null","","","","","","","","","","","","","","","","","","","","","","","feedback_test"
"","","","","","psychophysics","175","393437","0.0-8.1-0.1-0.49","475","","j","","","","","","","","","","","","","key","j","16.66563218390775","768","476","j","true","img/C_ambi40.png","朋友","prac",""
"","","","","","html-keyboard-response","176","393955","0.0-8.1-0.1-1.49","null","<span style='color:GreenYellow; font-size: 70px;'>正确! </span>","null","","","","","","","","","","","","","","","","","","","","","","","feedback_test"
"","","","","","psychophysics","177","395522","0.0-8.1-0.1-0.50","560","","j","","","","","","","","","","","","","key","j","16.66426881720432","768","476","j","true","img/T_ambi40.png","をる","prac",""
"","","","","","html-keyboard-response","178","396028","0.0-8.1-0.1-1.50","null","<span style='color:GreenYellow; font-size: 70px;'>正确! </span>","null","","","","","","","","","","","","","","","","","","","","","","","feedback_test"
"","","","","","psychophysics","179","397679","0.0-8.1-0.1-0.51","643","","f","","","","","","","","","","","","","key","f","16.66307142857113","768","476","f","true","img/S_ambi40.png","自我","prac",""
"","","","","","html-keyboard-response","180","398186","0.0-8.1-0.1-1.51","null","<span style='color:GreenYellow; font-size: 70px;'>正确! </span>","null","","","","","","","","","","","","","","","","","","","","","","","feedback_test"
"","","","","","psychophysics","181","400004","0.0-8.1-0.1-0.52","810","","f","","","","","","","","","","","","","key","f","16.663388888888964","768","476","j","false","img/S_ambi40.png","生人","prac",""
"","","","","","html-keyboard-response","182","400504","0.0-8.1-0.1-1.52","null","<span style='color:red; font-size: 70px;'>错误! </span>","null","","","","","","","","","","","","","","","","","","","","","","","feedback_test"
"","","","","","psychophysics","183","402306","0.0-8.1-0.1-0.53","796","","j","","","","","","","","","","","","","key","j","16.663289719626253","768","476","j","true","img/C_ambi40.png","朋友","prac",""
"","","","","","html-keyboard-response","184","402820","0.0-8.1-0.1-1.53","null","<span style='color:GreenYellow; font-size: 70px;'>正确! </span>","null","","","","","","","","","","","","","","","","","","","","","","","feedback_test"
"","","","","","psychophysics","185","404388","0.0-8.1-0.1-0.54","562","","j","","","","","","","","","","","","","key","j","16.66490322580656","768","476","j","true","img/T_ambi40.png","をる","prac",""
"","","","","","html-keyboard-response","186","404905","0.0-8.1-0.1-1.54","null","<span style='color:GreenYellow; font-size: 70px;'>正确! </span>","null","","","","","","","","","","","","","","","","","","","","","","","feedback_test"
"","","","","","psychophysics","187","406426","0.0-8.1-0.1-0.55","515","","f","","","","","","","","","","","","","key","f","16.665500000000208","768","476","j","false","img/H_ambi40.png","自我","prac",""
"","","","","","html-keyboard-response","188","406928","0.0-8.1-0.1-1.55","null","<span style='color:red; font-size: 70px;'>错误! </span>","null","","","","","","","","","","","","","","","","","","","","","","","feedback_test"
"","","","","","psychophysics","189","408514","0.0-8.1-0.1-0.56","572","","j","","","","","","","","","","","","","key","j","16.6640212765958","768","476","f","false","img/C_ambi40.png","生人","prac",""
"","","","","","html-keyboard-response","190","409018","0.0-8.1-0.1-1.56","null","<span style='color:red; font-size: 70px;'>错误! </span>","null","","","","","","","","","","","","","","","","","","","","","","","feedback_test"
"","","","","","psychophysics","191","410590","0.0-8.1-0.1-0.57","564","","j","","","","","","","","","","","","","key","j","16.66540860215087","768","476","j","true","img/S_ambi40.png","生人","prac",""
"","","","","","html-keyboard-response","192","411102","0.0-8.1-0.1-1.57","null","<span style='color:GreenYellow; font-size: 70px;'>正确! </span>","null","","","","","","","","","","","","","","","","","","","","","","","feedback_test"
"","","","","","psychophysics","193","412584","0.0-8.1-0.1-0.58","474","","j","","","","","","","","","","","","","key","j","16.66525000000018","768","476","j","true","img/T_ambi40.png","をる","prac",""
"","","","","","html-keyboard-response","194","413091","0.0-8.1-0.1-1.58","null","<span style='color:GreenYellow; font-size: 70px;'>正确! </span>","null","","","","","","","","","","","","","","","","","","","","","","","feedback_test"
"","","","","","psychophysics","195","414805","0.0-8.1-0.1-0.59","714","","f","","","","","","","","","","","","","key","f","16.66592079207951","768","476","f","true","img/C_ambi40.png","自我","prac",""
"","","","","","html-keyboard-response","196","415318","0.0-8.1-0.1-1.59","null","<span style='color:GreenYellow; font-size: 70px;'>正确! </span>","null","","","","","","","","","","","","","","","","","","","","","","","feedback_test"
"","","","","","psychophysics","197","416878","0.0-8.1-0.1-0.60","558","","j","","","","","","","","","","","","","key","j","16.665838709677523","768","476","j","true","img/T_ambi40.png","をる","prac",""
"","","","","","html-keyboard-response","198","417397","0.0-8.1-0.1-1.60","null","<span style='color:GreenYellow; font-size: 70px;'>正确! </span>","null","","","","","","","","","","","","","","","","","","","","","","","feedback_test"
"","","","","","psychophysics","199","419486","0.0-8.1-0.1-0.61","1079","","j","","","","","","","","","","","","","key","j","16.66503225806434","768","476","f","false","img/H_ambi40.png","朋友","prac",""
"","","","","","html-keyboard-response","200","419993","0.0-8.1-0.1-1.61","null","<span style='color:red; font-size: 70px;'>错误! </span>","null","","","","","","","","","","","","","","","","","","","","","","","feedback_test"
"","","","","","psychophysics","201","421592","0.0-8.1-0.1-0.62","585","","f","","","","","","","","","","","","","key","f","16.66681052631588","768","476","j","false","img/H_ambi40.png","自我","prac",""
"","","","","","html-keyboard-response","202","422110","0.0-8.1-0.1-1.62","null","<span style='color:red; font-size: 70px;'>错误! </span>","null","","","","","","","","","","","","","","","","","","","","","","","feedback_test"
"","","","","","psychophysics","203","423725","0.0-8.1-0.1-0.63","605","","j","","","","","","","","","","","","","key","j","16.66521874999974","768","476","f","false","img/H_ambi40.png","生人","prac",""
"","","","","","html-keyboard-response","204","424245","0.0-8.1-0.1-1.63","null","<span style='color:red; font-size: 70px;'>错误! </span>","null","","","","","","","","","","","","","","","","","","","","","","","feedback_test"
"","","","","","html-keyboard-response","205","425219","0.0-8.1-1.1-0.1","972","<style>.context{color:white; font-size: 35px; line-height:40px}</style>                          <div><p class='context'>您正确回答了50% 的试次。</p ><p class='context'>您的平均反应时为583毫秒。</p >","j","","","","","","","","","","","","","","","","","","","","","","",""
"","","","","","instructions","206","432016","0.0-8.1-1.1-1.1","6796","","","","","","","","","","","","","","[{""page_index"":0,""viewing_time"":2377},{""page_index"":1,""viewing_time"":3627},{""page_index"":2,""viewing_time"":792}]","","","","","","","","","","",""
"","","","","","psychophysics","207","433630","0.0-8.2-0.2-0.64","609","","j","","","","","","","","","","","","","key","j","16.66538541666705","768","476","j","true","img/H_ambi40.png","自我","prac",""
"","","","","","html-keyboard-response","208","434140","0.0-8.2-0.2-1.64","null","<span style='color:GreenYellow; font-size: 70px;'>正确! </span>","null","","","","","","","","","","","","","","","","","","","","","","","feedback_test"
"","","","","","psychophysics","209","435836","0.0-8.2-0.2-0.65","685","","j","","","","","","","","","","","","","key","j","16.66517999999982","768","476","j","true","img/C_ambi40.png","朋友","prac",""
"","","","","","html-keyboard-response","210","436356","0.0-8.2-0.2-1.65","null","<span style='color:GreenYellow; font-size: 70px;'>正确! </span>","null","","","","","","","","","","","","","","","","","","","","","","","feedback_test"
"","","","","","psychophysics","211","438077","0.0-8.2-0.2-0.66","715","","j","","","","","","","","","","","","","key","j","16.663990196078565","768","476","j","true","img/H_ambi40.png","自我","prac",""
"","","","","","html-keyboard-response","212","438591","0.0-8.2-0.2-1.66","null","<span style='color:GreenYellow; font-size: 70px;'>正确! </span>","null","","","","","","","","","","","","","","","","","","","","","","","feedback_test"
"","","","","","psychophysics","213","439938","0.0-8.2-0.2-0.67","333","","j","","","","","","","","","","","","","key","j","16.664775000000372","768","476","j","true","img/T_ambi40.png","をる","prac",""
"","","","","","html-keyboard-response","214","440447","0.0-8.2-0.2-1.67","null","<span style='color:GreenYellow; font-size: 70px;'>正确! </span>","null","","","","","","","","","","","","","","","","","","","","","","","feedback_test"
"","","","","","psychophysics","215","442102","0.0-8.2-0.2-0.68","649","","j","","","","","","","","","","","","","key","j","16.665591836734723","768","476","j","true","img/S_ambi40.png","生人","prac",""
"","","","","","html-keyboard-response","216","442611","0.0-8.2-0.2-1.68","null","<span style='color:GreenYellow; font-size: 70px;'>正确! </span>","null","","","","","","","","","","","","","","","","","","","","","","","feedback_test"
"","","","","","psychophysics","217","444192","0.0-8.2-0.2-0.69","571","","j","","","","","","","","","","","","","key","j","16.661840425532414","768","476","j","true","img/T_ambi40.png","をる","prac",""
"","","","","","html-keyboard-response","218","444701","0.0-8.2-0.2-1.69","null","<span style='color:GreenYellow; font-size: 70px;'>正确! </span>","null","","","","","","","","","","","","","","","","","","","","","","","feedback_test"
"","","","","","psychophysics","219","446550","0.0-8.2-0.2-0.70","846","","f","","","","","","","","","","","","","key","f","16.664854545454727","768","476","f","true","img/S_ambi40.png","朋友","prac",""
"","","","","","html-keyboard-response","220","447066","0.0-8.2-0.2-1.70","null","<span style='color:GreenYellow; font-size: 70px;'>正确! </span>","null","","","","","","","","","","","","","","","","","","","","","","","feedback_test"
"","","","","","psychophysics","221","448819","0.0-8.2-0.2-0.71","750","","j","","","","","","","","","","","","","key","j","16.664615384615338","768","476","j","true","img/C_ambi40.png","朋友","prac",""
"","","","","","html-keyboard-response","222","449323","0.0-8.2-0.2-1.71","null","<span style='color:GreenYellow; font-size: 70px;'>正确! </span>","null","","","","","","","","","","","","","","","","","","","","","","","feedback_test"
"","","","","","psychophysics","223","450811","0.0-8.2-0.2-0.72","477","","j","","","","","","","","","","","","","key","j","16.664079545454694","768","476","j","true","img/T_ambi40.png","をる","prac",""
"","","","","","html-keyboard-response","224","451315","0.0-8.2-0.2-1.72","null","<span style='color:GreenYellow; font-size: 70px;'>正确! </span>","null","","","","","","","","","","","","","","","","","","","","","","","feedback_test"
"","","","","","psychophysics","225","452781","0.0-8.2-0.2-0.73","462","","j","","","","","","","","","","","","","key","j","16.66432183908015","768","476","f","false","img/H_ambi40.png","生人","prac",""
"","","","","","html-keyboard-response","226","453302","0.0-8.2-0.2-1.73","null","<span style='color:red; font-size: 70px;'>错误! </span>","null","","","","","","","","","","","","","","","","","","","","","","","feedback_test"
"","","","","","psychophysics","227","454756","0.0-8.2-0.2-0.74","454","","j","","","","","","","","","","","","","key","j","16.6633953488375","768","476","j","true","img/S_ambi40.png","生人","prac",""
"","","","","","html-keyboard-response","228","455262","0.0-8.2-0.2-1.74","null","<span style='color:GreenYellow; font-size: 70px;'>正确! </span>","null","","","","","","","","","","","","","","","","","","","","","","","feedback_test"
"","","","","","psychophysics","229","456797","0.0-8.2-0.2-0.75","529","","j","","","","","","","","","","","","","key","j","16.665428571428613","768","476","j","true","img/T_ambi40.png","をる","prac",""
"","","","","","html-keyboard-response","230","457318","0.0-8.2-0.2-1.75","null","<span style='color:GreenYellow; font-size: 70px;'>正确! </span>","null","","","","","","","","","","","","","","","","","","","","","","","feedback_test"
"","","","","","psychophysics","231","459252","0.0-8.2-0.2-0.76","922","","j","","","","","","","","","","","","","key","j","16.661521739130535","768","476","f","false","img/H_ambi40.png","朋友","prac",""
"","","","","","html-keyboard-response","232","459763","0.0-8.2-0.2-1.76","null","<span style='color:red; font-size: 70px;'>错误! </span>","null","","","","","","","","","","","","","","","","","","","","","","","feedback_test"
"","","","","","psychophysics","233","461515","0.0-8.2-0.2-0.77","748","","f","","","","","","","","","","","","","key","f","16.66522115384634","768","476","f","true","img/C_ambi40.png","自我","prac",""
"","","","","","html-keyboard-response","234","462019","0.0-8.2-0.2-1.77","null","<span style='color:GreenYellow; font-size: 70px;'>正确! </span>","null","","","","","","","","","","","","","","","","","","","","","","","feedback_test"
"","","","","","psychophysics","235","463465","0.0-8.2-0.2-0.78","434","","j","","","","","","","","","","","","","key","j","16.667176470588483","768","476","f","false","img/S_ambi40.png","自我","prac",""
"","","","","","html-keyboard-response","236","463979","0.0-8.2-0.2-1.78","null","<span style='color:red; font-size: 70px;'>错误! </span>","null","","","","","","","","","","","","","","","","","","","","","","","feedback_test"
"","","","","","psychophysics","237","465715","0.0-8.2-0.2-0.79","732","","f","","","","","","","","","","","","","key","f","16.665990291262222","768","476","f","true","img/C_ambi40.png","生人","prac",""
"","","","","","html-keyboard-response","238","466221","0.0-8.2-0.2-1.79","null","<span style='color:GreenYellow; font-size: 70px;'>正确! </span>","null","","","","","","","","","","","","","","","","","","","","","","","feedback_test"
"","","","","","psychophysics","239","467839","0.0-8.2-0.2-0.80","613","","f","","","","","","","","","","","","","key","f","16.662916666666813","768","476","j","false","img/H_ambi40.png","自我","prac",""
"","","","","","html-keyboard-response","240","468349","0.0-8.2-0.2-1.80","null","<span style='color:red; font-size: 70px;'>错误! </span>","null","","","","","","","","","","","","","","","","","","","","","","","feedback_test"
"","","","","","psychophysics","241","470032","0.0-8.2-0.2-0.81","682","","j","","","","","","","","","","","","","key","j","16.66374747474699","768","476","f","false","img/H_ambi40.png","朋友","prac",""
"","","","","","html-keyboard-response","242","470539","0.0-8.2-0.2-1.81","null","<span style='color:red; font-size: 70px;'>错误! </span>","null","","","","","","","","","","","","","","","","","","","","","","","feedback_test"
"","","","","","psychophysics","243","472021","0.0-8.2-0.2-0.82","474","","j","","","","","","","","","","","","","key","j","16.66576136363636","768","476","f","false","img/C_ambi40.png","自我","prac",""
"","","","","","html-keyboard-response","244","472529","0.0-8.2-0.2-1.82","null","<span style='color:red; font-size: 70px;'>错误! </span>","null","","","","","","","","","","","","","","","","","","","","","","","feedback_test"
"","","","","","psychophysics","245","474257","0.0-8.2-0.2-0.83","725","","f","","","","","","","","","","","","","key","f","16.665999999999983","768","476","j","false","img/C_ambi40.png","朋友","prac",""
"","","","","","html-keyboard-response","246","474763","0.0-8.2-0.2-1.83","null","<span style='color:red; font-size: 70px;'>错误! </span>","null","","","","","","","","","","","","","","","","","","","","","","","feedback_test"
"","","","","","psychophysics","247","476780","0.0-8.2-0.2-0.84","1015","","j","","","","","","","","","","","","","key","j","16.66414999999979","768","476","j","true","img/S_ambi40.png","生人","prac",""
"","","","","","html-keyboard-response","248","477296","0.0-8.2-0.2-1.84","null","<span style='color:GreenYellow; font-size: 70px;'>正确! </span>","null","","","","","","","","","","","","","","","","","","","","","","","feedback_test"
"","","","","","psychophysics","249","479045","0.0-8.2-0.2-0.85","748","","j","","","","","","","","","","","","","key","j","16.66412499999961","768","476","f","false","img/C_ambi40.png","生人","prac",""
"","","","","","html-keyboard-response","250","479564","0.0-8.2-0.2-1.85","null","<span style='color:red; font-size: 70px;'>错误! </span>","null","","","","","","","","","","","","","","","","","","","","","","","feedback_test"
"","","","","","psychophysics","251","481086","0.0-8.2-0.2-0.86","520","","j","","","","","","","","","","","","","key","j","16.66115555555508","768","476","j","true","img/T_ambi40.png","をる","prac",""
"","","","","","html-keyboard-response","252","481608","0.0-8.2-0.2-1.86","null","<span style='color:GreenYellow; font-size: 70px;'>正确! </span>","null","","","","","","","","","","","","","","","","","","","","","","","feedback_test"
"","","","","","psychophysics","253","483217","0.0-8.2-0.2-0.87","603","","f","","","","","","","","","","","","","key","f","16.664562500000102","768","476","f","true","img/S_ambi40.png","自我","prac",""
"","","","","","html-keyboard-response","254","483720","0.0-8.2-0.2-1.87","null","<span style='color:GreenYellow; font-size: 70px;'>正确! </span>","null","","","","","","","","","","","","","","","","","","","","","","","feedback_test"
"","","","","","psychophysics","255","485503","0.0-8.2-0.2-0.88","773","","j","","","","","","","","","","","","","key","j","16.663386792452997","768","476","j","true","img/C_ambi40.png","朋友","prac",""
"","","","","","html-keyboard-response","256","486023","0.0-8.2-0.2-1.88","null","<span style='color:GreenYellow; font-size: 70px;'>正确! </span>","null","","","","","","","","","","","","","","","","","","","","","","","feedback_test"
"","","","","","psychophysics","257","487508","0.0-8.2-0.2-0.89","479","","j","","","","","","","","","","","","","key","j","16.66428409090903","768","476","j","true","img/T_ambi40.png","をる","prac",""
"","","","","","html-keyboard-response","258","488020","0.0-8.2-0.2-1.89","null","<span style='color:GreenYellow; font-size: 70px;'>正确! </span>","null","","","","","","","","","","","","","","","","","","","","","","","feedback_test"
"","","","","","psychophysics","259","489515","0.0-8.2-0.2-0.90","486","","j","","","","","","","","","","","","","key","j","16.664786516853578","768","476","j","true","img/T_ambi40.png","をる","prac",""
"","","","","","html-keyboard-response","260","490027","0.0-8.2-0.2-1.90","null","<span style='color:GreenYellow; font-size: 70px;'>正确! </span>","null","","","","","","","","","","","","","","","","","","","","","","","feedback_test"
"","","","","","psychophysics","261","491507","0.0-8.2-0.2-0.91","476","","j","","","","","","","","","","","","","key","j","16.517735632183967","768","476","j","true","img/T_ambi40.png","をる","prac",""
"","","","","","html-keyboard-response","262","492010","0.0-8.2-0.2-1.91","null","<span style='color:GreenYellow; font-size: 70px;'>正确! </span>","null","","","","","","","","","","","","","","","","","","","","","","","feedback_test"
"","","","","","psychophysics","263","493861","0.0-8.2-0.2-0.92","849","","j","","","","","","","","","","","","","key","j","16.66365454545435","768","476","j","true","img/S_ambi40.png","生人","prac",""
"","","","","","html-keyboard-response","264","494371","0.0-8.2-0.2-1.92","null","<span style='color:GreenYellow; font-size: 70px;'>正确! </span>","null","","","","","","","","","","","","","","","","","","","","","","","feedback_test"
"","","","","","psychophysics","265","496058","0.0-8.2-0.2-0.93","679","","f","","","","","","","","","","","","","key","f","16.663609999999753","768","476","f","true","img/H_ambi40.png","生人","prac",""
"","","","","","html-keyboard-response","266","496568","0.0-8.2-0.2-1.93","null","<span style='color:GreenYellow; font-size: 70px;'>正确! </span>","null","","","","","","","","","","","","","","","","","","","","","","","feedback_test"
"","","","","","psychophysics","267","498225","0.0-8.2-0.2-0.94","647","","j","","","","","","","","","","","","","key","j","16.66281632653067","768","476","j","true","img/H_ambi40.png","自我","prac",""
"","","","","","html-keyboard-response","268","498736","0.0-8.2-0.2-1.94","null","<span style='color:GreenYellow; font-size: 70px;'>正确! </span>","null","","","","","","","","","","","","","","","","","","","","","","","feedback_test"
"","","","","","psychophysics","269","500459","0.0-8.2-0.2-0.95","715","","j","","","","","","","","","","","","","key","j","16.662284313725632","768","476","f","false","img/S_ambi40.png","朋友","prac",""
"","","","","","html-keyboard-response","270","500968","0.0-8.2-0.2-1.95","null","<span style='color:red; font-size: 70px;'>错误! </span>","null","","","","","","","","","","","","","","","","","","","","","","","feedback_test"
"","","","","","html-keyboard-response","271","508147","0.0-9.0","7177","<style>.context{color:white; font-size: 35px; line-height:40px}</style>                          <div><p class='context'>您正确回答了72% 的试次。</p ><p class='context'>您的平均反应时为636毫秒。</p ><p class='context'>恭喜您完成练习。按任意键进入正式实验。</p ><p class='footer' style='font-size: 35px; line-height:40px;'>请在进入正式实验实验之前将您的<span style='color: lightgreen;'>食指</span>放在电脑键盘的相应键位上进行按键。</p >","j","","","","","","","","","","","","","","","","","","","","","","",""
"","","","","","psychophysics","272","510301","0.0-10.0-0.0-0.0-0.0-0.0","1145","","j","","","","","","","","","","","","","key","j","16.663101562499833","768","476","f","false","img/H_ambi40.png","生人","same",""
"","","","","","html-keyboard-response","273","510822","0.0-10.0-0.0-0.0-0.0-1.0","null","<span style='color:red; font-size: 70px;'>错误! </span>","null","","","","","","","","","","","","","","","","","","","","","","","feedback_test"
"","","","","","psychophysics","274","512699","0.0-10.0-0.0-0.0-0.0-0.1","873","","f","","","","","","","","","","","","","key","f","16.66479464285762","768","476","f","true","img/S_ambi40.png","自我","same",""
"","","","","","html-keyboard-response","275","513205","0.0-10.0-0.0-0.0-0.0-1.1","null","<span style='color:GreenYellow; font-size: 70px;'>正确! </span>","null","","","","","","","","","","","","","","","","","","","","","","","feedback_test"
"","","","","","psychophysics","276","514904","0.0-10.0-0.0-0.0-0.0-0.2","694","","f","","","","","","","","","","","","","key","f","16.664792079208212","768","476","f","true","img/S_ambi40.png","自我","same",""
"","","","","","html-keyboard-response","277","515413","0.0-10.0-0.0-0.0-0.0-1.2","null","<span style='color:GreenYellow; font-size: 70px;'>正确! </span>","null","","","","","","","","","","","","","","","","","","","","","","","feedback_test"
"","","","","","psychophysics","278","516962","0.0-10.0-0.0-0.0-0.0-0.3","538","","j","","","","","","","","","","","","","key","j","16.663500000000173","768","476","j","true","img/T_ambi40.png","をる","same",""
"","","","","","html-keyboard-response","279","517466","0.0-10.0-0.0-0.0-0.0-1.3","null","<span style='color:GreenYellow; font-size: 70px;'>正确! </span>","null","","","","","","","","","","","","","","","","","","","","","","","feedback_test"
"","","","","","psychophysics","280","519248","0.0-10.0-0.0-0.0-0.0-0.4","773","","j","","","","","","","","","","","","","key","j","16.668650943396575","768","476","j","true","img/C_ambi40.png","朋友","same",""
"","","","","","html-keyboard-response","281","519761","0.0-10.0-0.0-0.0-0.0-1.4","null","<span style='color:GreenYellow; font-size: 70px;'>正确! </span>","null","","","","","","","","","","","","","","","","","","","","","","","feedback_test"
"","","","","","psychophysics","282","521618","0.0-10.0-0.0-0.0-0.0-0.5","848","","j","","","","","","","","","","","","","key","j","16.662200000000038","768","476","j","true","img/H_ambi40.png","自我","same",""
"","","","","","html-keyboard-response","283","522136","0.0-10.0-0.0-0.0-0.0-1.5","null","<span style='color:GreenYellow; font-size: 70px;'>正确! </span>","null","","","","","","","","","","","","","","","","","","","","","","","feedback_test"
"","","","","","psychophysics","284","523639","0.0-10.0-0.0-0.0-0.0-0.6","498","","j","","","","","","","","","","","","","key","j","16.6645168539325","768","476","j","true","img/H_ambi40.png","自我","same",""
"","","","","","html-keyboard-response","285","524160","0.0-10.0-0.0-0.0-0.0-1.6","null","<span style='color:GreenYellow; font-size: 70px;'>正确! </span>","null","","","","","","","","","","","","","","","","","","","","","","","feedback_test"
"","","","","","psychophysics","286","525639","0.0-10.0-0.0-0.0-0.0-0.7","465","","j","","","","","","","","","","","","","key","j","16.66404597701146","768","476","j","true","img/T_ambi40.png","をる","same",""
"","","","","","html-keyboard-response","287","526156","0.0-10.0-0.0-0.0-0.0-1.7","null","<span style='color:GreenYellow; font-size: 70px;'>正确! </span>","null","","","","","","","","","","","","","","","","","","","","","","","feedback_test"
"","","","","","psychophysics","288","528095","0.0-10.0-0.0-0.0-0.0-0.8","939","","j","","","","","","","","","","","","","key","j","16.663686956521932","768","476","j","true","img/S_ambi40.png","生人","same",""
"","","","","","html-keyboard-response","289","528602","0.0-10.0-0.0-0.0-0.0-1.8","null","<span style='color:GreenYellow; font-size: 70px;'>正确! </span>","null","","","","","","","","","","","","","","","","","","","","","","","feedback_test"
"","","","","","psychophysics","290","530352","0.0-10.0-0.0-0.0-0.0-0.9","746","","f","","","","","","","","","","","","","key","f","16.664096153847193","768","476","f","true","img/C_ambi40.png","生人","same",""
"","","","","","html-keyboard-response","291","530870","0.0-10.0-0.0-0.0-0.0-1.9","null","<span style='color:GreenYellow; font-size: 70px;'>正确! </span>","null","","","","","","","","","","","","","","","","","","","","","","","feedback_test"
"","","","","","psychophysics","292","532523","0.0-10.0-0.0-0.0-0.0-0.10","650","","j","","","","","","","","","","","","","key","j","16.664989898990218","768","476","j","true","img/C_ambi40.png","朋友","same",""
"","","","","","html-keyboard-response","293","533034","0.0-10.0-0.0-0.0-0.0-1.10","null","<span style='color:GreenYellow; font-size: 70px;'>正确! </span>","null","","","","","","","","","","","","","","","","","","","","","","","feedback_test"
"","","","","","psychophysics","294","534902","0.0-10.0-0.0-0.0-0.0-0.11","863","","f","","","","","","","","","","","","","key","f","16.660621621620816","768","476","f","true","img/S_ambi40.png","朋友","same",""
"","","","","","html-keyboard-response","295","535420","0.0-10.0-0.0-0.0-0.0-1.11","null","<span style='color:GreenYellow; font-size: 70px;'>正确! </span>","null","","","","","","","","","","","","","","","","","","","","","","","feedback_test"
"","","","","","psychophysics","296","536949","0.0-10.0-0.0-0.0-0.0-0.12","527","","j","","","","","","","","","","","","","key","j","16.523844444443885","768","476","f","false","img/H_ambi40.png","朋友","same",""
"","","","","","html-keyboard-response","297","537471","0.0-10.0-0.0-0.0-0.0-1.12","null","<span style='color:red; font-size: 70px;'>错误! </span>","null","","","","","","","","","","","","","","","","","","","","","","","feedback_test"
"","","","","","psychophysics","298","538965","0.0-10.0-0.0-0.0-0.0-0.13","494","","j","","","","","","","","","","","","","key","j","16.663352272727273","768","476","f","false","img/C_ambi40.png","生人","same",""
"","","","","","html-keyboard-response","299","539478","0.0-10.0-0.0-0.0-0.0-1.13","null","<span style='color:red; font-size: 70px;'>错误! </span>","null","","","","","","","","","","","","","","","","","","","","","","","feedback_test"
"","","","","","psychophysics","300","541347","0.0-10.0-0.0-0.0-0.0-0.14","861","","j","","","","","","","","","","","","","key","j","16.664162162161716","768","476","j","true","img/S_ambi40.png","生人","same",""
"","","","","","html-keyboard-response","301","541860","0.0-10.0-0.0-0.0-0.0-1.14","null","<span style='color:GreenYellow; font-size: 70px;'>正确! </span>","null","","","","","","","","","","","","","","","","","","","","","","","feedback_test"
"","","","","","psychophysics","302","543608","0.0-10.0-0.0-0.0-0.0-0.15","739","","f","","","","","","","","","","","","","key","f","16.662586538461394","768","476","f","true","img/H_ambi40.png","朋友","same",""
"","","","","","html-keyboard-response","303","544124","0.0-10.0-0.0-0.0-0.0-1.15","null","<span style='color:GreenYellow; font-size: 70px;'>正确! </span>","null","","","","","","","","","","","","","","","","","","","","","","","feedback_test"
"","","","","","psychophysics","304","545672","0.0-10.0-0.0-0.0-0.0-0.16","535","","j","","","","","","","","","","","","","key","j","16.663445652174033","768","476","j","true","img/T_ambi40.png","をる","same",""
"","","","","","html-keyboard-response","305","546179","0.0-10.0-0.0-0.0-0.0-1.16","null","<span style='color:GreenYellow; font-size: 70px;'>正确! </span>","null","","","","","","","","","","","","","","","","","","","","","","","feedback_test"
"","","","","","psychophysics","306","547837","0.0-10.0-0.0-0.0-0.0-0.17","651","","f","","","","","","","","","","","","","key","f","16.66553535353571","768","476","f","true","img/C_ambi40.png","自我","same",""
"","","","","","html-keyboard-response","307","548354","0.0-10.0-0.0-0.0-0.0-1.17","null","<span style='color:GreenYellow; font-size: 70px;'>正确! </span>","null","","","","","","","","","","","","","","","","","","","","","","","feedback_test"
"","","","","","psychophysics","308","549969","0.0-10.0-0.0-0.0-0.0-0.18","599","","j","","","","","","","","","","","","","key","j","16.664778947368216","768","476","j","true","img/S_ambi40.png","生人","same",""
"","","","","","html-keyboard-response","309","550475","0.0-10.0-0.0-0.0-0.0-1.18","null","<span style='color:GreenYellow; font-size: 70px;'>正确! </span>","null","","","","","","","","","","","","","","","","","","","","","","","feedback_test"
"","","","","","psychophysics","310","552282","0.0-10.0-0.0-0.0-0.0-0.19","797","","f","","","","","","","","","","","","","key","f","16.664542056073948","768","476","f","true","img/C_ambi40.png","自我","same",""
"","","","","","html-keyboard-response","311","552794","0.0-10.0-0.0-0.0-0.0-1.19","null","<span style='color:GreenYellow; font-size: 70px;'>正确! </span>","null","","","","","","","","","","","","","","","","","","","","","","","feedback_test"
"","","","","","psychophysics","312","554482","0.0-10.0-0.0-0.0-0.0-0.20","681","","f","","","","","","","","","","","","","key","f","16.66314999999944","768","476","f","true","img/H_ambi40.png","朋友","same",""
"","","","","","html-keyboard-response","313","554994","0.0-10.0-0.0-0.0-0.0-1.20","null","<span style='color:GreenYellow; font-size: 70px;'>正确! </span>","null","","","","","","","","","","","","","","","","","","","","","","","feedback_test"
"","","","","","psychophysics","314","556659","0.0-10.0-0.0-0.0-0.0-0.21","657","","j","","","","","","","","","","","","","key","j","16.665505050505146","768","476","j","true","img/S_ambi40.png","生人","same",""
"","","","","","html-keyboard-response","315","557169","0.0-10.0-0.0-0.0-0.0-1.21","null","<span style='color:GreenYellow; font-size: 70px;'>正确! </span>","null","","","","","","","","","","","","","","","","","","","","","","","feedback_test"
"","","","","","psychophysics","316","558691","0.0-10.0-0.0-0.0-0.0-0.22","511","","j","","","","","","","","","","","","","key","j","16.66333333333411","768","476","j","true","img/T_ambi40.png","をる","same",""
"","","","","","html-keyboard-response","317","559193","0.0-10.0-0.0-0.0-0.0-1.22","null","<span style='color:GreenYellow; font-size: 70px;'>正确! </span>","null","","","","","","","","","","","","","","","","","","","","","","","feedback_test"
"","","","","","psychophysics","318","560700","0.0-10.0-0.0-0.0-0.0-0.23","498","","j","","","","","","","","","","","","","key","j","16.66358426966171","768","476","f","false","img/S_ambi40.png","朋友","same",""
"","","","","","html-keyboard-response","319","561219","0.0-10.0-0.0-0.0-0.0-1.23","null","<span style='color:red; font-size: 70px;'>错误! </span>","null","","","","","","","","","","","","","","","","","","","","","","","feedback_test"
"","","","","","psychophysics","320","562635","0.0-10.0-0.0-0.0-0.0-0.24","401","","j","","","","","","","","","","","","","key","j","16.6617499999993","768","476","j","true","img/C_ambi40.png","朋友","same",""
"","","","","","html-keyboard-response","321","563137","0.0-10.0-0.0-0.0-0.0-1.24","null","<span style='color:GreenYellow; font-size: 70px;'>正确! </span>","null","","","","","","","","","","","","","","","","","","","","","","","feedback_test"
"","","","","","psychophysics","322","564691","0.0-10.0-0.0-0.0-0.0-0.25","541","","f","","","","","","","","","","","","","key","f","16.66416304347829","768","476","f","true","img/H_ambi40.png","生人","same",""
"","","","","","html-keyboard-response","323","565194","0.0-10.0-0.0-0.0-0.0-1.25","null","<span style='color:GreenYellow; font-size: 70px;'>正确! </span>","null","","","","","","","","","","","","","","","","","","","","","","","feedback_test"
"","","","","","psychophysics","324","566704","0.0-10.0-0.0-0.0-0.0-0.26","504","","j","","","","","","","","","","","","","key","j","16.662744444444414","768","476","j","true","img/T_ambi40.png","をる","same",""
"","","","","","html-keyboard-response","325","567216","0.0-10.0-0.0-0.0-0.0-1.26","null","<span style='color:GreenYellow; font-size: 70px;'>正确! </span>","null","","","","","","","","","","","","","","","","","","","","","","","feedback_test"
"","","","","","psychophysics","326","568718","0.0-10.0-0.0-0.0-0.0-0.27","501","","j","","","","","","","","","","","","","key","j","16.6633483146074","768","476","j","true","img/C_ambi40.png","朋友","same",""
"","","","","","html-keyboard-response","327","569227","0.0-10.0-0.0-0.0-0.0-1.27","null","<span style='color:GreenYellow; font-size: 70px;'>正确! </span>","null","","","","","","","","","","","","","","","","","","","","","","","feedback_test"
"","","","","","psychophysics","328","570673","0.0-10.0-0.0-0.0-0.0-0.28","440","","j","","","","","","","","","","","","","key","j","16.663534883719727","768","476","f","false","img/C_ambi40.png","生人","same",""
"","","","","","html-keyboard-response","329","571186","0.0-10.0-0.0-0.0-0.0-1.28","null","<span style='color:red; font-size: 70px;'>错误! </span>","null","","","","","","","","","","","","","","","","","","","","","","","feedback_test"
"","","","","","psychophysics","330","572752","0.0-10.0-0.0-0.0-0.0-0.29","554","","j","","","","","","","","","","","","","key","j","16.66379569892481","768","476","f","false","img/S_ambi40.png","自我","same",""
"","","","","","html-keyboard-response","331","573260","0.0-10.0-0.0-0.0-0.0-1.29","null","<span style='color:red; font-size: 70px;'>错误! </span>","null","","","","","","","","","","","","","","","","","","","","","","","feedback_test"
"","","","","","psychophysics","332","575038","0.0-10.0-0.0-0.0-0.0-0.30","772","","f","","","","","","","","","","","","","key","f","16.66474528301986","768","476","f","true","img/S_ambi40.png","自我","same",""
"","","","","","html-keyboard-response","333","575559","0.0-10.0-0.0-0.0-0.0-1.30","null","<span style='color:GreenYellow; font-size: 70px;'>正确! </span>","null","","","","","","","","","","","","","","","","","","","","","","","feedback_test"
"","","","","","psychophysics","334","577245","0.0-10.0-0.0-0.0-0.0-0.31","681","","f","","","","","","","","","","","","","key","f","16.665920000000625","768","476","j","false","img/H_ambi40.png","自我","same",""
"","","","","","html-keyboard-response","335","577764","0.0-10.0-0.0-0.0-0.0-1.31","null","<span style='color:red; font-size: 70px;'>错误! </span>","null","","","","","","","","","","","","","","","","","","","","","","","feedback_test"
"","","","","","psychophysics","336","579302","0.0-10.0-0.0-0.0-0.0-0.32","537","","j","","","","","","","","","","","","","key","j","16.663879120878487","768","476","j","true","img/T_ambi40.png","をる","same",""
"","","","","","html-keyboard-response","337","579809","0.0-10.0-0.0-0.0-0.0-1.32","null","<span style='color:GreenYellow; font-size: 70px;'>正确! </span>","null","","","","","","","","","","","","","","","","","","","","","","","feedback_test"
"","","","","","psychophysics","338","581370","0.0-10.0-0.0-0.0-0.0-0.33","555","","j","","","","","","","","","","","","","key","j","16.664591397849783","768","476","f","false","img/C_ambi40.png","生人","same",""
"","","","","","html-keyboard-response","339","581879","0.0-10.0-0.0-0.0-0.0-1.33","null","<span style='color:red; font-size: 70px;'>错误! </span>","null","","","","","","","","","","","","","","","","","","","","","","","feedback_test"
"","","","","","psychophysics","340","583581","0.0-10.0-0.0-0.0-0.0-0.34","701","","f","","","","","","","","","","","","","key","f","16.658217821781992","768","476","j","false","img/H_ambi40.png","自我","same",""
"","","","","","html-keyboard-response","341","584103","0.0-10.0-0.0-0.0-0.0-1.34","null","<span style='color:red; font-size: 70px;'>错误! </span>","null","","","","","","","","","","","","","","","","","","","","","","","feedback_test"
"","","","","","psychophysics","342","585774","0.0-10.0-0.0-0.0-0.0-0.35","661","","f","","","","","","","","","","","","","key","f","16.665747474747324","768","476","f","true","img/H_ambi40.png","朋友","same",""
"","","","","","html-keyboard-response","343","586287","0.0-10.0-0.0-0.0-0.0-1.35","null","<span style='color:GreenYellow; font-size: 70px;'>正确! </span>","null","","","","","","","","","","","","","","","","","","","","","","","feedback_test"
"","","","","","psychophysics","344","588221","0.0-10.0-0.0-0.0-0.0-0.36","925","","f","","","","","","","","","","","","","key","f","16.664095652173273","768","476","f","true","img/H_ambi40.png","生人","same",""
"","","","","","html-keyboard-response","345","588738","0.0-10.0-0.0-0.0-0.0-1.36","null","<span style='color:GreenYellow; font-size: 70px;'>正确! </span>","null","","","","","","","","","","","","","","","","","","","","","","","feedback_test"
"","","","","","psychophysics","346","590778","0.0-10.0-0.0-0.0-0.0-0.37","1032","","f","","","","","","","","","","","","","key","f","16.663504132232244","768","476","f","true","img/C_ambi40.png","生人","same",""
"","","","","","html-keyboard-response","347","591291","0.0-10.0-0.0-0.0-0.0-1.37","null","<span style='color:GreenYellow; font-size: 70px;'>正确! </span>","null","","","","","","","","","","","","","","","","","","","","","","","feedback_test"
"","","","","","psychophysics","348","593189","0.0-10.0-0.0-0.0-0.0-0.38","894","","f","","","","","","","","","","","","","key","f","16.664601769911297","768","476","f","true","img/C_ambi40.png","自我","same",""
"","","","","","html-keyboard-response","349","593706","0.0-10.0-0.0-0.0-0.0-1.38","null","<span style='color:GreenYellow; font-size: 70px;'>正确! </span>","null","","","","","","","","","","","","","","","","","","","","","","","feedback_test"
"","","","","","psychophysics","350","595568","0.0-10.0-0.0-0.0-0.0-0.39","857","","f","","","","","","","","","","","","","key","f","16.665945945946323","768","476","f","true","img/S_ambi40.png","自我","same",""
"","","","","","html-keyboard-response","351","596086","0.0-10.0-0.0-0.0-0.0-1.39","null","<span style='color:GreenYellow; font-size: 70px;'>正确! </span>","null","","","","","","","","","","","","","","","","","","","","","","","feedback_test"
"","","","","","psychophysics","352","597795","0.0-10.0-0.0-0.0-0.0-0.40","700","","f","","","","","","","","","","","","","key","f","16.665960396039484","768","476","f","true","img/C_ambi40.png","生人","same",""
"","","","","","html-keyboard-response","353","598300","0.0-10.0-0.0-0.0-0.0-1.40","null","<span style='color:GreenYellow; font-size: 70px;'>正确! </span>","null","","","","","","","","","","","","","","","","","","","","","","","feedback_test"
"","","","","","psychophysics","354","599922","0.0-10.0-0.0-0.0-0.0-0.41","610","","j","","","","","","","","","","","","","key","j","16.66425000000042","768","476","j","true","img/H_ambi40.png","自我","same",""
"","","","","","html-keyboard-response","355","600437","0.0-10.0-0.0-0.0-0.0-1.41","null","<span style='color:GreenYellow; font-size: 70px;'>正确! </span>","null","","","","","","","","","","","","","","","","","","","","","","","feedback_test"
"","","","","","psychophysics","356","602002","0.0-10.0-0.0-0.0-0.0-0.42","557","","j","","","","","","","","","","","","","key","j","16.66431182795655","768","476","j","true","img/T_ambi40.png","をる","same",""
"","","","","","html-keyboard-response","357","602509","0.0-10.0-0.0-0.0-0.0-1.42","null","<span style='color:GreenYellow; font-size: 70px;'>正确! </span>","null","","","","","","","","","","","","","","","","","","","","","","","feedback_test"
"","","","","","psychophysics","358","604317","0.0-10.0-0.0-0.0-0.0-0.43","804","","f","","","","","","","","","","","","","key","f","16.538102803737683","768","476","f","true","img/H_ambi40.png","朋友","same",""
"","","","","","html-keyboard-response","359","604831","0.0-10.0-0.0-0.0-0.0-1.43","null","<span style='color:GreenYellow; font-size: 70px;'>正确! </span>","null","","","","","","","","","","","","","","","","","","","","","","","feedback_test"
"","","","","","psychophysics","360","606416","0.0-10.0-0.0-0.0-0.0-0.44","584","","f","","","","","","","","","","","","","key","f","16.663436170212893","768","476","f","true","img/S_ambi40.png","自我","same",""
"","","","","","html-keyboard-response","361","606922","0.0-10.0-0.0-0.0-0.0-1.44","null","<span style='color:GreenYellow; font-size: 70px;'>正确! </span>","null","","","","","","","","","","","","","","","","","","","","","","","feedback_test"
"","","","","","psychophysics","362","608833","0.0-10.0-0.0-0.0-0.0-0.45","907","","j","","","","","","","","","","","","","key","j","16.66451754385969","768","476","j","true","img/S_ambi40.png","生人","same",""
"","","","","","html-keyboard-response","363","609340","0.0-10.0-0.0-0.0-0.0-1.45","null","<span style='color:GreenYellow; font-size: 70px;'>正确! </span>","null","","","","","","","","","","","","","","","","","","","","","","","feedback_test"
"","","","","","psychophysics","364","610861","0.0-10.0-0.0-0.0-0.0-0.46","519","","j","","","","","","","","","","","","","key","j","16.671241758241585","768","476","f","false","img/H_ambi40.png","朋友","same",""
"","","","","","html-keyboard-response","365","611378","0.0-10.0-0.0-0.0-0.0-1.46","null","<span style='color:red; font-size: 70px;'>错误! </span>","null","","","","","","","","","","","","","","","","","","","","","","","feedback_test"
"","","","","","psychophysics","366","612961","0.0-10.0-0.0-0.0-0.0-0.47","569","","f","","","","","","","","","","","","","key","f","16.66556382978687","768","476","j","false","img/C_ambi40.png","朋友","same",""
"","","","","","html-keyboard-response","367","613465","0.0-10.0-0.0-0.0-0.0-1.47","null","<span style='color:red; font-size: 70px;'>错误! </span>","null","","","","","","","","","","","","","","","","","","","","","","","feedback_test"
"","","","","","psychophysics","368","615073","0.0-10.0-0.0-0.0-0.0-0.48","598","","j","","","","","","","","","","","","","key","j","16.663336842105185","768","476","j","true","img/C_ambi40.png","朋友","same",""
"","","","","","html-keyboard-response","369","615583","0.0-10.0-0.0-0.0-0.0-1.48","null","<span style='color:GreenYellow; font-size: 70px;'>正确! </span>","null","","","","","","","","","","","","","","","","","","","","","","","feedback_test"
"","","","","","psychophysics","370","617255","0.0-10.0-0.0-0.0-0.0-0.49","670","","j","","","","","","","","","","","","","key","j","16.663747474747577","768","476","f","false","img/S_ambi40.png","朋友","same",""
"","","","","","html-keyboard-response","371","617770","0.0-10.0-0.0-0.0-0.0-1.49","null","<span style='color:red; font-size: 70px;'>错误! </span>","null","","","","","","","","","","","","","","","","","","","","","","","feedback_test"
"","","","","","psychophysics","372","619351","0.0-10.0-0.0-0.0-0.0-0.50","575","","f","","","","","","","","","","","","","key","f","16.66426595744672","768","476","j","false","img/H_ambi40.png","自我","same",""
"","","","","","html-keyboard-response","373","619859","0.0-10.0-0.0-0.0-0.0-1.50","null","<span style='color:red; font-size: 70px;'>错误! </span>","null","","","","","","","","","","","","","","","","","","","","","","","feedback_test"
"","","","","","psychophysics","374","621733","0.0-10.0-0.0-0.0-0.0-0.51","861","","j","","","","","","","","","","","","","key","j","16.66248648648616","768","476","j","true","img/S_ambi40.png","生人","same",""
"","","","","","html-keyboard-response","375","622243","0.0-10.0-0.0-0.0-0.0-1.51","null","<span style='color:GreenYellow; font-size: 70px;'>正确! </span>","null","","","","","","","","","","","","","","","","","","","","","","","feedback_test"
"","","","","","psychophysics","376","623734","0.0-10.0-0.0-0.0-0.0-0.52","479","","j","","","","","","","","","","","","","key","j","16.663420454546046","768","476","j","true","img/T_ambi40.png","をる","same",""
"","","","","","html-keyboard-response","377","624249","0.0-10.0-0.0-0.0-0.0-1.52","null","<span style='color:GreenYellow; font-size: 70px;'>正确! </span>","null","","","","","","","","","","","","","","","","","","","","","","","feedback_test"
"","","","","","psychophysics","378","625692","0.0-10.0-0.0-0.0-0.0-0.53","434","","j","","","","","","","","","","","","","key","j","16.656290697674322","768","476","j","true","img/T_ambi40.png","をる","same",""
"","","","","","html-keyboard-response","379","626210","0.0-10.0-0.0-0.0-0.0-1.53","null","<span style='color:GreenYellow; font-size: 70px;'>正确! </span>","null","","","","","","","","","","","","","","","","","","","","","","","feedback_test"
"","","","","","psychophysics","380","627722","0.0-10.0-0.0-0.0-0.0-0.54","501","","j","","","","","","","","","","","","","key","j","16.669865168539513","768","476","j","true","img/C_ambi40.png","朋友","same",""
"","","","","","html-keyboard-response","381","628237","0.0-10.0-0.0-0.0-0.0-1.54","null","<span style='color:GreenYellow; font-size: 70px;'>正确! </span>","null","","","","","","","","","","","","","","","","","","","","","","","feedback_test"
"","","","","","psychophysics","382","629961","0.0-10.0-0.0-0.0-0.0-0.55","722","","f","","","","","","","","","","","","","key","f","16.658999999999793","768","476","f","true","img/S_ambi40.png","自我","same",""
"","","","","","html-keyboard-response","383","630465","0.0-10.0-0.0-0.0-0.0-1.55","null","<span style='color:GreenYellow; font-size: 70px;'>正确! </span>","null","","","","","","","","","","","","","","","","","","","","","","","feedback_test"
"","","","","","psychophysics","384","632015","0.0-10.0-0.0-0.0-0.0-0.56","540","","j","","","","","","","","","","","","","key","j","16.66516304347897","768","476","j","true","img/T_ambi40.png","をる","same",""
"","","","","","html-keyboard-response","385","632529","0.0-10.0-0.0-0.0-0.0-1.56","null","<span style='color:GreenYellow; font-size: 70px;'>正确! </span>","null","","","","","","","","","","","","","","","","","","","","","","","feedback_test"
"","","","","","psychophysics","386","634293","0.0-10.0-0.0-0.0-0.0-0.57","753","","f","","","","","","","","","","","","","key","f","16.663542857143053","768","476","f","true","img/H_ambi40.png","朋友","same",""
"","","","","","html-keyboard-response","387","634805","0.0-10.0-0.0-0.0-0.0-1.57","null","<span style='color:GreenYellow; font-size: 70px;'>正确! </span>","null","","","","","","","","","","","","","","","","","","","","","","","feedback_test"
"","","","","","psychophysics","388","636381","0.0-10.0-0.0-0.0-0.0-0.58","576","","j","","","","","","","","","","","","","key","j","16.664655913979377","768","476","j","true","img/S_ambi40.png","生人","same",""
"","","","","","html-keyboard-response","389","636897","0.0-10.0-0.0-0.0-0.0-1.58","null","<span style='color:GreenYellow; font-size: 70px;'>正确! </span>","null","","","","","","","","","","","","","","","","","","","","","","","feedback_test"
"","","","","","psychophysics","390","638382","0.0-10.0-0.0-0.0-0.0-0.59","477","","j","","","","","","","","","","","","","key","j","16.66471590909218","768","476","j","true","img/T_ambi40.png","をる","same",""
"","","","","","html-keyboard-response","391","638902","0.0-10.0-0.0-0.0-0.0-1.59","null","<span style='color:GreenYellow; font-size: 70px;'>正确! </span>","null","","","","","","","","","","","","","","","","","","","","","","","feedback_test"
"","","","","","psychophysics","392","640314","0.0-10.0-0.0-0.0-0.0-0.60","409","","j","","","","","","","","","","","","","key","j","16.66457142857031","768","476","j","true","img/H_ambi40.png","自我","same",""
"","","","","","html-keyboard-response","393","640818","0.0-10.0-0.0-0.0-0.0-1.60","null","<span style='color:GreenYellow; font-size: 70px;'>正确! </span>","null","","","","","","","","","","","","","","","","","","","","","","","feedback_test"
"","","","","","psychophysics","394","642351","0.0-10.0-0.0-0.0-0.0-0.61","529","","j","","","","","","","","","","","","","key","j","16.66397802197825","768","476","j","true","img/T_ambi40.png","をる","same",""
"","","","","","html-keyboard-response","395","642867","0.0-10.0-0.0-0.0-0.0-1.61","null","<span style='color:GreenYellow; font-size: 70px;'>正确! </span>","null","","","","","","","","","","","","","","","","","","","","","","","feedback_test"
"","","","","","psychophysics","396","644309","0.0-10.0-0.0-0.0-0.0-0.62","438","","j","","","","","","","","","","","","","key","j","16.66459302325614","768","476","j","true","img/C_ambi40.png","朋友","same",""
"","","","","","html-keyboard-response","397","644816","0.0-10.0-0.0-0.0-0.0-1.62","null","<span style='color:GreenYellow; font-size: 70px;'>正确! </span>","null","","","","","","","","","","","","","","","","","","","","","","","feedback_test"
"","","","","","psychophysics","398","646248","0.0-10.0-0.0-0.0-0.0-0.63","427","","j","","","","","","","","","","","","","key","j","16.665988235294765","768","476","f","false","img/C_ambi40.png","生人","same",""
"","","","","","html-keyboard-response","399","646765","0.0-10.0-0.0-0.0-0.0-1.63","null","<span style='color:red; font-size: 70px;'>错误! </span>","null","","","","","","","","","","","","","","","","","","","","","","","feedback_test"
"","","","","","psychophysics","400","648514","0.0-10.0-0.0-0.0-0.0-0.64","744","","f","","","","","","","","","","","","","key","f","16.666557692308114","768","476","f","true","img/S_ambi40.png","自我","same",""
"","","","","","html-keyboard-response","401","649023","0.0-10.0-0.0-0.0-0.0-1.64","null","<span style='color:GreenYellow; font-size: 70px;'>正确! </span>","null","","","","","","","","","","","","","","","","","","","","","","","feedback_test"
"","","","","","psychophysics","402","650825","0.0-10.0-0.0-0.0-0.0-0.65","791","","j","","","","","","","","","","","","","key","j","16.661467289719642","768","476","f","false","img/H_ambi40.png","生人","same",""
"","","","","","html-keyboard-response","403","651344","0.0-10.0-0.0-0.0-0.0-1.65","null","<span style='color:red; font-size: 70px;'>错误! </span>","null","","","","","","","","","","","","","","","","","","","","","","","feedback_test"
"","","","","","psychophysics","404","653024","0.0-10.0-0.0-0.0-0.0-0.66","671","","j","","","","","","","","","","","","","key","j","16.663769999999786","768","476","j","true","img/H_ambi40.png","自我","same",""
"","","","","","html-keyboard-response","405","653536","0.0-10.0-0.0-0.0-0.0-1.66","null","<span style='color:GreenYellow; font-size: 70px;'>正确! </span>","null","","","","","","","","","","","","","","","","","","","","","","","feedback_test"
"","","","","","psychophysics","406","655273","0.0-10.0-0.0-0.0-0.0-0.67","736","","f","","","","","","","","","","","","","key","f","16.6623883495148","768","476","f","true","img/S_ambi40.png","朋友","same",""
"","","","","","html-keyboard-response","407","655778","0.0-10.0-0.0-0.0-0.0-1.67","null","<span style='color:GreenYellow; font-size: 70px;'>正确! </span>","null","","","","","","","","","","","","","","","","","","","","","","","feedback_test"
"","","","","","psychophysics","408","657706","0.0-10.0-0.0-0.0-0.0-0.68","922","","f","","","","","","","","","","","","","key","f","16.663895652173895","768","476","f","true","img/C_ambi40.png","生人","same",""
"","","","","","html-keyboard-response","409","658223","0.0-10.0-0.0-0.0-0.0-1.68","null","<span style='color:GreenYellow; font-size: 70px;'>正确! </span>","null","","","","","","","","","","","","","","","","","","","","","","","feedback_test"
"","","","","","psychophysics","410","660010","0.0-10.0-0.0-0.0-0.0-0.69","776","","f","","","","","","","","","","","","","key","f","16.66319811320754","768","476","f","true","img/H_ambi40.png","朋友","same",""
"","","","","","html-keyboard-response","411","660525","0.0-10.0-0.0-0.0-0.0-1.69","null","<span style='color:GreenYellow; font-size: 70px;'>正确! </span>","null","","","","","","","","","","","","","","","","","","","","","","","feedback_test"
"","","","","","psychophysics","412","662377","0.0-10.0-0.0-0.0-0.0-0.70","843","","f","","","","","","","","","","","","","key","f","16.663563636363357","768","476","f","true","img/C_ambi40.png","自我","same",""
"","","","","","html-keyboard-response","413","662895","0.0-10.0-0.0-0.0-0.0-1.70","null","<span style='color:GreenYellow; font-size: 70px;'>正确! </span>","null","","","","","","","","","","","","","","","","","","","","","","","feedback_test"
"","","","","","psychophysics","414","664715","0.0-10.0-0.0-0.0-0.0-0.71","814","","j","","","","","","","","","","","","","key","j","16.65626851851832","768","476","j","true","img/S_ambi40.png","生人","same",""
"","","","","","html-keyboard-response","415","665230","0.0-10.0-0.0-0.0-0.0-1.71","null","<span style='color:GreenYellow; font-size: 70px;'>正确! </span>","null","","","","","","","","","","","","","","","","","","","","","","","feedback_test"
"","","","","","psychophysics","416","666712","0.0-10.0-0.0-0.0-0.0-0.72","478","","j","","","","","","","","","","","","","key","j","16.66602272727257","768","476","j","true","img/T_ambi40.png","をる","same",""
"","","","","","html-keyboard-response","417","667222","0.0-10.0-0.0-0.0-0.0-1.72","null","<span style='color:GreenYellow; font-size: 70px;'>正确! </span>","null","","","","","","","","","","","","","","","","","","","","","","","feedback_test"
"","","","","","psychophysics","418","668635","0.0-10.0-0.0-0.0-0.0-0.73","403","","j","","","","","","","","","","","","","key","j","16.6630833333336","768","476","j","true","img/T_ambi40.png","をる","same",""
"","","","","","html-keyboard-response","419","669137","0.0-10.0-0.0-0.0-0.0-1.73","null","<span style='color:GreenYellow; font-size: 70px;'>正确! </span>","null","","","","","","","","","","","","","","","","","","","","","","","feedback_test"
"","","","","","psychophysics","420","670716","0.0-10.0-0.0-0.0-0.0-0.74","571","","f","","","","","","","","","","","","","key","f","16.66334042553245","768","476","f","true","img/S_ambi40.png","自我","same",""
"","","","","","html-keyboard-response","421","671233","0.0-10.0-0.0-0.0-0.0-1.74","null","<span style='color:GreenYellow; font-size: 70px;'>正确! </span>","null","","","","","","","","","","","","","","","","","","","","","","","feedback_test"
"","","","","","psychophysics","422","672876","0.0-10.0-0.0-0.0-0.0-0.75","635","","f","","","","","","","","","","","","","key","f","16.663268041237707","768","476","j","false","img/H_ambi40.png","自我","same",""
"","","","","","html-keyboard-response","423","673394","0.0-10.0-0.0-0.0-0.0-1.75","null","<span style='color:red; font-size: 70px;'>错误! </span>","null","","","","","","","","","","","","","","","","","","","","","","","feedback_test"
"","","","","","psychophysics","424","674986","0.0-10.0-0.0-0.0-0.0-0.76","587","","j","","","","","","","","","","","","","key","j","16.665673684211153","768","476","j","true","img/S_ambi40.png","生人","same",""
"","","","","","html-keyboard-response","425","675501","0.0-10.0-0.0-0.0-0.0-1.76","null","<span style='color:GreenYellow; font-size: 70px;'>正确! </span>","null","","","","","","","","","","","","","","","","","","","","","","","feedback_test"
"","","","","","psychophysics","426","677193","0.0-10.0-0.0-0.0-0.0-0.77","678","","f","","","","","","","","","","","","","key","f","16.66503000000026","768","476","f","true","img/C_ambi40.png","生人","same",""
"","","","","","html-keyboard-response","427","677705","0.0-10.0-0.0-0.0-0.0-1.77","null","<span style='color:GreenYellow; font-size: 70px;'>正确! </span>","null","","","","","","","","","","","","","","","","","","","","","","","feedback_test"
"","","","","","psychophysics","428","679259","0.0-10.0-0.0-0.0-0.0-0.78","544","","j","","","","","","","","","","","","","key","j","16.663521739130374","768","476","f","false","img/S_ambi40.png","自我","same",""
"","","","","","html-keyboard-response","429","679774","0.0-10.0-0.0-0.0-0.0-1.78","null","<span style='color:red; font-size: 70px;'>错误! </span>","null","","","","","","","","","","","","","","","","","","","","","","","feedback_test"
"","","","","","psychophysics","430","681370","0.0-10.0-0.0-0.0-0.0-0.79","590","","j","","","","","","","","","","","","","key","j","16.664157894736547","768","476","j","true","img/S_ambi40.png","生人","same",""
"","","","","","html-keyboard-response","431","681874","0.0-10.0-0.0-0.0-0.0-1.79","null","<span style='color:GreenYellow; font-size: 70px;'>正确! </span>","null","","","","","","","","","","","","","","","","","","","","","","","feedback_test"
"","","","","","psychophysics","432","683502","0.0-10.0-0.0-0.0-0.0-0.80","622","","f","","","","","","","","","","","","","key","f","16.66528865979437","768","476","f","true","img/H_ambi40.png","朋友","same",""
"","","","","","html-keyboard-response","433","684017","0.0-10.0-0.0-0.0-0.0-1.80","null","<span style='color:GreenYellow; font-size: 70px;'>正确! </span>","null","","","","","","","","","","","","","","","","","","","","","","","feedback_test"
"","","","","","psychophysics","434","685685","0.0-10.0-0.0-0.0-0.0-0.81","656","","f","","","","","","","","","","","","","key","f","16.664868686867955","768","476","f","true","img/H_ambi40.png","生人","same",""
"","","","","","html-keyboard-response","435","686202","0.0-10.0-0.0-0.0-0.0-1.81","null","<span style='color:GreenYellow; font-size: 70px;'>正确! </span>","null","","","","","","","","","","","","","","","","","","","","","","","feedback_test"
"","","","","","psychophysics","436","687823","0.0-10.0-0.0-0.0-0.0-0.82","611","","j","","","","","","","","","","","","","key","j","16.669291666666442","768","476","j","true","img/C_ambi40.png","朋友","same",""
"","","","","","html-keyboard-response","437","688335","0.0-10.0-0.0-0.0-0.0-1.82","null","<span style='color:GreenYellow; font-size: 70px;'>正确! </span>","null","","","","","","","","","","","","","","","","","","","","","","","feedback_test"
"","","","","","psychophysics","438","689836","0.0-10.0-0.0-0.0-0.0-0.83","490","","j","","","","","","","","","","","","","key","j","16.665134831461167","768","476","j","true","img/T_ambi40.png","をる","same",""
"","","","","","html-keyboard-response","439","690344","0.0-10.0-0.0-0.0-0.0-1.83","null","<span style='color:GreenYellow; font-size: 70px;'>正确! </span>","null","","","","","","","","","","","","","","","","","","","","","","","feedback_test"
"","","","","","psychophysics","440","692089","0.0-10.0-0.0-0.0-0.0-0.84","743","","f","","","","","","","","","","","","","key","f","16.665213592232938","768","476","j","false","img/C_ambi40.png","朋友","same",""
"","","","","","html-keyboard-response","441","692607","0.0-10.0-0.0-0.0-0.0-1.84","null","<span style='color:red; font-size: 70px;'>错误! </span>","null","","","","","","","","","","","","","","","","","","","","","","","feedback_test"
"","","","","","psychophysics","442","694083","0.0-10.0-0.0-0.0-0.0-0.85","470","","j","","","","","","","","","","","","","key","j","16.66380681818092","768","476","f","false","img/C_ambi40.png","自我","same",""
"","","","","","html-keyboard-response","443","694584","0.0-10.0-0.0-0.0-0.0-1.85","null","<span style='color:red; font-size: 70px;'>错误! </span>","null","","","","","","","","","","","","","","","","","","","","","","","feedback_test"
"","","","","","psychophysics","444","696280","0.0-10.0-0.0-0.0-0.0-0.86","685","","f","","","","","","","","","","","","","key","f","16.66493069306984","768","476","f","true","img/H_ambi40.png","朋友","same",""
"","","","","","html-keyboard-response","445","696793","0.0-10.0-0.0-0.0-0.0-1.86","null","<span style='color:GreenYellow; font-size: 70px;'>正确! </span>","null","","","","","","","","","","","","","","","","","","","","","","","feedback_test"
"","","","","","psychophysics","446","698393","0.0-10.0-0.0-0.0-0.0-0.87","598","","j","","","","","","","","","","","","","key","j","16.520021276595568","768","476","f","false","img/C_ambi40.png","生人","same",""
"","","","","","html-keyboard-response","447","698898","0.0-10.0-0.0-0.0-0.0-1.87","null","<span style='color:red; font-size: 70px;'>错误! </span>","null","","","","","","","","","","","","","","","","","","","","","","","feedback_test"
"","","","","","psychophysics","448","700829","0.0-10.0-0.0-0.0-0.0-0.88","918","","f","","","","","","","","","","","","","key","f","16.664600000000032","768","476","f","true","img/S_ambi40.png","朋友","same",""
"","","","","","html-keyboard-response","449","701341","0.0-10.0-0.0-0.0-0.0-1.88","null","<span style='color:GreenYellow; font-size: 70px;'>正确! </span>","null","","","","","","","","","","","","","","","","","","","","","","","feedback_test"
"","","","","","psychophysics","450","702949","0.0-10.0-0.0-0.0-0.0-0.89","606","","f","","","","","","","","","","","","","key","f","16.663916666665802","768","476","j","false","img/H_ambi40.png","自我","same",""
