"success","timeout","failed_images","failed_audio","failed_video","trial_type","trial_index","time_elapsed","internal_node_id","rt","stimulus","response","value","item_width_mm","item_height_mm","item_width_px","px2mm","view_dist_mm","item_width_deg","px2deg","scale_factor","win_width_deg","win_height_deg","view_history","response_type","key_press","avg_frame_time","center_x","center_y","correct_response","correct","Image","text","condition","screen_id","label"
"true","false","[]","[]","[]","preload","0","1","0.0-0.0","","","","","","","","","","","","","","","","","","","","","","","","","","",""
"","","","","","html-keyboard-response","1","127231","0.0-1.0","127229","
  <p>您好，欢迎参加本次实验。</p>
  <p>为充分保障您的权利，请确保您已经知晓并同意《参与实验同意书》以及《数据公开知情同意书》。</p>
  <p>如果您未见过上述内容，请咨询实验员。</p>
  <p>如果您选择继续实验，则表示您已经清楚两份知情同意书的内容并同意。</p>
  <p> <div style = ""color: green""><按任意键至下页></div> </p>
  ","shift","","","","","","","","","","","","","","","","","","","","","","","",""
"","","","","","html-keyboard-response","2","127616","0.0-2.0","385","
  <p>本实验首先需要您填写一些基本个人信息。</p>
  <p> <div style = ""color: green""><按任意键至下页></div></p>
  "," ","","","","","","","","","","","","","","","","","","","","","","","",""
"","","","","","call-function","3","127618","0.0-3.0-0.0","","","","","","","","","","","","","","","","","","","","","","","","","","",""
"","","","","","survey-html-form","4","151063","0.0-3.0-1.0","23443","","{""Q0"":""53""}","","","","","","","","","","","","","","","","","","","","","","","",""
"","","","","","html-button-response","5","152134","0.0-3.0-2.0","1069","<p style = 'color : white'>您的性别</p>","1","","","","","","","","","","","","","","","","","","","","","","","",""
"","","","","","survey-html-form","6","155094","0.0-3.0-3.0","2960","","{""Q0"":""2000""}","","","","","","","","","","","","","","","","","","","","","","","",""
"","","","","","survey-html-form","7","156942","0.0-3.0-4.0","1847","","{""Q0"":""5""}","","","","","","","","","","","","","","","","","","","","","","","",""
"","","","","","virtual-chinrest","8","321546","0.0-4.0","164602","","","","85.6","53.98","571.9088480521525","6.6811781314503795","427.36","11.438176961043048","50","0.7483710060750286","30.72","17.28","","","","","","","","","","","","",""
"true","","","","","fullscreen","9","325018","0.0-5.0","","","","","","","","","","","","","","","","","","","","","","","","","","",""
"","","","","","instructions","10","406745","0.0-6.0","81726","","","","","","","","","","","","","","[{""page_index"":0,""viewing_time"":7057},{""page_index"":1,""viewing_time"":6872},{""page_index"":2,""viewing_time"":59989},{""page_index"":3,""viewing_time"":5094},{""page_index"":4,""viewing_time"":2713}]","","","","","","","","","","","",""
"","","","","","instructions","11","419020","0.0-7.0","12274","","","","","","","","","","","","","","[{""page_index"":0,""viewing_time"":12274}]","","","","","","","","","","","",""
"","","","","","psychophysics","12","422941","0.0-8.0-0.0-0.0","2911","","f","","","","","","","","","","","","","key","f","16.65356410256414","768","428","k","false","img/S_28.png","自我","freeprac_self","",""
"","","","","","html-keyboard-response","13","423256","0.0-8.0-0.0-1.0","null","<span style='color:red; font-size: 70px;'>错误! </span>","null","","","","","","","","","","","","","","","","","","","","","","","feedback_test",""
"","","","","","psychophysics","14","425735","0.0-8.0-0.0-0.1","1476","","d","","","","","","","","","","","","","key","d","16.6536418918919","768","428","k","false","img/C_28.png","朋友","freeprac_self","",""
"","","","","","html-keyboard-response","15","426045","0.0-8.0-0.0-1.1","null","<span style='color:red; font-size: 70px;'>错误! </span>","null","","","","","","","","","","","","","","","","","","","","","","","feedback_test",""
"","","","","","psychophysics","16","432478","0.0-8.0-0.0-0.2","5427","","d","","","","","","","","","","","","","key","d","16.65290414507759","768","428","k","false","img/S_28.png","生人","freeprac_self","",""
"","","","","","html-keyboard-response","17","432785","0.0-8.0-0.0-1.2","null","<span style='color:red; font-size: 70px;'>错误! </span>","null","","","","","","","","","","","","","","","","","","","","","","","feedback_test",""
"","","","","","psychophysics","18","437835","0.0-8.0-0.0-0.3","4042","","d","","","","","","","","","","","","","key","d","16.65258609271525","768","428","j","false","img/S_28.png","朋友","freeprac_self","",""
"","","","","","html-keyboard-response","19","438151","0.0-8.0-0.0-1.3","null","<span style='color:red; font-size: 70px;'>错误! </span>","null","","","","","","","","","","","","","","","","","","","","","","","feedback_test",""
"","","","","","psychophysics","20","441487","0.0-8.0-0.0-0.4","2331","","f","","","","","","","","","","","","","key","f","16.652482412060216","768","428","j","false","img/C_28.png","生人","freeprac_self","",""
"","","","","","html-keyboard-response","21","441791","0.0-8.0-0.0-1.4","null","<span style='color:red; font-size: 70px;'>错误! </span>","null","","","","","","","","","","","","","","","","","","","","","","","feedback_test",""
"","","","","","psychophysics","22","444749","0.0-8.0-0.0-0.5","1955","","d","","","","","","","","","","","","","key","d","16.747881355932204","768","428","j","false","img/C_28.png","生人","freeprac_self","",""
"","","","","","html-keyboard-response","23","445051","0.0-8.0-0.0-1.5","null","<span style='color:red; font-size: 70px;'>错误! </span>","null","","","","","","","","","","","","","","","","","","","","","","","feedback_test",""
"","","","","","psychophysics","24","448388","0.0-8.0-0.0-0.6","2330","","j","","","","","","","","","","","","","key","j","16.653467336683605","768","428","j","true","img/S_28.png","朋友","freeprac_self","",""
"","","","","","html-keyboard-response","25","448690","0.0-8.0-0.0-1.6","null","<span style='color:GreenYellow; font-size: 70px;'>正确! </span>","null","","","","","","","","","","","","","","","","","","","","","","","feedback_test",""
"","","","","","psychophysics","26","451046","0.0-8.0-0.0-0.7","1346","","k","","","","","","","","","","","","","key","k","16.653276595744842","768","428","d","false","img/H_28.png","朋友","freeprac_self","",""
"","","","","","html-keyboard-response","27","451355","0.0-8.0-0.0-1.7","null","<span style='color:red; font-size: 70px;'>错误! </span>","null","","","","","","","","","","","","","","","","","","","","","","","feedback_test",""
"","","","","","psychophysics","28","453301","0.0-8.0-0.0-0.8","940","","j","","","","","","","","","","","","","key","j","16.653086956522085","768","428","d","false","img/H_28.png","生人","freeprac_self","",""
"","","","","","html-keyboard-response","29","453604","0.0-8.0-0.0-1.8","null","<span style='color:red; font-size: 70px;'>错误! </span>","null","","","","","","","","","","","","","","","","","","","","","","","feedback_test",""
"","","","","","psychophysics","30","457610","0.0-8.0-0.0-0.9","2999","","k","","","","","","","","","","","","","key","k","16.653518828452093","768","428","k","true","img/C_28.png","自我","freeprac_self","",""
"","","","","","html-keyboard-response","31","457915","0.0-8.0-0.0-1.9","null","<span style='color:GreenYellow; font-size: 70px;'>正确! </span>","null","","","","","","","","","","","","","","","","","","","","","","","feedback_test",""
"","","","","","psychophysics","32","460800","0.0-8.0-0.0-0.10","1875","","k","","","","","","","","","","","","","key","k","16.65422543352591","768","428","f","false","img/H_28.png","自我","freeprac_self","",""
"","","","","","html-keyboard-response","33","461108","0.0-8.0-0.0-1.10","null","<span style='color:red; font-size: 70px;'>错误! </span>","null","","","","","","","","","","","","","","","","","","","","","","","feedback_test",""
"","","","","","psychophysics","34","465893","0.0-8.0-0.0-0.11","3784","","k","","","","","","","","","","","","","key","k","16.653358885017305","768","428","f","false","img/H_28.png","自我","freeprac_self","",""
"","","","","","html-keyboard-response","35","466202","0.0-8.0-0.0-1.11","null","<span style='color:red; font-size: 70px;'>错误! </span>","null","","","","","","","","","","","","","","","","","","","","","","","feedback_test",""
"","","","","","html-keyboard-response","36","474544","0.0-8.0-1.0-0.0","8340","<style>.context{color:white; font-size: 35px; line-height:40px}</style>                           <div><p class='context'>您正确回答了17% 的试次。</p><p class='context'>您的平均反应时为2665毫秒。</p>"," ","","","","","","","","","","","","","","","","","","","","","","","",""
"","","","","","instructions","37","597654","0.0-8.0-1.0-1.0","123108","","","","","","","","","","","","","","[{""page_index"":0,""viewing_time"":6991},{""page_index"":1,""viewing_time"":113500},{""page_index"":2,""viewing_time"":2616}]","","","","","","","","","","","",""
"","","","","","psychophysics","38","602851","0.0-8.1-0.1-0.12","4191","","k","","","","","","","","","","","","","key","k","16.652909967845822","768","428","k","true","img/C_28.png","朋友","freeprac_self","",""
"","","","","","html-keyboard-response","39","603164","0.0-8.1-0.1-1.12","null","<span style='color:GreenYellow; font-size: 70px;'>正确! </span>","null","","","","","","","","","","","","","","","","","","","","","","","feedback_test",""
"","","","","","psychophysics","40","607063","0.0-8.1-0.1-0.13","2885","","k","","","","","","","","","","","","","key","k","16.652596566523826","768","428","d","false","img/H_28.png","生人","freeprac_self","",""
"","","","","","html-keyboard-response","41","607372","0.0-8.1-0.1-1.13","null","<span style='color:red; font-size: 70px;'>错误! </span>","null","","","","","","","","","","","","","","","","","","","","","","","feedback_test",""
"","","","","","psychophysics","42","612217","0.0-8.1-0.1-0.14","3842","","d","","","","","","","","","","","","","key","d","16.65202422145308","768","428","k","false","img/S_28.png","自我","freeprac_self","",""
"","","","","","html-keyboard-response","43","612525","0.0-8.1-0.1-1.14","null","<span style='color:red; font-size: 70px;'>错误! </span>","null","","","","","","","","","","","","","","","","","","","","","","","feedback_test",""
"","","","","","psychophysics","44","618277","0.0-8.1-0.1-0.15","4745","","k","","","","","","","","","","","","","key","k","16.652366279070076","768","428","d","false","img/H_28.png","朋友","freeprac_self","",""
"","","","","","html-keyboard-response","45","618581","0.0-8.1-0.1-1.15","null","<span style='color:red; font-size: 70px;'>错误! </span>","null","","","","","","","","","","","","","","","","","","","","","","","feedback_test",""
"","","","","","psychophysics","46","622564","0.0-8.1-0.1-0.16","2982","","j","","","","","","","","","","","","","key","j","16.648701680672037","768","428","j","true","img/C_28.png","生人","freeprac_self","",""
"","","","","","html-keyboard-response","47","622870","0.0-8.1-0.1-1.16","null","<span style='color:GreenYellow; font-size: 70px;'>正确! </span>","null","","","","","","","","","","","","","","","","","","","","","","","feedback_test",""
"","","","","","psychophysics","48","625900","0.0-8.1-0.1-0.17","2022","","f","","","","","","","","","","","","","key","f","16.65395027624304","768","428","f","true","img/H_28.png","自我","freeprac_self","",""
"","","","","","html-keyboard-response","49","626212","0.0-8.1-0.1-1.17","null","<span style='color:GreenYellow; font-size: 70px;'>正确! </span>","null","","","","","","","","","","","","","","","","","","","","","","","feedback_test",""
"","","","","","psychophysics","50","630237","0.0-8.1-0.1-0.18","3021","","d","","","","","","","","","","","","","key","d","16.65270416666705","768","428","j","false","img/S_28.png","朋友","freeprac_self","",""
"","","","","","html-keyboard-response","51","630539","0.0-8.1-0.1-1.18","null","<span style='color:red; font-size: 70px;'>错误! </span>","null","","","","","","","","","","","","","","","","","","","","","","","feedback_test",""
"","","","","","psychophysics","52","633095","0.0-8.1-0.1-0.19","1554","","j","","","","","","","","","","","","","key","j","16.65264705882341","768","428","j","true","img/C_28.png","生人","freeprac_self","",""
"","","","","","html-keyboard-response","53","633402","0.0-8.1-0.1-1.19","null","<span style='color:GreenYellow; font-size: 70px;'>正确! </span>","null","","","","","","","","","","","","","","","","","","","","","","","feedback_test",""
"","","","","","psychophysics","54","636007","0.0-8.1-0.1-0.20","1604","","j","","","","","","","","","","","","","key","j","16.65260645161353","768","428","j","true","img/S_28.png","朋友","freeprac_self","",""
"","","","","","html-keyboard-response","55","636313","0.0-8.1-0.1-1.20","null","<span style='color:GreenYellow; font-size: 70px;'>正确! </span>","null","","","","","","","","","","","","","","","","","","","","","","","feedback_test",""
"","","","","","psychophysics","56","639201","0.0-8.1-0.1-0.21","1883","","k","","","","","","","","","","","","","key","k","16.652115606936366","768","428","k","true","img/S_28.png","生人","freeprac_self","",""
"","","","","","html-keyboard-response","57","639511","0.0-8.1-0.1-1.21","null","<span style='color:GreenYellow; font-size: 70px;'>正确! </span>","null","","","","","","","","","","","","","","","","","","","","","","","feedback_test",""
"","","","","","psychophysics","58","642832","0.0-8.1-0.1-0.22","2316","","d","","","","","","","","","","","","","key","d","16.652854271357103","768","428","k","false","img/C_28.png","自我","freeprac_self","",""
"","","","","","html-keyboard-response","59","643139","0.0-8.1-0.1-1.22","null","<span style='color:red; font-size: 70px;'>错误! </span>","null","","","","","","","","","","","","","","","","","","","","","","","feedback_test",""
"","","","","","psychophysics","60","645807","0.0-8.1-0.1-0.23","1662","","f","","","","","","","","","","","","","key","f","16.652356249999865","768","428","f","true","img/H_28.png","自我","freeprac_self","",""
"","","","","","html-keyboard-response","61","646114","0.0-8.1-0.1-1.23","null","<span style='color:GreenYellow; font-size: 70px;'>正确! </span>","null","","","","","","","","","","","","","","","","","","","","","","","feedback_test",""
"","","","","","html-keyboard-response","62","653878","0.0-8.1-1.1-0.1","7762","<style>.context{color:white; font-size: 35px; line-height:40px}</style>                           <div><p class='context'>您正确回答了58% 的试次。</p><p class='context'>您的平均反应时为2271毫秒。</p>"," ","","","","","","","","","","","","","","","","","","","","","","","",""
"","","","","","instructions","63","694950","0.0-8.1-1.1-1.1","41071","","","","","","","","","","","","","","[{""page_index"":0,""viewing_time"":1387},{""page_index"":1,""viewing_time"":38480},{""page_index"":2,""viewing_time"":1204}]","","","","","","","","","","","",""
"","","","","","psychophysics","64","698372","0.0-8.2-0.2-0.24","2420","","j","","","","","","","","","","","","","key","j","16.650990196077984","768","428","j","true","img/C_28.png","生人","freeprac_self","",""
"","","","","","html-keyboard-response","65","698685","0.0-8.2-0.2-1.24","null","<span style='color:GreenYellow; font-size: 70px;'>正确! </span>","null","","","","","","","","","","","","","","","","","","","","","","","feedback_test",""
"","","","","","psychophysics","66","701491","0.0-8.2-0.2-0.25","1797","","d","","","","","","","","","","","","","key","d","16.65332142857092","768","428","k","false","img/C_28.png","自我","freeprac_self","",""
"","","","","","html-keyboard-response","67","701793","0.0-8.2-0.2-1.25","null","<span style='color:red; font-size: 70px;'>错误! </span>","null","","","","","","","","","","","","","","","","","","","","","","","feedback_test",""
"","","","","","psychophysics","68","704997","0.0-8.2-0.2-0.26","2201","","k","","","","","","","","","","","","","key","k","16.73985937500038","768","428","k","true","img/C_28.png","朋友","freeprac_self","",""
"","","","","","html-keyboard-response","69","705306","0.0-8.2-0.2-1.26","null","<span style='color:GreenYellow; font-size: 70px;'>正确! </span>","null","","","","","","","","","","","","","","","","","","","","","","","feedback_test",""
"","","","","","psychophysics","70","707735","0.0-8.2-0.2-0.27","1426","","f","","","","","","","","","","","","","key","f","16.653055172413588","768","428","f","true","img/H_28.png","自我","freeprac_self","",""
"","","","","","html-keyboard-response","71","708048","0.0-8.2-0.2-1.27","null","<span style='color:GreenYellow; font-size: 70px;'>正确! </span>","null","","","","","","","","","","","","","","","","","","","","","","","feedback_test",""
"","","","","","psychophysics","72","710869","0.0-8.2-0.2-0.28","1815","","k","","","","","","","","","","","","","key","k","16.65206508875684","768","428","k","true","img/S_28.png","生人","freeprac_self","",""
"","","","","","html-keyboard-response","73","711178","0.0-8.2-0.2-1.28","null","<span style='color:GreenYellow; font-size: 70px;'>正确! </span>","null","","","","","","","","","","","","","","","","","","","","","","","feedback_test",""
"","","","","","psychophysics","74","715548","0.0-8.2-0.2-0.29","3362","","k","","","","","","","","","","","","","key","k","16.65324045801562","768","428","k","true","img/S_28.png","自我","freeprac_self","",""
"","","","","","html-keyboard-response","75","715861","0.0-8.2-0.2-1.29","null","<span style='color:GreenYellow; font-size: 70px;'>正确! </span>","null","","","","","","","","","","","","","","","","","","","","","","","feedback_test",""
"","","","","","psychophysics","76","718165","0.0-8.2-0.2-0.30","1297","","j","","","","","","","","","","","","","key","j","16.654594202897936","768","428","j","true","img/C_28.png","生人","freeprac_self","",""
"","","","","","html-keyboard-response","77","718469","0.0-8.2-0.2-1.30","null","<span style='color:GreenYellow; font-size: 70px;'>正确! </span>","null","","","","","","","","","","","","","","","","","","","","","","","feedback_test",""
"","","","","","psychophysics","78","721611","0.0-8.2-0.2-0.31","2134","","j","","","","","","","","","","","","","key","j","16.653251336898062","768","428","j","true","img/S_28.png","朋友","freeprac_self","",""
"","","","","","html-keyboard-response","79","721927","0.0-8.2-0.2-1.31","null","<span style='color:GreenYellow; font-size: 70px;'>正确! </span>","null","","","","","","","","","","","","","","","","","","","","","","","feedback_test",""
"","","","","","psychophysics","80","723983","0.0-8.2-0.2-0.32","1053","","j","","","","","","","","","","","","","key","j","16.788406504064465","768","428","j","true","img/S_28.png","朋友","freeprac_self","",""
"","","","","","html-keyboard-response","81","724292","0.0-8.2-0.2-1.32","null","<span style='color:GreenYellow; font-size: 70px;'>正确! </span>","null","","","","","","","","","","","","","","","","","","","","","","","feedback_test",""
"","","","","","psychophysics","82","727148","0.0-8.2-0.2-0.33","1854","","k","","","","","","","","","","","","","key","k","16.64839411764748","768","428","d","false","img/H_28.png","生人","freeprac_self","",""
"","","","","","html-keyboard-response","83","727452","0.0-8.2-0.2-1.33","null","<span style='color:red; font-size: 70px;'>错误! </span>","null","","","","","","","","","","","","","","","","","","","","","","","feedback_test",""
"","","","","","psychophysics","84","729838","0.0-8.2-0.2-0.34","1379","","f","","","","","","","","","","","","","key","f","16.653188811188524","768","428","f","true","img/H_28.png","自我","freeprac_self","",""
"","","","","","html-keyboard-response","85","730150","0.0-8.2-0.2-1.34","null","<span style='color:GreenYellow; font-size: 70px;'>正确! </span>","null","","","","","","","","","","","","","","","","","","","","","","","feedback_test",""
"","","","","","psychophysics","86","733543","0.0-8.2-0.2-0.35","2386","","k","","","","","","","","","","","","","key","k","16.653073529412115","768","428","d","false","img/H_28.png","朋友","freeprac_self","",""
"","","","","","html-keyboard-response","87","733853","0.0-8.2-0.2-1.35","null","<span style='color:red; font-size: 70px;'>错误! </span>","null","","","","","","","","","","","","","","","","","","","","","","","feedback_test",""
"","","","","","html-keyboard-response","88","743414","0.0-9.0","9559","[""<style>.context{color:white; font-size: 35px; line-height:40px}</style>           <div><p class='context'>您正确回答了75% 的试次。</p><p class='context'>您的平均反应时为1899毫秒。</p><p class='context'>恭喜您完成这一阶段的练习。按任意键进入<span style='color: yellow;'>重点关注图形为“朋友”</span>的练习。</p></div><p class='footer' style='font-size:35px; line-height:30px;'>任务要求：\n           <p class='footer' style='font-size:35px; line-height:35px;'>对于与“朋友”对应的图形：如果 匹配 ，请按 <span style=\""color: lightgreen;\"">f键</span></p><p class='footer' style='font-size:35px'>如果 不匹配 ，请按<span style=\""color: lightgreen;\"">d键</p></span>\n           <p class='footer' style='font-size:35px; line-height:35px;'>对于非“朋友”对应的图形：如果 匹配 ，请按 <span style=\""color: lightgreen;\"">j键</span></p><p class='footer' style='font-size:35px'>如果 不匹配 ，请按<span style=\""color: lightgreen;\"">k键</p></span>\n           <p class='footer' style='font-size:22px; line-height:25px;'>请在实验过程中将您的<span style=\""color: lightgreen;\"">食指和中指</span>放在电脑键盘的相应键位上进行按键。</p></span>""]"," ","","","","","","","","","","","","","","","","","","","","","","","",""
"","","","","","psychophysics","89","747697","0.0-10.0-0.0-0.0","3269","","k","","","","","","","","","","","","","key","k","16.65265625000029","768","428","j","false","img/C_28.png","生人","freeprac_friend","",""
"","","","","","html-keyboard-response","90","748012","0.0-10.0-0.0-1.0","null","<span style='color:red; font-size: 70px;'>错误! </span>","null","","","","","","","","","","","","","","","","","","","","","","","feedback_test",""
"","","","","","psychophysics","91","752490","0.0-10.0-0.0-0.1","3470","","d","","","","","","","","","","","","","key","d","16.652608208955566","768","428","k","false","img/C_28.png","朋友","freeprac_friend","",""
"","","","","","html-keyboard-response","92","752802","0.0-10.0-0.0-1.1","null","<span style='color:red; font-size: 70px;'>错误! </span>","null","","","","","","","","","","","","","","","","","","","","","","","feedback_test",""
"","","","","","psychophysics","93","754975","0.0-10.0-0.0-0.2","1172","","f","","","","","","","","","","","","","key","f","16.65316923076932","768","428","j","false","img/H_28.png","自我","freeprac_friend","",""
"","","","","","html-keyboard-response","94","755279","0.0-10.0-0.0-1.2","null","<span style='color:red; font-size: 70px;'>错误! </span>","null","","","","","","","","","","","","","","","","","","","","","","","feedback_test",""
"","","","","","psychophysics","95","758389","0.0-10.0-0.0-0.3","2104","","j","","","","","","","","","","","","","key","j","16.652075268817008","768","428","d","false","img/S_28.png","生人","freeprac_friend","",""
"","","","","","html-keyboard-response","96","758704","0.0-10.0-0.0-1.3","null","<span style='color:red; font-size: 70px;'>错误! </span>","null","","","","","","","","","","","","","","","","","","","","","","","feedback_test",""
"","","","","","psychophysics","97","760770","0.0-10.0-0.0-0.4","1059","","k","","","","","","","","","","","","","key","k","16.6508211382112","768","428","k","true","img/H_28.png","生人","freeprac_friend","",""
"","","","","","html-keyboard-response","98","761075","0.0-10.0-0.0-1.4","null","<span style='color:GreenYellow; font-size: 70px;'>正确! </span>","null","","","","","","","","","","","","","","","","","","","","","","","feedback_test",""
"","","","","","psychophysics","99","763451","0.0-10.0-0.0-0.5","1370","","j","","","","","","","","","","","","","key","j","16.65338028169034","768","428","f","false","img/S_28.png","朋友","freeprac_friend","",""
"","","","","","html-keyboard-response","100","763757","0.0-10.0-0.0-1.5","null","<span style='color:red; font-size: 70px;'>错误! </span>","null","","","","","","","","","","","","","","","","","","","","","","","feedback_test",""
"","","","","","psychophysics","101","766344","0.0-10.0-0.0-0.6","1583","","k","","","","","","","","","","","","","key","k","16.65367096774205","768","428","k","true","img/C_28.png","自我","freeprac_friend","",""
"","","","","","html-keyboard-response","102","766645","0.0-10.0-0.0-1.6","null","<span style='color:GreenYellow; font-size: 70px;'>正确! </span>","null","","","","","","","","","","","","","","","","","","","","","","","feedback_test",""
"","","","","","psychophysics","103","768473","0.0-10.0-0.0-0.7","822","","k","","","","","","","","","","","","","key","k","16.65064814814832","768","428","j","false","img/C_28.png","生人","freeprac_friend","",""
"","","","","","html-keyboard-response","104","768782","0.0-10.0-0.0-1.7","null","<span style='color:red; font-size: 70px;'>错误! </span>","null","","","","","","","","","","","","","","","","","","","","","","","feedback_test",""
"","","","","","psychophysics","105","773683","0.0-10.0-0.0-0.8","3895","","k","","","","","","","","","","","","","key","k","16.652758503401238","768","428","d","false","img/S_28.png","自我","freeprac_friend","",""
"","","","","","html-keyboard-response","106","773988","0.0-10.0-0.0-1.8","null","<span style='color:red; font-size: 70px;'>错误! </span>","null","","","","","","","","","","","","","","","","","","","","","","","feedback_test",""
"","","","","","psychophysics","107","775144","0.0-10.0-0.0-0.9","144","","k","","","","","","","","","","","","","key","k","16.653720588234993","768","428","j","false","img/H_28.png","自我","freeprac_friend","",""
"","","","","","html-keyboard-response","108","775451","0.0-10.0-0.0-1.9","null","<span style='color:red; font-size: 70px;'>错误! </span>","null","","","","","","","","","","","","","","","","","","","","","","","feedback_test",""
"","","","","","psychophysics","109","777031","0.0-10.0-0.0-0.10","578","","j","","","","","","","","","","","","","key","j","16.63769892473099","768","428","f","false","img/S_28.png","朋友","freeprac_friend","",""
"","","","","","html-keyboard-response","110","777345","0.0-10.0-0.0-1.10","null","<span style='color:red; font-size: 70px;'>错误! </span>","null","","","","","","","","","","","","","","","","","","","","","","","feedback_test",""
"","","","","","psychophysics","111","779886","0.0-10.0-0.0-0.11","1539","","f","","","","","","","","","","","","","key","f","16.654993421052687","768","428","k","false","img/H_28.png","朋友","freeprac_friend","",""
"","","","","","html-keyboard-response","112","780201","0.0-10.0-0.0-1.11","null","<span style='color:red; font-size: 70px;'>错误! </span>","null","","","","","","","","","","","","","","","","","","","","","","","feedback_test",""
"","","","","","html-keyboard-response","113","782059","0.0-10.0-1.0-0.0","1857","<style>.context{color:white; font-size: 35px; line-height:40px}</style>                           <div><p class='context'>您正确回答了17% 的试次。</p><p class='context'>您的平均反应时为1321毫秒。</p>"," ","","","","","","","","","","","","","","","","","","","","","","","",""
"","","","","","instructions","114","818120","0.0-10.0-1.0-1.0","36058","","","","","","","","","","","","","","[{""page_index"":0,""viewing_time"":2405},{""page_index"":1,""viewing_time"":31337},{""page_index"":2,""viewing_time"":2315}]","","","","","","","","","","","",""
"","","","","","psychophysics","115","825271","0.0-10.1-0.1-0.12","6149","","j","","","","","","","","","","","","","key","j","16.65310747663558","768","428","j","true","img/C_28.png","生人","freeprac_friend","",""
"","","","","","html-keyboard-response","116","825580","0.0-10.1-0.1-1.12","null","<span style='color:GreenYellow; font-size: 70px;'>正确! </span>","null","","","","","","","","","","","","","","","","","","","","","","","feedback_test",""
"","","","","","psychophysics","117","829565","0.0-10.1-0.1-0.13","2978","","k","","","","","","","","","","","","","key","k","16.653284518828492","768","428","d","false","img/S_28.png","自我","freeprac_friend","",""
"","","","","","html-keyboard-response","118","829870","0.0-10.1-0.1-1.13","null","<span style='color:red; font-size: 70px;'>错误! </span>","null","","","","","","","","","","","","","","","","","","","","","","","feedback_test",""
"","","","","","psychophysics","119","833933","0.0-10.1-0.1-0.14","3059","","d","","","","","","","","","","","","","key","d","16.65394650205755","768","428","k","false","img/H_28.png","朋友","freeprac_friend","",""
"","","","","","html-keyboard-response","120","834247","0.0-10.1-0.1-1.14","null","<span style='color:red; font-size: 70px;'>错误! </span>","null","","","","","","","","","","","","","","","","","","","","","","","feedback_test",""
"","","","","","psychophysics","121","837850","0.0-10.1-0.1-0.15","2598","","k","","","","","","","","","","","","","key","k","16.652787037036937","768","428","k","true","img/H_28.png","生人","freeprac_friend","",""
"","","","","","html-keyboard-response","122","838165","0.0-10.1-0.1-1.15","null","<span style='color:GreenYellow; font-size: 70px;'>正确! </span>","null","","","","","","","","","","","","","","","","","","","","","","","feedback_test",""
"","","","","","psychophysics","123","842141","0.0-10.1-0.1-0.16","2974","","f","","","","","","","","","","","","","key","f","16.652991596638703","768","428","j","false","img/H_28.png","自我","freeprac_friend","",""
"","","","","","html-keyboard-response","124","842448","0.0-10.1-0.1-1.16","null","<span style='color:red; font-size: 70px;'>错误! </span>","null","","","","","","","","","","","","","","","","","","","","","","","feedback_test",""
"","","","","","psychophysics","125","845951","0.0-10.1-0.1-0.17","2502","","k","","","","","","","","","","","","","key","k","16.654143540669928","768","428","k","true","img/C_28.png","自我","freeprac_friend","",""
"","","","","","html-keyboard-response","126","846259","0.0-10.1-0.1-1.17","null","<span style='color:GreenYellow; font-size: 70px;'>正确! </span>","null","","","","","","","","","","","","","","","","","","","","","","","feedback_test",""
"","","","","","psychophysics","127","849130","0.0-10.1-0.1-0.18","1869","","f","","","","","","","","","","","","","key","f","16.649906432748313","768","428","f","true","img/S_28.png","朋友","freeprac_friend","",""
"","","","","","html-keyboard-response","128","849442","0.0-10.1-0.1-1.18","null","<span style='color:GreenYellow; font-size: 70px;'>正确! </span>","null","","","","","","","","","","","","","","","","","","","","","","","feedback_test",""
"","","","","","psychophysics","129","852762","0.0-10.1-0.1-0.19","2319","","k","","","","","","","","","","","","","key","k","16.652492462311656","768","428","k","true","img/C_28.png","朋友","freeprac_friend","",""
"","","","","","html-keyboard-response","130","853070","0.0-10.1-0.1-1.19","null","<span style='color:GreenYellow; font-size: 70px;'>正确! </span>","null","","","","","","","","","","","","","","","","","","","","","","","feedback_test",""
"","","","","","psychophysics","131","856016","0.0-10.1-0.1-0.20","1944","","f","","","","","","","","","","","","","key","f","16.746789772727592","768","428","f","true","img/S_28.png","朋友","freeprac_friend","",""
"","","","","","html-keyboard-response","132","856332","0.0-10.1-0.1-1.20","null","<span style='color:GreenYellow; font-size: 70px;'>正确! </span>","null","","","","","","","","","","","","","","","","","","","","","","","feedback_test",""
"","","","","","psychophysics","133","859072","0.0-10.1-0.1-0.21","1736","","j","","","","","","","","","","","","","key","j","16.652335365853705","768","428","j","true","img/H_28.png","自我","freeprac_friend","",""
"","","","","","html-keyboard-response","134","859380","0.0-10.1-0.1-1.21","null","<span style='color:GreenYellow; font-size: 70px;'>正确! </span>","null","","","","","","","","","","","","","","","","","","","","","","","feedback_test",""
"","","","","","psychophysics","135","862172","0.0-10.1-0.1-0.22","1789","","k","","","","","","","","","","","","","key","k","16.653750000000443","768","428","d","false","img/S_28.png","生人","freeprac_friend","",""
"","","","","","html-keyboard-response","136","862483","0.0-10.1-0.1-1.22","null","<span style='color:red; font-size: 70px;'>错误! </span>","null","","","","","","","","","","","","","","","","","","","","","","","feedback_test",""
"","","","","","psychophysics","137","866236","0.0-10.1-0.1-0.23","2739","","j","","","","","","","","","","","","","key","j","16.652209821428965","768","428","j","true","img/C_28.png","生人","freeprac_friend","",""
"","","","","","html-keyboard-response","138","866549","0.0-10.1-0.1-1.23","null","<span style='color:GreenYellow; font-size: 70px;'>正确! </span>","null","","","","","","","","","","","","","","","","","","","","","","","feedback_test",""
"","","","","","html-keyboard-response","139","868728","0.0-10.1-1.1-0.1","2177","<style>.context{color:white; font-size: 35px; line-height:40px}</style>                           <div><p class='context'>您正确回答了67% 的试次。</p><p class='context'>您的平均反应时为2732毫秒。</p>"," ","","","","","","","","","","","","","","","","","","","","","","","",""
"","","","","","instructions","140","893630","0.0-10.1-1.1-1.1","24900","","","","","","","","","","","","","","[{""page_index"":0,""viewing_time"":970},{""page_index"":1,""viewing_time"":22313},{""page_index"":2,""viewing_time"":1617}]","","","","","","","","","","","",""
"","","","","","psychophysics","141","897846","0.0-10.2-0.2-0.24","3208","","k","","","","","","","","","","","","","key","k","16.653607142856806","768","428","k","true","img/H_28.png","朋友","freeprac_friend","",""
"","","","","","html-keyboard-response","142","898154","0.0-10.2-0.2-1.24","null","<span style='color:GreenYellow; font-size: 70px;'>正确! </span>","null","","","","","","","","","","","","","","","","","","","","","","","feedback_test",""
"","","","","","psychophysics","143","901938","0.0-10.2-0.2-0.25","2780","","j","","","","","","","","","","","","","key","j","16.65340088105695","768","428","j","true","img/H_28.png","自我","freeprac_friend","",""
"","","","","","html-keyboard-response","144","902243","0.0-10.2-0.2-1.25","null","<span style='color:GreenYellow; font-size: 70px;'>正确! </span>","null","","","","","","","","","","","","","","","","","","","","","","","feedback_test",""
"","","","","","psychophysics","145","904955","0.0-10.2-0.2-0.26","1708","","k","","","","","","","","","","","","","key","k","16.65305521472377","768","428","k","true","img/C_28.png","朋友","freeprac_friend","",""
"","","","","","html-keyboard-response","146","905265","0.0-10.2-0.2-1.26","null","<span style='color:GreenYellow; font-size: 70px;'>正确! </span>","null","","","","","","","","","","","","","","","","","","","","","","","feedback_test",""
"","","","","","psychophysics","147","908292","0.0-10.2-0.2-0.27","2018","","f","","","","","","","","","","","","","key","f","16.653386740331687","768","428","f","true","img/S_28.png","朋友","freeprac_friend","",""
"","","","","","html-keyboard-response","148","908607","0.0-10.2-0.2-1.27","null","<span style='color:GreenYellow; font-size: 70px;'>正确! </span>","null","","","","","","","","","","","","","","","","","","","","","","","feedback_test",""
"","","","","","psychophysics","149","911088","0.0-10.2-0.2-0.28","1478","","f","","","","","","","","","","","","","key","f","16.6478843537419","768","428","f","true","img/S_28.png","朋友","freeprac_friend","",""
"","","","","","html-keyboard-response","150","911390","0.0-10.2-0.2-1.28","null","<span style='color:GreenYellow; font-size: 70px;'>正确! </span>","null","","","","","","","","","","","","","","","","","","","","","","","feedback_test",""
"","","","","","psychophysics","151","914182","0.0-10.2-0.2-0.29","1791","","k","","","","","","","","","","","","","key","k","16.65228143712564","768","428","d","false","img/S_28.png","自我","freeprac_friend","",""
"","","","","","html-keyboard-response","152","914490","0.0-10.2-0.2-1.29","null","<span style='color:red; font-size: 70px;'>错误! </span>","null","","","","","","","","","","","","","","","","","","","","","","","feedback_test",""
"","","","","","psychophysics","153","919208","0.0-10.2-0.2-0.30","3707","","k","","","","","","","","","","","","","key","k","16.652687943262272","768","428","d","false","img/S_28.png","生人","freeprac_friend","",""
"","","","","","html-keyboard-response","154","919519","0.0-10.2-0.2-1.30","null","<span style='color:red; font-size: 70px;'>错误! </span>","null","","","","","","","","","","","","","","","","","","","","","","","feedback_test",""
"","","","","","psychophysics","155","922812","0.0-10.2-0.2-0.31","2287","","j","","","","","","","","","","","","","key","j","16.65339086294413","768","428","j","true","img/C_28.png","生人","freeprac_friend","",""
"","","","","","html-keyboard-response","156","923128","0.0-10.2-0.2-1.31","null","<span style='color:GreenYellow; font-size: 70px;'>正确! </span>","null","","","","","","","","","","","","","","","","","","","","","","","feedback_test",""
"","","","","","psychophysics","157","926686","0.0-10.2-0.2-0.32","2555","","k","","","","","","","","","","","","","key","k","16.653633802816568","768","428","k","true","img/C_28.png","自我","freeprac_friend","",""
"","","","","","html-keyboard-response","158","927004","0.0-10.2-0.2-1.32","null","<span style='color:GreenYellow; font-size: 70px;'>正确! </span>","null","","","","","","","","","","","","","","","","","","","","","","","feedback_test",""
"","","","","","psychophysics","159","929698","0.0-10.2-0.2-0.33","1691","","j","","","","","","","","","","","","","key","j","16.65414285714238","768","428","j","true","img/H_28.png","自我","freeprac_friend","",""
"","","","","","html-keyboard-response","160","930007","0.0-10.2-0.2-1.33","null","<span style='color:GreenYellow; font-size: 70px;'>正确! </span>","null","","","","","","","","","","","","","","","","","","","","","","","feedback_test",""
"","","","","","psychophysics","161","932520","0.0-10.2-0.2-0.34","1512","","k","","","","","","","","","","","","","key","k","16.653726666666724","768","428","k","true","img/H_28.png","生人","freeprac_friend","",""
"","","","","","html-keyboard-response","162","932835","0.0-10.2-0.2-1.34","null","<span style='color:GreenYellow; font-size: 70px;'>正确! </span>","null","","","","","","","","","","","","","","","","","","","","","","","feedback_test",""
"","","","","","psychophysics","163","935412","0.0-10.2-0.2-0.35","1572","","j","","","","","","","","","","","","","key","j","16.6539350649351","768","428","j","true","img/C_28.png","生人","freeprac_friend","",""
"","","","","","html-keyboard-response","164","935718","0.0-10.2-0.2-1.35","null","<span style='color:GreenYellow; font-size: 70px;'>正确! </span>","null","","","","","","","","","","","","","","","","","","","","","","","feedback_test",""
"","","","","","html-keyboard-response","165","949798","0.0-11.0","14078","[""<style>.context{color:white; font-size: 35px; line-height:40px}</style>               <div><p class='context'>您正确回答了83% 的试次。</p><p class='context'>您的平均反应时为2081毫秒。</p><p class='context'>恭喜您完成这一阶段的练习。按任意键进入<span style='color: yellow;'>重点关注图形为“生人”</span>的练习。</p></div><p class='footer' style='font-size:35px; line-height:30px;'>任务要求：\n               <p class='footer' style='font-size:35px; line-height:35px;'>对与“生人”对应的图形，如果 匹配 ，请按 <span style=\""color: lightgreen;\"">f键</span></p><p class='footer' style='font-size:35px'>如果 不匹配 ，请按<span style=\""color: lightgreen;\"">d键</p></span>\n               <p class='footer' style='font-size:35px; line-height:35px;'>对非“生人”对应的图形，如果 匹配 ，请按 <span style=\""color: lightgreen;\"">j键</span></p><p class='footer' style='font-size:35px'>如果 不匹配 ，请按<span style=\""color: lightgreen;\"">k键</p></span>\n               <p class='footer' style='font-size:22px; line-height:25px;'>请在实验过程中将您的<span style=\""color: lightgreen;\"">食指和中指</span>放在电脑键盘的相应键位上进行按键。</p></span>""]"," ","","","","","","","","","","","","","","","","","","","","","","","",""
"","","","","","psychophysics","166","953425","0.0-12.0-0.0-0.0","2621","","j","","","","","","","","","","","","","key","j","16.652917050691062","768","428","j","true","img/H_28.png","自我","freeprac_stranger","",""
"","","","","","html-keyboard-response","167","953741","0.0-12.0-0.0-1.0","null","<span style='color:GreenYellow; font-size: 70px;'>正确! </span>","null","","","","","","","","","","","","","","","","","","","","","","","feedback_test",""
"","","","","","psychophysics","168","956434","0.0-12.0-0.0-0.1","1679","","k","","","","","","","","","","","","","key","k","16.652362500000162","768","428","d","false","img/C_28.png","自我","freeprac_stranger","",""
"","","","","","html-keyboard-response","169","956740","0.0-12.0-0.0-1.1","null","<span style='color:red; font-size: 70px;'>错误! </span>","null","","","","","","","","","","","","","","","","","","","","","","","feedback_test",""
"","","","","","psychophysics","170","959884","0.0-12.0-0.0-0.2","2133","","k","","","","","","","","","","","","","key","k","16.65375935828891","768","428","d","false","img/C_28.png","朋友","freeprac_stranger","",""
"","","","","","html-keyboard-response","171","960196","0.0-12.0-0.0-1.2","null","<span style='color:red; font-size: 70px;'>错误! </span>","null","","","","","","","","","","","","","","","","","","","","","","","feedback_test",""
"","","","","","psychophysics","172","964777","0.0-12.0-0.0-0.3","3576","","k","","","","","","","","","","","","","key","k","16.653014598540064","768","428","k","true","img/H_28.png","朋友","freeprac_stranger","",""
"","","","","","html-keyboard-response","173","965090","0.0-12.0-0.0-1.3","null","<span style='color:GreenYellow; font-size: 70px;'>正确! </span>","null","","","","","","","","","","","","","","","","","","","","","","","feedback_test",""
"","","","","","psychophysics","174","967757","0.0-12.0-0.0-0.4","1661","","j","","","","","","","","","","","","","key","j","16.652584905660735","768","428","j","true","img/H_28.png","自我","freeprac_stranger","",""
"","","","","","html-keyboard-response","175","968062","0.0-12.0-0.0-1.4","null","<span style='color:GreenYellow; font-size: 70px;'>正确! </span>","null","","","","","","","","","","","","","","","","","","","","","","","feedback_test",""
"","","","","","psychophysics","176","970415","0.0-12.0-0.0-0.5","1353","","f","","","","","","","","","","","","","key","f","16.653255319149327","768","428","f","true","img/C_28.png","生人","freeprac_stranger","",""
"","","","","","html-keyboard-response","177","970730","0.0-12.0-0.0-1.5","null","<span style='color:GreenYellow; font-size: 70px;'>正确! </span>","null","","","","","","","","","","","","","","","","","","","","","","","feedback_test",""
"","","","","","psychophysics","178","973550","0.0-12.0-0.0-0.6","1817","","k","","","","","","","","","","","","","key","k","16.65260355029539","768","428","k","true","img/S_28.png","生人","freeprac_stranger","",""
"","","","","","html-keyboard-response","179","973857","0.0-12.0-0.0-1.6","null","<span style='color:GreenYellow; font-size: 70px;'>正确! </span>","null","","","","","","","","","","","","","","","","","","","","","","","feedback_test",""
"","","","","","psychophysics","180","975595","0.0-12.0-0.0-0.7","738","","f","","","","","","","","","","","","","key","f","16.652427184465566","768","428","f","true","img/C_28.png","生人","freeprac_stranger","",""
"","","","","","html-keyboard-response","181","975900","0.0-12.0-0.0-1.7","null","<span style='color:GreenYellow; font-size: 70px;'>正确! </span>","null","","","","","","","","","","","","","","","","","","","","","","","feedback_test",""
"","","","","","psychophysics","182","978407","0.0-12.0-0.0-0.8","1503","","k","","","","","","","","","","","","","key","k","16.653460000000585","768","428","k","true","img/S_28.png","自我","freeprac_stranger","",""
"","","","","","html-keyboard-response","183","978710","0.0-12.0-0.0-1.8","null","<span style='color:GreenYellow; font-size: 70px;'>正确! </span>","null","","","","","","","","","","","","","","","","","","","","","","","feedback_test",""
"","","","","","psychophysics","184","981027","0.0-12.0-0.0-0.9","1313","","j","","","","","","","","","","","","","key","j","16.65252898550724","768","428","j","true","img/S_28.png","朋友","freeprac_stranger","",""
"","","","","","html-keyboard-response","185","981336","0.0-12.0-0.0-1.9","null","<span style='color:GreenYellow; font-size: 70px;'>正确! </span>","null","","","","","","","","","","","","","","","","","","","","","","","feedback_test",""
"","","","","","psychophysics","186","983554","0.0-12.0-0.0-0.10","1209","","j","","","","","","","","","","","","","key","j","16.652849624060355","768","428","j","true","img/S_28.png","朋友","freeprac_stranger","",""
"","","","","","html-keyboard-response","187","983860","0.0-12.0-0.0-1.10","null","<span style='color:GreenYellow; font-size: 70px;'>正确! </span>","null","","","","","","","","","","","","","","","","","","","","","","","feedback_test",""
"","","","","","psychophysics","188","986057","0.0-12.0-0.0-0.11","1193","","k","","","","","","","","","","","","","key","k","16.780908396946558","768","428","k","true","img/H_28.png","生人","freeprac_stranger","",""
"","","","","","html-keyboard-response","189","986366","0.0-12.0-0.0-1.11","null","<span style='color:GreenYellow; font-size: 70px;'>正确! </span>","null","","","","","","","","","","","","","","","","","","","","","","","feedback_test",""
"","","","","","instructions","190","1007398","0.0-13.0","21030","","","","","","","","","","","","","","[{""page_index"":0,""viewing_time"":21030}]","","","","","","","","","","","",""
"","","","","","psychophysics","191","1009910","0.0-14.0-0.0-0.0","null","","null","","","","","","","","","","","","","key","null","16.653506666667138","768","428","k","false","img/S_28.png","生人","prac_self","","朋友"
"","","","","","html-keyboard-response","192","1010211","0.0-14.0-0.0-1.0","null","<span class='add_' style='color:yellow; font-size: 70px;'> 太慢! </span>","null","","","","","","","","","","","","","","","","","","","","","","","feedback_test",""
"","","","","","psychophysics","193","1012714","0.0-14.0-0.0-0.1","null","","null","","","","","","","","","","","","","key","null","16.652020134227882","768","428","j","false","img/S_28.png","朋友","prac_self","","朋友"
"","","","","","html-keyboard-response","194","1013024","0.0-14.0-0.0-1.1","null","<span class='add_' style='color:yellow; font-size: 70px;'> 太慢! </span>","null","","","","","","","","","","","","","","","","","","","","","","","feedback_test",""
"","","","","","psychophysics","195","1015135","0.0-14.0-0.0-0.2","1104","","j","","","","","","","","","","","","","key","j","16.65481746031733","768","428","k","false","img/C_28.png","自我","prac_self","","生人"
"","","","","","html-keyboard-response","196","1015444","0.0-14.0-0.0-1.2","null","<span style='color:red; font-size: 70px;'>错误! </span>","null","","","","","","","","","","","","","","","","","","","","","","","feedback_test",""
"","","","","","psychophysics","197","1017286","0.0-14.0-0.0-0.3","831","","f","","","","","","","","","","","","","key","f","16.652229357798106","768","428","k","false","img/S_28.png","自我","prac_self","","朋友"
"","","","","","html-keyboard-response","198","1017590","0.0-14.0-0.0-1.3","null","<span style='color:red; font-size: 70px;'>错误! </span>","null","","","","","","","","","","","","","","","","","","","","","","","feedback_test",""
"","","","","","psychophysics","199","1019706","0.0-14.0-0.0-0.4","1107","","j","","","","","","","","","","","","","key","j","16.652492063492353","768","428","j","true","img/S_28.png","朋友","prac_self","","朋友"
"","","","","","html-keyboard-response","200","1020009","0.0-14.0-0.0-1.4","null","<span style='color:GreenYellow; font-size: 70px;'>正确! </span>","null","","","","","","","","","","","","","","","","","","","","","","","feedback_test",""
"","","","","","psychophysics","201","1022045","0.0-14.0-0.0-0.5","1028","","k","","","","","","","","","","","","","key","k","16.652024590164103","768","428","d","false","img/H_28.png","生人","prac_self","","自我"
"","","","","","html-keyboard-response","202","1022354","0.0-14.0-0.0-1.5","null","<span style='color:red; font-size: 70px;'>错误! </span>","null","","","","","","","","","","","","","","","","","","","","","","","feedback_test",""
"","","","","","psychophysics","203","1024559","0.0-14.0-0.0-0.6","1201","","j","","","","","","","","","","","","","key","j","16.65134351145039","768","428","k","false","img/C_28.png","朋友","prac_self","","生人"
"","","","","","html-keyboard-response","204","1024864","0.0-14.0-0.0-1.6","null","<span style='color:red; font-size: 70px;'>错误! </span>","null","","","","","","","","","","","","","","","","","","","","","","","feedback_test",""
"","","","","","psychophysics","205","1026970","0.0-14.0-0.0-0.7","1097","","k","","","","","","","","","","","","","key","k","16.65301599999983","768","428","j","false","img/C_28.png","生人","prac_self","","生人"
"","","","","","html-keyboard-response","206","1027283","0.0-14.0-0.0-1.7","null","<span style='color:red; font-size: 70px;'>错误! </span>","null","","","","","","","","","","","","","","","","","","","","","","","feedback_test",""
"","","","","","psychophysics","207","1028860","0.0-14.0-0.0-0.8","568","","f","","","","","","","","","","","","","key","f","16.651709677419944","768","428","f","true","img/H_28.png","自我","prac_self","","自我"
"","","","","","html-keyboard-response","208","1029172","0.0-14.0-0.0-1.8","null","<span style='color:GreenYellow; font-size: 70px;'>正确! </span>","null","","","","","","","","","","","","","","","","","","","","","","","feedback_test",""
"","","","","","psychophysics","209","1030867","0.0-14.0-0.0-0.9","691","","k","","","","","","","","","","","","","key","k","16.654843137255988","768","428","d","false","img/H_28.png","朋友","prac_self","","自我"
"","","","","","html-keyboard-response","210","1031172","0.0-14.0-0.0-1.9","null","<span style='color:red; font-size: 70px;'>错误! </span>","null","","","","","","","","","","","","","","","","","","","","","","","feedback_test",""
"","","","","","psychophysics","211","1032947","0.0-14.0-0.0-0.10","771","","k","","","","","","","","","","","","","key","k","16.81048113207513","768","428","j","false","img/C_28.png","生人","prac_self","","生人"
"","","","","","html-keyboard-response","212","1033264","0.0-14.0-0.0-1.10","null","<span style='color:red; font-size: 70px;'>错误! </span>","null","","","","","","","","","","","","","","","","","","","","","","","feedback_test",""
"","","","","","psychophysics","213","1035003","0.0-14.0-0.0-0.11","730","","f","","","","","","","","","","","","","key","f","16.652485436893258","768","428","f","true","img/H_28.png","自我","prac_self","","自我"
"","","","","","html-keyboard-response","214","1035310","0.0-14.0-0.0-1.11","null","<span style='color:GreenYellow; font-size: 70px;'>正确! </span>","null","","","","","","","","","","","","","","","","","","","","","","","feedback_test",""
"","","","","","psychophysics","215","1036833","0.0-14.0-0.0-0.12","518","","j","","","","","","","","","","","","","key","j","16.652311111110937","768","428","k","false","img/C_28.png","自我","prac_self","","生人"
"","","","","","html-keyboard-response","216","1037135","0.0-14.0-0.0-1.12","null","<span style='color:red; font-size: 70px;'>错误! </span>","null","","","","","","","","","","","","","","","","","","","","","","","feedback_test",""
"","","","","","psychophysics","217","1038774","0.0-14.0-0.0-0.13","637","","f","","","","","","","","","","","","","key","f","16.652704081632322","768","428","k","false","img/S_28.png","自我","prac_self","","朋友"
"","","","","","html-keyboard-response","218","1039080","0.0-14.0-0.0-1.13","null","<span style='color:red; font-size: 70px;'>错误! </span>","null","","","","","","","","","","","","","","","","","","","","","","","feedback_test",""
"","","","","","psychophysics","219","1041107","0.0-14.0-0.0-0.14","1022","","k","","","","","","","","","","","","","key","k","16.65459504132236","768","428","j","false","img/C_28.png","生人","prac_self","","生人"
"","","","","","html-keyboard-response","220","1041413","0.0-14.0-0.0-1.14","null","<span style='color:red; font-size: 70px;'>错误! </span>","null","","","","","","","","","","","","","","","","","","","","","","","feedback_test",""
"","","","","","psychophysics","221","1043260","0.0-14.0-0.0-0.15","844","","f","","","","","","","","","","","","","key","f","16.65240540540555","768","428","d","false","img/H_28.png","朋友","prac_self","","自我"
"","","","","","html-keyboard-response","222","1043569","0.0-14.0-0.0-1.15","null","<span style='color:red; font-size: 70px;'>错误! </span>","null","","","","","","","","","","","","","","","","","","","","","","","feedback_test",""
"","","","","","psychophysics","223","1045660","0.0-14.0-0.0-0.16","1083","","j","","","","","","","","","","","","","key","j","16.652472000000067","768","428","j","true","img/S_28.png","朋友","prac_self","","朋友"
"","","","","","html-keyboard-response","224","1045971","0.0-14.0-0.0-1.16","null","<span style='color:GreenYellow; font-size: 70px;'>正确! </span>","null","","","","","","","","","","","","","","","","","","","","","","","feedback_test",""
"","","","","","psychophysics","225","1048155","0.0-14.0-0.0-0.17","1175","","j","","","","","","","","","","","","","key","j","16.654618320609835","768","428","j","true","img/C_28.png","生人","prac_self","","生人"
"","","","","","html-keyboard-response","226","1048466","0.0-14.0-0.0-1.17","null","<span style='color:GreenYellow; font-size: 70px;'>正确! </span>","null","","","","","","","","","","","","","","","","","","","","","","","feedback_test",""
"","","","","","psychophysics","227","1050651","0.0-14.0-0.0-0.18","1180","","k","","","","","","","","","","","","","key","k","16.653190839694428","768","428","k","true","img/C_28.png","朋友","prac_self","","生人"
"","","","","","html-keyboard-response","228","1050964","0.0-14.0-0.0-1.18","null","<span style='color:GreenYellow; font-size: 70px;'>正确! </span>","null","","","","","","","","","","","","","","","","","","","","","","","feedback_test",""
"","","","","","psychophysics","229","1052439","0.0-14.0-0.0-0.19","471","","f","","","","","","","","","","","","","key","f","16.652747126435326","768","428","f","true","img/H_28.png","自我","prac_self","","自我"
"","","","","","html-keyboard-response","230","1052746","0.0-14.0-0.0-1.19","null","<span style='color:GreenYellow; font-size: 70px;'>正确! </span>","null","","","","","","","","","","","","","","","","","","","","","","","feedback_test",""
"","","","","","psychophysics","231","1055112","0.0-14.0-0.0-0.20","1363","","k","","","","","","","","","","","","","key","k","16.652964788731712","768","428","f","false","img/H_28.png","自我","prac_self","","自我"
"","","","","","html-keyboard-response","232","1055425","0.0-14.0-0.0-1.20","null","<span style='color:red; font-size: 70px;'>错误! </span>","null","","","","","","","","","","","","","","","","","","","","","","","feedback_test",""
"","","","","","psychophysics","233","1057709","0.0-14.0-0.0-0.21","1277","","k","","","","","","","","","","","","","key","k","16.653664233577675","768","428","d","false","img/H_28.png","生人","prac_self","","自我"
"","","","","","html-keyboard-response","234","1058017","0.0-14.0-0.0-1.21","null","<span style='color:red; font-size: 70px;'>错误! </span>","null","","","","","","","","","","","","","","","","","","","","","","","feedback_test",""
"","","","","","psychophysics","235","1060493","0.0-14.0-0.0-0.22","1475","","j","","","","","","","","","","","","","key","j","16.652574324324362","768","428","k","false","img/S_28.png","生人","prac_self","","朋友"
"","","","","","html-keyboard-response","236","1060806","0.0-14.0-0.0-1.22","null","<span style='color:red; font-size: 70px;'>错误! </span>","null","","","","","","","","","","","","","","","","","","","","","","","feedback_test",""
"","","","","","psychophysics","237","1063317","0.0-14.0-0.0-0.23","null","","null","","","","","","","","","","","","","key","null","16.653699999999564","768","428","j","false","img/S_28.png","朋友","prac_self","","朋友"
"","","","","","html-keyboard-response","238","1063628","0.0-14.0-0.0-1.23","null","<span class='add_' style='color:yellow; font-size: 70px;'> 太慢! </span>","null","","","","","","","","","","","","","","","","","","","","","","","feedback_test",""
"","","","","","html-keyboard-response","239","1070531","0.0-14.0-1.0-0.0","6901","<style>.context{color:white; font-size: 35px; line-height:40px}</style>                           <div><p class='context'>您正确回答了29% 的试次。</p><p class='context'>您的平均反应时为902毫秒。</p>"," ","","","","","","","","","","","","","","","","","","","","","","","",""
"","","","","","instructions","240","1093630","0.0-14.0-1.0-1.0","23096","","","","","","","","","","","","","","[{""page_index"":0,""viewing_time"":6304},{""page_index"":1,""viewing_time"":11614},{""page_index"":2,""viewing_time"":5178}]","","","","","","","","","","","",""
"","","","","","psychophysics","241","1096134","0.0-14.1-0.1-0.24","null","","null","","","","","","","","","","","","","key","null","16.651845637583893","768","428","k","false","img/C_28.png","朋友","prac_self","","生人"
"","","","","","html-keyboard-response","242","1096445","0.0-14.1-0.1-1.24","null","<span class='add_' style='color:yellow; font-size: 70px;'> 太慢! </span>","null","","","","","","","","","","","","","","","","","","","","","","","feedback_test",""
"","","","","","psychophysics","243","1098480","0.0-14.1-0.1-0.25","1025","","j","","","","","","","","","","","","","key","j","16.652163934426337","768","428","j","true","img/C_28.png","生人","prac_self","","生人"
"","","","","","html-keyboard-response","244","1098783","0.0-14.1-0.1-1.25","null","<span style='color:GreenYellow; font-size: 70px;'>正确! </span>","null","","","","","","","","","","","","","","","","","","","","","","","feedback_test",""
"","","","","","psychophysics","245","1100660","0.0-14.1-0.1-0.26","873","","k","","","","","","","","","","","","","key","k","16.652955357143323","768","428","k","true","img/S_28.png","生人","prac_self","","朋友"
"","","","","","html-keyboard-response","246","1100976","0.0-14.1-0.1-1.26","null","<span style='color:GreenYellow; font-size: 70px;'>正确! </span>","null","","","","","","","","","","","","","","","","","","","","","","","feedback_test",""
"","","","","","psychophysics","247","1103093","0.0-14.1-0.1-0.27","1109","","k","","","","","","","","","","","","","key","k","16.651412698412535","768","428","d","false","img/H_28.png","生人","prac_self","","自我"
"","","","","","html-keyboard-response","248","1103395","0.0-14.1-0.1-1.27","null","<span style='color:red; font-size: 70px;'>错误! </span>","null","","","","","","","","","","","","","","","","","","","","","","","feedback_test",""
"","","","","","psychophysics","249","1105031","0.0-14.1-0.1-0.28","631","","f","","","","","","","","","","","","","key","f","16.655561224490935","768","428","f","true","img/H_28.png","自我","prac_self","","自我"
"","","","","","html-keyboard-response","250","1105339","0.0-14.1-0.1-1.28","null","<span style='color:GreenYellow; font-size: 70px;'>正确! </span>","null","","","","","","","","","","","","","","","","","","","","","","","feedback_test",""
"","","","","","psychophysics","251","1107526","0.0-14.1-0.1-0.29","1182","","j","","","","","","","","","","","","","key","j","16.65250000000143","768","428","j","true","img/S_28.png","朋友","prac_self","","朋友"
"","","","","","html-keyboard-response","252","1107833","0.0-14.1-0.1-1.29","null","<span style='color:GreenYellow; font-size: 70px;'>正确! </span>","null","","","","","","","","","","","","","","","","","","","","","","","feedback_test",""
"","","","","","psychophysics","253","1109782","0.0-14.1-0.1-0.30","943","","j","","","","","","","","","","","","","key","j","16.65375862068874","768","428","j","true","img/C_28.png","生人","prac_self","","生人"
"","","","","","html-keyboard-response","254","1110083","0.0-14.1-0.1-1.30","null","<span style='color:GreenYellow; font-size: 70px;'>正确! </span>","null","","","","","","","","","","","","","","","","","","","","","","","feedback_test",""
"","","","","","psychophysics","255","1112016","0.0-14.1-0.1-0.31","928","","k","","","","","","","","","","","","","key","k","16.65249565217401","768","428","k","true","img/C_28.png","自我","prac_self","","生人"
"","","","","","html-keyboard-response","256","1112326","0.0-14.1-0.1-1.31","null","<span style='color:GreenYellow; font-size: 70px;'>正确! </span>","null","","","","","","","","","","","","","","","","","","","","","","","feedback_test",""
"","","","","","psychophysics","257","1114448","0.0-14.1-0.1-0.32","1110","","j","","","","","","","","","","","","","key","j","16.65219841269769","768","428","k","false","img/S_28.png","自我","prac_self","","朋友"
"","","","","","html-keyboard-response","258","1114757","0.0-14.1-0.1-1.32","null","<span style='color:red; font-size: 70px;'>错误! </span>","null","","","","","","","","","","","","","","","","","","","","","","","feedback_test",""
"","","","","","psychophysics","259","1116711","0.0-14.1-0.1-0.33","946","","j","","","","","","","","","","","","","key","j","16.65380172413806","768","428","j","true","img/S_28.png","朋友","prac_self","","朋友"
"","","","","","html-keyboard-response","260","1117017","0.0-14.1-0.1-1.33","null","<span style='color:GreenYellow; font-size: 70px;'>正确! </span>","null","","","","","","","","","","","","","","","","","","","","","","","feedback_test",""
"","","","","","psychophysics","261","1118879","0.0-14.1-0.1-0.34","857","","k","","","","","","","","","","","","","key","k","16.652785714285397","768","428","d","false","img/H_28.png","朋友","prac_self","","自我"
"","","","","","html-keyboard-response","262","1119188","0.0-14.1-0.1-1.34","null","<span style='color:red; font-size: 70px;'>错误! </span>","null","","","","","","","","","","","","","","","","","","","","","","","feedback_test",""
"","","","","","psychophysics","263","1121285","0.0-14.1-0.1-0.35","1089","","f","","","","","","","","","","","","","key","f","16.653330645161574","768","428","f","true","img/H_28.png","自我","prac_self","","自我"
"","","","","","html-keyboard-response","264","1121587","0.0-14.1-0.1-1.35","null","<span style='color:GreenYellow; font-size: 70px;'>正确! </span>","null","","","","","","","","","","","","","","","","","","","","","","","feedback_test",""
"","","","","","psychophysics","265","1123427","0.0-14.1-0.1-0.36","833","","j","","","","","","","","","","","","","key","j","16.653266055045922","768","428","k","false","img/C_28.png","朋友","prac_self","","生人"
"","","","","","html-keyboard-response","266","1123736","0.0-14.1-0.1-1.36","null","<span style='color:red; font-size: 70px;'>错误! </span>","null","","","","","","","","","","","","","","","","","","","","","","","feedback_test",""
"","","","","","psychophysics","267","1125538","0.0-14.1-0.1-0.37","798","","k","","","","","","","","","","","","","key","k","16.65299065420665","768","428","k","true","img/C_28.png","自我","prac_self","","生人"
"","","","","","html-keyboard-response","268","1125839","0.0-14.1-0.1-1.37","null","<span style='color:GreenYellow; font-size: 70px;'>正确! </span>","null","","","","","","","","","","","","","","","","","","","","","","","feedback_test",""
"","","","","","psychophysics","269","1127860","0.0-14.1-0.1-0.38","1017","","j","","","","","","","","","","","","","key","j","16.653975206612003","768","428","j","true","img/S_28.png","朋友","prac_self","","朋友"
"","","","","","html-keyboard-response","270","1128161","0.0-14.1-0.1-1.38","null","<span style='color:GreenYellow; font-size: 70px;'>正确! </span>","null","","","","","","","","","","","","","","","","","","","","","","","feedback_test",""
"","","","","","psychophysics","271","1129773","0.0-14.1-0.1-0.39","610","","f","","","","","","","","","","","","","key","f","16.64389473684132","768","428","f","true","img/H_28.png","自我","prac_self","","自我"
"","","","","","html-keyboard-response","272","1130084","0.0-14.1-0.1-1.39","null","<span style='color:GreenYellow; font-size: 70px;'>正确! </span>","null","","","","","","","","","","","","","","","","","","","","","","","feedback_test",""
"","","","","","psychophysics","273","1131735","0.0-14.1-0.1-0.40","642","","j","","","","","","","","","","","","","key","j","16.65379591836898","768","428","j","true","img/C_28.png","生人","prac_self","","生人"
"","","","","","html-keyboard-response","274","1132038","0.0-14.1-0.1-1.40","null","<span style='color:GreenYellow; font-size: 70px;'>正确! </span>","null","","","","","","","","","","","","","","","","","","","","","","","feedback_test",""
"","","","","","psychophysics","275","1133694","0.0-14.1-0.1-0.41","652","","f","","","","","","","","","","","","","key","f","16.65116161616011","768","428","d","false","img/H_28.png","朋友","prac_self","","自我"
"","","","","","html-keyboard-response","276","1134006","0.0-14.1-0.1-1.41","null","<span style='color:red; font-size: 70px;'>错误! </span>","null","","","","","","","","","","","","","","","","","","","","","","","feedback_test",""
"","","","","","psychophysics","277","1135871","0.0-14.1-0.1-0.42","864","","j","","","","","","","","","","","","","key","j","16.644809090909124","768","428","j","true","img/S_28.png","朋友","prac_self","","朋友"
"","","","","","html-keyboard-response","278","1136176","0.0-14.1-0.1-1.42","null","<span style='color:GreenYellow; font-size: 70px;'>正确! </span>","null","","","","","","","","","","","","","","","","","","","","","","","feedback_test",""
"","","","","","psychophysics","279","1138128","0.0-14.1-0.1-0.43","949","","k","","","","","","","","","","","","","key","k","16.653991452991388","768","428","k","true","img/S_28.png","自我","prac_self","","朋友"
"","","","","","html-keyboard-response","280","1138434","0.0-14.1-0.1-1.43","null","<span style='color:GreenYellow; font-size: 70px;'>正确! </span>","null","","","","","","","","","","","","","","","","","","","","","","","feedback_test",""
"","","","","","psychophysics","281","1140282","0.0-14.1-0.1-0.44","844","","j","","","","","","","","","","","","","key","j","16.65254545454571","768","428","d","false","img/H_28.png","生人","prac_self","","自我"
"","","","","","html-keyboard-response","282","1140596","0.0-14.1-0.1-1.44","null","<span style='color:red; font-size: 70px;'>错误! </span>","null","","","","","","","","","","","","","","","","","","","","","","","feedback_test",""
"","","","","","psychophysics","283","1142408","0.0-14.1-0.1-0.45","806","","j","","","","","","","","","","","","","key","j","16.65162037037037","768","428","j","true","img/C_28.png","生人","prac_self","","生人"
"","","","","","html-keyboard-response","284","1142716","0.0-14.1-0.1-1.45","null","<span style='color:GreenYellow; font-size: 70px;'>正确! </span>","null","","","","","","","","","","","","","","","","","","","","","","","feedback_test",""
"","","","","","psychophysics","285","1144658","0.0-14.1-0.1-0.46","941","","k","","","","","","","","","","","","","key","k","16.64155652173997","768","428","k","true","img/S_28.png","生人","prac_self","","朋友"
"","","","","","html-keyboard-response","286","1144959","0.0-14.1-0.1-1.46","null","<span style='color:GreenYellow; font-size: 70px;'>正确! </span>","null","","","","","","","","","","","","","","","","","","","","","","","feedback_test",""
"","","","","","psychophysics","287","1146674","0.0-14.1-0.1-0.47","709","","f","","","","","","","","","","","","","key","f","16.654519607842552","768","428","f","true","img/H_28.png","自我","prac_self","","自我"
"","","","","","html-keyboard-response","288","1146983","0.0-14.1-0.1-1.47","null","<span style='color:GreenYellow; font-size: 70px;'>正确! </span>","null","","","","","","","","","","","","","","","","","","","","","","","feedback_test",""
"","","","","","html-keyboard-response","289","1159413","0.0-15.0","12427","[""<style>.context{color:white; font-size: 35px; line-height:40px}</style>           <div><p class='context'>您正确回答了71% 的试次。</p><p class='context'>您的平均反应时为880毫秒。</p><p class='context'>恭喜您完成这一阶段的练习。按任意键进入<span style='color: yellow;'>重点关注图形为“朋友”</span>的练习。</p></div><p class='footer' style='font-size:35px; line-height:30px;'>任务要求：\n           <p class='footer' style='font-size:35px; line-height:35px;'>对于与“朋友”对应的图形：如果 匹配 ，请按 <span style=\""color: lightgreen;\"">f键</span></p><p class='footer' style='font-size:35px'>如果 不匹配 ，请按<span style=\""color: lightgreen;\"">d键</p></span>\n           <p class='footer' style='font-size:35px; line-height:35px;'>对于非“朋友”对应的图形：如果 匹配 ，请按 <span style=\""color: lightgreen;\"">j键</span></p><p class='footer' style='font-size:35px'>如果 不匹配 ，请按<span style=\""color: lightgreen;\"">k键</p></span>\n           <p class='footer' style='font-size:22px; line-height:25px;'>请在实验过程中将您的<span style=\""color: lightgreen;\"">食指和中指</span>放在电脑键盘的相应键位上进行按键。</p></span>""]"," ","","","","","","","","","","","","","","","","","","","","","","","",""
"","","","","","psychophysics","290","1161637","0.0-16.0-0.0-0.0","1217","","k","","","","","","","","","","","","","key","k","16.651639097744837","768","428","j","false","img/H_28.png","自我","prac_friend","","自我"
"","","","","","html-keyboard-response","291","1161943","0.0-16.0-0.0-1.0","null","<span style='color:red; font-size: 70px;'>错误! </span>","null","","","","","","","","","","","","","","","","","","","","","","","feedback_test",""
"","","","","","psychophysics","292","1163638","0.0-16.0-0.0-0.1","688","","f","","","","","","","","","","","","","key","f","16.652764705881733","768","428","d","false","img/S_28.png","生人","prac_friend","","朋友"
"","","","","","html-keyboard-response","293","1163945","0.0-16.0-0.0-1.1","null","<span style='color:red; font-size: 70px;'>错误! </span>","null","","","","","","","","","","","","","","","","","","","","","","","feedback_test",""
"","","","","","psychophysics","294","1165754","0.0-16.0-0.0-0.2","805","","j","","","","","","","","","","","","","key","j","16.651601851850973","768","428","j","true","img/C_28.png","生人","prac_friend","","生人"
"","","","","","html-keyboard-response","295","1166067","0.0-16.0-0.0-1.2","null","<span style='color:GreenYellow; font-size: 70px;'>正确! </span>","null","","","","","","","","","","","","","","","","","","","","","","","feedback_test",""
"","","","","","psychophysics","296","1168313","0.0-16.0-0.0-0.3","1237","","k","","","","","","","","","","","","","key","k","16.651910447760542","768","428","k","true","img/C_28.png","朋友","prac_friend","","生人"
"","","","","","html-keyboard-response","297","1168627","0.0-16.0-0.0-1.3","null","<span style='color:GreenYellow; font-size: 70px;'>正确! </span>","null","","","","","","","","","","","","","","","","","","","","","","","feedback_test",""
"","","","","","psychophysics","298","1170707","0.0-16.0-0.0-0.4","1079","","j","","","","","","","","","","","","","key","j","16.649674796747288","768","428","j","true","img/H_28.png","自我","prac_friend","","自我"
"","","","","","html-keyboard-response","299","1171012","0.0-16.0-0.0-1.4","null","<span style='color:GreenYellow; font-size: 70px;'>正确! </span>","null","","","","","","","","","","","","","","","","","","","","","","","feedback_test",""
"","","","","","psychophysics","300","1172990","0.0-16.0-0.0-0.5","970","","k","","","","","","","","","","","","","key","k","16.653923076923746","768","428","k","true","img/H_28.png","朋友","prac_friend","","自我"
"","","","","","html-keyboard-response","301","1173298","0.0-16.0-0.0-1.5","null","<span style='color:GreenYellow; font-size: 70px;'>正确! </span>","null","","","","","","","","","","","","","","","","","","","","","","","feedback_test",""
"","","","","","psychophysics","302","1175125","0.0-16.0-0.0-0.6","820","","j","","","","","","","","","","","","","key","j","16.653463636364112","768","428","j","true","img/C_28.png","生人","prac_friend","","生人"
"","","","","","html-keyboard-response","303","1175433","0.0-16.0-0.0-1.6","null","<span style='color:GreenYellow; font-size: 70px;'>正确! </span>","null","","","","","","","","","","","","","","","","","","","","","","","feedback_test",""
"","","","","","psychophysics","304","1177939","0.0-16.0-0.0-0.7","null","","null","","","","","","","","","","","","","key","null","16.652299999999812","768","428","k","false","img/H_28.png","生人","prac_friend","","自我"
"","","","","","html-keyboard-response","305","1178244","0.0-16.0-0.0-1.7","null","<span class='add_' style='color:yellow; font-size: 70px;'> 太慢! </span>","null","","","","","","","","","","","","","","","","","","","","","","","feedback_test",""
"","","","","","psychophysics","306","1179798","0.0-16.0-0.0-0.8","550","","f","","","","","","","","","","","","","key","f","16.65272826086932","768","428","f","true","img/S_28.png","朋友","prac_friend","","朋友"
"","","","","","html-keyboard-response","307","1180104","0.0-16.0-0.0-1.8","null","<span style='color:GreenYellow; font-size: 70px;'>正确! </span>","null","","","","","","","","","","","","","","","","","","","","","","","feedback_test",""
"","","","","","psychophysics","308","1182477","0.0-16.0-0.0-0.9","1364","","k","","","","","","","","","","","","","key","k","16.65218309859227","768","428","k","true","img/C_28.png","自我","prac_friend","","生人"
"","","","","","html-keyboard-response","309","1182782","0.0-16.0-0.0-1.9","null","<span style='color:GreenYellow; font-size: 70px;'>正确! </span>","null","","","","","","","","","","","","","","","","","","","","","","","feedback_test",""
"","","","","","psychophysics","310","1184620","0.0-16.0-0.0-0.10","836","","k","","","","","","","","","","","","","key","k","16.653736363634977","768","428","d","false","img/S_28.png","自我","prac_friend","","朋友"
"","","","","","html-keyboard-response","311","1184936","0.0-16.0-0.0-1.10","null","<span style='color:red; font-size: 70px;'>错误! </span>","null","","","","","","","","","","","","","","","","","","","","","","","feedback_test",""
"","","","","","psychophysics","312","1186610","0.0-16.0-0.0-0.11","669","","f","","","","","","","","","","","","","key","f","16.653800000001212","768","428","f","true","img/S_28.png","朋友","prac_friend","","朋友"
"","","","","","html-keyboard-response","313","1186917","0.0-16.0-0.0-1.11","null","<span style='color:GreenYellow; font-size: 70px;'>正确! </span>","null","","","","","","","","","","","","","","","","","","","","","","","feedback_test",""
"","","","","","psychophysics","314","1188574","0.0-16.0-0.0-0.12","652","","k","","","","","","","","","","","","","key","k","16.6521938775514","768","428","k","true","img/H_28.png","生人","prac_friend","","自我"
"","","","","","html-keyboard-response","315","1188887","0.0-16.0-0.0-1.12","null","<span style='color:GreenYellow; font-size: 70px;'>正确! </span>","null","","","","","","","","","","","","","","","","","","","","","","","feedback_test",""
"","","","","","psychophysics","316","1190662","0.0-16.0-0.0-0.13","766","","j","","","","","","","","","","","","","key","j","16.652799999999946","768","428","j","true","img/C_28.png","生人","prac_friend","","生人"
"","","","","","html-keyboard-response","317","1190969","0.0-16.0-0.0-1.13","null","<span style='color:GreenYellow; font-size: 70px;'>正确! </span>","null","","","","","","","","","","","","","","","","","","","","","","","feedback_test",""
"","","","","","psychophysics","318","1192982","0.0-16.0-0.0-0.14","1005","","j","","","","","","","","","","","","","key","j","16.654834710744648","768","428","j","true","img/C_28.png","生人","prac_friend","","生人"
"","","","","","html-keyboard-response","319","1193296","0.0-16.0-0.0-1.14","null","<span style='color:GreenYellow; font-size: 70px;'>正确! </span>","null","","","","","","","","","","","","","","","","","","","","","","","feedback_test",""
"","","","","","psychophysics","320","1195333","0.0-16.0-0.0-0.15","1025","","k","","","","","","","","","","","","","key","k","16.653107438017113","768","428","d","false","img/S_28.png","自我","prac_friend","","朋友"
"","","","","","html-keyboard-response","321","1195643","0.0-16.0-0.0-1.15","null","<span style='color:red; font-size: 70px;'>错误! </span>","null","","","","","","","","","","","","","","","","","","","","","","","feedback_test",""
"","","","","","psychophysics","322","1197922","0.0-16.0-0.0-0.16","1269","","j","","","","","","","","","","","","","key","j","16.653059259258832","768","428","j","true","img/H_28.png","自我","prac_friend","","自我"
"","","","","","html-keyboard-response","323","1198233","0.0-16.0-0.0-1.16","null","<span style='color:GreenYellow; font-size: 70px;'>正确! </span>","null","","","","","","","","","","","","","","","","","","","","","","","feedback_test",""
"","","","","","psychophysics","324","1200142","0.0-16.0-0.0-0.17","904","","k","","","","","","","","","","","","","key","k","16.651789473684243","768","428","k","true","img/H_28.png","朋友","prac_friend","","自我"
"","","","","","html-keyboard-response","325","1200448","0.0-16.0-0.0-1.17","null","<span style='color:GreenYellow; font-size: 70px;'>正确! </span>","null","","","","","","","","","","","","","","","","","","","","","","","feedback_test",""
"","","","","","psychophysics","326","1202173","0.0-16.0-0.0-0.18","720","","k","","","","","","","","","","","","","key","k","16.652271844659147","768","428","d","false","img/S_28.png","生人","prac_friend","","朋友"
"","","","","","html-keyboard-response","327","1202482","0.0-16.0-0.0-1.18","null","<span style='color:red; font-size: 70px;'>错误! </span>","null","","","","","","","","","","","","","","","","","","","","","","","feedback_test",""
"","","","","","psychophysics","328","1204771","0.0-16.0-0.0-0.19","1287","","k","","","","","","","","","","","","","key","k","16.646610294117743","768","428","k","true","img/C_28.png","自我","prac_friend","","生人"
"","","","","","html-keyboard-response","329","1205088","0.0-16.0-0.0-1.19","null","<span style='color:GreenYellow; font-size: 70px;'>正确! </span>","null","","","","","","","","","","","","","","","","","","","","","","","feedback_test",""
"","","","","","psychophysics","330","1207080","0.0-16.0-0.0-0.20","983","","k","","","","","","","","","","","","","key","k","16.651504201681487","768","428","j","false","img/H_28.png","自我","prac_friend","","自我"
"","","","","","html-keyboard-response","331","1207382","0.0-16.0-0.0-1.20","null","<span style='color:red; font-size: 70px;'>错误! </span>","null","","","","","","","","","","","","","","","","","","","","","","","feedback_test",""
"","","","","","psychophysics","332","1209213","0.0-16.0-0.0-0.21","827","","f","","","","","","","","","","","","","key","f","16.653688073395365","768","428","f","true","img/S_28.png","朋友","prac_friend","","朋友"
"","","","","","html-keyboard-response","333","1209517","0.0-16.0-0.0-1.21","null","<span style='color:GreenYellow; font-size: 70px;'>正确! </span>","null","","","","","","","","","","","","","","","","","","","","","","","feedback_test",""
"","","","","","psychophysics","334","1211323","0.0-16.0-0.0-0.22","802","","k","","","","","","","","","","","","","key","k","16.654140186916045","768","428","k","true","img/C_28.png","朋友","prac_friend","","生人"
"","","","","","html-keyboard-response","335","1211635","0.0-16.0-0.0-1.22","null","<span style='color:GreenYellow; font-size: 70px;'>正确! </span>","null","","","","","","","","","","","","","","","","","","","","","","","feedback_test",""
"","","","","","psychophysics","336","1213178","0.0-16.0-0.0-0.23","540","","f","","","","","","","","","","","","","key","f","16.655408602150317","768","428","f","true","img/S_28.png","朋友","prac_friend","","朋友"
"","","","","","html-keyboard-response","337","1213489","0.0-16.0-0.0-1.23","null","<span style='color:GreenYellow; font-size: 70px;'>正确! </span>","null","","","","","","","","","","","","","","","","","","","","","","","feedback_test",""
"","","","","","html-keyboard-response","338","1221638","0.0-17.0","8147","[""<style>.context{color:white; font-size: 35px; line-height:40px}</style>               <div><p class='context'>您正确回答了71% 的试次。</p><p class='context'>您的平均反应时为914毫秒。</p><p class='context'>恭喜您完成这一阶段的练习。按任意键进入<span style='color: yellow;'>重点关注图形为“生人”</span>的练习。</p></div><p class='footer' style='font-size:35px; line-height:30px;'>任务要求：\n               <p class='footer' style='font-size:35px; line-height:35px;'>对与“生人”对应的图形，如果 匹配 ，请按 <span style=\""color: lightgreen;\"">f键</span></p><p class='footer' style='font-size:35px'>如果 不匹配 ，请按<span style=\""color: lightgreen;\"">d键</p></span>\n               <p class='footer' style='font-size:35px; line-height:35px;'>对非“生人”对应的图形，如果 匹配 ，请按 <span style=\""color: lightgreen;\"">j键</span></p><p class='footer' style='font-size:35px'>如果 不匹配 ，请按<span style=\""color: lightgreen;\"">k键</p></span>\n               <p class='footer' style='font-size:22px; line-height:25px;'>请在实验过程中将您的<span style=\""color: lightgreen;\"">食指和中指</span>放在电脑键盘的相应键位上进行按键。</p></span>""]"," ","","","","","","","","","","","","","","","","","","","","","","","",""
"","","","","","psychophysics","339","1223587","0.0-18.0-0.0-0.0","935","","k","","","","","","","","","","","","","key","k","16.654120689655397","768","428","d","false","img/C_28.png","朋友","prac_stranger","","生人"
"","","","","","html-keyboard-response","340","1223892","0.0-18.0-0.0-1.0","null","<span style='color:red; font-size: 70px;'>错误! </span>","null","","","","","","","","","","","","","","","","","","","","","","","feedback_test",""
"","","","","","psychophysics","341","1226109","0.0-18.0-0.0-0.1","1210","","j","","","","","","","","","","","","","key","j","16.65328571428475","768","428","j","true","img/H_28.png","自我","prac_stranger","","自我"
"","","","","","html-keyboard-response","342","1226418","0.0-18.0-0.0-1.1","null","<span style='color:GreenYellow; font-size: 70px;'>正确! </span>","null","","","","","","","","","","","","","","","","","","","","","","","feedback_test",""
"","","","","","psychophysics","343","1228416","0.0-18.0-0.0-0.2","992","","k","","","","","","","","","","","","","key","k","16.653616666665766","768","428","k","true","img/S_28.png","自我","prac_stranger","","朋友"
"","","","","","html-keyboard-response","344","1228731","0.0-18.0-0.0-1.2","null","<span style='color:GreenYellow; font-size: 70px;'>正确! </span>","null","","","","","","","","","","","","","","","","","","","","","","","feedback_test",""
"","","","","","psychophysics","345","1230527","0.0-18.0-0.0-0.3","785","","k","","","","","","","","","","","","","key","k","16.651698113206052","768","428","j","false","img/S_28.png","朋友","prac_stranger","","朋友"
"","","","","","html-keyboard-response","346","1230837","0.0-18.0-0.0-1.3","null","<span style='color:red; font-size: 70px;'>错误! </span>","null","","","","","","","","","","","","","","","","","","","","","","","feedback_test",""
"","","","","","psychophysics","347","1233015","0.0-18.0-0.0-0.4","1171","","k","","","","","","","","","","","","","key","k","16.6521461538469","768","428","k","true","img/S_28.png","生人","prac_stranger","","朋友"
"","","","","","html-keyboard-response","348","1233329","0.0-18.0-0.0-1.4","null","<span style='color:GreenYellow; font-size: 70px;'>正确! </span>","null","","","","","","","","","","","","","","","","","","","","","","","feedback_test",""
"","","","","","psychophysics","349","1235256","0.0-18.0-0.0-0.5","918","","k","","","","","","","","","","","","","key","k","16.651307017544465","768","428","d","false","img/C_28.png","自我","prac_stranger","","生人"
"","","","","","html-keyboard-response","350","1235565","0.0-18.0-0.0-1.5","null","<span style='color:red; font-size: 70px;'>错误! </span>","null","","","","","","","","","","","","","","","","","","","","","","","feedback_test",""
"","","","","","psychophysics","351","1237396","0.0-18.0-0.0-0.6","829","","j","","","","","","","","","","","","","key","j","16.65364545454398","768","428","j","true","img/S_28.png","朋友","prac_stranger","","朋友"
"","","","","","html-keyboard-response","352","1237704","0.0-18.0-0.0-1.6","null","<span style='color:GreenYellow; font-size: 70px;'>正确! </span>","null","","","","","","","","","","","","","","","","","","","","","","","feedback_test",""
"","","","","","psychophysics","353","1239601","0.0-18.0-0.0-0.7","888","","k","","","","","","","","","","","","","key","k","16.644169642856077","768","428","k","true","img/H_28.png","生人","prac_stranger","","自我"
"","","","","","html-keyboard-response","354","1239909","0.0-18.0-0.0-1.7","null","<span style='color:GreenYellow; font-size: 70px;'>正确! </span>","null","","","","","","","","","","","","","","","","","","","","","","","feedback_test",""
"","","","","","psychophysics","355","1241550","0.0-18.0-0.0-0.8","632","","f","","","","","","","","","","","","","key","f","16.65095876288581","768","428","f","true","img/C_28.png","生人","prac_stranger","","生人"
"","","","","","html-keyboard-response","356","1241862","0.0-18.0-0.0-1.8","null","<span style='color:GreenYellow; font-size: 70px;'>正确! </span>","null","","","","","","","","","","","","","","","","","","","","","","","feedback_test",""
"","","","","","psychophysics","357","1243653","0.0-18.0-0.0-0.9","785","","j","","","","","","","","","","","","","key","j","16.653056074765068","768","428","k","false","img/H_28.png","朋友","prac_stranger","","自我"
"","","","","","html-keyboard-response","358","1243958","0.0-18.0-0.0-1.9","null","<span style='color:red; font-size: 70px;'>错误! </span>","null","","","","","","","","","","","","","","","","","","","","","","","feedback_test",""
"","","","","","psychophysics","359","1245957","0.0-18.0-0.0-0.10","990","","j","","","","","","","","","","","","","key","j","16.650500000000466","768","428","f","false","img/C_28.png","生人","prac_stranger","","生人"
"","","","","","html-keyboard-response","360","1246271","0.0-18.0-0.0-1.10","null","<span style='color:red; font-size: 70px;'>错误! </span>","null","","","","","","","","","","","","","","","","","","","","","","","feedback_test",""
"","","","","","psychophysics","361","1248570","0.0-18.0-0.0-0.11","1293","","f","","","","","","","","","","","","","key","f","16.65260144927458","768","428","j","false","img/H_28.png","自我","prac_stranger","","自我"
"","","","","","html-keyboard-response","362","1248874","0.0-18.0-0.0-1.11","null","<span style='color:red; font-size: 70px;'>错误! </span>","null","","","","","","","","","","","","","","","","","","","","","","","feedback_test",""
"","","","","","psychophysics","363","1251040","0.0-18.0-0.0-0.12","1161","","k","","","","","","","","","","","","","key","k","16.65120930232418","768","428","d","false","img/C_28.png","自我","prac_stranger","","生人"
"","","","","","html-keyboard-response","364","1251342","0.0-18.0-0.0-1.12","null","<span style='color:red; font-size: 70px;'>错误! </span>","null","","","","","","","","","","","","","","","","","","","","","","","feedback_test",""
"","","","","","psychophysics","365","1253675","0.0-18.0-0.0-0.13","1332","","j","","","","","","","","","","","","","key","j","16.65330935251671","768","428","j","true","img/H_28.png","自我","prac_stranger","","自我"
"","","","","","html-keyboard-response","366","1253981","0.0-18.0-0.0-1.13","null","<span style='color:GreenYellow; font-size: 70px;'>正确! </span>","null","","","","","","","","","","","","","","","","","","","","","","","feedback_test",""
"","","","","","psychophysics","367","1256265","0.0-18.0-0.0-0.14","1278","","k","","","","","","","","","","","","","key","k","16.653514705882543","768","428","d","false","img/C_28.png","朋友","prac_stranger","","生人"
"","","","","","html-keyboard-response","368","1256572","0.0-18.0-0.0-1.14","null","<span style='color:red; font-size: 70px;'>错误! </span>","null","","","","","","","","","","","","","","","","","","","","","","","feedback_test",""
"","","","","","psychophysics","369","1259059","0.0-18.0-0.0-0.15","1485","","j","","","","","","","","","","","","","key","j","16.653771812080613","768","428","k","false","img/S_28.png","自我","prac_stranger","","朋友"
"","","","","","html-keyboard-response","370","1259373","0.0-18.0-0.0-1.15","null","<span style='color:red; font-size: 70px;'>错误! </span>","null","","","","","","","","","","","","","","","","","","","","","","","feedback_test",""
"","","","","","psychophysics","371","1261468","0.0-18.0-0.0-0.16","1091","","f","","","","","","","","","","","","","key","f","16.653231999998912","768","428","j","false","img/S_28.png","朋友","prac_stranger","","朋友"
"","","","","","html-keyboard-response","372","1261775","0.0-18.0-0.0-1.16","null","<span style='color:red; font-size: 70px;'>错误! </span>","null","","","","","","","","","","","","","","","","","","","","","","","feedback_test",""
"","","","","","psychophysics","373","1263110","0.0-18.0-0.0-0.17","327","","j","","","","","","","","","","","","","key","j","16.653240506328007","768","428","j","true","img/S_28.png","朋友","prac_stranger","","朋友"
"","","","","","html-keyboard-response","374","1263422","0.0-18.0-0.0-1.17","null","<span style='color:GreenYellow; font-size: 70px;'>正确! </span>","null","","","","","","","","","","","","","","","","","","","","","","","feedback_test",""
"","","","","","psychophysics","375","1265046","0.0-18.0-0.0-0.18","615","","k","","","","","","","","","","","","","key","k","16.65385416666686","768","428","k","true","img/S_28.png","生人","prac_stranger","","朋友"
"","","","","","html-keyboard-response","376","1265360","0.0-18.0-0.0-1.18","null","<span style='color:GreenYellow; font-size: 70px;'>正确! </span>","null","","","","","","","","","","","","","","","","","","","","","","","feedback_test",""
"","","","","","psychophysics","377","1267253","0.0-18.0-0.0-0.19","887","","k","","","","","","","","","","","","","key","k","16.652247787611888","768","428","j","false","img/H_28.png","自我","prac_stranger","","自我"
"","","","","","html-keyboard-response","378","1267565","0.0-18.0-0.0-1.19","null","<span style='color:red; font-size: 70px;'>错误! </span>","null","","","","","","","","","","","","","","","","","","","","","","","feedback_test",""
"","","","","","psychophysics","379","1269198","0.0-18.0-0.0-0.20","629","","f","","","","","","","","","","","","","key","f","16.652453608246827","768","428","f","true","img/C_28.png","生人","prac_stranger","","生人"
"","","","","","html-keyboard-response","380","1269500","0.0-18.0-0.0-1.20","null","<span style='color:GreenYellow; font-size: 70px;'>正确! </span>","null","","","","","","","","","","","","","","","","","","","","","","","feedback_test",""
"","","","","","psychophysics","381","1271199","0.0-18.0-0.0-0.21","687","","j","","","","","","","","","","","","","key","j","16.65254901960839","768","428","k","false","img/H_28.png","朋友","prac_stranger","","自我"
"","","","","","html-keyboard-response","382","1271506","0.0-18.0-0.0-1.21","null","<span style='color:red; font-size: 70px;'>错误! </span>","null","","","","","","","","","","","","","","","","","","","","","","","feedback_test",""
"","","","","","psychophysics","383","1273127","0.0-18.0-0.0-0.22","617","","f","","","","","","","","","","","","","key","f","16.65274226804235","768","428","f","true","img/C_28.png","生人","prac_stranger","","生人"
"","","","","","html-keyboard-response","384","1273432","0.0-18.0-0.0-1.22","null","<span style='color:GreenYellow; font-size: 70px;'>正确! </span>","null","","","","","","","","","","","","","","","","","","","","","","","feedback_test",""
"","","","","","psychophysics","385","1275566","0.0-18.0-0.0-0.23","1132","","k","","","","","","","","","","","","","key","k","16.6516141732293","768","428","k","true","img/H_28.png","生人","prac_stranger","","自我"
"","","","","","html-keyboard-response","386","1275881","0.0-18.0-0.0-1.23","null","<span style='color:GreenYellow; font-size: 70px;'>正确! </span>","null","","","","","","","","","","","","","","","","","","","","","","","feedback_test",""
"","","","","","html-keyboard-response","387","1278051","0.0-18.0-1.0-0.0","2168","<style>.context{color:white; font-size: 35px; line-height:40px}</style>                           <div><p class='context'>您正确回答了50% 的试次。</p><p class='context'>您的平均反应时为865毫秒。</p>"," ","","","","","","","","","","","","","","","","","","","","","","","",""
"","","","","","instructions","388","1295022","0.0-18.0-1.0-1.0","16969","","","","","","","","","","","","","","[{""page_index"":0,""viewing_time"":1992},{""page_index"":1,""viewing_time"":12564},{""page_index"":2,""viewing_time"":2412}]","","","","","","","","","","","",""
"","","","","","psychophysics","389","1296911","0.0-18.1-0.1-0.24","886","","j","","","","","","","","","","","","","key","j","16.654150442477828","768","428","j","true","img/H_28.png","自我","prac_stranger","","自我"
"","","","","","html-keyboard-response","390","1297222","0.0-18.1-0.1-1.24","null","<span style='color:GreenYellow; font-size: 70px;'>正确! </span>","null","","","","","","","","","","","","","","","","","","","","","","","feedback_test",""
"","","","","","psychophysics","391","1298683","0.0-18.1-0.1-0.25","459","","f","","","","","","","","","","","","","key","f","16.65256976744236","768","428","f","true","img/C_28.png","生人","prac_stranger","","生人"
"","","","","","html-keyboard-response","392","1298989","0.0-18.1-0.1-1.25","null","<span style='color:GreenYellow; font-size: 70px;'>正确! </span>","null","","","","","","","","","","","","","","","","","","","","","","","feedback_test",""
"","","","","","psychophysics","393","1300717","0.0-18.1-0.1-0.26","720","","j","","","","","","","","","","","","","key","j","16.65281553398049","768","428","k","false","img/H_28.png","生人","prac_stranger","","自我"
"","","","","","html-keyboard-response","394","1301022","0.0-18.1-0.1-1.26","null","<span style='color:red; font-size: 70px;'>错误! </span>","null","","","","","","","","","","","","","","","","","","","","","","","feedback_test",""
"","","","","","psychophysics","395","1303177","0.0-18.1-0.1-0.27","1148","","k","","","","","","","","","","","","","key","k","16.653976744185236","768","428","d","false","img/C_28.png","自我","prac_stranger","","生人"
"","","","","","html-keyboard-response","396","1303486","0.0-18.1-0.1-1.27","null","<span style='color:red; font-size: 70px;'>错误! </span>","null","","","","","","","","","","","","","","","","","","","","","","","feedback_test",""
"","","","","","psychophysics","397","1305605","0.0-18.1-0.1-0.28","1118","","j","","","","","","","","","","","","","key","j","16.65370866141693","768","428","k","false","img/S_28.png","自我","prac_stranger","","朋友"
"","","","","","html-keyboard-response","398","1305916","0.0-18.1-0.1-1.28","null","<span style='color:red; font-size: 70px;'>错误! </span>","null","","","","","","","","","","","","","","","","","","","","","","","feedback_test",""
"","","","","","psychophysics","399","1307821","0.0-18.1-0.1-0.29","904","","j","","","","","","","","","","","","","key","j","16.65535398230031","768","428","j","true","img/S_28.png","朋友","prac_stranger","","朋友"
"","","","","","html-keyboard-response","400","1308134","0.0-18.1-0.1-1.29","null","<span style='color:GreenYellow; font-size: 70px;'>正确! </span>","null","","","","","","","","","","","","","","","","","","","","","","","feedback_test",""
"","","","","","psychophysics","401","1310096","0.0-18.1-0.1-0.30","950","","f","","","","","","","","","","","","","key","f","16.65382758620725","768","428","f","true","img/C_28.png","生人","prac_stranger","","生人"
"","","","","","html-keyboard-response","402","1310412","0.0-18.1-0.1-1.30","null","<span style='color:GreenYellow; font-size: 70px;'>正确! </span>","null","","","","","","","","","","","","","","","","","","","","","","","feedback_test",""
"","","","","","psychophysics","403","1312469","0.0-18.1-0.1-0.31","1057","","k","","","","","","","","","","","","","key","k","16.654382113821622","768","428","k","true","img/H_28.png","朋友","prac_stranger","","自我"
"","","","","","html-keyboard-response","404","1312770","0.0-18.1-0.1-1.31","null","<span style='color:GreenYellow; font-size: 70px;'>正确! </span>","null","","","","","","","","","","","","","","","","","","","","","","","feedback_test",""
"","","","","","psychophysics","405","1314242","0.0-18.1-0.1-0.32","465","","f","","","","","","","","","","","","","key","f","16.654448275861128","768","428","k","false","img/S_28.png","生人","prac_stranger","","朋友"
"","","","","","html-keyboard-response","406","1314556","0.0-18.1-0.1-1.32","null","<span style='color:red; font-size: 70px;'>错误! </span>","null","","","","","","","","","","","","","","","","","","","","","","","feedback_test",""
"","","","","","psychophysics","407","1316443","0.0-18.1-0.1-0.33","884","","k","","","","","","","","","","","","","key","k","16.654699115043474","768","428","d","false","img/C_28.png","朋友","prac_stranger","","生人"
"","","","","","html-keyboard-response","408","1316745","0.0-18.1-0.1-1.33","null","<span style='color:red; font-size: 70px;'>错误! </span>","null","","","","","","","","","","","","","","","","","","","","","","","feedback_test",""
"","","","","","psychophysics","409","1318830","0.0-18.1-0.1-0.34","1078","","j","","","","","","","","","","","","","key","j","16.653814516129767","768","428","j","true","img/S_28.png","朋友","prac_stranger","","朋友"
"","","","","","html-keyboard-response","410","1319146","0.0-18.1-0.1-1.34","null","<span style='color:GreenYellow; font-size: 70px;'>正确! </span>","null","","","","","","","","","","","","","","","","","","","","","","","feedback_test",""
"","","","","","psychophysics","411","1321116","0.0-18.1-0.1-0.35","962","","j","","","","","","","","","","","","","key","j","16.652786324785737","768","428","j","true","img/H_28.png","自我","prac_stranger","","自我"
"","","","","","html-keyboard-response","412","1321423","0.0-18.1-0.1-1.35","null","<span style='color:GreenYellow; font-size: 70px;'>正确! </span>","null","","","","","","","","","","","","","","","","","","","","","","","feedback_test",""
"","","","","","psychophysics","413","1323777","0.0-18.1-0.1-0.36","1345","","k","","","","","","","","","","","","","key","k","16.651121428572306","768","428","k","true","img/H_28.png","生人","prac_stranger","","自我"
"","","","","","html-keyboard-response","414","1324091","0.0-18.1-0.1-1.36","null","<span style='color:GreenYellow; font-size: 70px;'>正确! </span>","null","","","","","","","","","","","","","","","","","","","","","","","feedback_test",""
"","","","","","psychophysics","415","1326227","0.0-18.1-0.1-0.37","1126","","k","","","","","","","","","","","","","key","k","16.653101562500524","768","428","k","true","img/S_28.png","自我","prac_stranger","","朋友"
"","","","","","html-keyboard-response","416","1326533","0.0-18.1-0.1-1.37","null","<span style='color:GreenYellow; font-size: 70px;'>正确! </span>","null","","","","","","","","","","","","","","","","","","","","","","","feedback_test",""
"","","","","","psychophysics","417","1328424","0.0-18.1-0.1-0.38","884","","j","","","","","","","","","","","","","key","j","16.652389380532785","768","428","j","true","img/H_28.png","自我","prac_stranger","","自我"
"","","","","","html-keyboard-response","418","1328733","0.0-18.1-0.1-1.38","null","<span style='color:GreenYellow; font-size: 70px;'>正确! </span>","null","","","","","","","","","","","","","","","","","","","","","","","feedback_test",""
"","","","","","psychophysics","419","1330504","0.0-18.1-0.1-0.39","764","","k","","","","","","","","","","","","","key","k","16.6553523809516","768","428","d","false","img/C_28.png","朋友","prac_stranger","","生人"
"","","","","","html-keyboard-response","420","1330814","0.0-18.1-0.1-1.39","null","<span style='color:red; font-size: 70px;'>错误! </span>","null","","","","","","","","","","","","","","","","","","","","","","","feedback_test",""
"","","","","","psychophysics","421","1332461","0.0-18.1-0.1-0.40","640","","f","","","","","","","","","","","","","key","f","16.65292857142821","768","428","f","true","img/C_28.png","生人","prac_stranger","","生人"
"","","","","","html-keyboard-response","422","1332763","0.0-18.1-0.1-1.40","null","<span style='color:GreenYellow; font-size: 70px;'>正确! </span>","null","","","","","","","","","","","","","","","","","","","","","","","feedback_test",""
"","","","","","psychophysics","423","1334720","0.0-18.1-0.1-0.41","952","","f","","","","","","","","","","","","","key","f","16.652448275863144","768","428","f","true","img/C_28.png","生人","prac_stranger","","生人"
"","","","","","html-keyboard-response","424","1335032","0.0-18.1-0.1-1.41","null","<span style='color:GreenYellow; font-size: 70px;'>正确! </span>","null","","","","","","","","","","","","","","","","","","","","","","","feedback_test",""
