"success","timeout","failed_images","failed_audio","failed_video","trial_type","trial_index","time_elapsed","internal_node_id","rt","stimulus","response","value","item_width_mm","item_height_mm","item_width_px","px2mm","view_dist_mm","item_width_deg","px2deg","scale_factor","win_width_deg","win_height_deg","view_history","response_type","key_press","avg_frame_time","center_x","center_y","correct_response","correct","Image","text","condition","screen_id","label"
"true","false","[]","[]","[]","preload","0","398","0.0-0.0","","","","","","","","","","","","","","","","","","","","","","","","","","",""
"","","","","","html-keyboard-response","1","5429","0.0-1.0","5030","
     <p>您好，欢迎参加本次实验。</p>
     <p>为充分保障您的权利，请确保您已经知晓并同意《参与实验同意书》以及《数据公开知情同意书》。</p>
     <p>如果您未见过上述内容，请咨询实验员。</p>
     <p>如果您选择继续实验，则表示您已经清楚两份知情同意书的内容并同意。</p>
     <p> <div style = ""color: green""><按任意键至下页></div> </p>
     "," ","","","","","","","","","","","","","","","","","","","","","","","",""
"","","","","","html-keyboard-response","2","6650","0.0-2.0","1221","
     <p>本实验首先需要您填写一些基本个人信息。</p>
     <p> <div style = ""color: green""><按任意键至下页></div></p>
     "," ","","","","","","","","","","","","","","","","","","","","","","","",""
"","","","","","call-function","3","6652","0.0-3.0-0.0","","","","","","","","","","","","","","","","","","","","","","","","","","",""
"","","","","","survey-html-form","4","9750","0.0-3.0-1.0","3095","","{""Q0"":""10""}","","","","","","","","","","","","","","","","","","","","","","","",""
"","","","","","html-button-response","5","10696","0.0-3.0-2.0","942","<p style = 'color : white'>您的性别</p>","0","","","","","","","","","","","","","","","","","","","","","","","",""
"","","","","","survey-html-form","6","12755","0.0-3.0-3.0","2057","","{""Q0"":""2000""}","","","","","","","","","","","","","","","","","","","","","","","",""
"","","","","","survey-html-form","7","15900","0.0-3.0-4.0","3144","","{""Q0"":""5""}","","","","","","","","","","","","","","","","","","","","","","","",""
"","","","","","virtual-chinrest","8","55005","0.0-4.0","39102","","","","85.6","53.98","468.661467676868","5.474199300872961","522.08","9.37322935353736","50.00000000000001","1.0284609110052303","38.39999999999999","17.459999999999997","","","","","","","","","","","","",""
"true","","","","","fullscreen","9","57026","0.0-5.0","","","","","","","","","","","","","","","","","","","","","","","","","","",""
"","","","","","instructions","10","80638","0.0-6.0","23609","","","","","","","","","","","","","","[{""page_index"":0,""viewing_time"":1816},{""page_index"":1,""viewing_time"":8513},{""page_index"":2,""viewing_time"":7895},{""page_index"":3,""viewing_time"":3385},{""page_index"":4,""viewing_time"":2000}]","","","","","","","","","","","",""
"","","","","","instructions","11","90926","0.0-7.0","10287","","","","","","","","","","","","","","[{""page_index"":0,""viewing_time"":10287}]","","","","","","","","","","","",""
"","","","","","psychophysics","12","92955","0.0-8.0-0.0-0.0","1021","","k","","","","","","","","","","","","","key","k","16.660666666666657","960","536","k","true","img/H_28.png","自我","freeprac_self","",""
"","","","","","html-keyboard-response","13","93257","0.0-8.0-0.0-1.0","null","<span style='color:GreenYellow; font-size: 70px;'>正确! </span>","null","","","","","","","","","","","","","","","","","","","","","","","feedback_test",""
"","","","","","psychophysics","14","100205","0.0-8.0-0.0-0.1","5946","","f","","","","","","","","","","","","","key","f","16.66110843373494","960","536","f","true","img/C_28.png","自我","freeprac_self","",""
"","","","","","html-keyboard-response","15","100507","0.0-8.0-0.0-1.1","null","<span style='color:GreenYellow; font-size: 70px;'>正确! </span>","null","","","","","","","","","","","","","","","","","","","","","","","feedback_test",""
"","","","","","psychophysics","16","104259","0.0-8.0-0.0-0.2","2749","","d","","","","","","","","","","","","","key","d","16.736144144144205","960","536","d","true","img/C_28.png","朋友","freeprac_self","",""
"","","","","","html-keyboard-response","17","104561","0.0-8.0-0.0-1.2","null","<span style='color:GreenYellow; font-size: 70px;'>正确! </span>","null","","","","","","","","","","","","","","","","","","","","","","","feedback_test",""
"","","","","","psychophysics","18","106914","0.0-8.0-0.0-0.3","1350","","f","","","","","","","","","","","","","key","f","16.660992857142887","960","536","f","true","img/C_28.png","生人","freeprac_self","",""
"","","","","","html-keyboard-response","19","107216","0.0-8.0-0.0-1.3","null","<span style='color:GreenYellow; font-size: 70px;'>正确! </span>","null","","","","","","","","","","","","","","","","","","","","","","","feedback_test",""
"","","","","","psychophysics","20","110231","0.0-8.0-0.0-0.4","2012","","d","","","","","","","","","","","","","key","d","16.661391061452488","960","536","d","true","img/S_28.png","生人","freeprac_self","",""
"","","","","","html-keyboard-response","21","110533","0.0-8.0-0.0-1.4","null","<span style='color:GreenYellow; font-size: 70px;'>正确! </span>","null","","","","","","","","","","","","","","","","","","","","","","","feedback_test",""
"","","","","","psychophysics","22","113048","0.0-8.0-0.0-0.5","1512","","f","","","","","","","","","","","","","key","f","16.661187919463135","960","536","j","false","img/H_28.png","生人","freeprac_self","",""
"","","","","","html-keyboard-response","23","113351","0.0-8.0-0.0-1.5","null","<span style='color:red; font-size: 70px;'>错误! </span>","null","","","","","","","","","","","","","","","","","","","","","","","feedback_test",""
"","","","","","psychophysics","24","116588","0.0-8.0-0.0-0.6","2236","","d","","","","","","","","","","","","","key","d","16.661114583333376","960","536","d","true","img/S_28.png","生人","freeprac_self","",""
"","","","","","html-keyboard-response","25","116890","0.0-8.0-0.0-1.6","null","<span style='color:GreenYellow; font-size: 70px;'>正确! </span>","null","","","","","","","","","","","","","","","","","","","","","","","feedback_test",""
"","","","","","psychophysics","26","120471","0.0-8.0-0.0-0.7","2580","","f","","","","","","","","","","","","","key","f","16.660934579439264","960","536","f","true","img/S_28.png","自我","freeprac_self","",""
"","","","","","html-keyboard-response","27","120773","0.0-8.0-0.0-1.7","null","<span style='color:GreenYellow; font-size: 70px;'>正确! </span>","null","","","","","","","","","","","","","","","","","","","","","","","feedback_test",""
"","","","","","psychophysics","28","124625","0.0-8.0-0.0-0.8","2850","","d","","","","","","","","","","","","","key","d","16.661221739130458","960","536","f","false","img/S_28.png","朋友","freeprac_self","",""
"","","","","","html-keyboard-response","29","124927","0.0-8.0-0.0-1.8","null","<span style='color:red; font-size: 70px;'>错误! </span>","null","","","","","","","","","","","","","","","","","","","","","","","feedback_test",""
"","","","","","psychophysics","30","129825","0.0-8.0-0.0-0.9","3896","","j","","","","","","","","","","","","","key","j","16.775886206896544","960","536","j","true","img/H_28.png","朋友","freeprac_self","",""
"","","","","","html-keyboard-response","31","130128","0.0-8.0-0.0-1.9","null","<span style='color:GreenYellow; font-size: 70px;'>正确! </span>","null","","","","","","","","","","","","","","","","","","","","","","","feedback_test",""
"","","","","","psychophysics","32","132467","0.0-8.0-0.0-0.10","1338","","k","","","","","","","","","","","","","key","k","16.661115107913595","960","536","k","true","img/H_28.png","自我","freeprac_self","",""
"","","","","","html-keyboard-response","33","132768","0.0-8.0-0.0-1.10","null","<span style='color:GreenYellow; font-size: 70px;'>正确! </span>","null","","","","","","","","","","","","","","","","","","","","","","","feedback_test",""
"","","","","","psychophysics","34","136860","0.0-8.0-0.0-0.11","3089","","d","","","","","","","","","","","","","key","d","16.661221311475366","960","536","d","true","img/C_28.png","朋友","freeprac_self","",""
"","","","","","html-keyboard-response","35","137162","0.0-8.0-0.0-1.11","null","<span style='color:GreenYellow; font-size: 70px;'>正确! </span>","null","","","","","","","","","","","","","","","","","","","","","","","feedback_test",""
"","","","","","html-keyboard-response","36","145528","0.0-9.0","8362","[""<style>.context{color:white; font-size: 35px; line-height:40px}</style>              <div><p class='context'>您正确回答了83% 的试次。</p><p class='context'>您的平均反应时为2622毫秒。</p><p class='context'>恭喜您完成这一阶段的练习。按任意键进入<span style='color: yellow;'>重点关注图形为“朋友”</span>的练习。</p></div><p class='footer' style='font-size:35px; line-height:30px;'>任务要求：\n              <p class='footer' style='font-size:35px; line-height:35px;'>对于与“朋友”对应的图形：如果 匹配 ，请按 <span style=\""color: lightgreen;\"">k键</span></p><p class='footer' style='font-size:35px'>如果 不匹配 ，请按<span style=\""color: lightgreen;\"">j键</p></span>\n              <p class='footer' style='font-size:35px; line-height:35px;'>对于非“朋友”对应的图形：如果 匹配 ，请按 <span style=\""color: lightgreen;\"">d键</span></p><p class='footer' style='font-size:35px'>如果 不匹配 ，请按<span style=\""color: lightgreen;\"">f键</p></span>\n              <p class='footer' style='font-size:22px; line-height:25px;'>请在实验过程中将您的<span style=\""color: lightgreen;\"">食指和中指</span>放在电脑键盘的相应键位上进行按键。</p></span>""]"," ","","","","","","","","","","","","","","","","","","","","","","","",""
"","","","","","psychophysics","37","151606","0.0-10.0-0.0-0.0","5069","","j","","","","","","","","","","","","","key","j","16.662429752066114","960","536","j","true","img/C_28.png","生人","freeprac_friend","",""
"","","","","","html-keyboard-response","38","151908","0.0-10.0-0.0-1.0","null","<span style='color:GreenYellow; font-size: 70px;'>正确! </span>","null","","","","","","","","","","","","","","","","","","","","","","","feedback_test",""
"","","","","","psychophysics","39","154440","0.0-10.0-0.0-0.1","1530","","k","","","","","","","","","","","","","key","k","16.661246666666703","960","536","k","true","img/C_28.png","朋友","freeprac_friend","",""
"","","","","","html-keyboard-response","40","154742","0.0-10.0-0.0-1.1","null","<span style='color:GreenYellow; font-size: 70px;'>正确! </span>","null","","","","","","","","","","","","","","","","","","","","","","","feedback_test",""
"","","","","","psychophysics","41","158758","0.0-10.0-0.0-0.2","3014","","f","","","","","","","","","","","","","key","f","16.661058333333372","960","536","f","true","img/H_28.png","生人","freeprac_friend","",""
"","","","","","html-keyboard-response","42","159060","0.0-10.0-0.0-1.2","null","<span style='color:GreenYellow; font-size: 70px;'>正确! </span>","null","","","","","","","","","","","","","","","","","","","","","","","feedback_test",""
"","","","","","psychophysics","43","163054","0.0-10.0-0.0-0.3","2991","","f","","","","","","","","","","","","","key","f","16.66116806722692","960","536","f","true","img/S_28.png","自我","freeprac_friend","",""
"","","","","","html-keyboard-response","44","163357","0.0-10.0-0.0-1.3","null","<span style='color:GreenYellow; font-size: 70px;'>正确! </span>","null","","","","","","","","","","","","","","","","","","","","","","","feedback_test",""
"","","","","","psychophysics","45","167263","0.0-10.0-0.0-0.4","2904","","d","","","","","","","","","","","","","key","d","16.661042918455003","960","536","d","true","img/H_28.png","自我","freeprac_friend","",""
"","","","","","html-keyboard-response","46","167567","0.0-10.0-0.0-1.4","null","<span style='color:GreenYellow; font-size: 70px;'>正确! </span>","null","","","","","","","","","","","","","","","","","","","","","","","feedback_test",""
"","","","","","psychophysics","47","171476","0.0-10.0-0.0-0.5","2905","","j","","","","","","","","","","","","","key","j","16.66109442060087","960","536","k","false","img/C_28.png","朋友","freeprac_friend","",""
"","","","","","html-keyboard-response","48","171778","0.0-10.0-0.0-1.5","null","<span style='color:red; font-size: 70px;'>错误! </span>","null","","","","","","","","","","","","","","","","","","","","","","","feedback_test",""
"","","","","","psychophysics","49","174624","0.0-10.0-0.0-0.6","1843","","k","","","","","","","","","","","","","key","k","16.661207100591753","960","536","d","false","img/S_28.png","生人","freeprac_friend","",""
"","","","","","html-keyboard-response","50","174925","0.0-10.0-0.0-1.6","null","<span style='color:red; font-size: 70px;'>错误! </span>","null","","","","","","","","","","","","","","","","","","","","","","","feedback_test",""
"","","","","","psychophysics","51","182636","0.0-10.0-0.0-0.7","6707","","f","","","","","","","","","","","","","key","f","16.66102164502163","960","536","f","true","img/S_28.png","朋友","freeprac_friend","",""
"","","","","","html-keyboard-response","52","182938","0.0-10.0-0.0-1.7","null","<span style='color:GreenYellow; font-size: 70px;'>正确! </span>","null","","","","","","","","","","","","","","","","","","","","","","","feedback_test",""
"","","","","","psychophysics","53","186484","0.0-10.0-0.0-0.8","2545","","f","","","","","","","","","","","","","key","f","16.661037735849124","960","536","f","true","img/H_28.png","朋友","freeprac_friend","",""
"","","","","","html-keyboard-response","54","186785","0.0-10.0-0.0-1.8","null","<span style='color:GreenYellow; font-size: 70px;'>正确! </span>","null","","","","","","","","","","","","","","","","","","","","","","","feedback_test",""
"","","","","","psychophysics","55","189978","0.0-10.0-0.0-0.9","2191","","d","","","","","","","","","","","","","key","d","16.661342105263152","960","536","d","true","img/S_28.png","生人","freeprac_friend","",""
"","","","","","html-keyboard-response","56","190281","0.0-10.0-0.0-1.9","null","<span style='color:GreenYellow; font-size: 70px;'>正确! </span>","null","","","","","","","","","","","","","","","","","","","","","","","feedback_test",""
"","","","","","psychophysics","57","193386","0.0-10.0-0.0-0.10","2102","","d","","","","","","","","","","","","","key","d","16.66100000000002","960","536","d","true","img/H_28.png","自我","freeprac_friend","",""
"","","","","","html-keyboard-response","58","193689","0.0-10.0-0.0-1.10","null","<span style='color:GreenYellow; font-size: 70px;'>正确! </span>","null","","","","","","","","","","","","","","","","","","","","","","","feedback_test",""
"","","","","","psychophysics","59","198460","0.0-10.0-0.0-0.11","3770","","j","","","","","","","","","","","","","key","j","16.660807017543917","960","536","j","true","img/C_28.png","自我","freeprac_friend","",""
"","","","","","html-keyboard-response","60","198763","0.0-10.0-0.0-1.11","null","<span style='color:GreenYellow; font-size: 70px;'>正确! </span>","null","","","","","","","","","","","","","","","","","","","","","","","feedback_test",""
"","","","","","html-keyboard-response","61","206722","0.0-11.0","7955","[""<style>.context{color:white; font-size: 35px; line-height:40px}</style>                  <div><p class='context'>您正确回答了83% 的试次。</p><p class='context'>您的平均反应时为3282毫秒。</p><p class='context'>恭喜您完成这一阶段的练习。按任意键进入<span style='color: yellow;'>重点关注图形为“生人”</span>的练习。</p></div><p class='footer' style='font-size:35px; line-height:30px;'>任务要求：\n                  <p class='footer' style='font-size:35px; line-height:35px;'>对与“生人”对应的图形，如果 匹配 ，请按 <span style=\""color: lightgreen;\"">k键</span></p><p class='footer' style='font-size:35px'>如果 不匹配 ，请按<span style=\""color: lightgreen;\"">j键</p></span>\n                  <p class='footer' style='font-size:35px; line-height:35px;'>对非“生人”对应的图形，如果 匹配 ，请按 <span style=\""color: lightgreen;\"">d键</span></p><p class='footer' style='font-size:35px'>如果 不匹配 ，请按<span style=\""color: lightgreen;\"">f键</p></span>\n                  <p class='footer' style='font-size:22px; line-height:25px;'>请在实验过程中将您的<span style=\""color: lightgreen;\"">食指和中指</span>放在电脑键盘的相应键位上进行按键。</p></span>""]"," ","","","","","","","","","","","","","","","","","","","","","","","",""
"","","","","","psychophysics","62","212425","0.0-12.0-0.0-0.0","4693","","f","","","","","","","","","","","","","key","f","16.662583577712585","960","536","f","true","img/C_28.png","生人","freeprac_stranger","",""
"","","","","","html-keyboard-response","63","212727","0.0-12.0-0.0-1.0","null","<span style='color:GreenYellow; font-size: 70px;'>正确! </span>","null","","","","","","","","","","","","","","","","","","","","","","","feedback_test",""
"","","","","","psychophysics","64","216645","0.0-12.0-0.0-0.1","2915","","f","","","","","","","","","","","","","key","f","16.661188034188008","960","536","f","true","img/C_28.png","自我","freeprac_stranger","",""
"","","","","","html-keyboard-response","65","216946","0.0-12.0-0.0-1.1","null","<span style='color:GreenYellow; font-size: 70px;'>正确! </span>","null","","","","","","","","","","","","","","","","","","","","","","","feedback_test",""
"","","","","","psychophysics","66","219952","0.0-12.0-0.0-0.2","2004","","f","","","","","","","","","","","","","key","f","16.661223463687296","960","536","f","true","img/H_28.png","朋友","freeprac_stranger","",""
"","","","","","html-keyboard-response","67","220253","0.0-12.0-0.0-1.2","null","<span style='color:GreenYellow; font-size: 70px;'>正确! </span>","null","","","","","","","","","","","","","","","","","","","","","","","feedback_test",""
"","","","","","psychophysics","68","223743","0.0-12.0-0.0-0.3","2488","","d","","","","","","","","","","","","","key","d","16.661341346153886","960","536","d","true","img/C_28.png","朋友","freeprac_stranger","",""
"","","","","","html-keyboard-response","69","224045","0.0-12.0-0.0-1.3","null","<span style='color:GreenYellow; font-size: 70px;'>正确! </span>","null","","","","","","","","","","","","","","","","","","","","","","","feedback_test",""
"","","","","","psychophysics","70","227563","0.0-12.0-0.0-0.4","2516","","d","","","","","","","","","","","","","key","d","16.661066985645935","960","536","d","true","img/C_28.png","朋友","freeprac_stranger","",""
"","","","","","html-keyboard-response","71","227866","0.0-12.0-0.0-1.4","null","<span style='color:GreenYellow; font-size: 70px;'>正确! </span>","null","","","","","","","","","","","","","","","","","","","","","","","feedback_test",""
"","","","","","psychophysics","72","232440","0.0-12.0-0.0-0.5","3573","","d","","","","","","","","","","","","","key","d","16.661135531135496","960","536","d","true","img/H_28.png","自我","freeprac_stranger","",""
"","","","","","html-keyboard-response","73","232742","0.0-12.0-0.0-1.5","null","<span style='color:GreenYellow; font-size: 70px;'>正确! </span>","null","","","","","","","","","","","","","","","","","","","","","","","feedback_test",""
"","","","","","psychophysics","74","234963","0.0-12.0-0.0-0.6","1218","","d","","","","","","","","","","","","","key","d","16.661335877862665","960","536","d","true","img/H_28.png","自我","freeprac_stranger","",""
"","","","","","html-keyboard-response","75","235264","0.0-12.0-0.0-1.6","null","<span style='color:GreenYellow; font-size: 70px;'>正确! </span>","null","","","","","","","","","","","","","","","","","","","","","","","feedback_test",""
"","","","","","psychophysics","76","239541","0.0-12.0-0.0-0.7","3276","","k","","","","","","","","","","","","","key","k","16.661066666666724","960","536","j","false","img/S_28.png","朋友","freeprac_stranger","",""
"","","","","","html-keyboard-response","77","239844","0.0-12.0-0.0-1.7","null","<span style='color:red; font-size: 70px;'>错误! </span>","null","","","","","","","","","","","","","","","","","","","","","","","feedback_test",""
"","","","","","psychophysics","78","243235","0.0-12.0-0.0-0.8","2388","","f","","","","","","","","","","","","","key","f","16.660985148514854","960","536","f","true","img/H_28.png","生人","freeprac_stranger","",""
"","","","","","html-keyboard-response","79","243538","0.0-12.0-0.0-1.8","null","<span style='color:GreenYellow; font-size: 70px;'>正确! </span>","null","","","","","","","","","","","","","","","","","","","","","","","feedback_test",""
"","","","","","psychophysics","80","251504","0.0-12.0-0.0-0.9","6964","","k","","","","","","","","","","","","","key","k","16.66113207547167","960","536","k","true","img/S_28.png","生人","freeprac_stranger","",""
"","","","","","html-keyboard-response","81","251807","0.0-12.0-0.0-1.9","null","<span style='color:GreenYellow; font-size: 70px;'>正确! </span>","null","","","","","","","","","","","","","","","","","","","","","","","feedback_test",""
"","","","","","psychophysics","82","254384","0.0-12.0-0.0-0.10","1576","","j","","","","","","","","","","","","","key","j","16.66115686274514","960","536","j","true","img/S_28.png","自我","freeprac_stranger","",""
"","","","","","html-keyboard-response","83","254686","0.0-12.0-0.0-1.10","null","<span style='color:GreenYellow; font-size: 70px;'>正确! </span>","null","","","","","","","","","","","","","","","","","","","","","","","feedback_test",""
"","","","","","psychophysics","84","257158","0.0-12.0-0.0-0.11","1470","","k","","","","","","","","","","","","","key","k","16.661319727891204","960","536","k","true","img/S_28.png","生人","freeprac_stranger","",""
"","","","","","html-keyboard-response","85","257459","0.0-12.0-0.0-1.11","null","<span style='color:GreenYellow; font-size: 70px;'>正确! </span>","null","","","","","","","","","","","","","","","","","","","","","","","feedback_test",""
"","","","","","instructions","86","276920","0.0-13.0","19456","","","","","","","","","","","","","","[{""page_index"":0,""viewing_time"":19456}]","","","","","","","","","","","",""
"","","","","","psychophysics","87","279424","0.0-14.0-0.0-0.0","null","","null","","","","","","","","","","","","","key","null","16.660926174496662","960","536","d","false","img/C_28.png","朋友","prac_self","","朋友"
"","","","","","html-keyboard-response","88","279726","0.0-14.0-0.0-1.0","null","<span class='add_' style='color:yellow; font-size: 70px;'> 太慢! </span>","null","","","","","","","","","","","","","","","","","","","","","","","feedback_test",""
"","","","","","psychophysics","89","281892","0.0-14.0-0.0-0.1","1164","","f","","","","","","","","","","","","","key","f","16.66089062500032","960","536","f","true","img/S_28.png","朋友","prac_self","","生人"
"","","","","","html-keyboard-response","90","282193","0.0-14.0-0.0-1.1","null","<span style='color:GreenYellow; font-size: 70px;'>正确! </span>","null","","","","","","","","","","","","","","","","","","","","","","","feedback_test",""
"","","","","","psychophysics","91","284697","0.0-14.0-0.0-0.2","null","","null","","","","","","","","","","","","","key","null","16.662344594594607","960","536","k","false","img/H_28.png","自我","prac_self","","自我"
"","","","","","html-keyboard-response","92","284998","0.0-14.0-0.0-1.2","null","<span class='add_' style='color:yellow; font-size: 70px;'> 太慢! </span>","null","","","","","","","","","","","","","","","","","","","","","","","feedback_test",""
"","","","","","psychophysics","93","287436","0.0-14.0-0.0-0.3","1435","","j","","","","","","","","","","","","","key","j","16.66128965517233","960","536","j","true","img/H_28.png","生人","prac_self","","自我"
"","","","","","html-keyboard-response","94","287737","0.0-14.0-0.0-1.3","null","<span style='color:GreenYellow; font-size: 70px;'>正确! </span>","null","","","","","","","","","","","","","","","","","","","","","","","feedback_test",""
"","","","","","psychophysics","95","290239","0.0-14.0-0.0-0.4","null","","null","","","","","","","","","","","","","key","null","16.66109395973133","960","536","j","false","img/H_28.png","朋友","prac_self","","自我"
"","","","","","html-keyboard-response","96","290540","0.0-14.0-0.0-1.4","null","<span class='add_' style='color:yellow; font-size: 70px;'> 太慢! </span>","null","","","","","","","","","","","","","","","","","","","","","","","feedback_test",""
"","","","","","psychophysics","97","293044","0.0-14.0-0.0-0.5","null","","null","","","","","","","","","","","","","key","null","16.661466216216198","960","536","d","false","img/S_28.png","生人","prac_self","","生人"
"","","","","","html-keyboard-response","98","293346","0.0-14.0-0.0-1.5","null","<span class='add_' style='color:yellow; font-size: 70px;'> 太慢! </span>","null","","","","","","","","","","","","","","","","","","","","","","","feedback_test",""
"","","","","","psychophysics","99","295247","0.0-14.0-0.0-0.6","900","","f","","","","","","","","","","","","","key","f","16.661044247787387","960","536","d","false","img/C_28.png","朋友","prac_self","","朋友"
"","","","","","html-keyboard-response","100","295549","0.0-14.0-0.0-1.6","null","<span style='color:red; font-size: 70px;'>错误! </span>","null","","","","","","","","","","","","","","","","","","","","","","","feedback_test",""
"","","","","","psychophysics","101","297459","0.0-14.0-0.0-0.7","909","","d","","","","","","","","","","","","","key","d","16.660716814159485","960","536","f","false","img/S_28.png","自我","prac_self","","生人"
"","","","","","html-keyboard-response","102","297761","0.0-14.0-0.0-1.7","null","<span style='color:red; font-size: 70px;'>错误! </span>","null","","","","","","","","","","","","","","","","","","","","","","","feedback_test",""
"","","","","","psychophysics","103","299735","0.0-14.0-0.0-0.8","970","","f","","","","","","","","","","","","","key","f","16.66147008547002","960","536","f","true","img/C_28.png","生人","prac_self","","朋友"
"","","","","","html-keyboard-response","104","300037","0.0-14.0-0.0-1.8","null","<span style='color:GreenYellow; font-size: 70px;'>正确! </span>","null","","","","","","","","","","","","","","","","","","","","","","","feedback_test",""
"","","","","","psychophysics","105","301943","0.0-14.0-0.0-0.9","902","","f","","","","","","","","","","","","","key","f","16.66093805309723","960","536","f","true","img/C_28.png","自我","prac_self","","朋友"
"","","","","","html-keyboard-response","106","302245","0.0-14.0-0.0-1.9","null","<span style='color:GreenYellow; font-size: 70px;'>正确! </span>","null","","","","","","","","","","","","","","","","","","","","","","","feedback_test",""
"","","","","","psychophysics","107","304307","0.0-14.0-0.0-0.10","1060","","k","","","","","","","","","","","","","key","k","16.66105737704946","960","536","k","true","img/H_28.png","自我","prac_self","","自我"
"","","","","","html-keyboard-response","108","304610","0.0-14.0-0.0-1.10","null","<span style='color:GreenYellow; font-size: 70px;'>正确! </span>","null","","","","","","","","","","","","","","","","","","","","","","","feedback_test",""
"","","","","","psychophysics","109","307052","0.0-14.0-0.0-0.11","1440","","d","","","","","","","","","","","","","key","d","16.661496551723847","960","536","d","true","img/S_28.png","生人","prac_self","","生人"
"","","","","","html-keyboard-response","110","307354","0.0-14.0-0.0-1.11","null","<span style='color:GreenYellow; font-size: 70px;'>正确! </span>","null","","","","","","","","","","","","","","","","","","","","","","","feedback_test",""
"","","","","","psychophysics","111","309679","0.0-14.0-0.0-0.12","1321","","d","","","","","","","","","","","","","key","d","16.661224637681237","960","536","d","true","img/C_28.png","朋友","prac_self","","朋友"
"","","","","","html-keyboard-response","112","309981","0.0-14.0-0.0-1.12","null","<span style='color:GreenYellow; font-size: 70px;'>正确! </span>","null","","","","","","","","","","","","","","","","","","","","","","","feedback_test",""
"","","","","","psychophysics","113","311994","0.0-14.0-0.0-0.13","1011","","f","","","","","","","","","","","","","key","f","16.66170833333308","960","536","f","true","img/C_28.png","自我","prac_self","","朋友"
"","","","","","html-keyboard-response","114","312295","0.0-14.0-0.0-1.13","null","<span style='color:GreenYellow; font-size: 70px;'>正确! </span>","null","","","","","","","","","","","","","","","","","","","","","","","feedback_test",""
"","","","","","psychophysics","115","314473","0.0-14.0-0.0-0.14","1175","","f","","","","","","","","","","","","","key","f","16.66080769230791","960","536","f","true","img/S_28.png","朋友","prac_self","","生人"
"","","","","","html-keyboard-response","116","314775","0.0-14.0-0.0-1.14","null","<span style='color:GreenYellow; font-size: 70px;'>正确! </span>","null","","","","","","","","","","","","","","","","","","","","","","","feedback_test",""
"","","","","","psychophysics","117","316748","0.0-14.0-0.0-0.15","971","","f","","","","","","","","","","","","","key","f","16.661615384615256","960","536","f","true","img/C_28.png","生人","prac_self","","朋友"
"","","","","","html-keyboard-response","118","317049","0.0-14.0-0.0-1.15","null","<span style='color:GreenYellow; font-size: 70px;'>正确! </span>","null","","","","","","","","","","","","","","","","","","","","","","","feedback_test",""
"","","","","","psychophysics","119","319212","0.0-14.0-0.0-0.16","1161","","j","","","","","","","","","","","","","key","j","16.660773437499756","960","536","k","false","img/H_28.png","自我","prac_self","","自我"
"","","","","","html-keyboard-response","120","319514","0.0-14.0-0.0-1.16","null","<span style='color:red; font-size: 70px;'>错误! </span>","null","","","","","","","","","","","","","","","","","","","","","","","feedback_test",""
"","","","","","psychophysics","121","322001","0.0-14.0-0.0-0.17","1485","","d","","","","","","","","","","","","","key","d","16.661897959183666","960","536","d","true","img/C_28.png","朋友","prac_self","","朋友"
"","","","","","html-keyboard-response","122","322302","0.0-14.0-0.0-1.17","null","<span style='color:GreenYellow; font-size: 70px;'>正确! </span>","null","","","","","","","","","","","","","","","","","","","","","","","feedback_test",""
"","","","","","psychophysics","123","324547","0.0-14.0-0.0-0.18","1243","","k","","","","","","","","","","","","","key","k","16.66146616541336","960","536","j","false","img/H_28.png","生人","prac_self","","自我"
"","","","","","html-keyboard-response","124","324849","0.0-14.0-0.0-1.18","null","<span style='color:red; font-size: 70px;'>错误! </span>","null","","","","","","","","","","","","","","","","","","","","","","","feedback_test",""
"","","","","","psychophysics","125","327353","0.0-14.0-0.0-0.19","null","","null","","","","","","","","","","","","","key","null","16.661255033557058","960","536","j","false","img/H_28.png","朋友","prac_self","","自我"
"","","","","","html-keyboard-response","126","327655","0.0-14.0-0.0-1.19","null","<span class='add_' style='color:yellow; font-size: 70px;'> 太慢! </span>","null","","","","","","","","","","","","","","","","","","","","","","","feedback_test",""
"","","","","","psychophysics","127","329751","0.0-14.0-0.0-0.20","1093","","f","","","","","","","","","","","","","key","f","16.66059200000018","960","536","d","false","img/S_28.png","生人","prac_self","","生人"
"","","","","","html-keyboard-response","128","330052","0.0-14.0-0.0-1.20","null","<span style='color:red; font-size: 70px;'>错误! </span>","null","","","","","","","","","","","","","","","","","","","","","","","feedback_test",""
"","","","","","psychophysics","129","332252","0.0-14.0-0.0-0.21","1198","","f","","","","","","","","","","","","","key","f","16.66199236641192","960","536","f","true","img/S_28.png","自我","prac_self","","生人"
"","","","","","html-keyboard-response","130","332555","0.0-14.0-0.0-1.21","null","<span style='color:GreenYellow; font-size: 70px;'>正确! </span>","null","","","","","","","","","","","","","","","","","","","","","","","feedback_test",""
"","","","","","psychophysics","131","334687","0.0-14.0-0.0-0.22","1130","","j","","","","","","","","","","","","","key","j","16.660795275590797","960","536","k","false","img/H_28.png","自我","prac_self","","自我"
"","","","","","html-keyboard-response","132","334989","0.0-14.0-0.0-1.22","null","<span style='color:red; font-size: 70px;'>错误! </span>","null","","","","","","","","","","","","","","","","","","","","","","","feedback_test",""
"","","","","","psychophysics","133","336901","0.0-14.0-0.0-0.23","910","","f","","","","","","","","","","","","","key","f","16.662280701754387","960","536","d","false","img/S_28.png","生人","prac_self","","生人"
"","","","","","html-keyboard-response","134","337203","0.0-14.0-0.0-1.23","null","<span style='color:red; font-size: 70px;'>错误! </span>","null","","","","","","","","","","","","","","","","","","","","","","","feedback_test",""
"","","","","","html-keyboard-response","135","347680","0.0-14.0-1.0-0.0","10474","<style>.context{color:white; font-size: 35px; line-height:40px}</style>                              <div><p class='context'>您正确回答了50% 的试次。</p><p class='context'>您的平均反应时为1178毫秒。</p>"," ","","","","","","","","","","","","","","","","","","","","","","","",""
"","","","","","instructions","136","366880","0.0-14.0-1.0-1.0","19196","","","","","","","","","","","","","","[{""page_index"":0,""viewing_time"":6980},{""page_index"":1,""viewing_time"":9223},{""page_index"":2,""viewing_time"":2993}]","","","","","","","","","","","",""
"","","","","","psychophysics","137","369119","0.0-14.1-0.1-0.24","1235","","k","","","","","","","","","","","","","key","k","16.66199242424266","960","536","k","true","img/H_28.png","自我","prac_self","","自我"
"","","","","","html-keyboard-response","138","369421","0.0-14.1-0.1-1.24","null","<span style='color:GreenYellow; font-size: 70px;'>正确! </span>","null","","","","","","","","","","","","","","","","","","","","","","","feedback_test",""
"","","","","","psychophysics","139","371752","0.0-14.1-0.1-0.25","1330","","j","","","","","","","","","","","","","key","j","16.66118115941999","960","536","j","true","img/H_28.png","朋友","prac_self","","自我"
"","","","","","html-keyboard-response","140","372054","0.0-14.1-0.1-1.25","null","<span style='color:GreenYellow; font-size: 70px;'>正确! </span>","null","","","","","","","","","","","","","","","","","","","","","","","feedback_test",""
"","","","","","psychophysics","141","374126","0.0-14.1-0.1-0.26","1069","","f","","","","","","","","","","","","","key","f","16.660991869918902","960","536","f","true","img/S_28.png","朋友","prac_self","","生人"
"","","","","","html-keyboard-response","142","374428","0.0-14.1-0.1-1.26","null","<span style='color:GreenYellow; font-size: 70px;'>正确! </span>","null","","","","","","","","","","","","","","","","","","","","","","","feedback_test",""
"","","","","","psychophysics","143","376356","0.0-14.1-0.1-0.27","926","","f","","","","","","","","","","","","","key","f","16.660789473684353","960","536","f","true","img/C_28.png","生人","prac_self","","朋友"
"","","","","","html-keyboard-response","144","376658","0.0-14.1-0.1-1.27","null","<span style='color:GreenYellow; font-size: 70px;'>正确! </span>","null","","","","","","","","","","","","","","","","","","","","","","","feedback_test",""
"","","","","","psychophysics","145","378706","0.0-14.1-0.1-0.28","1046","","d","","","","","","","","","","","","","key","d","16.660540983606165","960","536","d","true","img/S_28.png","生人","prac_self","","生人"
"","","","","","html-keyboard-response","146","379008","0.0-14.1-0.1-1.28","null","<span style='color:GreenYellow; font-size: 70px;'>正确! </span>","null","","","","","","","","","","","","","","","","","","","","","","","feedback_test",""
"","","","","","psychophysics","147","381511","0.0-14.1-0.1-0.29","null","","null","","","","","","","","","","","","","key","null","16.66131756756757","960","536","d","false","img/C_28.png","朋友","prac_self","","朋友"
"","","","","","html-keyboard-response","148","381813","0.0-14.1-0.1-1.29","null","<span class='add_' style='color:yellow; font-size: 70px;'> 太慢! </span>","null","","","","","","","","","","","","","","","","","","","","","","","feedback_test",""
"","","","","","psychophysics","149","384073","0.0-14.1-0.1-0.30","1257","","d","","","","","","","","","","","","","key","d","16.661044776119525","960","536","d","true","img/C_28.png","朋友","prac_self","","朋友"
"","","","","","html-keyboard-response","150","384375","0.0-14.1-0.1-1.30","null","<span style='color:GreenYellow; font-size: 70px;'>正确! </span>","null","","","","","","","","","","","","","","","","","","","","","","","feedback_test",""
"","","","","","psychophysics","151","386721","0.0-14.1-0.1-0.31","1344","","f","","","","","","","","","","","","","key","f","16.661410071942772","960","536","j","false","img/H_28.png","生人","prac_self","","自我"
"","","","","","html-keyboard-response","152","387023","0.0-14.1-0.1-1.31","null","<span style='color:red; font-size: 70px;'>错误! </span>","null","","","","","","","","","","","","","","","","","","","","","","","feedback_test",""
"","","","","","psychophysics","153","388789","0.0-14.1-0.1-0.32","764","","f","","","","","","","","","","","","","key","f","16.66166346153813","960","536","d","false","img/S_28.png","生人","prac_self","","生人"
"","","","","","html-keyboard-response","154","389090","0.0-14.1-0.1-1.32","null","<span style='color:red; font-size: 70px;'>错误! </span>","null","","","","","","","","","","","","","","","","","","","","","","","feedback_test",""
"","","","","","psychophysics","155","391582","0.0-14.1-0.1-0.33","1488","","f","","","","","","","","","","","","","key","f","16.66116891891894","960","536","f","true","img/C_28.png","自我","prac_self","","朋友"
"","","","","","html-keyboard-response","156","391883","0.0-14.1-0.1-1.33","null","<span style='color:GreenYellow; font-size: 70px;'>正确! </span>","null","","","","","","","","","","","","","","","","","","","","","","","feedback_test",""
"","","","","","psychophysics","157","393642","0.0-14.1-0.1-0.34","757","","f","","","","","","","","","","","","","key","f","16.661423076923082","960","536","f","true","img/S_28.png","自我","prac_self","","生人"
"","","","","","html-keyboard-response","158","393944","0.0-14.1-0.1-1.34","null","<span style='color:GreenYellow; font-size: 70px;'>正确! </span>","null","","","","","","","","","","","","","","","","","","","","","","","feedback_test",""
"","","","","","psychophysics","159","395784","0.0-14.1-0.1-0.35","839","","k","","","","","","","","","","","","","key","k","16.661183486238695","960","536","k","true","img/H_28.png","自我","prac_self","","自我"
"","","","","","html-keyboard-response","160","396086","0.0-14.1-0.1-1.35","null","<span style='color:GreenYellow; font-size: 70px;'>正确! </span>","null","","","","","","","","","","","","","","","","","","","","","","","feedback_test",""
"","","","","","psychophysics","161","398510","0.0-14.1-0.1-0.36","1420","","f","","","","","","","","","","","","","key","f","16.66063448275873","960","536","f","true","img/S_28.png","自我","prac_self","","生人"
"","","","","","html-keyboard-response","162","398812","0.0-14.1-0.1-1.36","null","<span style='color:GreenYellow; font-size: 70px;'>正确! </span>","null","","","","","","","","","","","","","","","","","","","","","","","feedback_test",""
"","","","","","psychophysics","163","400927","0.0-14.1-0.1-0.37","1115","","d","","","","","","","","","","","","","key","d","16.660722222222137","960","536","d","true","img/C_28.png","朋友","prac_self","","朋友"
"","","","","","html-keyboard-response","164","401230","0.0-14.1-0.1-1.37","null","<span style='color:GreenYellow; font-size: 70px;'>正确! </span>","null","","","","","","","","","","","","","","","","","","","","","","","feedback_test",""
"","","","","","psychophysics","165","403354","0.0-14.1-0.1-0.38","1123","","d","","","","","","","","","","","","","key","d","16.661523809523455","960","536","d","true","img/S_28.png","生人","prac_self","","生人"
"","","","","","html-keyboard-response","166","403657","0.0-14.1-0.1-1.38","null","<span style='color:GreenYellow; font-size: 70px;'>正确! </span>","null","","","","","","","","","","","","","","","","","","","","","","","feedback_test",""
"","","","","","psychophysics","167","406040","0.0-14.1-0.1-0.39","1382","","j","","","","","","","","","","","","","key","j","16.661333333333484","960","536","k","false","img/H_28.png","自我","prac_self","","自我"
"","","","","","html-keyboard-response","168","406343","0.0-14.1-0.1-1.39","null","<span style='color:red; font-size: 70px;'>错误! </span>","null","","","","","","","","","","","","","","","","","","","","","","","feedback_test",""
"","","","","","psychophysics","169","408507","0.0-14.1-0.1-0.40","1162","","d","","","","","","","","","","","","","key","d","16.661109374999796","960","536","d","true","img/C_28.png","朋友","prac_self","","朋友"
"","","","","","html-keyboard-response","170","408810","0.0-14.1-0.1-1.40","null","<span style='color:GreenYellow; font-size: 70px;'>正确! </span>","null","","","","","","","","","","","","","","","","","","","","","","","feedback_test",""
"","","","","","psychophysics","171","411274","0.0-14.1-0.1-0.41","1462","","f","","","","","","","","","","","","","key","f","16.661333333333435","960","536","j","false","img/H_28.png","生人","prac_self","","自我"
"","","","","","html-keyboard-response","172","411577","0.0-14.1-0.1-1.41","null","<span style='color:red; font-size: 70px;'>错误! </span>","null","","","","","","","","","","","","","","","","","","","","","","","feedback_test",""
"","","","","","psychophysics","173","414080","0.0-14.1-0.1-0.42","null","","null","","","","","","","","","","","","","key","null","16.661234899329088","960","536","f","false","img/C_28.png","生人","prac_self","","朋友"
"","","","","","html-keyboard-response","174","414381","0.0-14.1-0.1-1.42","null","<span class='add_' style='color:yellow; font-size: 70px;'> 太慢! </span>","null","","","","","","","","","","","","","","","","","","","","","","","feedback_test",""
"","","","","","psychophysics","175","416357","0.0-14.1-0.1-0.43","975","","f","","","","","","","","","","","","","key","f","16.660521367521515","960","536","f","true","img/C_28.png","自我","prac_self","","朋友"
"","","","","","html-keyboard-response","176","416660","0.0-14.1-0.1-1.43","null","<span style='color:GreenYellow; font-size: 70px;'>正确! </span>","null","","","","","","","","","","","","","","","","","","","","","","","feedback_test",""
"","","","","","psychophysics","177","418820","0.0-14.1-0.1-0.44","1158","","k","","","","","","","","","","","","","key","k","16.66128346456653","960","536","k","true","img/H_28.png","自我","prac_self","","自我"
"","","","","","html-keyboard-response","178","419121","0.0-14.1-0.1-1.44","null","<span style='color:GreenYellow; font-size: 70px;'>正确! </span>","null","","","","","","","","","","","","","","","","","","","","","","","feedback_test",""
"","","","","","psychophysics","179","420845","0.0-14.1-0.1-0.45","722","","f","","","","","","","","","","","","","key","f","16.661147058823296","960","536","f","true","img/S_28.png","朋友","prac_self","","生人"
"","","","","","html-keyboard-response","180","421146","0.0-14.1-0.1-1.45","null","<span style='color:GreenYellow; font-size: 70px;'>正确! </span>","null","","","","","","","","","","","","","","","","","","","","","","","feedback_test",""
"","","","","","psychophysics","181","423445","0.0-14.1-0.1-0.46","1296","","d","","","","","","","","","","","","","key","d","16.6613602941177","960","536","d","true","img/S_28.png","生人","prac_self","","生人"
"","","","","","html-keyboard-response","182","423746","0.0-14.1-0.1-1.46","null","<span style='color:GreenYellow; font-size: 70px;'>正确! </span>","null","","","","","","","","","","","","","","","","","","","","","","","feedback_test",""
"","","","","","psychophysics","183","426135","0.0-14.1-0.1-0.47","1387","","k","","","","","","","","","","","","","key","k","16.66180281690117","960","536","j","false","img/H_28.png","朋友","prac_self","","自我"
"","","","","","html-keyboard-response","184","426437","0.0-14.1-0.1-1.47","null","<span style='color:red; font-size: 70px;'>错误! </span>","null","","","","","","","","","","","","","","","","","","","","","","","feedback_test",""
"","","","","","html-keyboard-response","185","439412","0.0-15.0","12973","[""<style>.context{color:white; font-size: 35px; line-height:40px}</style>              <div><p class='context'>您正确回答了71% 的试次。</p><p class='context'>您的平均反应时为1113毫秒。</p><p class='context'>恭喜您完成这一阶段的练习。按任意键进入<span style='color: yellow;'>重点关注图形为“朋友”</span>的练习。</p></div><p class='footer' style='font-size:35px; line-height:30px;'>任务要求：\n              <p class='footer' style='font-size:35px; line-height:35px;'>对于与“朋友”对应的图形：如果 匹配 ，请按 <span style=\""color: lightgreen;\"">k键</span></p><p class='footer' style='font-size:35px'>如果 不匹配 ，请按<span style=\""color: lightgreen;\"">j键</p></span>\n              <p class='footer' style='font-size:35px; line-height:35px;'>对于非“朋友”对应的图形：如果 匹配 ，请按 <span style=\""color: lightgreen;\"">d键</span></p><p class='footer' style='font-size:35px'>如果 不匹配 ，请按<span style=\""color: lightgreen;\"">f键</p></span>\n              <p class='footer' style='font-size:22px; line-height:25px;'>请在实验过程中将您的<span style=\""color: lightgreen;\"">食指和中指</span>放在电脑键盘的相应键位上进行按键。</p></span>""]"," ","","","","","","","","","","","","","","","","","","","","","","","",""
"","","","","","psychophysics","186","441480","0.0-16.0-0.0-0.0","1061","","k","","","","","","","","","","","","","key","k","16.6676097560974","960","536","k","true","img/C_28.png","朋友","prac_friend","","朋友"
"","","","","","html-keyboard-response","187","441782","0.0-16.0-0.0-1.0","null","<span style='color:GreenYellow; font-size: 70px;'>正确! </span>","null","","","","","","","","","","","","","","","","","","","","","","","feedback_test",""
"","","","","","psychophysics","188","444203","0.0-16.0-0.0-0.1","1419","","d","","","","","","","","","","","","","key","d","16.661618055555866","960","536","f","false","img/S_28.png","自我","prac_friend","","生人"
"","","","","","html-keyboard-response","189","444506","0.0-16.0-0.0-1.1","null","<span style='color:red; font-size: 70px;'>错误! </span>","null","","","","","","","","","","","","","","","","","","","","","","","feedback_test",""
"","","","","","psychophysics","190","446736","0.0-16.0-0.0-0.2","1229","","f","","","","","","","","","","","","","key","f","16.66172727272726","960","536","d","false","img/H_28.png","自我","prac_friend","","自我"
"","","","","","html-keyboard-response","191","447038","0.0-16.0-0.0-1.2","null","<span style='color:red; font-size: 70px;'>错误! </span>","null","","","","","","","","","","","","","","","","","","","","","","","feedback_test",""
"","","","","","psychophysics","192","449273","0.0-16.0-0.0-0.3","1232","","j","","","","","","","","","","","","","key","j","16.660727272727385","960","536","j","true","img/C_28.png","生人","prac_friend","","朋友"
"","","","","","html-keyboard-response","193","449576","0.0-16.0-0.0-1.3","null","<span style='color:GreenYellow; font-size: 70px;'>正确! </span>","null","","","","","","","","","","","","","","","","","","","","","","","feedback_test",""
"","","","","","psychophysics","194","451719","0.0-16.0-0.0-0.4","1142","","d","","","","","","","","","","","","","key","d","16.660188976377817","960","536","d","true","img/H_28.png","自我","prac_friend","","自我"
"","","","","","html-keyboard-response","195","452021","0.0-16.0-0.0-1.4","null","<span style='color:GreenYellow; font-size: 70px;'>正确! </span>","null","","","","","","","","","","","","","","","","","","","","","","","feedback_test",""
"","","","","","psychophysics","196","454043","0.0-16.0-0.0-0.5","1020","","j","","","","","","","","","","","","","key","j","16.660683333333388","960","536","k","false","img/C_28.png","朋友","prac_friend","","朋友"
"","","","","","html-keyboard-response","197","454345","0.0-16.0-0.0-1.5","null","<span style='color:red; font-size: 70px;'>错误! </span>","null","","","","","","","","","","","","","","","","","","","","","","","feedback_test",""
"","","","","","psychophysics","198","456382","0.0-16.0-0.0-0.6","1034","","f","","","","","","","","","","","","","key","f","16.66146280991745","960","536","f","true","img/H_28.png","生人","prac_friend","","自我"
"","","","","","html-keyboard-response","199","456685","0.0-16.0-0.0-1.6","null","<span style='color:GreenYellow; font-size: 70px;'>正确! </span>","null","","","","","","","","","","","","","","","","","","","","","","","feedback_test",""
"","","","","","psychophysics","200","458837","0.0-16.0-0.0-0.7","1150","","d","","","","","","","","","","","","","key","d","16.66135433070888","960","536","d","true","img/S_28.png","生人","prac_friend","","生人"
"","","","","","html-keyboard-response","201","459138","0.0-16.0-0.0-1.7","null","<span style='color:GreenYellow; font-size: 70px;'>正确! </span>","null","","","","","","","","","","","","","","","","","","","","","","","feedback_test",""
"","","","","","psychophysics","202","461254","0.0-16.0-0.0-0.8","1114","","d","","","","","","","","","","","","","key","d","16.661152000000236","960","536","f","false","img/S_28.png","朋友","prac_friend","","生人"
"","","","","","html-keyboard-response","203","461556","0.0-16.0-0.0-1.8","null","<span style='color:red; font-size: 70px;'>错误! </span>","null","","","","","","","","","","","","","","","","","","","","","","","feedback_test",""
"","","","","","psychophysics","204","463734","0.0-16.0-0.0-0.9","1175","","f","","","","","","","","","","","","","key","f","16.66102325581393","960","536","j","false","img/C_28.png","自我","prac_friend","","朋友"
"","","","","","html-keyboard-response","205","464035","0.0-16.0-0.0-1.9","null","<span style='color:red; font-size: 70px;'>错误! </span>","null","","","","","","","","","","","","","","","","","","","","","","","feedback_test",""
"","","","","","psychophysics","206","466539","0.0-16.0-0.0-0.10","null","","null","","","","","","","","","","","","","key","null","16.66184563758383","960","536","f","false","img/H_28.png","朋友","prac_friend","","自我"
"","","","","","html-keyboard-response","207","466841","0.0-16.0-0.0-1.10","null","<span class='add_' style='color:yellow; font-size: 70px;'> 太慢! </span>","null","","","","","","","","","","","","","","","","","","","","","","","feedback_test",""
"","","","","","psychophysics","208","468962","0.0-16.0-0.0-0.11","1119","","d","","","","","","","","","","","","","key","d","16.660976190476156","960","536","d","true","img/S_28.png","生人","prac_friend","","生人"
"","","","","","html-keyboard-response","209","469263","0.0-16.0-0.0-1.11","null","<span style='color:GreenYellow; font-size: 70px;'>正确! </span>","null","","","","","","","","","","","","","","","","","","","","","","","feedback_test",""
"","","","","","psychophysics","210","471640","0.0-16.0-0.0-0.12","1373","","k","","","","","","","","","","","","","key","k","16.661695035460987","960","536","k","true","img/C_28.png","朋友","prac_friend","","朋友"
"","","","","","html-keyboard-response","211","471942","0.0-16.0-0.0-1.12","null","<span style='color:GreenYellow; font-size: 70px;'>正确! </span>","null","","","","","","","","","","","","","","","","","","","","","","","feedback_test",""
"","","","","","psychophysics","212","474302","0.0-16.0-0.0-0.13","1357","","f","","","","","","","","","","","","","key","f","16.66044680851079","960","536","f","true","img/S_28.png","自我","prac_friend","","生人"
"","","","","","html-keyboard-response","213","474603","0.0-16.0-0.0-1.13","null","<span style='color:GreenYellow; font-size: 70px;'>正确! </span>","null","","","","","","","","","","","","","","","","","","","","","","","feedback_test",""
"","","","","","psychophysics","214","476580","0.0-16.0-0.0-0.14","976","","d","","","","","","","","","","","","","key","d","16.661307692307876","960","536","j","false","img/C_28.png","自我","prac_friend","","朋友"
"","","","","","html-keyboard-response","215","476883","0.0-16.0-0.0-1.14","null","<span style='color:red; font-size: 70px;'>错误! </span>","null","","","","","","","","","","","","","","","","","","","","","","","feedback_test",""
"","","","","","psychophysics","216","478879","0.0-16.0-0.0-0.15","995","","f","","","","","","","","","","","","","key","f","16.66186440677996","960","536","f","true","img/H_28.png","生人","prac_friend","","自我"
"","","","","","html-keyboard-response","217","479181","0.0-16.0-0.0-1.15","null","<span style='color:GreenYellow; font-size: 70px;'>正确! </span>","null","","","","","","","","","","","","","","","","","","","","","","","feedback_test",""
"","","","","","psychophysics","218","480880","0.0-16.0-0.0-0.16","698","","f","","","","","","","","","","","","","key","f","16.66037000000011","960","536","f","true","img/H_28.png","朋友","prac_friend","","自我"
"","","","","","html-keyboard-response","219","481181","0.0-16.0-0.0-1.16","null","<span style='color:GreenYellow; font-size: 70px;'>正确! </span>","null","","","","","","","","","","","","","","","","","","","","","","","feedback_test",""
"","","","","","psychophysics","220","483225","0.0-16.0-0.0-0.17","1040","","k","","","","","","","","","","","","","key","k","16.661595041322432","960","536","k","true","img/C_28.png","朋友","prac_friend","","朋友"
"","","","","","html-keyboard-response","221","483527","0.0-16.0-0.0-1.17","null","<span style='color:GreenYellow; font-size: 70px;'>正确! </span>","null","","","","","","","","","","","","","","","","","","","","","","","feedback_test",""
"","","","","","psychophysics","222","485793","0.0-16.0-0.0-0.18","1264","","d","","","","","","","","","","","","","key","d","16.661044776119525","960","536","d","true","img/S_28.png","生人","prac_friend","","生人"
"","","","","","html-keyboard-response","223","486095","0.0-16.0-0.0-1.18","null","<span style='color:GreenYellow; font-size: 70px;'>正确! </span>","null","","","","","","","","","","","","","","","","","","","","","","","feedback_test",""
"","","","","","psychophysics","224","488037","0.0-16.0-0.0-0.19","939","","f","","","","","","","","","","","","","key","f","16.661313043478067","960","536","d","false","img/S_28.png","生人","prac_friend","","生人"
"","","","","","html-keyboard-response","225","488338","0.0-16.0-0.0-1.19","null","<span style='color:red; font-size: 70px;'>错误! </span>","null","","","","","","","","","","","","","","","","","","","","","","","feedback_test",""
"","","","","","psychophysics","226","490841","0.0-16.0-0.0-0.20","null","","null","","","","","","","","","","","","","key","null","16.661270270270382","960","536","j","false","img/C_28.png","生人","prac_friend","","朋友"
"","","","","","html-keyboard-response","227","491142","0.0-16.0-0.0-1.20","null","<span class='add_' style='color:yellow; font-size: 70px;'> 太慢! </span>","null","","","","","","","","","","","","","","","","","","","","","","","feedback_test",""
"","","","","","psychophysics","228","493647","0.0-16.0-0.0-0.21","null","","null","","","","","","","","","","","","","key","null","16.66126845637571","960","536","d","false","img/H_28.png","自我","prac_friend","","自我"
"","","","","","html-keyboard-response","229","493949","0.0-16.0-0.0-1.21","null","<span class='add_' style='color:yellow; font-size: 70px;'> 太慢! </span>","null","","","","","","","","","","","","","","","","","","","","","","","feedback_test",""
"","","","","","psychophysics","230","496262","0.0-16.0-0.0-0.22","1312","","d","","","","","","","","","","","","","key","d","16.661471014492722","960","536","f","false","img/S_28.png","朋友","prac_friend","","生人"
"","","","","","html-keyboard-response","231","496566","0.0-16.0-0.0-1.22","null","<span style='color:red; font-size: 70px;'>错误! </span>","null","","","","","","","","","","","","","","","","","","","","","","","feedback_test",""
"","","","","","psychophysics","232","498712","0.0-16.0-0.0-0.23","1145","","d","","","","","","","","","","","","","key","d","16.660953125000106","960","536","d","true","img/H_28.png","自我","prac_friend","","自我"
"","","","","","html-keyboard-response","233","499014","0.0-16.0-0.0-1.23","null","<span style='color:GreenYellow; font-size: 70px;'>正确! </span>","null","","","","","","","","","","","","","","","","","","","","","","","feedback_test",""
"","","","","","html-keyboard-response","234","506523","0.0-16.0-1.0-0.0","7506","<style>.context{color:white; font-size: 35px; line-height:40px}</style>                              <div><p class='context'>您正确回答了54% 的试次。</p><p class='context'>您的平均反应时为1124毫秒。</p>"," ","","","","","","","","","","","","","","","","","","","","","","","",""
"","","","","","instructions","235","518766","0.0-16.0-1.0-1.0","12238","","","","","","","","","","","","","","[{""page_index"":0,""viewing_time"":2424},{""page_index"":1,""viewing_time"":8206},{""page_index"":2,""viewing_time"":1608}]","","","","","","","","","","","",""
"","","","","","psychophysics","236","521270","0.0-16.1-0.1-0.24","null","","null","","","","","","","","","","","","","key","null","16.661657718120804","960","536","j","false","img/C_28.png","生人","prac_friend","","朋友"
"","","","","","html-keyboard-response","237","521571","0.0-16.1-0.1-1.24","null","<span class='add_' style='color:yellow; font-size: 70px;'> 太慢! </span>","null","","","","","","","","","","","","","","","","","","","","","","","feedback_test",""
"","","","","","psychophysics","238","523258","0.0-16.1-0.1-0.25","685","","k","","","","","","","","","","","","","key","k","16.66024000000034","960","536","j","false","img/C_28.png","自我","prac_friend","","朋友"
"","","","","","html-keyboard-response","239","523560","0.0-16.1-0.1-1.25","null","<span style='color:red; font-size: 70px;'>错误! </span>","null","","","","","","","","","","","","","","","","","","","","","","","feedback_test",""
"","","","","","psychophysics","240","525705","0.0-16.1-0.1-0.26","1144","","f","","","","","","","","","","","","","key","f","16.66122047244076","960","536","f","true","img/H_28.png","生人","prac_friend","","自我"
"","","","","","html-keyboard-response","241","526008","0.0-16.1-0.1-1.26","null","<span style='color:GreenYellow; font-size: 70px;'>正确! </span>","null","","","","","","","","","","","","","","","","","","","","","","","feedback_test",""
"","","","","","psychophysics","242","528386","0.0-16.1-0.1-0.27","1375","","f","","","","","","","","","","","","","key","f","16.66103521126821","960","536","d","false","img/S_28.png","生人","prac_friend","","生人"
"","","","","","html-keyboard-response","243","528689","0.0-16.1-0.1-1.27","null","<span style='color:red; font-size: 70px;'>错误! </span>","null","","","","","","","","","","","","","","","","","","","","","","","feedback_test",""
"","","","","","psychophysics","244","531061","0.0-16.1-0.1-0.28","1371","","k","","","","","","","","","","","","","key","k","16.660978723404078","960","536","f","false","img/S_28.png","自我","prac_friend","","生人"
"","","","","","html-keyboard-response","245","531364","0.0-16.1-0.1-1.28","null","<span style='color:red; font-size: 70px;'>错误! </span>","null","","","","","","","","","","","","","","","","","","","","","","","feedback_test",""
"","","","","","psychophysics","246","533170","0.0-16.1-0.1-0.29","805","","f","","","","","","","","","","","","","key","f","16.66128037383162","960","536","f","true","img/S_28.png","朋友","prac_friend","","生人"
"","","","","","html-keyboard-response","247","533472","0.0-16.1-0.1-1.29","null","<span style='color:GreenYellow; font-size: 70px;'>正确! </span>","null","","","","","","","","","","","","","","","","","","","","","","","feedback_test",""
"","","","","","psychophysics","248","535482","0.0-16.1-0.1-0.30","1008","","d","","","","","","","","","","","","","key","d","16.661233333333318","960","536","d","true","img/H_28.png","自我","prac_friend","","自我"
"","","","","","html-keyboard-response","249","535785","0.0-16.1-0.1-1.30","null","<span style='color:GreenYellow; font-size: 70px;'>正确! </span>","null","","","","","","","","","","","","","","","","","","","","","","","feedback_test",""
"","","","","","psychophysics","250","537846","0.0-16.1-0.1-0.31","1057","","j","","","","","","","","","","","","","key","j","16.661357723576835","960","536","k","false","img/C_28.png","朋友","prac_friend","","朋友"
"","","","","","html-keyboard-response","251","538148","0.0-16.1-0.1-1.31","null","<span style='color:red; font-size: 70px;'>错误! </span>","null","","","","","","","","","","","","","","","","","","","","","","","feedback_test",""
"","","","","","psychophysics","252","540154","0.0-16.1-0.1-0.32","1002","","d","","","","","","","","","","","","","key","d","16.660840336134573","960","536","d","true","img/H_28.png","自我","prac_friend","","自我"
"","","","","","html-keyboard-response","253","540455","0.0-16.1-0.1-1.32","null","<span style='color:GreenYellow; font-size: 70px;'>正确! </span>","null","","","","","","","","","","","","","","","","","","","","","","","feedback_test",""
"","","","","","psychophysics","254","542406","0.0-16.1-0.1-0.33","948","","f","","","","","","","","","","","","","key","f","16.660330434783322","960","536","f","true","img/H_28.png","朋友","prac_friend","","自我"
"","","","","","html-keyboard-response","255","542708","0.0-16.1-0.1-1.33","null","<span style='color:GreenYellow; font-size: 70px;'>正确! </span>","null","","","","","","","","","","","","","","","","","","","","","","","feedback_test",""
"","","","","","psychophysics","256","544629","0.0-16.1-0.1-0.34","920","","k","","","","","","","","","","","","","key","k","16.661175438597095","960","536","k","true","img/C_28.png","朋友","prac_friend","","朋友"
"","","","","","html-keyboard-response","257","544930","0.0-16.1-0.1-1.34","null","<span style='color:GreenYellow; font-size: 70px;'>正确! </span>","null","","","","","","","","","","","","","","","","","","","","","","","feedback_test",""
"","","","","","psychophysics","258","547297","0.0-16.1-0.1-0.35","1365","","d","","","","","","","","","","","","","key","d","16.661113475176922","960","536","d","true","img/S_28.png","生人","prac_friend","","生人"
"","","","","","html-keyboard-response","259","547599","0.0-16.1-0.1-1.35","null","<span style='color:GreenYellow; font-size: 70px;'>正确! </span>","null","","","","","","","","","","","","","","","","","","","","","","","feedback_test",""
"","","","","","psychophysics","260","549650","0.0-16.1-0.1-0.36","1049","","f","","","","","","","","","","","","","key","f","16.661549180327174","960","536","f","true","img/H_28.png","朋友","prac_friend","","自我"
"","","","","","html-keyboard-response","261","549952","0.0-16.1-0.1-1.36","null","<span style='color:GreenYellow; font-size: 70px;'>正确! </span>","null","","","","","","","","","","","","","","","","","","","","","","","feedback_test",""
"","","","","","psychophysics","262","552260","0.0-16.1-0.1-0.37","1307","","f","","","","","","","","","","","","","key","f","16.660941605839408","960","536","f","true","img/S_28.png","自我","prac_friend","","生人"
"","","","","","html-keyboard-response","263","552562","0.0-16.1-0.1-1.37","null","<span style='color:GreenYellow; font-size: 70px;'>正确! </span>","null","","","","","","","","","","","","","","","","","","","","","","","feedback_test",""
"","","","","","psychophysics","264","554753","0.0-16.1-0.1-0.38","1188","","j","","","","","","","","","","","","","key","j","16.661353846154032","960","536","k","false","img/C_28.png","朋友","prac_friend","","朋友"
"","","","","","html-keyboard-response","265","555056","0.0-16.1-0.1-1.38","null","<span style='color:red; font-size: 70px;'>错误! </span>","null","","","","","","","","","","","","","","","","","","","","","","","feedback_test",""
"","","","","","psychophysics","266","557084","0.0-16.1-0.1-0.39","1027","","f","","","","","","","","","","","","","key","f","16.66165000000037","960","536","f","true","img/H_28.png","生人","prac_friend","","自我"
"","","","","","html-keyboard-response","267","557386","0.0-16.1-0.1-1.39","null","<span style='color:GreenYellow; font-size: 70px;'>正确! </span>","null","","","","","","","","","","","","","","","","","","","","","","","feedback_test",""
"","","","","","psychophysics","268","559715","0.0-16.1-0.1-0.40","1327","","k","","","","","","","","","","","","","key","k","16.661065217391823","960","536","j","false","img/C_28.png","生人","prac_friend","","朋友"
"","","","","","html-keyboard-response","269","560017","0.0-16.1-0.1-1.40","null","<span style='color:red; font-size: 70px;'>错误! </span>","null","","","","","","","","","","","","","","","","","","","","","","","feedback_test",""
"","","","","","psychophysics","270","562317","0.0-16.1-0.1-0.41","1299","","f","","","","","","","","","","","","","key","f","16.660955882353043","960","536","f","true","img/S_28.png","朋友","prac_friend","","生人"
"","","","","","html-keyboard-response","271","562619","0.0-16.1-0.1-1.41","null","<span style='color:GreenYellow; font-size: 70px;'>正确! </span>","null","","","","","","","","","","","","","","","","","","","","","","","feedback_test",""
"","","","","","psychophysics","272","565098","0.0-16.1-0.1-0.42","1477","","d","","","","","","","","","","","","","key","d","16.661945578231173","960","536","d","true","img/S_28.png","生人","prac_friend","","生人"
"","","","","","html-keyboard-response","273","565399","0.0-16.1-0.1-1.42","null","<span style='color:GreenYellow; font-size: 70px;'>正确! </span>","null","","","","","","","","","","","","","","","","","","","","","","","feedback_test",""
"","","","","","psychophysics","274","567403","0.0-16.1-0.1-0.43","1002","","d","","","","","","","","","","","","","key","d","16.662092436974703","960","536","d","true","img/H_28.png","自我","prac_friend","","自我"
"","","","","","html-keyboard-response","275","567705","0.0-16.1-0.1-1.43","null","<span style='color:GreenYellow; font-size: 70px;'>正确! </span>","null","","","","","","","","","","","","","","","","","","","","","","","feedback_test",""
"","","","","","psychophysics","276","569885","0.0-16.1-0.1-0.44","1179","","j","","","","","","","","","","","","","key","j","16.66106976744134","960","536","k","false","img/C_28.png","朋友","prac_friend","","朋友"
"","","","","","html-keyboard-response","277","570187","0.0-16.1-0.1-1.44","null","<span style='color:red; font-size: 70px;'>错误! </span>","null","","","","","","","","","","","","","","","","","","","","","","","feedback_test",""
"","","","","","psychophysics","278","572574","0.0-16.1-0.1-0.45","1386","","d","","","","","","","","","","","","","key","d","16.66134507042228","960","536","d","true","img/H_28.png","自我","prac_friend","","自我"
"","","","","","html-keyboard-response","279","572876","0.0-16.1-0.1-1.45","null","<span style='color:GreenYellow; font-size: 70px;'>正确! </span>","null","","","","","","","","","","","","","","","","","","","","","","","feedback_test",""
"","","","","","psychophysics","280","575289","0.0-16.1-0.1-0.46","1411","","d","","","","","","","","","","","","","key","d","16.6613566433568","960","536","d","true","img/S_28.png","生人","prac_friend","","生人"
"","","","","","html-keyboard-response","281","575591","0.0-16.1-0.1-1.46","null","<span style='color:GreenYellow; font-size: 70px;'>正确! </span>","null","","","","","","","","","","","","","","","","","","","","","","","feedback_test",""
"","","","","","psychophysics","282","577640","0.0-16.1-0.1-0.47","1047","","k","","","","","","","","","","","","","key","k","16.661132231404743","960","536","j","false","img/C_28.png","自我","prac_friend","","朋友"
"","","","","","html-keyboard-response","283","577942","0.0-16.1-0.1-1.47","null","<span style='color:red; font-size: 70px;'>错误! </span>","null","","","","","","","","","","","","","","","","","","","","","","","feedback_test",""
"","","","","","html-keyboard-response","284","588603","0.0-16.1-1.1-0.1","10658","<style>.context{color:white; font-size: 35px; line-height:40px}</style>                              <div><p class='context'>您正确回答了63% 的试次。</p><p class='context'>您的平均反应时为1143毫秒。</p>"," ","","","","","","","","","","","","","","","","","","","","","","","",""
"","","","","","instructions","285","595461","0.0-16.1-1.1-1.1","6853","","","","","","","","","","","","","","[{""page_index"":0,""viewing_time"":2180},{""page_index"":1,""viewing_time"":1935},{""page_index"":2,""viewing_time"":2737}]","","","","","","","","","","","",""
"","","","","","psychophysics","286","597686","0.0-16.2-0.2-0.48","1222","","f","","","","","","","","","","","","","key","f","16.660484848484913","960","536","d","false","img/S_28.png","生人","prac_friend","","生人"
"","","","","","html-keyboard-response","287","597988","0.0-16.2-0.2-1.48","null","<span style='color:red; font-size: 70px;'>错误! </span>","null","","","","","","","","","","","","","","","","","","","","","","","feedback_test",""
"","","","","","psychophysics","288","599910","0.0-16.2-0.2-0.49","920","","f","","","","","","","","","","","","","key","f","16.66157894736777","960","536","f","true","img/S_28.png","朋友","prac_friend","","生人"
"","","","","","html-keyboard-response","289","600212","0.0-16.2-0.2-1.49","null","<span style='color:GreenYellow; font-size: 70px;'>正确! </span>","null","","","","","","","","","","","","","","","","","","","","","","","feedback_test",""
"","","","","","psychophysics","290","602715","0.0-16.2-0.2-0.50","null","","null","","","","","","","","","","","","","key","null","16.661275167785423","960","536","k","false","img/C_28.png","朋友","prac_friend","","朋友"
"","","","","","html-keyboard-response","291","603017","0.0-16.2-0.2-1.50","null","<span class='add_' style='color:yellow; font-size: 70px;'> 太慢! </span>","null","","","","","","","","","","","","","","","","","","","","","","","feedback_test",""
"","","","","","psychophysics","292","605117","0.0-16.2-0.2-0.51","1099","","j","","","","","","","","","","","","","key","j","16.661071999999695","960","536","j","true","img/C_28.png","生人","prac_friend","","朋友"
"","","","","","html-keyboard-response","293","605418","0.0-16.2-0.2-1.51","null","<span style='color:GreenYellow; font-size: 70px;'>正确! </span>","null","","","","","","","","","","","","","","","","","","","","","","","feedback_test",""
"","","","","","psychophysics","294","607203","0.0-16.2-0.2-0.52","782","","d","","","","","","","","","","","","","key","d","16.66130476190509","960","536","d","true","img/H_28.png","自我","prac_friend","","自我"
"","","","","","html-keyboard-response","295","607504","0.0-16.2-0.2-1.52","null","<span style='color:GreenYellow; font-size: 70px;'>正确! </span>","null","","","","","","","","","","","","","","","","","","","","","","","feedback_test",""
"","","","","","psychophysics","296","609667","0.0-16.2-0.2-0.53","1161","","d","","","","","","","","","","","","","key","d","16.661468749999585","960","536","d","true","img/H_28.png","自我","prac_friend","","自我"
"","","","","","html-keyboard-response","297","609969","0.0-16.2-0.2-1.53","null","<span style='color:GreenYellow; font-size: 70px;'>正确! </span>","null","","","","","","","","","","","","","","","","","","","","","","","feedback_test",""
"","","","","","psychophysics","298","611840","0.0-16.2-0.2-0.54","869","","f","","","","","","","","","","","","","key","f","16.660756756756076","960","536","f","true","img/H_28.png","生人","prac_friend","","自我"
"","","","","","html-keyboard-response","299","612141","0.0-16.2-0.2-1.54","null","<span style='color:GreenYellow; font-size: 70px;'>正确! </span>","null","","","","","","","","","","","","","","","","","","","","","","","feedback_test",""
"","","","","","psychophysics","300","614235","0.0-16.2-0.2-0.55","1090","","f","","","","","","","","","","","","","key","f","16.660629032257635","960","536","f","true","img/S_28.png","自我","prac_friend","","生人"
"","","","","","html-keyboard-response","301","614536","0.0-16.2-0.2-1.55","null","<span style='color:GreenYellow; font-size: 70px;'>正确! </span>","null","","","","","","","","","","","","","","","","","","","","","","","feedback_test",""
"","","","","","psychophysics","302","616740","0.0-16.2-0.2-0.56","1201","","d","","","","","","","","","","","","","key","d","16.660801526718018","960","536","d","true","img/S_28.png","生人","prac_friend","","生人"
"","","","","","html-keyboard-response","303","617042","0.0-16.2-0.2-1.56","null","<span style='color:GreenYellow; font-size: 70px;'>正确! </span>","null","","","","","","","","","","","","","","","","","","","","","","","feedback_test",""
"","","","","","psychophysics","304","619105","0.0-16.2-0.2-0.57","1062","","j","","","","","","","","","","","","","key","j","16.660983739837217","960","536","k","false","img/C_28.png","朋友","prac_friend","","朋友"
"","","","","","html-keyboard-response","305","619408","0.0-16.2-0.2-1.57","null","<span style='color:red; font-size: 70px;'>错误! </span>","null","","","","","","","","","","","","","","","","","","","","","","","feedback_test",""
"","","","","","psychophysics","306","621581","0.0-16.2-0.2-0.58","1171","","f","","","","","","","","","","","","","key","f","16.661224806201176","960","536","f","true","img/H_28.png","朋友","prac_friend","","自我"
"","","","","","html-keyboard-response","307","621883","0.0-16.2-0.2-1.58","null","<span style='color:GreenYellow; font-size: 70px;'>正确! </span>","null","","","","","","","","","","","","","","","","","","","","","","","feedback_test",""
"","","","","","psychophysics","308","624010","0.0-16.2-0.2-0.59","1126","","j","","","","","","","","","","","","","key","j","16.66214285714234","960","536","j","true","img/C_28.png","自我","prac_friend","","朋友"
"","","","","","html-keyboard-response","309","624313","0.0-16.2-0.2-1.59","null","<span style='color:GreenYellow; font-size: 70px;'>正确! </span>","null","","","","","","","","","","","","","","","","","","","","","","","feedback_test",""
"","","","","","psychophysics","310","626202","0.0-16.2-0.2-0.60","884","","d","","","","","","","","","","","","","key","d","16.661571428570564","960","536","d","true","img/H_28.png","自我","prac_friend","","自我"
"","","","","","html-keyboard-response","311","626503","0.0-16.2-0.2-1.60","null","<span style='color:GreenYellow; font-size: 70px;'>正确! </span>","null","","","","","","","","","","","","","","","","","","","","","","","feedback_test",""
"","","","","","psychophysics","312","628486","0.0-16.2-0.2-0.61","981","","d","","","","","","","","","","","","","key","d","16.660923728814065","960","536","d","true","img/H_28.png","自我","prac_friend","","自我"
"","","","","","html-keyboard-response","313","628788","0.0-16.2-0.2-1.61","null","<span style='color:GreenYellow; font-size: 70px;'>正确! </span>","null","","","","","","","","","","","","","","","","","","","","","","","feedback_test",""
"","","","","","psychophysics","314","630583","0.0-16.2-0.2-0.62","793","","f","","","","","","","","","","","","","key","f","16.66057009345778","960","536","f","true","img/S_28.png","自我","prac_friend","","生人"
"","","","","","html-keyboard-response","315","630884","0.0-16.2-0.2-1.62","null","<span style='color:GreenYellow; font-size: 70px;'>正确! </span>","null","","","","","","","","","","","","","","","","","","","","","","","feedback_test",""
"","","","","","psychophysics","316","633019","0.0-16.2-0.2-0.63","1132","","d","","","","","","","","","","","","","key","d","16.662086614172935","960","536","d","true","img/S_28.png","生人","prac_friend","","生人"
"","","","","","html-keyboard-response","317","633321","0.0-16.2-0.2-1.63","null","<span style='color:GreenYellow; font-size: 70px;'>正确! </span>","null","","","","","","","","","","","","","","","","","","","","","","","feedback_test",""
"","","","","","psychophysics","318","635665","0.0-16.2-0.2-0.64","1342","","d","","","","","","","","","","","","","key","d","16.66074285714255","960","536","d","true","img/S_28.png","生人","prac_friend","","生人"
"","","","","","html-keyboard-response","319","635969","0.0-16.2-0.2-1.64","null","<span style='color:GreenYellow; font-size: 70px;'>正确! </span>","null","","","","","","","","","","","","","","","","","","","","","","","feedback_test",""
"","","","","","psychophysics","320","637971","0.0-16.2-0.2-0.65","1001","","j","","","","","","","","","","","","","key","j","16.66141176470575","960","536","k","false","img/C_28.png","朋友","prac_friend","","朋友"
"","","","","","html-keyboard-response","321","638273","0.0-16.2-0.2-1.65","null","<span style='color:red; font-size: 70px;'>错误! </span>","null","","","","","","","","","","","","","","","","","","","","","","","feedback_test",""
"","","","","","psychophysics","322","640541","0.0-16.2-0.2-0.66","1266","","f","","","","","","","","","","","","","key","f","16.661619402985124","960","536","f","true","img/H_28.png","生人","prac_friend","","自我"
"","","","","","html-keyboard-response","323","640842","0.0-16.2-0.2-1.66","null","<span style='color:GreenYellow; font-size: 70px;'>正确! </span>","null","","","","","","","","","","","","","","","","","","","","","","","feedback_test",""
"","","","","","psychophysics","324","642743","0.0-16.2-0.2-0.67","899","","k","","","","","","","","","","","","","key","k","16.660910714285688","960","536","k","true","img/C_28.png","朋友","prac_friend","","朋友"
"","","","","","html-keyboard-response","325","643046","0.0-16.2-0.2-1.67","null","<span style='color:GreenYellow; font-size: 70px;'>正确! </span>","null","","","","","","","","","","","","","","","","","","","","","","","feedback_test",""
"","","","","","psychophysics","326","644892","0.0-16.2-0.2-0.68","844","","j","","","","","","","","","","","","","key","j","16.661972477064477","960","536","j","true","img/C_28.png","生人","prac_friend","","朋友"
"","","","","","html-keyboard-response","327","645193","0.0-16.2-0.2-1.68","null","<span style='color:GreenYellow; font-size: 70px;'>正确! </span>","null","","","","","","","","","","","","","","","","","","","","","","","feedback_test",""
"","","","","","psychophysics","328","647203","0.0-16.2-0.2-0.69","1007","","k","","","","","","","","","","","","","key","k","16.66224369747924","960","536","j","false","img/C_28.png","自我","prac_friend","","朋友"
"","","","","","html-keyboard-response","329","647505","0.0-16.2-0.2-1.69","null","<span style='color:red; font-size: 70px;'>错误! </span>","null","","","","","","","","","","","","","","","","","","","","","","","feedback_test",""
"","","","","","psychophysics","330","649612","0.0-16.2-0.2-0.70","1106","","f","","","","","","","","","","","","","key","f","16.661175999999976","960","536","f","true","img/S_28.png","朋友","prac_friend","","生人"
"","","","","","html-keyboard-response","331","649913","0.0-16.2-0.2-1.70","null","<span style='color:GreenYellow; font-size: 70px;'>正确! </span>","null","","","","","","","","","","","","","","","","","","","","","","","feedback_test",""
"","","","","","psychophysics","332","651847","0.0-16.2-0.2-0.71","931","","f","","","","","","","","","","","","","key","f","16.661104347826104","960","536","f","true","img/H_28.png","朋友","prac_friend","","自我"
"","","","","","html-keyboard-response","333","652149","0.0-16.2-0.2-1.71","null","<span style='color:GreenYellow; font-size: 70px;'>正确! </span>","null","","","","","","","","","","","","","","","","","","","","","","","feedback_test",""
"","","","","","html-keyboard-response","334","660718","0.0-17.0","8565","[""<style>.context{color:white; font-size: 35px; line-height:40px}</style>                  <div><p class='context'>您正确回答了79% 的试次。</p><p class='context'>您的平均反应时为1031毫秒。</p><p class='context'>恭喜您完成这一阶段的练习。按任意键进入<span style='color: yellow;'>重点关注图形为“生人”</span>的练习。</p></div><p class='footer' style='font-size:35px; line-height:30px;'>任务要求：\n                  <p class='footer' style='font-size:35px; line-height:35px;'>对与“生人”对应的图形，如果 匹配 ，请按 <span style=\""color: lightgreen;\"">k键</span></p><p class='footer' style='font-size:35px'>如果 不匹配 ，请按<span style=\""color: lightgreen;\"">j键</p></span>\n                  <p class='footer' style='font-size:35px; line-height:35px;'>对非“生人”对应的图形，如果 匹配 ，请按 <span style=\""color: lightgreen;\"">d键</span></p><p class='footer' style='font-size:35px'>如果 不匹配 ，请按<span style=\""color: lightgreen;\"">f键</p></span>\n                  <p class='footer' style='font-size:22px; line-height:25px;'>请在实验过程中将您的<span style=\""color: lightgreen;\"">食指和中指</span>放在电脑键盘的相应键位上进行按键。</p></span>""]"," ","","","","","","","","","","","","","","","","","","","","","","","",""
"","","","","","psychophysics","335","663227","0.0-18.0-0.0-0.0","null","","null","","","","","","","","","","","","","key","null","16.6684697986582","960","536","k","false","img/S_28.png","生人","prac_stranger","","生人"
"","","","","","html-keyboard-response","336","663529","0.0-18.0-0.0-1.0","null","<span class='add_' style='color:yellow; font-size: 70px;'> 太慢! </span>","null","","","","","","","","","","","","","","","","","","","","","","","feedback_test",""
"","","","","","psychophysics","337","665971","0.0-18.0-0.0-0.1","1440","","k","","","","","","","","","","","","","key","k","16.660760273972738","960","536","d","false","img/C_28.png","朋友","prac_stranger","","朋友"
"","","","","","html-keyboard-response","338","666272","0.0-18.0-0.0-1.1","null","<span style='color:red; font-size: 70px;'>错误! </span>","null","","","","","","","","","","","","","","","","","","","","","","","feedback_test",""
"","","","","","psychophysics","339","668776","0.0-18.0-0.0-0.2","null","","null","","","","","","","","","","","","","key","null","16.66038255033555","960","536","d","false","img/H_28.png","自我","prac_stranger","","自我"
"","","","","","html-keyboard-response","340","669077","0.0-18.0-0.0-1.2","null","<span class='add_' style='color:yellow; font-size: 70px;'> 太慢! </span>","null","","","","","","","","","","","","","","","","","","","","","","","feedback_test",""
"","","","","","psychophysics","341","671013","0.0-18.0-0.0-0.3","935","","f","","","","","","","","","","","","","key","f","16.661565217391953","960","536","f","true","img/H_28.png","朋友","prac_stranger","","自我"
"","","","","","html-keyboard-response","342","671315","0.0-18.0-0.0-1.3","null","<span style='color:GreenYellow; font-size: 70px;'>正确! </span>","null","","","","","","","","","","","","","","","","","","","","","","","feedback_test",""
"","","","","","psychophysics","343","673421","0.0-18.0-0.0-0.4","1104","","f","","","","","","","","","","","","","key","f","16.660632000000216","960","536","d","false","img/H_28.png","自我","prac_stranger","","自我"
"","","","","","html-keyboard-response","344","673723","0.0-18.0-0.0-1.4","null","<span style='color:red; font-size: 70px;'>错误! </span>","null","","","","","","","","","","","","","","","","","","","","","","","feedback_test",""
"","","","","","psychophysics","345","676153","0.0-18.0-0.0-0.5","1428","","d","","","","","","","","","","","","","key","d","16.661075862069165","960","536","f","false","img/C_28.png","生人","prac_stranger","","朋友"
"","","","","","html-keyboard-response","346","676456","0.0-18.0-0.0-1.5","null","<span style='color:red; font-size: 70px;'>错误! </span>","null","","","","","","","","","","","","","","","","","","","","","","","feedback_test",""
"","","","","","psychophysics","347","678493","0.0-18.0-0.0-0.6","1035","","f","","","","","","","","","","","","","key","f","16.660876033057974","960","536","f","true","img/C_28.png","自我","prac_stranger","","朋友"
"","","","","","html-keyboard-response","348","678794","0.0-18.0-0.0-1.6","null","<span style='color:GreenYellow; font-size: 70px;'>正确! </span>","null","","","","","","","","","","","","","","","","","","","","","","","feedback_test",""
"","","","","","psychophysics","349","680651","0.0-18.0-0.0-0.7","855","","d","","","","","","","","","","","","","key","d","16.66086363636423","960","536","k","false","img/S_28.png","生人","prac_stranger","","生人"
"","","","","","html-keyboard-response","350","680954","0.0-18.0-0.0-1.7","null","<span style='color:red; font-size: 70px;'>错误! </span>","null","","","","","","","","","","","","","","","","","","","","","","","feedback_test",""
"","","","","","psychophysics","351","682914","0.0-18.0-0.0-0.8","958","","f","","","","","","","","","","","","","key","f","16.66179487179531","960","536","f","true","img/H_28.png","生人","prac_stranger","","自我"
"","","","","","html-keyboard-response","352","683216","0.0-18.0-0.0-1.8","null","<span style='color:GreenYellow; font-size: 70px;'>正确! </span>","null","","","","","","","","","","","","","","","","","","","","","","","feedback_test",""
"","","","","","psychophysics","353","684995","0.0-18.0-0.0-0.9","777","","k","","","","","","","","","","","","","key","k","16.661009523810243","960","536","d","false","img/C_28.png","朋友","prac_stranger","","朋友"
"","","","","","html-keyboard-response","354","685298","0.0-18.0-0.0-1.9","null","<span style='color:red; font-size: 70px;'>错误! </span>","null","","","","","","","","","","","","","","","","","","","","","","","feedback_test",""
"","","","","","psychophysics","355","687152","0.0-18.0-0.0-0.10","853","","j","","","","","","","","","","","","","key","j","16.66116363636366","960","536","j","true","img/S_28.png","自我","prac_stranger","","生人"
"","","","","","html-keyboard-response","356","687455","0.0-18.0-0.0-1.10","null","<span style='color:GreenYellow; font-size: 70px;'>正确! </span>","null","","","","","","","","","","","","","","","","","","","","","","","feedback_test",""
"","","","","","psychophysics","357","689482","0.0-18.0-0.0-0.11","1025","","k","","","","","","","","","","","","","key","k","16.661450000000574","960","536","j","false","img/S_28.png","朋友","prac_stranger","","生人"
"","","","","","html-keyboard-response","358","689785","0.0-18.0-0.0-1.11","null","<span style='color:red; font-size: 70px;'>错误! </span>","null","","","","","","","","","","","","","","","","","","","","","","","feedback_test",""
"","","","","","psychophysics","359","691923","0.0-18.0-0.0-0.12","1136","","f","","","","","","","","","","","","","key","f","16.661692913386084","960","536","f","true","img/C_28.png","自我","prac_stranger","","朋友"
"","","","","","html-keyboard-response","360","692227","0.0-18.0-0.0-1.12","null","<span style='color:GreenYellow; font-size: 70px;'>正确! </span>","null","","","","","","","","","","","","","","","","","","","","","","","feedback_test",""
"","","","","","psychophysics","361","694361","0.0-18.0-0.0-0.13","1132","","j","","","","","","","","","","","","","key","j","16.66161417322853","960","536","k","false","img/S_28.png","生人","prac_stranger","","生人"
"","","","","","html-keyboard-response","362","694662","0.0-18.0-0.0-1.13","null","<span style='color:red; font-size: 70px;'>错误! </span>","null","","","","","","","","","","","","","","","","","","","","","","","feedback_test",""
"","","","","","psychophysics","363","696406","0.0-18.0-0.0-0.14","742","","f","","","","","","","","","","","","","key","f","16.661223300971155","960","536","d","false","img/H_28.png","自我","prac_stranger","","自我"
"","","","","","html-keyboard-response","364","696708","0.0-18.0-0.0-1.14","null","<span style='color:red; font-size: 70px;'>错误! </span>","null","","","","","","","","","","","","","","","","","","","","","","","feedback_test",""
"","","","","","psychophysics","365","698518","0.0-18.0-0.0-0.15","808","","k","","","","","","","","","","","","","key","k","16.661943925233455","960","536","d","false","img/C_28.png","朋友","prac_stranger","","朋友"
"","","","","","html-keyboard-response","366","698820","0.0-18.0-0.0-1.15","null","<span style='color:red; font-size: 70px;'>错误! </span>","null","","","","","","","","","","","","","","","","","","","","","","","feedback_test",""
"","","","","","psychophysics","367","700747","0.0-18.0-0.0-0.16","925","","k","","","","","","","","","","","","","key","k","16.66060526315797","960","536","j","false","img/S_28.png","自我","prac_stranger","","生人"
"","","","","","html-keyboard-response","368","701051","0.0-18.0-0.0-1.16","null","<span style='color:red; font-size: 70px;'>错误! </span>","null","","","","","","","","","","","","","","","","","","","","","","","feedback_test",""
"","","","","","psychophysics","369","702814","0.0-18.0-0.0-0.17","759","","f","","","","","","","","","","","","","key","f","16.660855769230132","960","536","f","true","img/C_28.png","生人","prac_stranger","","朋友"
"","","","","","html-keyboard-response","370","703116","0.0-18.0-0.0-1.17","null","<span style='color:GreenYellow; font-size: 70px;'>正确! </span>","null","","","","","","","","","","","","","","","","","","","","","","","feedback_test",""
"","","","","","psychophysics","371","704864","0.0-18.0-0.0-0.18","747","","f","","","","","","","","","","","","","key","f","16.661509615384812","960","536","j","false","img/S_28.png","朋友","prac_stranger","","生人"
"","","","","","html-keyboard-response","372","705166","0.0-18.0-0.0-1.18","null","<span style='color:red; font-size: 70px;'>错误! </span>","null","","","","","","","","","","","","","","","","","","","","","","","feedback_test",""
"","","","","","psychophysics","373","707136","0.0-18.0-0.0-0.19","968","","f","","","","","","","","","","","","","key","f","16.66132758620721","960","536","k","false","img/S_28.png","生人","prac_stranger","","生人"
"","","","","","html-keyboard-response","374","707438","0.0-18.0-0.0-1.19","null","<span style='color:red; font-size: 70px;'>错误! </span>","null","","","","","","","","","","","","","","","","","","","","","","","feedback_test",""
"","","","","","psychophysics","375","709746","0.0-18.0-0.0-0.20","1306","","d","","","","","","","","","","","","","key","d","16.661379562044196","960","536","d","true","img/C_28.png","朋友","prac_stranger","","朋友"
"","","","","","html-keyboard-response","376","710048","0.0-18.0-0.0-1.20","null","<span style='color:GreenYellow; font-size: 70px;'>正确! </span>","null","","","","","","","","","","","","","","","","","","","","","","","feedback_test",""
"","","","","","psychophysics","377","712353","0.0-18.0-0.0-0.21","1304","","f","","","","","","","","","","","","","key","f","16.661043795621037","960","536","f","true","img/H_28.png","朋友","prac_stranger","","自我"
"","","","","","html-keyboard-response","378","712656","0.0-18.0-0.0-1.21","null","<span style='color:GreenYellow; font-size: 70px;'>正确! </span>","null","","","","","","","","","","","","","","","","","","","","","","","feedback_test",""
"","","","","","psychophysics","379","714912","0.0-18.0-0.0-0.22","1253","","f","","","","","","","","","","","","","key","f","16.661410447761742","960","536","f","true","img/H_28.png","生人","prac_stranger","","自我"
"","","","","","html-keyboard-response","380","715216","0.0-18.0-0.0-1.22","null","<span style='color:GreenYellow; font-size: 70px;'>正确! </span>","null","","","","","","","","","","","","","","","","","","","","","","","feedback_test",""
"","","","","","psychophysics","381","717274","0.0-18.0-0.0-0.23","1056","","d","","","","","","","","","","","","","key","d","16.661491803279084","960","536","d","true","img/H_28.png","自我","prac_stranger","","自我"
"","","","","","html-keyboard-response","382","717576","0.0-18.0-0.0-1.23","null","<span style='color:GreenYellow; font-size: 70px;'>正确! </span>","null","","","","","","","","","","","","","","","","","","","","","","","feedback_test",""
"","","","","","html-keyboard-response","383","725525","0.0-18.0-1.0-0.0","7946","<style>.context{color:white; font-size: 35px; line-height:40px}</style>                              <div><p class='context'>您正确回答了42% 的试次。</p><p class='context'>您的平均反应时为1060毫秒。</p>"," ","","","","","","","","","","","","","","","","","","","","","","","",""
"","","","","","instructions","384","732036","0.0-18.0-1.0-1.0","6505","","","","","","","","","","","","","","[{""page_index"":0,""viewing_time"":2260},{""page_index"":1,""viewing_time"":1910},{""page_index"":2,""viewing_time"":2335}]","","","","","","","","","","","",""
"","","","","","psychophysics","385","734541","0.0-18.1-0.1-0.24","null","","null","","","","","","","","","","","","","key","null","16.661228187919765","960","536","d","false","img/H_28.png","自我","prac_stranger","","自我"
"","","","","","html-keyboard-response","386","734843","0.0-18.1-0.1-1.24","null","<span class='add_' style='color:yellow; font-size: 70px;'> 太慢! </span>","null","","","","","","","","","","","","","","","","","","","","","","","feedback_test",""
"","","","","","psychophysics","387","736947","0.0-18.1-0.1-0.25","1102","","f","","","","","","","","","","","","","key","f","16.660944000000136","960","536","f","true","img/C_28.png","生人","prac_stranger","","朋友"
"","","","","","html-keyboard-response","388","737248","0.0-18.1-0.1-1.25","null","<span style='color:GreenYellow; font-size: 70px;'>正确! </span>","null","","","","","","","","","","","","","","","","","","","","","","","feedback_test",""
"","","","","","psychophysics","389","739752","0.0-18.1-0.1-0.26","null","","null","","","","","","","","","","","","","key","null","16.661167785234674","960","536","k","false","img/S_28.png","生人","prac_stranger","","生人"
"","","","","","html-keyboard-response","390","740053","0.0-18.1-0.1-1.26","null","<span class='add_' style='color:yellow; font-size: 70px;'> 太慢! </span>","null","","","","","","","","","","","","","","","","","","","","","","","feedback_test",""
"","","","","","psychophysics","391","742237","0.0-18.1-0.1-0.27","1183","","k","","","","","","","","","","","","","key","k","16.661596899224957","960","536","k","true","img/S_28.png","生人","prac_stranger","","生人"
"","","","","","html-keyboard-response","392","742539","0.0-18.1-0.1-1.27","null","<span style='color:GreenYellow; font-size: 70px;'>正确! </span>","null","","","","","","","","","","","","","","","","","","","","","","","feedback_test",""
"","","","","","psychophysics","393","744725","0.0-18.1-0.1-0.28","1184","","d","","","","","","","","","","","","","key","d","16.66077519379928","960","536","f","false","img/C_28.png","自我","prac_stranger","","朋友"
"","","","","","html-keyboard-response","394","745025","0.0-18.1-0.1-1.28","null","<span style='color:red; font-size: 70px;'>错误! </span>","null","","","","","","","","","","","","","","","","","","","","","","","feedback_test",""
"","","","","","psychophysics","395","747124","0.0-18.1-0.1-0.29","1096","","d","","","","","","","","","","","","","key","d","16.66127419354856","960","536","d","true","img/C_28.png","朋友","prac_stranger","","朋友"
"","","","","","html-keyboard-response","396","747426","0.0-18.1-0.1-1.29","null","<span style='color:GreenYellow; font-size: 70px;'>正确! </span>","null","","","","","","","","","","","","","","","","","","","","","","","feedback_test",""
"","","","","","psychophysics","397","749400","0.0-18.1-0.1-0.30","972","","f","","","","","","","","","","","","","key","f","16.660914529914944","960","536","f","true","img/H_28.png","生人","prac_stranger","","自我"
"","","","","","html-keyboard-response","398","749702","0.0-18.1-0.1-1.30","null","<span style='color:GreenYellow; font-size: 70px;'>正确! </span>","null","","","","","","","","","","","","","","","","","","","","","","","feedback_test",""
"","","","","","psychophysics","399","752205","0.0-18.1-0.1-0.31","null","","null","","","","","","","","","","","","","key","null","16.661310810811276","960","536","j","false","img/S_28.png","自我","prac_stranger","","生人"
"","","","","","html-keyboard-response","400","752507","0.0-18.1-0.1-1.31","null","<span class='add_' style='color:yellow; font-size: 70px;'> 太慢! </span>","null","","","","","","","","","","","","","","","","","","","","","","","feedback_test",""
"","","","","","psychophysics","401","754526","0.0-18.1-0.1-0.32","1017","","d","","","","","","","","","","","","","key","d","16.66169166666708","960","536","d","true","img/H_28.png","自我","prac_stranger","","自我"
"","","","","","html-keyboard-response","402","754829","0.0-18.1-0.1-1.32","null","<span style='color:GreenYellow; font-size: 70px;'>正确! </span>","null","","","","","","","","","","","","","","","","","","","","","","","feedback_test",""
"","","","","","psychophysics","403","756773","0.0-18.1-0.1-0.33","942","","d","","","","","","","","","","","","","key","d","16.660655172414284","960","536","d","true","img/C_28.png","朋友","prac_stranger","","朋友"
"","","","","","html-keyboard-response","404","757075","0.0-18.1-0.1-1.33","null","<span style='color:GreenYellow; font-size: 70px;'>正确! </span>","null","","","","","","","","","","","","","","","","","","","","","","","feedback_test",""
"","","","","","psychophysics","405","759117","0.0-18.1-0.1-0.34","1040","","f","","","","","","","","","","","","","key","f","16.661173553718832","960","536","f","true","img/H_28.png","朋友","prac_stranger","","自我"
"","","","","","html-keyboard-response","406","759419","0.0-18.1-0.1-1.34","null","<span style='color:GreenYellow; font-size: 70px;'>正确! </span>","null","","","","","","","","","","","","","","","","","","","","","","","feedback_test",""
"","","","","","psychophysics","407","761505","0.0-18.1-0.1-0.35","1083","","f","","","","","","","","","","","","","key","f","16.661419354838266","960","536","j","false","img/S_28.png","朋友","prac_stranger","","生人"
"","","","","","html-keyboard-response","408","761807","0.0-18.1-0.1-1.35","null","<span style='color:red; font-size: 70px;'>错误! </span>","null","","","","","","","","","","","","","","","","","","","","","","","feedback_test",""
"","","","","","psychophysics","409","764229","0.0-18.1-0.1-0.36","1416","","f","","","","","","","","","","","","","key","f","16.660611111111294","960","536","d","false","img/H_28.png","自我","prac_stranger","","自我"
"","","","","","html-keyboard-response","410","764530","0.0-18.1-0.1-1.36","null","<span style='color:red; font-size: 70px;'>错误! </span>","null","","","","","","","","","","","","","","","","","","","","","","","feedback_test",""
"","","","","","psychophysics","411","766433","0.0-18.1-0.1-0.37","901","","f","","","","","","","","","","","","","key","f","16.661151785714278","960","536","f","true","img/C_28.png","生人","prac_stranger","","朋友"
"","","","","","html-keyboard-response","412","766735","0.0-18.1-0.1-1.37","null","<span style='color:GreenYellow; font-size: 70px;'>正确! </span>","null","","","","","","","","","","","","","","","","","","","","","","","feedback_test",""
"","","","","","psychophysics","413","768792","0.0-18.1-0.1-0.38","1055","","d","","","","","","","","","","","","","key","d","16.660926229508448","960","536","d","true","img/C_28.png","朋友","prac_stranger","","朋友"
"","","","","","html-keyboard-response","414","769095","0.0-18.1-0.1-1.38","null","<span style='color:GreenYellow; font-size: 70px;'>正确! </span>","null","","","","","","","","","","","","","","","","","","","","","","","feedback_test",""
"","","","","","psychophysics","415","771311","0.0-18.1-0.1-0.39","1214","","f","","","","","","","","","","","","","key","f","16.661099236640716","960","536","f","true","img/H_28.png","朋友","prac_stranger","","自我"
"","","","","","html-keyboard-response","416","771612","0.0-18.1-0.1-1.39","null","<span style='color:GreenYellow; font-size: 70px;'>正确! </span>","null","","","","","","","","","","","","","","","","","","","","","","","feedback_test",""
"","","","","","psychophysics","417","773711","0.0-18.1-0.1-0.40","1097","","f","","","","","","","","","","","","","key","f","16.661016129031438","960","536","f","true","img/H_28.png","生人","prac_stranger","","自我"
"","","","","","html-keyboard-response","418","774012","0.0-18.1-0.1-1.40","null","<span style='color:GreenYellow; font-size: 70px;'>正确! </span>","null","","","","","","","","","","","","","","","","","","","","","","","feedback_test",""
"","","","","","psychophysics","419","776084","0.0-18.1-0.1-0.41","1067","","d","","","","","","","","","","","","","key","d","16.661113821137583","960","536","j","false","img/S_28.png","朋友","prac_stranger","","生人"
"","","","","","html-keyboard-response","420","776386","0.0-18.1-0.1-1.41","null","<span style='color:red; font-size: 70px;'>错误! </span>","null","","","","","","","","","","","","","","","","","","","","","","","feedback_test",""
"","","","","","psychophysics","421","778566","0.0-18.1-0.1-0.42","1177","","j","","","","","","","","","","","","","key","j","16.660876923076845","960","536","k","false","img/S_28.png","生人","prac_stranger","","生人"
"","","","","","html-keyboard-response","422","778867","0.0-18.1-0.1-1.42","null","<span style='color:red; font-size: 70px;'>错误! </span>","null","","","","","","","","","","","","","","","","","","","","","","","feedback_test",""
"","","","","","psychophysics","423","780572","0.0-18.1-0.1-0.43","703","","f","","","","","","","","","","","","","key","f","16.661920792079705","960","536","d","false","img/C_28.png","朋友","prac_stranger","","朋友"
"","","","","","html-keyboard-response","424","780874","0.0-18.1-0.1-1.43","null","<span style='color:red; font-size: 70px;'>错误! </span>","null","","","","","","","","","","","","","","","","","","","","","","","feedback_test",""
