"success","timeout","failed_images","failed_audio","failed_video","trial_type","trial_index","time_elapsed","internal_node_id","rt","stimulus","response","value","item_width_mm","item_height_mm","item_width_px","px2mm","view_dist_mm","item_width_deg","px2deg","scale_factor","win_width_deg","win_height_deg","view_history","response_type","key_press","avg_frame_time","center_x","center_y","correct_response","correct","Image","text","condition","screen_id","label"
"true","false","[]","[]","[]","preload","0","736","0.0-0.0","","","","","","","","","","","","","","","","","","","","","","","","","","",""
"","","","","","html-keyboard-response","1","62782","0.0-1.0","62044","
     <p>您好，欢迎参加本次实验。</p>
     <p>为充分保障您的权利，请确保您已经知晓并同意《参与实验同意书》以及《数据公开知情同意书》。</p>
     <p>如果您未见过上述内容，请咨询实验员。</p>
     <p>如果您选择继续实验，则表示您已经清楚两份知情同意书的内容并同意。</p>
     <p> <div style = ""color: green""><按任意键至下页></div> </p>
     ","arrowdown","","","","","","","","","","","","","","","","","","","","","","","",""
"","","","","","html-keyboard-response","2","63607","0.0-2.0","824","
     <p>本实验首先需要您填写一些基本个人信息。</p>
     <p> <div style = ""color: green""><按任意键至下页></div></p>
     ","arrowdown","","","","","","","","","","","","","","","","","","","","","","","",""
"","","","","","call-function","3","63609","0.0-3.0-0.0","","","","","","","","","","","","","","","","","","","","","","","","","","",""
"","","","","","survey-html-form","4","81236","0.0-3.0-1.0","17623","","{""Q0"":""42""}","","","","","","","","","","","","","","","","","","","","","","","",""
"","","","","","html-button-response","5","83027","0.0-3.0-2.0","1788","<p style = 'color : white'>您的性别</p>","0","","","","","","","","","","","","","","","","","","","","","","","",""
"","","","","","survey-html-form","6","88849","0.0-3.0-3.0","5821","","{""Q0"":""1999""}","","","","","","","","","","","","","","","","","","","","","","","",""
"","","","","","survey-html-form","7","94011","0.0-3.0-4.0","5160","","{""Q0"":""5""}","","","","","","","","","","","","","","","","","","","","","","","",""
"","","","","","virtual-chinrest","8","407459","0.0-4.0","313443","","","","85.6","53.98","285.39507901479163","3.331952400320474","858.54","5.707901580295833","50","1.4225893501792215","29.76","14.84","","","","","","","","","","","","",""
"true","","","","","fullscreen","9","411211","0.0-5.0","","","","","","","","","","","","","","","","","","","","","","","","","","",""
"","","","","","instructions","10","584837","0.0-6.0","173625","","","","","","","","","","","","","","[{""page_index"":0,""viewing_time"":60088},{""page_index"":1,""viewing_time"":13400},{""page_index"":2,""viewing_time"":94011},{""page_index"":3,""viewing_time"":3833},{""page_index"":4,""viewing_time"":2293}]","","","","","","","","","","","",""
"","","","","","instructions","11","658484","0.0-7.0","73646","","","","","","","","","","","","","","[{""page_index"":0,""viewing_time"":73645}]","","","","","","","","","","","",""
"","","","","","psychophysics","12","666033","0.0-8.0-0.0-0.0","6538","","f","","","","","","","","","","","","","key","f","16.666126385809463","768","428","f","true","img/H_28.png","朋友","freeprac_self","",""
"","","","","","html-keyboard-response","13","666348","0.0-8.0-0.0-1.0","null","<span style='color:GreenYellow; font-size: 70px;'>正确! </span>","null","","","","","","","","","","","","","","","","","","","","","","","feedback_test",""
"","","","","","psychophysics","14","670009","0.0-8.0-0.0-0.1","2659","","d","","","","","","","","","","","","","key","d","16.666114155250945","768","428","d","true","img/S_28.png","朋友","freeprac_self","",""
"","","","","","html-keyboard-response","15","670314","0.0-8.0-0.0-1.1","null","<span style='color:GreenYellow; font-size: 70px;'>正确! </span>","null","","","","","","","","","","","","","","","","","","","","","","","feedback_test",""
"","","","","","psychophysics","16","680308","0.0-8.0-0.0-0.2","8991","","j","","","","","","","","","","","","","key","j","16.665969949916473","768","428","f","false","img/S_28.png","生人","freeprac_self","",""
"","","","","","html-keyboard-response","17","680615","0.0-8.0-0.0-1.2","null","<span style='color:red; font-size: 70px;'>错误! </span>","null","","","","","","","","","","","","","","","","","","","","","","","feedback_test",""
"","","","","","psychophysics","18","690337","0.0-8.0-0.0-0.3","8720","","d","","","","","","","","","","","","","key","d","16.663548109965532","768","428","d","true","img/H_28.png","生人","freeprac_self","",""
"","","","","","html-keyboard-response","19","690647","0.0-8.0-0.0-1.3","null","<span style='color:GreenYellow; font-size: 70px;'>正确! </span>","null","","","","","","","","","","","","","","","","","","","","","","","feedback_test",""
"","","","","","psychophysics","20","695969","0.0-8.0-0.0-0.4","4321","","f","","","","","","","","","","","","","key","f","16.665799373040795","768","428","j","false","img/C_28.png","朋友","freeprac_self","",""
"","","","","","html-keyboard-response","21","696286","0.0-8.0-0.0-1.4","null","<span style='color:red; font-size: 70px;'>错误! </span>","null","","","","","","","","","","","","","","","","","","","","","","","feedback_test",""
"","","","","","psychophysics","22","701253","0.0-8.0-0.0-0.5","3954","","d","","","","","","","","","","","","","key","d","16.665878787878995","768","428","d","true","img/H_28.png","生人","freeprac_self","",""
"","","","","","html-keyboard-response","23","701559","0.0-8.0-0.0-1.5","null","<span style='color:GreenYellow; font-size: 70px;'>正确! </span>","null","","","","","","","","","","","","","","","","","","","","","","","feedback_test",""
"","","","","","psychophysics","24","709894","0.0-8.0-0.0-0.6","7329","","f","","","","","","","","","","","","","key","f","16.6658817635271","768","428","k","false","img/C_28.png","自我","freeprac_self","",""
"","","","","","html-keyboard-response","25","710210","0.0-8.0-0.0-1.6","null","<span style='color:red; font-size: 70px;'>错误! </span>","null","","","","","","","","","","","","","","","","","","","","","","","feedback_test",""
"","","","","","psychophysics","26","715409","0.0-8.0-0.0-0.7","4194","","j","","","","","","","","","","","","","key","j","16.666337620578496","768","428","f","false","img/H_28.png","自我","freeprac_self","",""
"","","","","","html-keyboard-response","27","715718","0.0-8.0-0.0-1.7","null","<span style='color:red; font-size: 70px;'>错误! </span>","null","","","","","","","","","","","","","","","","","","","","","","","feedback_test",""
"","","","","","psychophysics","28","725095","0.0-8.0-0.0-0.8","8368","","k","","","","","","","","","","","","","key","k","16.66586987522274","768","428","k","true","img/C_28.png","自我","freeprac_self","",""
"","","","","","html-keyboard-response","29","725407","0.0-8.0-0.0-1.8","null","<span style='color:GreenYellow; font-size: 70px;'>正确! </span>","null","","","","","","","","","","","","","","","","","","","","","","","feedback_test",""
"","","","","","psychophysics","30","730468","0.0-8.0-0.0-0.9","4054","","d","","","","","","","","","","","","","key","d","16.66607260726094","768","428","d","true","img/S_28.png","朋友","freeprac_self","",""
"","","","","","html-keyboard-response","31","730779","0.0-8.0-0.0-1.9","null","<span style='color:GreenYellow; font-size: 70px;'>正确! </span>","null","","","","","","","","","","","","","","","","","","","","","","","feedback_test",""
"","","","","","psychophysics","32","737305","0.0-8.0-0.0-0.10","5525","","f","","","","","","","","","","","","","key","f","16.663876923076952","768","428","j","false","img/C_28.png","生人","freeprac_self","",""
"","","","","","html-keyboard-response","33","737610","0.0-8.0-0.0-1.10","null","<span style='color:red; font-size: 70px;'>错误! </span>","null","","","","","","","","","","","","","","","","","","","","","","","feedback_test",""
"","","","","","psychophysics","34","743100","0.0-8.0-0.0-0.11","4487","","k","","","","","","","","","","","","","key","k","16.66595136778115","768","428","f","false","img/S_28.png","自我","freeprac_self","",""
"","","","","","html-keyboard-response","35","743405","0.0-8.0-0.0-1.11","null","<span style='color:red; font-size: 70px;'>错误! </span>","null","","","","","","","","","","","","","","","","","","","","","","","feedback_test",""
"","","","","","html-keyboard-response","36","753278","0.0-8.0-1.0-0.0","9872","<style>.context{color:white; font-size: 35px; line-height:40px}</style>                              <div><p class='context'>您正确回答了50% 的试次。</p><p class='context'>您的平均反应时为5716毫秒。</p>"," ","","","","","","","","","","","","","","","","","","","","","","","",""
"","","","","","instructions","37","829696","0.0-8.0-1.0-1.0","76416","","","","","","","","","","","","","","[{""page_index"":0,""viewing_time"":12818},{""page_index"":1,""viewing_time"":61259},{""page_index"":2,""viewing_time"":2339}]","","","","","","","","","","","",""
"","","","","","psychophysics","38","833928","0.0-8.1-0.1-0.12","3218","","d","","","","","","","","","","","","","key","d","16.666505928853944","768","428","d","true","img/H_28.png","生人","freeprac_self","",""
"","","","","","html-keyboard-response","39","834235","0.0-8.1-0.1-1.12","null","<span style='color:GreenYellow; font-size: 70px;'>正确! </span>","null","","","","","","","","","","","","","","","","","","","","","","","feedback_test",""
"","","","","","psychophysics","40","838561","0.0-8.1-0.1-0.13","3323","","f","","","","","","","","","","","","","key","f","16.665918918918912","768","428","f","true","img/S_28.png","自我","freeprac_self","",""
"","","","","","html-keyboard-response","41","838866","0.0-8.1-0.1-1.13","null","<span style='color:GreenYellow; font-size: 70px;'>正确! </span>","null","","","","","","","","","","","","","","","","","","","","","","","feedback_test",""
"","","","","","psychophysics","42","841883","0.0-8.1-0.1-0.14","2007","","d","","","","","","","","","","","","","key","d","16.665911111110795","768","428","d","true","img/S_28.png","朋友","freeprac_self","",""
"","","","","","html-keyboard-response","43","842199","0.0-8.1-0.1-1.14","null","<span style='color:GreenYellow; font-size: 70px;'>正确! </span>","null","","","","","","","","","","","","","","","","","","","","","","","feedback_test",""
"","","","","","psychophysics","44","847638","0.0-8.1-0.1-0.15","4431","","k","","","","","","","","","","","","","key","k","16.66633538461541","768","428","k","true","img/C_28.png","自我","freeprac_self","",""
"","","","","","html-keyboard-response","45","847940","0.0-8.1-0.1-1.15","null","<span style='color:GreenYellow; font-size: 70px;'>正确! </span>","null","","","","","","","","","","","","","","","","","","","","","","","feedback_test",""
"","","","","","psychophysics","46","854524","0.0-8.1-0.1-0.16","5582","","j","","","","","","","","","","","","","key","j","16.665941624365615","768","428","k","false","img/C_28.png","自我","freeprac_self","",""
"","","","","","html-keyboard-response","47","854834","0.0-8.1-0.1-1.16","null","<span style='color:red; font-size: 70px;'>错误! </span>","null","","","","","","","","","","","","","","","","","","","","","","","feedback_test",""
"","","","","","psychophysics","48","859183","0.0-8.1-0.1-0.17","3348","","f","","","","","","","","","","","","","key","f","16.666234615384692","768","428","j","false","img/C_28.png","生人","freeprac_self","",""
"","","","","","html-keyboard-response","49","859488","0.0-8.1-0.1-1.17","null","<span style='color:red; font-size: 70px;'>错误! </span>","null","","","","","","","","","","","","","","","","","","","","","","","feedback_test",""
"","","","","","psychophysics","50","862262","0.0-8.1-0.1-0.18","1771","","d","","","","","","","","","","","","","key","d","16.666048192771164","768","428","d","true","img/S_28.png","朋友","freeprac_self","",""
"","","","","","html-keyboard-response","51","862577","0.0-8.1-0.1-1.18","null","<span style='color:GreenYellow; font-size: 70px;'>正确! </span>","null","","","","","","","","","","","","","","","","","","","","","","","feedback_test",""
"","","","","","psychophysics","52","864984","0.0-8.1-0.1-0.19","1395","","d","","","","","","","","","","","","","key","d","16.66621678321658","768","428","d","true","img/H_28.png","生人","freeprac_self","",""
"","","","","","html-keyboard-response","53","865288","0.0-8.1-0.1-1.19","null","<span style='color:GreenYellow; font-size: 70px;'>正确! </span>","null","","","","","","","","","","","","","","","","","","","","","","","feedback_test",""
"","","","","","psychophysics","54","870727","0.0-8.1-0.1-0.20","4437","","f","","","","","","","","","","","","","key","f","16.665782208589086","768","428","f","true","img/H_28.png","自我","freeprac_self","",""
"","","","","","html-keyboard-response","55","871040","0.0-8.1-0.1-1.20","null","<span style='color:GreenYellow; font-size: 70px;'>正确! </span>","null","","","","","","","","","","","","","","","","","","","","","","","feedback_test",""
"","","","","","psychophysics","56","876127","0.0-8.1-0.1-0.21","4086","","f","","","","","","","","","","","","","key","f","16.66252302631581","768","428","f","true","img/H_28.png","朋友","freeprac_self","",""
"","","","","","html-keyboard-response","57","876437","0.0-8.1-0.1-1.21","null","<span style='color:GreenYellow; font-size: 70px;'>正确! </span>","null","","","","","","","","","","","","","","","","","","","","","","","feedback_test",""
"","","","","","psychophysics","58","882521","0.0-8.1-0.1-0.22","5080","","f","","","","","","","","","","","","","key","f","16.666206043956233","768","428","f","true","img/S_28.png","生人","freeprac_self","",""
"","","","","","html-keyboard-response","59","882827","0.0-8.1-0.1-1.22","null","<span style='color:GreenYellow; font-size: 70px;'>正确! </span>","null","","","","","","","","","","","","","","","","","","","","","","","feedback_test",""
"","","","","","psychophysics","60","889687","0.0-8.1-0.1-0.23","5846","","f","","","","","","","","","","","","","key","f","16.665968292682976","768","428","j","false","img/C_28.png","朋友","freeprac_self","",""
"","","","","","html-keyboard-response","61","889992","0.0-8.1-0.1-1.23","null","<span style='color:red; font-size: 70px;'>错误! </span>","null","","","","","","","","","","","","","","","","","","","","","","","feedback_test",""
"","","","","","html-keyboard-response","62","1000916","0.0-9.0","110923","[""<style>.context{color:white; font-size: 35px; line-height:40px}</style>              <div><p class='context'>您正确回答了75% 的试次。</p><p class='context'>您的平均反应时为3305毫秒。</p><p class='context'>恭喜您完成这一阶段的练习。按任意键进入<span style='color: yellow;'>重点关注图形为“朋友”</span>的练习。</p></div><p class='footer' style='font-size:35px; line-height:30px;'>任务要求：\n              <p class='footer' style='font-size:35px; line-height:35px;'>对于与“朋友”对应的图形：如果 匹配 ，请按 <span style=\""color: lightgreen;\"">k键</span></p><p class='footer' style='font-size:35px'>如果 不匹配 ，请按<span style=\""color: lightgreen;\"">j键</p></span>\n              <p class='footer' style='font-size:35px; line-height:35px;'>对于非“朋友”对应的图形：如果 匹配 ，请按 <span style=\""color: lightgreen;\"">d键</span></p><p class='footer' style='font-size:35px'>如果 不匹配 ，请按<span style=\""color: lightgreen;\"">f键</p></span>\n              <p class='footer' style='font-size:22px; line-height:25px;'>请在实验过程中将您的<span style=\""color: lightgreen;\"">食指和中指</span>放在电脑键盘的相应键位上进行按键。</p></span>""]"," ","","","","","","","","","","","","","","","","","","","","","","","",""
"","","","","","psychophysics","63","1006397","0.0-10.0-0.0-0.0","4478","","f","","","","","","","","","","","","","key","f","16.666121951219548","768","428","f","true","img/C_28.png","朋友","freeprac_friend","",""
"","","","","","html-keyboard-response","64","1006713","0.0-10.0-0.0-1.0","null","<span style='color:GreenYellow; font-size: 70px;'>正确! </span>","null","","","","","","","","","","","","","","","","","","","","","","","feedback_test",""
"","","","","","psychophysics","65","1017000","0.0-10.0-0.0-0.1","9281","","f","","","","","","","","","","","","","key","f","16.66604058441552","768","428","f","true","img/H_28.png","朋友","freeprac_friend","",""
"","","","","","html-keyboard-response","66","1017306","0.0-10.0-0.0-1.1","null","<span style='color:GreenYellow; font-size: 70px;'>正确! </span>","null","","","","","","","","","","","","","","","","","","","","","","","feedback_test",""
"","","","","","psychophysics","67","1024064","0.0-10.0-0.0-0.2","5746","","f","","","","","","","","","","","","","key","f","16.666037128712937","768","428","d","false","img/C_28.png","自我","freeprac_friend","",""
"","","","","","html-keyboard-response","68","1024380","0.0-10.0-0.0-1.2","null","<span style='color:red; font-size: 70px;'>错误! </span>","null","","","","","","","","","","","","","","","","","","","","","","","feedback_test",""
"","","","","","psychophysics","69","1028203","0.0-10.0-0.0-0.3","2819","","f","","","","","","","","","","","","","key","f","16.665925764192025","768","428","f","true","img/C_28.png","生人","freeprac_friend","",""
"","","","","","html-keyboard-response","70","1028512","0.0-10.0-0.0-1.3","null","<span style='color:GreenYellow; font-size: 70px;'>正确! </span>","null","","","","","","","","","","","","","","","","","","","","","","","feedback_test",""
"","","","","","psychophysics","71","1031080","0.0-10.0-0.0-0.4","1561","","d","","","","","","","","","","","","","key","d","16.666424836601234","768","428","d","true","img/H_28.png","生人","freeprac_friend","",""
"","","","","","html-keyboard-response","72","1031389","0.0-10.0-0.0-1.4","null","<span style='color:GreenYellow; font-size: 70px;'>正确! </span>","null","","","","","","","","","","","","","","","","","","","","","","","feedback_test",""
"","","","","","psychophysics","73","1034016","0.0-10.0-0.0-0.5","1624","","d","","","","","","","","","","","","","key","d","16.666378205127938","768","428","d","true","img/H_28.png","生人","freeprac_friend","",""
"","","","","","html-keyboard-response","74","1034328","0.0-10.0-0.0-1.5","null","<span style='color:GreenYellow; font-size: 70px;'>正确! </span>","null","","","","","","","","","","","","","","","","","","","","","","","feedback_test",""
"","","","","","psychophysics","75","1039462","0.0-10.0-0.0-0.6","4133","","f","","","","","","","","","","","","","key","f","16.665973941368165","768","428","d","false","img/C_28.png","自我","freeprac_friend","",""
"","","","","","html-keyboard-response","76","1039769","0.0-10.0-0.0-1.6","null","<span style='color:red; font-size: 70px;'>错误! </span>","null","","","","","","","","","","","","","","","","","","","","","","","feedback_test",""
"","","","","","psychophysics","77","1043617","0.0-10.0-0.0-0.7","2834","","f","","","","","","","","","","","","","key","f","16.66581304347821","768","428","j","false","img/S_28.png","自我","freeprac_friend","",""
"","","","","","html-keyboard-response","78","1043923","0.0-10.0-0.0-1.7","null","<span style='color:red; font-size: 70px;'>错误! </span>","null","","","","","","","","","","","","","","","","","","","","","","","feedback_test",""
"","","","","","psychophysics","79","1046964","0.0-10.0-0.0-0.8","2040","","d","","","","","","","","","","","","","key","d","16.66598342541343","768","428","k","false","img/S_28.png","朋友","freeprac_friend","",""
"","","","","","html-keyboard-response","80","1047271","0.0-10.0-0.0-1.8","null","<span style='color:red; font-size: 70px;'>错误! </span>","null","","","","","","","","","","","","","","","","","","","","","","","feedback_test",""
"","","","","","psychophysics","81","1053764","0.0-10.0-0.0-0.9","5491","","k","","","","","","","","","","","","","key","k","16.665951030927747","768","428","k","true","img/S_28.png","朋友","freeprac_friend","",""
"","","","","","html-keyboard-response","82","1054072","0.0-10.0-0.0-1.9","null","<span style='color:GreenYellow; font-size: 70px;'>正确! </span>","null","","","","","","","","","","","","","","","","","","","","","","","feedback_test",""
"","","","","","psychophysics","83","1056840","0.0-10.0-0.0-0.10","1766","","d","","","","","","","","","","","","","key","d","16.666533333332644","768","428","f","false","img/H_28.png","自我","freeprac_friend","",""
"","","","","","html-keyboard-response","84","1057147","0.0-10.0-0.0-1.10","null","<span style='color:red; font-size: 70px;'>错误! </span>","null","","","","","","","","","","","","","","","","","","","","","","","feedback_test",""
"","","","","","psychophysics","85","1064152","0.0-10.0-0.0-0.11","6003","","f","","","","","","","","","","","","","key","f","16.66578809523822","768","428","j","false","img/S_28.png","生人","freeprac_friend","",""
"","","","","","html-keyboard-response","86","1064456","0.0-10.0-0.0-1.11","null","<span style='color:red; font-size: 70px;'>错误! </span>","null","","","","","","","","","","","","","","","","","","","","","","","feedback_test",""
"","","","","","html-keyboard-response","87","1082371","0.0-10.0-1.0-0.0","17914","<style>.context{color:white; font-size: 35px; line-height:40px}</style>                              <div><p class='context'>您正确回答了50% 的试次。</p><p class='context'>您的平均反应时为4209毫秒。</p>","enter","","","","","","","","","","","","","","","","","","","","","","","",""
"","","","","","instructions","88","1132958","0.0-10.0-1.0-1.0","50585","","","","","","","","","","","","","","[{""page_index"":0,""viewing_time"":3055},{""page_index"":1,""viewing_time"":45291},{""page_index"":2,""viewing_time"":2239}]","","","","","","","","","","","",""
"","","","","","psychophysics","89","1139032","0.0-10.1-0.1-0.12","5067","","d","","","","","","","","","","","","","key","d","16.666318681318785","768","428","d","true","img/H_28.png","生人","freeprac_friend","",""
"","","","","","html-keyboard-response","90","1139339","0.0-10.1-0.1-1.12","null","<span style='color:GreenYellow; font-size: 70px;'>正确! </span>","null","","","","","","","","","","","","","","","","","","","","","","","feedback_test",""
"","","","","","psychophysics","91","1145172","0.0-10.1-0.1-0.13","4825","","k","","","","","","","","","","","","","key","k","16.665785100286357","768","428","k","true","img/S_28.png","朋友","freeprac_friend","",""
"","","","","","html-keyboard-response","92","1145480","0.0-10.1-0.1-1.13","null","<span style='color:GreenYellow; font-size: 70px;'>正确! </span>","null","","","","","","","","","","","","","","","","","","","","","","","feedback_test",""
"","","","","","psychophysics","93","1149679","0.0-10.1-0.1-0.14","3197","","f","","","","","","","","","","","","","key","f","16.666436000000687","768","428","f","true","img/C_28.png","生人","freeprac_friend","",""
"","","","","","html-keyboard-response","94","1149991","0.0-10.1-0.1-1.14","null","<span style='color:GreenYellow; font-size: 70px;'>正确! </span>","null","","","","","","","","","","","","","","","","","","","","","","","feedback_test",""
"","","","","","psychophysics","95","1155269","0.0-10.1-0.1-0.15","4273","","f","","","","","","","","","","","","","key","f","16.665655063290615","768","428","j","false","img/S_28.png","生人","freeprac_friend","",""
"","","","","","html-keyboard-response","96","1155573","0.0-10.1-0.1-1.15","null","<span style='color:red; font-size: 70px;'>错误! </span>","null","","","","","","","","","","","","","","","","","","","","","","","feedback_test",""
"","","","","","psychophysics","97","1164547","0.0-10.1-0.1-0.16","7968","","f","","","","","","","","","","","","","key","f","16.666243494423817","768","428","d","false","img/H_28.png","生人","freeprac_friend","",""
"","","","","","html-keyboard-response","98","1164853","0.0-10.1-0.1-1.16","null","<span style='color:red; font-size: 70px;'>错误! </span>","null","","","","","","","","","","","","","","","","","","","","","","","feedback_test",""
"","","","","","psychophysics","99","1168314","0.0-10.1-0.1-0.17","2453","","d","","","","","","","","","","","","","key","d","16.665874396134754","768","428","f","false","img/H_28.png","自我","freeprac_friend","",""
"","","","","","html-keyboard-response","100","1168621","0.0-10.1-0.1-1.17","null","<span style='color:red; font-size: 70px;'>错误! </span>","null","","","","","","","","","","","","","","","","","","","","","","","feedback_test",""
"","","","","","psychophysics","101","1173407","0.0-10.1-0.1-0.18","3779","","j","","","","","","","","","","","","","key","j","16.66574825174859","768","428","f","false","img/H_28.png","朋友","freeprac_friend","",""
"","","","","","html-keyboard-response","102","1173713","0.0-10.1-0.1-1.18","null","<span style='color:red; font-size: 70px;'>错误! </span>","null","","","","","","","","","","","","","","","","","","","","","","","feedback_test",""
"","","","","","psychophysics","103","1182104","0.0-10.1-0.1-0.19","7381","","f","","","","","","","","","","","","","key","f","16.665956175298916","768","428","d","false","img/C_28.png","自我","freeprac_friend","",""
"","","","","","html-keyboard-response","104","1182414","0.0-10.1-0.1-1.19","null","<span style='color:red; font-size: 70px;'>错误! </span>","null","","","","","","","","","","","","","","","","","","","","","","","feedback_test",""
"","","","","","psychophysics","105","1187472","0.0-10.1-0.1-0.20","4044","","k","","","","","","","","","","","","","key","k","16.66579801324502","768","428","k","true","img/S_28.png","朋友","freeprac_friend","",""
"","","","","","html-keyboard-response","106","1187774","0.0-10.1-0.1-1.20","null","<span style='color:GreenYellow; font-size: 70px;'>正确! </span>","null","","","","","","","","","","","","","","","","","","","","","","","feedback_test",""
"","","","","","psychophysics","107","1194830","0.0-10.1-0.1-0.21","6054","","f","","","","","","","","","","","","","key","f","16.665997635933678","768","428","j","false","img/S_28.png","自我","freeprac_friend","",""
"","","","","","html-keyboard-response","108","1195139","0.0-10.1-0.1-1.21","null","<span style='color:red; font-size: 70px;'>错误! </span>","null","","","","","","","","","","","","","","","","","","","","","","","feedback_test",""
"","","","","","psychophysics","109","1199094","0.0-10.1-0.1-0.22","2951","","j","","","","","","","","","","","","","key","j","16.66621940928209","768","428","f","false","img/C_28.png","朋友","freeprac_friend","",""
"","","","","","html-keyboard-response","110","1199398","0.0-10.1-0.1-1.22","null","<span style='color:red; font-size: 70px;'>错误! </span>","null","","","","","","","","","","","","","","","","","","","","","","","feedback_test",""
"","","","","","psychophysics","111","1208480","0.0-10.1-0.1-0.23","8070","","f","","","","","","","","","","","","","key","f","16.665862132353034","768","428","d","false","img/C_28.png","自我","freeprac_friend","",""
"","","","","","html-keyboard-response","112","1208783","0.0-10.1-0.1-1.23","null","<span style='color:red; font-size: 70px;'>错误! </span>","null","","","","","","","","","","","","","","","","","","","","","","","feedback_test",""
"","","","","","html-keyboard-response","113","1210241","0.0-10.1-1.1-0.1","1457","<style>.context{color:white; font-size: 35px; line-height:40px}</style>                              <div><p class='context'>您正确回答了33% 的试次。</p><p class='context'>您的平均反应时为4283毫秒。</p>"," ","","","","","","","","","","","","","","","","","","","","","","","",""
"","","","","","instructions","114","1245930","0.0-10.1-1.1-1.1","35688","","","","","","","","","","","","","","[{""page_index"":0,""viewing_time"":1780},{""page_index"":1,""viewing_time"":31891},{""page_index"":2,""viewing_time"":2016}]","","","","","","","","","","","",""
"","","","","","psychophysics","115","1250040","0.0-10.2-0.2-0.24","3102","","f","","","","","","","","","","","","","key","f","16.665999999999695","768","428","d","false","img/H_28.png","生人","freeprac_friend","",""
"","","","","","html-keyboard-response","116","1250342","0.0-10.2-0.2-1.24","null","<span style='color:red; font-size: 70px;'>错误! </span>","null","","","","","","","","","","","","","","","","","","","","","","","feedback_test",""
"","","","","","psychophysics","117","1259418","0.0-10.2-0.2-0.25","8061","","d","","","","","","","","","","","","","key","d","16.666071823204252","768","428","d","true","img/C_28.png","自我","freeprac_friend","",""
"","","","","","html-keyboard-response","118","1259727","0.0-10.2-0.2-1.25","null","<span style='color:GreenYellow; font-size: 70px;'>正确! </span>","null","","","","","","","","","","","","","","","","","","","","","","","feedback_test",""
"","","","","","psychophysics","119","1264129","0.0-10.2-0.2-0.26","3389","","f","","","","","","","","","","","","","key","f","16.665699619771523","768","428","f","true","img/H_28.png","自我","freeprac_friend","",""
"","","","","","html-keyboard-response","120","1264431","0.0-10.2-0.2-1.26","null","<span style='color:GreenYellow; font-size: 70px;'>正确! </span>","null","","","","","","","","","","","","","","","","","","","","","","","feedback_test",""
"","","","","","psychophysics","121","1270349","0.0-10.2-0.2-0.27","4909","","k","","","","","","","","","","","","","key","k","16.66607062146857","768","428","k","true","img/S_28.png","朋友","freeprac_friend","",""
"","","","","","html-keyboard-response","122","1270653","0.0-10.2-0.2-1.27","null","<span style='color:GreenYellow; font-size: 70px;'>正确! </span>","null","","","","","","","","","","","","","","","","","","","","","","","feedback_test",""
"","","","","","psychophysics","123","1274775","0.0-10.2-0.2-0.28","3119","","k","","","","","","","","","","","","","key","k","16.666441295546694","768","428","k","true","img/S_28.png","朋友","freeprac_friend","",""
"","","","","","html-keyboard-response","124","1275085","0.0-10.2-0.2-1.28","null","<span style='color:GreenYellow; font-size: 70px;'>正确! </span>","null","","","","","","","","","","","","","","","","","","","","","","","feedback_test",""
"","","","","","psychophysics","125","1279731","0.0-10.2-0.2-0.29","3641","","f","","","","","","","","","","","","","key","f","16.666035971223216","768","428","j","false","img/S_28.png","生人","freeprac_friend","",""
"","","","","","html-keyboard-response","126","1280043","0.0-10.2-0.2-1.29","null","<span style='color:red; font-size: 70px;'>错误! </span>","null","","","","","","","","","","","","","","","","","","","","","","","feedback_test",""
"","","","","","psychophysics","127","1285226","0.0-10.2-0.2-0.30","4178","","d","","","","","","","","","","","","","key","d","16.666019354838756","768","428","f","false","img/C_28.png","朋友","freeprac_friend","",""
"","","","","","html-keyboard-response","128","1285537","0.0-10.2-0.2-1.30","null","<span style='color:red; font-size: 70px;'>错误! </span>","null","","","","","","","","","","","","","","","","","","","","","","","feedback_test",""
"","","","","","psychophysics","129","1289400","0.0-10.2-0.2-0.31","2860","","f","","","","","","","","","","","","","key","f","16.66602164502175","768","428","j","false","img/S_28.png","自我","freeprac_friend","",""
"","","","","","html-keyboard-response","130","1289705","0.0-10.2-0.2-1.31","null","<span style='color:red; font-size: 70px;'>错误! </span>","null","","","","","","","","","","","","","","","","","","","","","","","feedback_test",""
"","","","","","psychophysics","131","1293971","0.0-10.2-0.2-0.32","3256","","d","","","","","","","","","","","","","key","d","16.666019685040265","768","428","f","false","img/C_28.png","生人","freeprac_friend","",""
"","","","","","html-keyboard-response","132","1294282","0.0-10.2-0.2-1.32","null","<span style='color:red; font-size: 70px;'>错误! </span>","null","","","","","","","","","","","","","","","","","","","","","","","feedback_test",""
"","","","","","psychophysics","133","1302047","0.0-10.2-0.2-0.33","6757","","d","","","","","","","","","","","","","key","d","16.66580215053763","768","428","d","true","img/H_28.png","生人","freeprac_friend","",""
"","","","","","html-keyboard-response","134","1302359","0.0-10.2-0.2-1.33","null","<span style='color:GreenYellow; font-size: 70px;'>正确! </span>","null","","","","","","","","","","","","","","","","","","","","","","","feedback_test",""
"","","","","","psychophysics","135","1306230","0.0-10.2-0.2-0.34","2869","","d","","","","","","","","","","","","","key","d","16.66610822510841","768","428","d","true","img/C_28.png","自我","freeprac_friend","",""
"","","","","","html-keyboard-response","136","1306545","0.0-10.2-0.2-1.34","null","<span style='color:GreenYellow; font-size: 70px;'>正确! </span>","null","","","","","","","","","","","","","","","","","","","","","","","feedback_test",""
"","","","","","psychophysics","137","1309666","0.0-10.2-0.2-0.35","2116","","k","","","","","","","","","","","","","key","k","16.666317204301375","768","428","f","false","img/H_28.png","朋友","freeprac_friend","",""
"","","","","","html-keyboard-response","138","1309982","0.0-10.2-0.2-1.35","null","<span style='color:red; font-size: 70px;'>错误! </span>","null","","","","","","","","","","","","","","","","","","","","","","","feedback_test",""
"","","","","","html-keyboard-response","139","1315795","0.0-10.2-1.2-0.2","5811","<style>.context{color:white; font-size: 35px; line-height:40px}</style>                              <div><p class='context'>您正确回答了50% 的试次。</p><p class='context'>您的平均反应时为4851毫秒。</p>"," ","","","","","","","","","","","","","","","","","","","","","","","",""
"","","","","","instructions","140","1434362","0.0-10.2-1.2-1.2","118564","","","","","","","","","","","","","","[{""page_index"":0,""viewing_time"":2022},{""page_index"":1,""viewing_time"":107963},{""page_index"":2,""viewing_time"":8578}]","","","","","","","","","","","",""
"","","","","","psychophysics","141","1439981","0.0-10.3-0.3-0.36","4615","","d","","","","","","","","","","","","","key","d","16.666288690476602","742","366.8","d","true","img/C_28.png","自我","freeprac_friend","",""
"","","","","","html-keyboard-response","142","1440289","0.0-10.3-0.3-1.36","null","<span style='color:GreenYellow; font-size: 70px;'>正确! </span>","null","","","","","","","","","","","","","","","","","","","","","","","feedback_test",""
"","","","","","psychophysics","143","1449180","0.0-10.3-0.3-0.37","7880","","j","","","","","","","","","","","","","key","j","16.665930451128084","742","366.8","f","false","img/C_28.png","生人","freeprac_friend","",""
"","","","","","html-keyboard-response","144","1449483","0.0-10.3-0.3-1.37","null","<span style='color:red; font-size: 70px;'>错误! </span>","null","","","","","","","","","","","","","","","","","","","","","","","feedback_test",""
"","","","","","psychophysics","145","1454456","0.0-10.3-0.3-0.38","3967","","d","","","","","","","","","","","","","key","d","16.66657912457967","742","366.8","k","false","img/S_28.png","朋友","freeprac_friend","",""
"","","","","","html-keyboard-response","146","1454771","0.0-10.3-0.3-1.38","null","<span style='color:red; font-size: 70px;'>错误! </span>","null","","","","","","","","","","","","","","","","","","","","","","","feedback_test",""
"","","","","","psychophysics","147","1458750","0.0-10.3-0.3-0.39","2973","","f","","","","","","","","","","","","","key","f","16.6660420168064","742","366.8","d","false","img/H_28.png","生人","freeprac_friend","",""
"","","","","","html-keyboard-response","148","1459057","0.0-10.3-0.3-1.39","null","<span style='color:red; font-size: 70px;'>错误! </span>","null","","","","","","","","","","","","","","","","","","","","","","","feedback_test",""
"","","","","","psychophysics","149","1465240","0.0-10.3-0.3-0.40","5175","","j","","","","","","","","","","","","","key","j","16.665943243243177","742","366.8","f","false","img/C_28.png","朋友","freeprac_friend","",""
"","","","","","html-keyboard-response","150","1465551","0.0-10.3-0.3-1.40","null","<span style='color:red; font-size: 70px;'>错误! </span>","null","","","","","","","","","","","","","","","","","","","","","","","feedback_test",""
"","","","","","psychophysics","151","1472273","0.0-10.3-0.3-0.41","5709","","j","","","","","","","","","","","","","key","j","16.6659154228858","742","366.8","f","false","img/H_28.png","朋友","freeprac_friend","",""
"","","","","","html-keyboard-response","152","1472578","0.0-10.3-0.3-1.41","null","<span style='color:red; font-size: 70px;'>错误! </span>","null","","","","","","","","","","","","","","","","","","","","","","","feedback_test",""
"","","","","","psychophysics","153","1479877","0.0-10.3-0.3-0.42","6296","","f","","","","","","","","","","","","","key","f","16.665860411899114","742","366.8","j","false","img/S_28.png","生人","freeprac_friend","",""
"","","","","","html-keyboard-response","154","1480191","0.0-10.3-0.3-1.42","null","<span style='color:red; font-size: 70px;'>错误! </span>","null","","","","","","","","","","","","","","","","","","","","","","","feedback_test",""
"","","","","","psychophysics","155","1483670","0.0-10.3-0.3-0.43","2473","","d","","","","","","","","","","","","","key","d","16.66568269230797","742","366.8","d","true","img/H_28.png","生人","freeprac_friend","",""
"","","","","","html-keyboard-response","156","1483982","0.0-10.3-0.3-1.43","null","<span style='color:GreenYellow; font-size: 70px;'>正确! </span>","null","","","","","","","","","","","","","","","","","","","","","","","feedback_test",""
"","","","","","psychophysics","157","1487679","0.0-10.3-0.3-0.44","2692","","k","","","","","","","","","","","","","key","k","16.666218181818046","742","366.8","k","true","img/S_28.png","朋友","freeprac_friend","",""
"","","","","","html-keyboard-response","158","1487984","0.0-10.3-0.3-1.44","null","<span style='color:GreenYellow; font-size: 70px;'>正确! </span>","null","","","","","","","","","","","","","","","","","","","","","","","feedback_test",""
"","","","","","psychophysics","159","1491244","0.0-10.3-0.3-0.45","2258","","d","","","","","","","","","","","","","key","d","16.66592783505126","742","366.8","d","true","img/C_28.png","自我","freeprac_friend","",""
"","","","","","html-keyboard-response","160","1491557","0.0-10.3-0.3-1.45","null","<span style='color:GreenYellow; font-size: 70px;'>正确! </span>","null","","","","","","","","","","","","","","","","","","","","","","","feedback_test",""
"","","","","","psychophysics","161","1495398","0.0-10.3-0.3-0.46","2834","","f","","","","","","","","","","","","","key","f","16.668086956521375","742","366.8","f","true","img/H_28.png","自我","freeprac_friend","",""
"","","","","","html-keyboard-response","162","1495707","0.0-10.3-0.3-1.46","null","<span style='color:GreenYellow; font-size: 70px;'>正确! </span>","null","","","","","","","","","","","","","","","","","","","","","","","feedback_test",""
"","","","","","psychophysics","163","1499523","0.0-10.3-0.3-0.47","2809","","f","","","","","","","","","","","","","key","f","16.666890350877097","742","366.8","j","false","img/S_28.png","自我","freeprac_friend","",""
"","","","","","html-keyboard-response","164","1499838","0.0-10.3-0.3-1.47","null","<span style='color:red; font-size: 70px;'>错误! </span>","null","","","","","","","","","","","","","","","","","","","","","","","feedback_test",""
"","","","","","html-keyboard-response","165","1509830","0.0-10.3-1.3-0.3","9991","<style>.context{color:white; font-size: 35px; line-height:40px}</style>                              <div><p class='context'>您正确回答了42% 的试次。</p><p class='context'>您的平均反应时为2974毫秒。</p>"," ","","","","","","","","","","","","","","","","","","","","","","","",""
"","","","","","instructions","166","1689327","0.0-10.3-1.3-1.3","179496","","","","","","","","","","","","","","[{""page_index"":0,""viewing_time"":1917},{""page_index"":1,""viewing_time"":30046},{""page_index"":2,""viewing_time"":8461},{""page_index"":1,""viewing_time"":135565},{""page_index"":2,""viewing_time"":3506}]","","","","","","","","","","","",""
"","","","","","psychophysics","167","1700918","0.0-10.4-0.4-0.48","10585","","f","","","","","","","","","","","","","key","f","16.6659438040343","742","366.8","f","true","img/C_28.png","朋友","freeprac_friend","",""
"","","","","","html-keyboard-response","168","1701225","0.0-10.4-0.4-1.48","null","<span style='color:GreenYellow; font-size: 70px;'>正确! </span>","null","","","","","","","","","","","","","","","","","","","","","","","feedback_test",""
"","","","","","psychophysics","169","1706858","0.0-10.4-0.4-0.49","4620","","k","","","","","","","","","","","","","key","k","16.666314540059204","742","366.8","k","true","img/S_28.png","朋友","freeprac_friend","",""
"","","","","","html-keyboard-response","170","1707163","0.0-10.4-0.4-1.49","null","<span style='color:GreenYellow; font-size: 70px;'>正确! </span>","null","","","","","","","","","","","","","","","","","","","","","","","feedback_test",""
"","","","","","psychophysics","171","1710832","0.0-10.4-0.4-0.50","2665","","d","","","","","","","","","","","","","key","d","16.666036529680202","742","366.8","d","true","img/H_28.png","生人","freeprac_friend","",""
"","","","","","html-keyboard-response","172","1711147","0.0-10.4-0.4-1.50","null","<span style='color:GreenYellow; font-size: 70px;'>正确! </span>","null","","","","","","","","","","","","","","","","","","","","","","","feedback_test",""
"","","","","","psychophysics","173","1713327","0.0-10.4-0.4-0.51","1172","","d","","","","","","","","","","","","","key","d","16.66636153846227","742","366.8","d","true","img/H_28.png","生人","freeprac_friend","",""
"","","","","","html-keyboard-response","174","1713628","0.0-10.4-0.4-1.51","null","<span style='color:GreenYellow; font-size: 70px;'>正确! </span>","null","","","","","","","","","","","","","","","","","","","","","","","feedback_test",""
"","","","","","psychophysics","175","1718309","0.0-10.4-0.4-0.52","3672","","f","","","","","","","","","","","","","key","f","16.666096428571368","742","366.8","j","false","img/S_28.png","自我","freeprac_friend","",""
"","","","","","html-keyboard-response","176","1718617","0.0-10.4-0.4-1.52","null","<span style='color:red; font-size: 70px;'>错误! </span>","null","","","","","","","","","","","","","","","","","","","","","","","feedback_test",""
"","","","","","psychophysics","177","1724479","0.0-10.4-0.4-0.53","4858","","k","","","","","","","","","","","","","key","k","16.666125356125516","742","366.8","k","true","img/S_28.png","朋友","freeprac_friend","",""
"","","","","","html-keyboard-response","178","1724786","0.0-10.4-0.4-1.53","null","<span style='color:GreenYellow; font-size: 70px;'>正确! </span>","null","","","","","","","","","","","","","","","","","","","","","","","feedback_test",""
"","","","","","psychophysics","179","1727897","0.0-10.4-0.4-0.54","2110","","d","","","","","","","","","","","","","key","d","16.664751351351622","742","366.8","d","true","img/C_28.png","自我","freeprac_friend","",""
"","","","","","html-keyboard-response","180","1728201","0.0-10.4-0.4-1.54","null","<span style='color:GreenYellow; font-size: 70px;'>正确! </span>","null","","","","","","","","","","","","","","","","","","","","","","","feedback_test",""
"","","","","","psychophysics","181","1732906","0.0-10.4-0.4-0.55","3702","","d","","","","","","","","","","","","","key","d","16.66604255319157","742","366.8","d","true","img/C_28.png","自我","freeprac_friend","",""
"","","","","","html-keyboard-response","182","1733219","0.0-10.4-0.4-1.55","null","<span style='color:GreenYellow; font-size: 70px;'>正确! </span>","null","","","","","","","","","","","","","","","","","","","","","","","feedback_test",""
"","","","","","psychophysics","183","1742148","0.0-10.4-0.4-0.56","7929","","f","","","","","","","","","","","","","key","f","16.664260299625624","742","366.8","f","true","img/H_28.png","朋友","freeprac_friend","",""
"","","","","","html-keyboard-response","184","1742456","0.0-10.4-0.4-1.56","null","<span style='color:GreenYellow; font-size: 70px;'>正确! </span>","null","","","","","","","","","","","","","","","","","","","","","","","feedback_test",""
"","","","","","psychophysics","185","1746986","0.0-10.4-0.4-0.57","3519","","f","","","","","","","","","","","","","key","f","16.665826568265732","742","366.8","j","false","img/S_28.png","生人","freeprac_friend","",""
"","","","","","html-keyboard-response","186","1747293","0.0-10.4-0.4-1.57","null","<span style='color:red; font-size: 70px;'>错误! </span>","null","","","","","","","","","","","","","","","","","","","","","","","feedback_test",""
"","","","","","psychophysics","187","1752457","0.0-10.4-0.4-0.58","4158","","f","","","","","","","","","","","","","key","f","16.666003236246468","742","366.8","f","true","img/H_28.png","自我","freeprac_friend","",""
"","","","","","html-keyboard-response","188","1752771","0.0-10.4-0.4-1.58","null","<span style='color:GreenYellow; font-size: 70px;'>正确! </span>","null","","","","","","","","","","","","","","","","","","","","","","","feedback_test",""
"","","","","","psychophysics","189","1756366","0.0-10.4-0.4-0.59","2581","","f","","","","","","","","","","","","","key","f","16.66577570093469","742","366.8","f","true","img/C_28.png","生人","freeprac_friend","",""
"","","","","","html-keyboard-response","190","1756682","0.0-10.4-0.4-1.59","null","<span style='color:GreenYellow; font-size: 70px;'>正确! </span>","null","","","","","","","","","","","","","","","","","","","","","","","feedback_test",""
"","","","","","html-keyboard-response","191","1779231","0.0-11.0","22548","[""<style>.context{color:white; font-size: 35px; line-height:40px}</style>                  <div><p class='context'>您正确回答了83% 的试次。</p><p class='context'>您的平均反应时为4438毫秒。</p><p class='context'>恭喜您完成这一阶段的练习。按任意键进入<span style='color: yellow;'>重点关注图形为“生人”</span>的练习。</p></div><p class='footer' style='font-size:35px; line-height:30px;'>任务要求：\n                  <p class='footer' style='font-size:35px; line-height:35px;'>对与“生人”对应的图形，如果 匹配 ，请按 <span style=\""color: lightgreen;\"">k键</span></p><p class='footer' style='font-size:35px'>如果 不匹配 ，请按<span style=\""color: lightgreen;\"">j键</p></span>\n                  <p class='footer' style='font-size:35px; line-height:35px;'>对非“生人”对应的图形，如果 匹配 ，请按 <span style=\""color: lightgreen;\"">d键</span></p><p class='footer' style='font-size:35px'>如果 不匹配 ，请按<span style=\""color: lightgreen;\"">f键</p></span>\n                  <p class='footer' style='font-size:22px; line-height:25px;'>请在实验过程中将您的<span style=\""color: lightgreen;\"">食指和中指</span>放在电脑键盘的相应键位上进行按键。</p></span>""]"," ","","","","","","","","","","","","","","","","","","","","","","","",""
"","","","","","psychophysics","192","1787129","0.0-12.0-0.0-0.0","6896","","f","","","","","","","","","","","","","key","f","16.665945031712656","742","366.8","f","true","img/C_28.png","生人","freeprac_stranger","",""
"","","","","","html-keyboard-response","193","1787444","0.0-12.0-0.0-1.0","null","<span style='color:GreenYellow; font-size: 70px;'>正确! </span>","null","","","","","","","","","","","","","","","","","","","","","","","feedback_test",""
"","","","","","psychophysics","194","1791052","0.0-12.0-0.0-0.1","2602","","k","","","","","","","","","","","","","key","k","16.665949074073946","742","366.8","k","true","img/H_28.png","生人","freeprac_stranger","",""
"","","","","","html-keyboard-response","195","1791359","0.0-12.0-0.0-1.1","null","<span style='color:GreenYellow; font-size: 70px;'>正确! </span>","null","","","","","","","","","","","","","","","","","","","","","","","feedback_test",""
"","","","","","psychophysics","196","1794942","0.0-12.0-0.0-0.2","2576","","d","","","","","","","","","","","","","key","d","16.66613084112107","742","366.8","d","true","img/S_28.png","朋友","freeprac_stranger","",""
"","","","","","html-keyboard-response","197","1795256","0.0-12.0-0.0-1.2","null","<span style='color:GreenYellow; font-size: 70px;'>正确! </span>","null","","","","","","","","","","","","","","","","","","","","","","","feedback_test",""
"","","","","","psychophysics","198","1799236","0.0-12.0-0.0-0.3","2969","","k","","","","","","","","","","","","","key","k","16.666588235294306","742","366.8","k","true","img/H_28.png","生人","freeprac_stranger","",""
"","","","","","html-keyboard-response","199","1799543","0.0-12.0-0.0-1.3","null","<span style='color:GreenYellow; font-size: 70px;'>正确! </span>","null","","","","","","","","","","","","","","","","","","","","","","","feedback_test",""
"","","","","","psychophysics","200","1802401","0.0-12.0-0.0-0.4","1854","","d","","","","","","","","","","","","","key","d","16.666274853800942","742","366.8","d","true","img/S_28.png","朋友","freeprac_stranger","",""
"","","","","","html-keyboard-response","201","1802705","0.0-12.0-0.0-1.4","null","<span style='color:GreenYellow; font-size: 70px;'>正确! </span>","null","","","","","","","","","","","","","","","","","","","","","","","feedback_test",""
"","","","","","psychophysics","202","1806768","0.0-12.0-0.0-0.5","3051","","k","","","","","","","","","","","","","key","k","16.665950617283475","742","366.8","j","false","img/H_28.png","自我","freeprac_stranger","",""
"","","","","","html-keyboard-response","203","1807083","0.0-12.0-0.0-1.5","null","<span style='color:red; font-size: 70px;'>错误! </span>","null","","","","","","","","","","","","","","","","","","","","","","","feedback_test",""
"","","","","","psychophysics","204","1812056","0.0-12.0-0.0-0.6","3972","","f","","","","","","","","","","","","","key","f","16.666094276094526","742","366.8","f","true","img/C_28.png","朋友","freeprac_stranger","",""
"","","","","","html-keyboard-response","205","1812364","0.0-12.0-0.0-1.6","null","<span style='color:GreenYellow; font-size: 70px;'>正确! </span>","null","","","","","","","","","","","","","","","","","","","","","","","feedback_test",""
"","","","","","psychophysics","206","1816165","0.0-12.0-0.0-0.7","2798","","d","","","","","","","","","","","","","key","d","16.665903083700073","742","366.8","d","true","img/C_28.png","自我","freeprac_stranger","",""
"","","","","","html-keyboard-response","207","1816479","0.0-12.0-0.0-1.7","null","<span style='color:GreenYellow; font-size: 70px;'>正确! </span>","null","","","","","","","","","","","","","","","","","","","","","","","feedback_test",""
"","","","","","psychophysics","208","1820461","0.0-12.0-0.0-0.8","2978","","f","","","","","","","","","","","","","key","f","16.666100840335673","742","366.8","f","true","img/S_28.png","自我","freeprac_stranger","",""
"","","","","","html-keyboard-response","209","1820776","0.0-12.0-0.0-1.8","null","<span style='color:GreenYellow; font-size: 70px;'>正确! </span>","null","","","","","","","","","","","","","","","","","","","","","","","feedback_test",""
"","","","","","psychophysics","210","1824971","0.0-12.0-0.0-0.9","3192","","f","","","","","","","","","","","","","key","f","16.666095617529656","742","366.8","j","false","img/H_28.png","朋友","freeprac_stranger","",""
"","","","","","html-keyboard-response","211","1825286","0.0-12.0-0.0-1.9","null","<span style='color:red; font-size: 70px;'>错误! </span>","null","","","","","","","","","","","","","","","","","","","","","","","feedback_test",""
"","","","","","psychophysics","212","1832130","0.0-12.0-0.0-0.10","5831","","f","","","","","","","","","","","","","key","f","16.66606845965775","742","366.8","d","false","img/C_28.png","自我","freeprac_stranger","",""
"","","","","","html-keyboard-response","213","1832441","0.0-12.0-0.0-1.10","null","<span style='color:red; font-size: 70px;'>错误! </span>","null","","","","","","","","","","","","","","","","","","","","","","","feedback_test",""
"","","","","","psychophysics","214","1838075","0.0-12.0-0.0-0.11","4631","","f","","","","","","","","","","","","","key","f","16.66610682492548","742","366.8","f","true","img/S_28.png","生人","freeprac_stranger","",""
"","","","","","html-keyboard-response","215","1838387","0.0-12.0-0.0-1.11","null","<span style='color:GreenYellow; font-size: 70px;'>正确! </span>","null","","","","","","","","","","","","","","","","","","","","","","","feedback_test",""
"","","","","","instructions","216","1904242","0.0-13.0","65853","","","","","","","","","","","","","","[{""page_index"":0,""viewing_time"":65853}]","","","","","","","","","","","",""
"","","","","","psychophysics","217","1906746","0.0-14.0-0.0-0.0","null","","null","","","","","","","","","","","","","key","null","16.66630405405335","742","366.8","j","false","img/C_28.png","朋友","prac_self","","自我"
"","","","","","html-keyboard-response","218","1907062","0.0-14.0-0.0-1.0","null","<span class='add_' style='color:yellow; font-size: 70px;'> 太慢! </span>","null","","","","","","","","","","","","","","","","","","","","","","","feedback_test",""
"","","","","","psychophysics","219","1909380","0.0-14.0-0.0-0.1","1317","","d","","","","","","","","","","","","","key","d","16.664811594204206","742","366.8","d","true","img/H_28.png","生人","prac_self","","生人"
"","","","","","html-keyboard-response","220","1909695","0.0-14.0-0.0-1.1","null","<span style='color:GreenYellow; font-size: 70px;'>正确! </span>","null","","","","","","","","","","","","","","","","","","","","","","","feedback_test",""
"","","","","","psychophysics","221","1911976","0.0-14.0-0.0-0.2","1281","","f","","","","","","","","","","","","","key","f","16.665318518518298","742","366.8","j","false","img/C_28.png","生人","prac_self","","自我"
"","","","","","html-keyboard-response","222","1912283","0.0-14.0-0.0-1.2","null","<span style='color:red; font-size: 70px;'>错误! </span>","null","","","","","","","","","","","","","","","","","","","","","","","feedback_test",""
"","","","","","psychophysics","223","1914790","0.0-14.0-0.0-0.3","null","","null","","","","","","","","","","","","","key","null","16.66608053691304","742","366.8","f","false","img/S_28.png","自我","prac_self","","朋友"
"","","","","","html-keyboard-response","224","1915103","0.0-14.0-0.0-1.3","null","<span class='add_' style='color:yellow; font-size: 70px;'> 太慢! </span>","null","","","","","","","","","","","","","","","","","","","","","","","feedback_test",""
"","","","","","psychophysics","225","1917515","0.0-14.0-0.0-0.4","1406","","j","","","","","","","","","","","","","key","j","16.665451388888567","742","366.8","f","false","img/H_28.png","朋友","prac_self","","生人"
"","","","","","html-keyboard-response","226","1917827","0.0-14.0-0.0-1.4","null","<span style='color:red; font-size: 70px;'>错误! </span>","null","","","","","","","","","","","","","","","","","","","","","","","feedback_test",""
"","","","","","psychophysics","227","1920140","0.0-14.0-0.0-0.5","1311","","f","","","","","","","","","","","","","key","f","16.665753623188905","742","366.8","d","false","img/H_28.png","生人","prac_self","","生人"
"","","","","","html-keyboard-response","228","1920443","0.0-14.0-0.0-1.5","null","<span style='color:red; font-size: 70px;'>错误! </span>","null","","","","","","","","","","","","","","","","","","","","","","","feedback_test",""
"","","","","","psychophysics","229","1922857","0.0-14.0-0.0-0.6","1412","","f","","","","","","","","","","","","","key","f","16.665361111110542","742","366.8","f","true","img/H_28.png","自我","prac_self","","生人"
"","","","","","html-keyboard-response","230","1923167","0.0-14.0-0.0-1.6","null","<span style='color:GreenYellow; font-size: 70px;'>正确! </span>","null","","","","","","","","","","","","","","","","","","","","","","","feedback_test",""
"","","","","","psychophysics","231","1925506","0.0-14.0-0.0-0.7","1327","","d","","","","","","","","","","","","","key","d","16.66597841726616","742","366.8","d","true","img/S_28.png","朋友","prac_self","","朋友"
"","","","","","html-keyboard-response","232","1925817","0.0-14.0-0.0-1.7","null","<span style='color:GreenYellow; font-size: 70px;'>正确! </span>","null","","","","","","","","","","","","","","","","","","","","","","","feedback_test",""
"","","","","","psychophysics","233","1927613","0.0-14.0-0.0-0.8","794","","k","","","","","","","","","","","","","key","k","16.67202803738215","742","366.8","k","true","img/C_28.png","自我","prac_self","","自我"
"","","","","","html-keyboard-response","234","1927926","0.0-14.0-0.0-1.8","null","<span style='color:GreenYellow; font-size: 70px;'>正确! </span>","null","","","","","","","","","","","","","","","","","","","","","","","feedback_test",""
"","","","","","psychophysics","235","1930040","0.0-14.0-0.0-0.9","1112","","d","","","","","","","","","","","","","key","d","16.666841269842173","742","366.8","d","true","img/S_28.png","朋友","prac_self","","朋友"
"","","","","","html-keyboard-response","236","1930347","0.0-14.0-0.0-1.9","null","<span style='color:GreenYellow; font-size: 70px;'>正确! </span>","null","","","","","","","","","","","","","","","","","","","","","","","feedback_test",""
"","","","","","psychophysics","237","1932226","0.0-14.0-0.0-0.10","877","","k","","","","","","","","","","","","","key","k","16.666189189190632","742","366.8","k","true","img/C_28.png","自我","prac_self","","自我"
"","","","","","html-keyboard-response","238","1932533","0.0-14.0-0.0-1.10","null","<span style='color:GreenYellow; font-size: 70px;'>正确! </span>","null","","","","","","","","","","","","","","","","","","","","","","","feedback_test",""
"","","","","","psychophysics","239","1934674","0.0-14.0-0.0-0.11","1136","","f","","","","","","","","","","","","","key","f","16.66663779527697","742","366.8","f","true","img/S_28.png","生人","prac_self","","朋友"
"","","","","","html-keyboard-response","240","1934988","0.0-14.0-0.0-1.11","null","<span style='color:GreenYellow; font-size: 70px;'>正确! </span>","null","","","","","","","","","","","","","","","","","","","","","","","feedback_test",""
"","","","","","psychophysics","241","1937216","0.0-14.0-0.0-0.12","1221","","f","","","","","","","","","","","","","key","f","16.665526315790455","742","366.8","f","true","img/S_28.png","自我","prac_self","","朋友"
"","","","","","html-keyboard-response","242","1937530","0.0-14.0-0.0-1.12","null","<span style='color:GreenYellow; font-size: 70px;'>正确! </span>","null","","","","","","","","","","","","","","","","","","","","","","","feedback_test",""
"","","","","","psychophysics","243","1939898","0.0-14.0-0.0-0.13","1354","","d","","","","","","","","","","","","","key","d","16.66592907801383","742","366.8","d","true","img/S_28.png","朋友","prac_self","","朋友"
"","","","","","html-keyboard-response","244","1940211","0.0-14.0-0.0-1.13","null","<span style='color:GreenYellow; font-size: 70px;'>正确! </span>","null","","","","","","","","","","","","","","","","","","","","","","","feedback_test",""
"","","","","","psychophysics","245","1942505","0.0-14.0-0.0-0.14","1292","","d","","","","","","","","","","","","","key","d","16.665786764706034","742","366.8","f","false","img/H_28.png","自我","prac_self","","生人"
"","","","","","html-keyboard-response","246","1942809","0.0-14.0-0.0-1.14","null","<span style='color:red; font-size: 70px;'>错误! </span>","null","","","","","","","","","","","","","","","","","","","","","","","feedback_test",""
"","","","","","psychophysics","247","1944965","0.0-14.0-0.0-0.15","1154","","d","","","","","","","","","","","","","key","d","16.654828124999767","742","366.8","d","true","img/H_28.png","生人","prac_self","","生人"
"","","","","","html-keyboard-response","248","1945279","0.0-14.0-0.0-1.15","null","<span style='color:GreenYellow; font-size: 70px;'>正确! </span>","null","","","","","","","","","","","","","","","","","","","","","","","feedback_test",""
"","","","","","psychophysics","249","1947612","0.0-14.0-0.0-0.16","1326","","f","","","","","","","","","","","","","key","f","16.66741726618669","742","366.8","j","false","img/C_28.png","朋友","prac_self","","自我"
"","","","","","html-keyboard-response","250","1947922","0.0-14.0-0.0-1.16","null","<span style='color:red; font-size: 70px;'>错误! </span>","null","","","","","","","","","","","","","","","","","","","","","","","feedback_test",""
"","","","","","psychophysics","251","1950427","0.0-14.0-0.0-0.17","null","","null","","","","","","","","","","","","","key","null","16.666046979865246","742","366.8","f","false","img/H_28.png","朋友","prac_self","","生人"
"","","","","","html-keyboard-response","252","1950730","0.0-14.0-0.0-1.17","null","<span class='add_' style='color:yellow; font-size: 70px;'> 太慢! </span>","null","","","","","","","","","","","","","","","","","","","","","","","feedback_test",""
"","","","","","psychophysics","253","1952738","0.0-14.0-0.0-0.18","994","","k","","","","","","","","","","","","","key","k","16.665638655463248","742","366.8","k","true","img/C_28.png","自我","prac_self","","自我"
"","","","","","html-keyboard-response","254","1953054","0.0-14.0-0.0-1.18","null","<span style='color:GreenYellow; font-size: 70px;'>正确! </span>","null","","","","","","","","","","","","","","","","","","","","","","","feedback_test",""
"","","","","","psychophysics","255","1954901","0.0-14.0-0.0-0.19","841","","k","","","","","","","","","","","","","key","k","16.66746363636445","742","366.8","k","true","img/C_28.png","自我","prac_self","","自我"
"","","","","","html-keyboard-response","256","1955206","0.0-14.0-0.0-1.19","null","<span style='color:GreenYellow; font-size: 70px;'>正确! </span>","null","","","","","","","","","","","","","","","","","","","","","","","feedback_test",""
"","","","","","psychophysics","257","1957153","0.0-14.0-0.0-0.20","943","","d","","","","","","","","","","","","","key","d","16.665948275862068","742","366.8","d","true","img/S_28.png","朋友","prac_self","","朋友"
"","","","","","html-keyboard-response","258","1957465","0.0-14.0-0.0-1.20","null","<span style='color:GreenYellow; font-size: 70px;'>正确! </span>","null","","","","","","","","","","","","","","","","","","","","","","","feedback_test",""
"","","","","","psychophysics","259","1959667","0.0-14.0-0.0-0.21","1191","","f","","","","","","","","","","","","","key","f","16.664961832060072","742","366.8","j","false","img/C_28.png","生人","prac_self","","自我"
"","","","","","html-keyboard-response","260","1959976","0.0-14.0-0.0-1.21","null","<span style='color:red; font-size: 70px;'>错误! </span>","null","","","","","","","","","","","","","","","","","","","","","","","feedback_test",""
"","","","","","psychophysics","261","1962331","0.0-14.0-0.0-0.22","1354","","f","","","","","","","","","","","","","key","f","16.66564285714246","742","366.8","f","true","img/S_28.png","生人","prac_self","","朋友"
"","","","","","html-keyboard-response","262","1962645","0.0-14.0-0.0-1.22","null","<span style='color:GreenYellow; font-size: 70px;'>正确! </span>","null","","","","","","","","","","","","","","","","","","","","","","","feedback_test",""
"","","","","","psychophysics","263","1964631","0.0-14.0-0.0-0.23","970","","d","","","","","","","","","","","","","key","d","16.66588983050808","742","366.8","d","true","img/H_28.png","生人","prac_self","","生人"
"","","","","","html-keyboard-response","264","1964935","0.0-14.0-0.0-1.23","null","<span style='color:GreenYellow; font-size: 70px;'>正确! </span>","null","","","","","","","","","","","","","","","","","","","","","","","feedback_test",""
"","","","","","html-keyboard-response","265","1969483","0.0-14.0-1.0-0.0","4545","<style>.context{color:white; font-size: 35px; line-height:40px}</style>                              <div><p class='context'>您正确回答了63% 的试次。</p><p class='context'>您的平均反应时为1120毫秒。</p>"," ","","","","","","","","","","","","","","","","","","","","","","","",""
"","","","","","instructions","266","1985018","0.0-14.0-1.0-1.0","15533","","","","","","","","","","","","","","[{""page_index"":0,""viewing_time"":2614},{""page_index"":1,""viewing_time"":8312},{""page_index"":2,""viewing_time"":4606}]","","","","","","","","","","","",""
"","","","","","psychophysics","267","1987323","0.0-14.1-0.1-0.24","1298","","k","","","","","","","","","","","","","key","k","16.666401459854164","742","366.8","k","true","img/C_28.png","自我","prac_self","","自我"
"","","","","","html-keyboard-response","268","1987638","0.0-14.1-0.1-1.24","null","<span style='color:GreenYellow; font-size: 70px;'>正确! </span>","null","","","","","","","","","","","","","","","","","","","","","","","feedback_test",""
"","","","","","psychophysics","269","1990002","0.0-14.1-0.1-0.25","1361","","j","","","","","","","","","","","","","key","j","16.666624113474807","742","366.8","j","true","img/C_28.png","生人","prac_self","","自我"
"","","","","","html-keyboard-response","270","1990310","0.0-14.1-0.1-1.25","null","<span style='color:GreenYellow; font-size: 70px;'>正确! </span>","null","","","","","","","","","","","","","","","","","","","","","","","feedback_test",""
"","","","","","psychophysics","271","1992591","0.0-14.1-0.1-0.26","1266","","f","","","","","","","","","","","","","key","f","16.665814814814883","742","366.8","d","false","img/H_28.png","生人","prac_self","","生人"
"","","","","","html-keyboard-response","272","1992907","0.0-14.1-0.1-1.26","null","<span style='color:red; font-size: 70px;'>错误! </span>","null","","","","","","","","","","","","","","","","","","","","","","","feedback_test",""
"","","","","","psychophysics","273","1995283","0.0-14.1-0.1-0.27","1375","","k","","","","","","","","","","","","","key","k","16.66081560283721","742","366.8","k","true","img/C_28.png","自我","prac_self","","自我"
"","","","","","html-keyboard-response","274","1995590","0.0-14.1-0.1-1.27","null","<span style='color:GreenYellow; font-size: 70px;'>正确! </span>","null","","","","","","","","","","","","","","","","","","","","","","","feedback_test",""
"","","","","","psychophysics","275","1997702","0.0-14.1-0.1-0.28","1110","","f","","","","","","","","","","","","","key","f","16.65968799999915","742","366.8","f","true","img/S_28.png","生人","prac_self","","朋友"
"","","","","","html-keyboard-response","276","1998009","0.0-14.1-0.1-1.28","null","<span style='color:GreenYellow; font-size: 70px;'>正确! </span>","null","","","","","","","","","","","","","","","","","","","","","","","feedback_test",""
"","","","","","psychophysics","277","1999803","0.0-14.1-0.1-0.29","780","","d","","","","","","","","","","","","","key","d","16.6660094339629","742","366.8","d","true","img/S_28.png","朋友","prac_self","","朋友"
"","","","","","html-keyboard-response","278","2000114","0.0-14.1-0.1-1.29","null","<span style='color:GreenYellow; font-size: 70px;'>正确! </span>","null","","","","","","","","","","","","","","","","","","","","","","","feedback_test",""
"","","","","","psychophysics","279","2002088","0.0-14.1-0.1-0.30","963","","f","","","","","","","","","","","","","key","f","16.665418803419232","742","366.8","f","true","img/S_28.png","自我","prac_self","","朋友"
"","","","","","html-keyboard-response","280","2002401","0.0-14.1-0.1-1.30","null","<span style='color:GreenYellow; font-size: 70px;'>正确! </span>","null","","","","","","","","","","","","","","","","","","","","","","","feedback_test",""
"","","","","","psychophysics","281","2004613","0.0-14.1-0.1-0.31","1205","","f","","","","","","","","","","","","","key","f","16.666318181819268","742","366.8","f","true","img/H_28.png","朋友","prac_self","","生人"
"","","","","","html-keyboard-response","282","2004928","0.0-14.1-0.1-1.31","null","<span style='color:GreenYellow; font-size: 70px;'>正确! </span>","null","","","","","","","","","","","","","","","","","","","","","","","feedback_test",""
"","","","","","psychophysics","283","2006744","0.0-14.1-0.1-0.32","805","","d","","","","","","","","","","","","","key","d","16.666962962964103","742","366.8","d","true","img/S_28.png","朋友","prac_self","","朋友"
"","","","","","html-keyboard-response","284","2007047","0.0-14.1-0.1-1.32","null","<span style='color:GreenYellow; font-size: 70px;'>正确! </span>","null","","","","","","","","","","","","","","","","","","","","","","","feedback_test",""
"","","","","","psychophysics","285","2009102","0.0-14.1-0.1-0.33","1045","","j","","","","","","","","","","","","","key","j","16.665754098361205","742","366.8","j","true","img/C_28.png","朋友","prac_self","","自我"
"","","","","","html-keyboard-response","286","2009410","0.0-14.1-0.1-1.33","null","<span style='color:GreenYellow; font-size: 70px;'>正确! </span>","null","","","","","","","","","","","","","","","","","","","","","","","feedback_test",""
"","","","","","psychophysics","287","2011489","0.0-14.1-0.1-0.34","1070","","d","","","","","","","","","","","","","key","d","16.6645365853669","742","366.8","f","false","img/H_28.png","自我","prac_self","","生人"
"","","","","","html-keyboard-response","288","2011792","0.0-14.1-0.1-1.34","null","<span style='color:red; font-size: 70px;'>错误! </span>","null","","","","","","","","","","","","","","","","","","","","","","","feedback_test",""
"","","","","","psychophysics","289","2013764","0.0-14.1-0.1-0.35","959","","d","","","","","","","","","","","","","key","d","16.66547008547096","742","366.8","d","true","img/H_28.png","生人","prac_self","","生人"
"","","","","","html-keyboard-response","290","2014073","0.0-14.1-0.1-1.35","null","<span style='color:GreenYellow; font-size: 70px;'>正确! </span>","null","","","","","","","","","","","","","","","","","","","","","","","feedback_test",""
"","","","","","psychophysics","291","2016582","0.0-14.1-0.1-0.36","null","","null","","","","","","","","","","","","","key","null","16.664993288590818","742","366.8","d","false","img/H_28.png","生人","prac_self","","生人"
"","","","","","html-keyboard-response","292","2016893","0.0-14.1-0.1-1.36","null","<span class='add_' style='color:yellow; font-size: 70px;'> 太慢! </span>","null","","","","","","","","","","","","","","","","","","","","","","","feedback_test",""
"","","","","","psychophysics","293","2019108","0.0-14.1-0.1-0.37","1202","","d","","","","","","","","","","","","","key","d","16.66627272727342","742","366.8","j","false","img/C_28.png","生人","prac_self","","自我"
"","","","","","html-keyboard-response","294","2019418","0.0-14.1-0.1-1.37","null","<span style='color:red; font-size: 70px;'>错误! </span>","null","","","","","","","","","","","","","","","","","","","","","","","feedback_test",""
"","","","","","psychophysics","295","2021925","0.0-14.1-0.1-0.38","null","","null","","","","","","","","","","","","","key","null","16.665892617450403","742","366.8","d","false","img/S_28.png","朋友","prac_self","","朋友"
"","","","","","html-keyboard-response","296","2022239","0.0-14.1-0.1-1.38","null","<span class='add_' style='color:yellow; font-size: 70px;'> 太慢! </span>","null","","","","","","","","","","","","","","","","","","","","","","","feedback_test",""
"","","","","","psychophysics","297","2024197","0.0-14.1-0.1-0.39","957","","d","","","","","","","","","","","","","key","d","16.660198275862935","742","366.8","f","false","img/H_28.png","自我","prac_self","","生人"
"","","","","","html-keyboard-response","298","2024503","0.0-14.1-0.1-1.39","null","<span style='color:red; font-size: 70px;'>错误! </span>","null","","","","","","","","","","","","","","","","","","","","","","","feedback_test",""
"","","","","","psychophysics","299","2026621","0.0-14.1-0.1-0.40","1114","","d","","","","","","","","","","","","","key","d","16.66569047619123","742","366.8","d","true","img/S_28.png","朋友","prac_self","","朋友"
"","","","","","html-keyboard-response","300","2026928","0.0-14.1-0.1-1.40","null","<span style='color:GreenYellow; font-size: 70px;'>正确! </span>","null","","","","","","","","","","","","","","","","","","","","","","","feedback_test",""
"","","","","","psychophysics","301","2028952","0.0-14.1-0.1-0.41","1012","","f","","","","","","","","","","","","","key","f","16.66551666666637","742","366.8","f","true","img/H_28.png","朋友","prac_self","","生人"
"","","","","","html-keyboard-response","302","2029255","0.0-14.1-0.1-1.41","null","<span style='color:GreenYellow; font-size: 70px;'>正确! </span>","null","","","","","","","","","","","","","","","","","","","","","","","feedback_test",""
"","","","","","psychophysics","303","2031321","0.0-14.1-0.1-0.42","1065","","f","","","","","","","","","","","","","key","f","16.665861788616567","742","366.8","d","false","img/H_28.png","生人","prac_self","","生人"
"","","","","","html-keyboard-response","304","2031626","0.0-14.1-0.1-1.42","null","<span style='color:red; font-size: 70px;'>错误! </span>","null","","","","","","","","","","","","","","","","","","","","","","","feedback_test",""
"","","","","","psychophysics","305","2033891","0.0-14.1-0.1-0.43","1251","","f","","","","","","","","","","","","","key","f","16.668399999999544","742","366.8","f","true","img/S_28.png","生人","prac_self","","朋友"
"","","","","","html-keyboard-response","306","2034202","0.0-14.1-0.1-1.43","null","<span style='color:GreenYellow; font-size: 70px;'>正确! </span>","null","","","","","","","","","","","","","","","","","","","","","","","feedback_test",""
"","","","","","psychophysics","307","2036129","0.0-14.1-0.1-0.44","923","","k","","","","","","","","","","","","","key","k","16.665295652174592","742","366.8","k","true","img/C_28.png","自我","prac_self","","自我"
"","","","","","html-keyboard-response","308","2036443","0.0-14.1-0.1-1.44","null","<span style='color:GreenYellow; font-size: 70px;'>正确! </span>","null","","","","","","","","","","","","","","","","","","","","","","","feedback_test",""
"","","","","","psychophysics","309","2038101","0.0-14.1-0.1-0.45","646","","k","","","","","","","","","","","","","key","k","16.665530612245583","742","366.8","k","true","img/C_28.png","自我","prac_self","","自我"
"","","","","","html-keyboard-response","310","2038407","0.0-14.1-0.1-1.45","null","<span style='color:GreenYellow; font-size: 70px;'>正确! </span>","null","","","","","","","","","","","","","","","","","","","","","","","feedback_test",""
"","","","","","psychophysics","311","2040880","0.0-14.1-0.1-0.46","1461","","f","","","","","","","","","","","","","key","f","16.667020408164227","742","366.8","j","false","img/C_28.png","朋友","prac_self","","自我"
"","","","","","html-keyboard-response","312","2041185","0.0-14.1-0.1-1.46","null","<span style='color:red; font-size: 70px;'>错误! </span>","null","","","","","","","","","","","","","","","","","","","","","","","feedback_test",""
"","","","","","psychophysics","313","2043342","0.0-14.1-0.1-0.47","1153","","f","","","","","","","","","","","","","key","f","16.666124031007246","742","366.8","f","true","img/S_28.png","自我","prac_self","","朋友"
"","","","","","html-keyboard-response","314","2043652","0.0-14.1-0.1-1.47","null","<span style='color:GreenYellow; font-size: 70px;'>正确! </span>","null","","","","","","","","","","","","","","","","","","","","","","","feedback_test",""
"","","","","","html-keyboard-response","315","2045454","0.0-14.1-1.1-0.1","1800","<style>.context{color:white; font-size: 35px; line-height:40px}</style>                              <div><p class='context'>您正确回答了67% 的试次。</p><p class='context'>您的平均反应时为1063毫秒。</p>"," ","","","","","","","","","","","","","","","","","","","","","","","",""
"","","","","","instructions","316","2052537","0.0-14.1-1.1-1.1","7081","","","","","","","","","","","","","","[{""page_index"":0,""viewing_time"":1763},{""page_index"":1,""viewing_time"":3045},{""page_index"":2,""viewing_time"":2273}]","","","","","","","","","","","",""
"","","","","","psychophysics","317","2054132","0.0-14.2-0.2-0.48","593","","k","","","","","","","","","","","","","key","k","16.66621052631373","742","366.8","j","false","img/C_28.png","朋友","prac_self","","自我"
"","","","","","html-keyboard-response","318","2054434","0.0-14.2-0.2-1.48","null","<span style='color:red; font-size: 70px;'>错误! </span>","null","","","","","","","","","","","","","","","","","","","","","","","feedback_test",""
"","","","","","psychophysics","319","2056514","0.0-14.2-0.2-0.49","1074","","f","","","","","","","","","","","","","key","f","16.666693548386498","742","366.8","f","true","img/H_28.png","朋友","prac_self","","生人"
"","","","","","html-keyboard-response","320","2056823","0.0-14.2-0.2-1.49","null","<span style='color:GreenYellow; font-size: 70px;'>正确! </span>","null","","","","","","","","","","","","","","","","","","","","","","","feedback_test",""
"","","","","","psychophysics","321","2058636","0.0-14.2-0.2-0.50","801","","d","","","","","","","","","","","","","key","d","16.666747663550897","742","366.8","d","true","img/S_28.png","朋友","prac_self","","朋友"
"","","","","","html-keyboard-response","322","2058946","0.0-14.2-0.2-1.50","null","<span style='color:GreenYellow; font-size: 70px;'>正确! </span>","null","","","","","","","","","","","","","","","","","","","","","","","feedback_test",""
"","","","","","psychophysics","323","2060736","0.0-14.2-0.2-0.51","780","","k","","","","","","","","","","","","","key","k","16.666471698112733","742","366.8","k","true","img/C_28.png","自我","prac_self","","自我"
"","","","","","html-keyboard-response","324","2061038","0.0-14.2-0.2-1.51","null","<span style='color:GreenYellow; font-size: 70px;'>正确! </span>","null","","","","","","","","","","","","","","","","","","","","","","","feedback_test",""
"","","","","","psychophysics","325","2063151","0.0-14.2-0.2-0.52","1112","","d","","","","","","","","","","","","","key","d","16.65856000000052","742","366.8","d","true","img/H_28.png","生人","prac_self","","生人"
"","","","","","html-keyboard-response","326","2063457","0.0-14.2-0.2-1.52","null","<span style='color:GreenYellow; font-size: 70px;'>正确! </span>","null","","","","","","","","","","","","","","","","","","","","","","","feedback_test",""
"","","","","","psychophysics","327","2065571","0.0-14.2-0.2-0.53","1104","","f","","","","","","","","","","","","","key","f","16.66613599999994","742","366.8","f","true","img/S_28.png","自我","prac_self","","朋友"
"","","","","","html-keyboard-response","328","2065876","0.0-14.2-0.2-1.53","null","<span style='color:GreenYellow; font-size: 70px;'>正确! </span>","null","","","","","","","","","","","","","","","","","","","","","","","feedback_test",""
"","","","","","psychophysics","329","2067642","0.0-14.2-0.2-0.54","756","","d","","","","","","","","","","","","","key","d","16.66551428571388","742","366.8","f","false","img/H_28.png","自我","prac_self","","生人"
"","","","","","html-keyboard-response","330","2067945","0.0-14.2-0.2-1.54","null","<span style='color:red; font-size: 70px;'>错误! </span>","null","","","","","","","","","","","","","","","","","","","","","","","feedback_test",""
"","","","","","psychophysics","331","2069870","0.0-14.2-0.2-0.55","924","","d","","","","","","","","","","","","","key","d","16.665850877192018","742","366.8","d","true","img/H_28.png","生人","prac_self","","生人"
"","","","","","html-keyboard-response","332","2070182","0.0-14.2-0.2-1.55","null","<span style='color:GreenYellow; font-size: 70px;'>正确! </span>","null","","","","","","","","","","","","","","","","","","","","","","","feedback_test",""
"","","","","","psychophysics","333","2071950","0.0-14.2-0.2-0.56","761","","k","","","","","","","","","","","","","key","k","16.665057142857197","742","366.8","k","true","img/C_28.png","自我","prac_self","","自我"
"","","","","","html-keyboard-response","334","2072252","0.0-14.2-0.2-1.56","null","<span style='color:GreenYellow; font-size: 70px;'>正确! </span>","null","","","","","","","","","","","","","","","","","","","","","","","feedback_test",""
"","","","","","psychophysics","335","2074181","0.0-14.2-0.2-0.57","927","","f","","","","","","","","","","","","","key","f","16.66593043478206","742","366.8","j","false","img/C_28.png","生人","prac_self","","自我"
"","","","","","html-keyboard-response","336","2074488","0.0-14.2-0.2-1.57","null","<span style='color:red; font-size: 70px;'>错误! </span>","null","","","","","","","","","","","","","","","","","","","","","","","feedback_test",""
"","","","","","psychophysics","337","2076556","0.0-14.2-0.2-0.58","1067","","d","","","","","","","","","","","","","key","d","16.66644715447153","742","366.8","d","true","img/S_28.png","朋友","prac_self","","朋友"
"","","","","","html-keyboard-response","338","2076871","0.0-14.2-0.2-1.58","null","<span style='color:GreenYellow; font-size: 70px;'>正确! </span>","null","","","","","","","","","","","","","","","","","","","","","","","feedback_test",""
"","","","","","psychophysics","339","2079022","0.0-14.2-0.2-0.59","1151","","f","","","","","","","","","","","","","key","f","16.662062499999593","742","366.8","f","true","img/S_28.png","生人","prac_self","","朋友"
"","","","","","html-keyboard-response","340","2079331","0.0-14.2-0.2-1.59","null","<span style='color:GreenYellow; font-size: 70px;'>正确! </span>","null","","","","","","","","","","","","","","","","","","","","","","","feedback_test",""
"","","","","","psychophysics","341","2081489","0.0-14.2-0.2-0.60","1151","","f","","","","","","","","","","","","","key","f","16.66626356589218","742","366.8","f","true","img/H_28.png","朋友","prac_self","","生人"
"","","","","","html-keyboard-response","342","2081796","0.0-14.2-0.2-1.60","null","<span style='color:GreenYellow; font-size: 70px;'>正确! </span>","null","","","","","","","","","","","","","","","","","","","","","","","feedback_test",""
"","","","","","psychophysics","343","2083743","0.0-14.2-0.2-0.61","937","","j","","","","","","","","","","","","","key","j","16.66550862068985","742","366.8","j","true","img/C_28.png","生人","prac_self","","自我"
"","","","","","html-keyboard-response","344","2084056","0.0-14.2-0.2-1.61","null","<span style='color:GreenYellow; font-size: 70px;'>正确! </span>","null","","","","","","","","","","","","","","","","","","","","","","","feedback_test",""
"","","","","","psychophysics","345","2085868","0.0-14.2-0.2-0.62","800","","k","","","","","","","","","","","","","key","k","16.665186915888285","742","366.8","k","true","img/C_28.png","自我","prac_self","","自我"
"","","","","","html-keyboard-response","346","2086176","0.0-14.2-0.2-1.62","null","<span style='color:GreenYellow; font-size: 70px;'>正确! </span>","null","","","","","","","","","","","","","","","","","","","","","","","feedback_test",""
"","","","","","psychophysics","347","2088534","0.0-14.2-0.2-0.63","1348","","k","","","","","","","","","","","","","key","k","16.665657142857423","742","366.8","j","false","img/C_28.png","朋友","prac_self","","自我"
"","","","","","html-keyboard-response","348","2088836","0.0-14.2-0.2-1.63","null","<span style='color:red; font-size: 70px;'>错误! </span>","null","","","","","","","","","","","","","","","","","","","","","","","feedback_test",""
"","","","","","psychophysics","349","2090474","0.0-14.2-0.2-0.64","636","","k","","","","","","","","","","","","","key","k","16.66603061224676","742","366.8","k","true","img/C_28.png","自我","prac_self","","自我"
"","","","","","html-keyboard-response","350","2090787","0.0-14.2-0.2-1.64","null","<span style='color:GreenYellow; font-size: 70px;'>正确! </span>","null","","","","","","","","","","","","","","","","","","","","","","","feedback_test",""
"","","","","","psychophysics","351","2092805","0.0-14.2-0.2-0.65","1017","","d","","","","","","","","","","","","","key","d","16.655774999999753","742","366.8","d","true","img/H_28.png","生人","prac_self","","生人"
"","","","","","html-keyboard-response","352","2093112","0.0-14.2-0.2-1.65","null","<span style='color:GreenYellow; font-size: 70px;'>正确! </span>","null","","","","","","","","","","","","","","","","","","","","","","","feedback_test",""
"","","","","","psychophysics","353","2094988","0.0-14.2-0.2-0.66","867","","d","","","","","","","","","","","","","key","d","16.665392857140564","742","366.8","d","true","img/H_28.png","生人","prac_self","","生人"
"","","","","","html-keyboard-response","354","2095292","0.0-14.2-0.2-1.66","null","<span style='color:GreenYellow; font-size: 70px;'>正确! </span>","null","","","","","","","","","","","","","","","","","","","","","","","feedback_test",""
"","","","","","psychophysics","355","2097138","0.0-14.2-0.2-0.67","843","","f","","","","","","","","","","","","","key","f","16.665091743120293","742","366.8","f","true","img/S_28.png","生人","prac_self","","朋友"
"","","","","","html-keyboard-response","356","2097449","0.0-14.2-0.2-1.67","null","<span style='color:GreenYellow; font-size: 70px;'>正确! </span>","null","","","","","","","","","","","","","","","","","","","","","","","feedback_test",""
"","","","","","psychophysics","357","2099182","0.0-14.2-0.2-0.68","731","","d","","","","","","","","","","","","","key","d","16.666796116506482","742","366.8","d","true","img/S_28.png","朋友","prac_self","","朋友"
"","","","","","html-keyboard-response","358","2099487","0.0-14.2-0.2-1.68","null","<span style='color:GreenYellow; font-size: 70px;'>正确! </span>","null","","","","","","","","","","","","","","","","","","","","","","","feedback_test",""
"","","","","","psychophysics","359","2101997","0.0-14.2-0.2-0.69","null","","null","","","","","","","","","","","","","key","null","16.664657718120704","742","366.8","f","false","img/H_28.png","自我","prac_self","","生人"
"","","","","","html-keyboard-response","360","2102312","0.0-14.2-0.2-1.69","null","<span class='add_' style='color:yellow; font-size: 70px;'> 太慢! </span>","null","","","","","","","","","","","","","","","","","","","","","","","feedback_test",""
"","","","","","psychophysics","361","2104090","0.0-14.2-0.2-0.70","774","","d","","","","","","","","","","","","","key","d","16.66543396226271","742","366.8","d","true","img/S_28.png","朋友","prac_self","","朋友"
"","","","","","html-keyboard-response","362","2104399","0.0-14.2-0.2-1.70","null","<span style='color:GreenYellow; font-size: 70px;'>正确! </span>","null","","","","","","","","","","","","","","","","","","","","","","","feedback_test",""
"","","","","","psychophysics","363","2106460","0.0-14.2-0.2-0.71","1057","","f","","","","","","","","","","","","","key","f","16.666764227643124","742","366.8","f","true","img/S_28.png","自我","prac_self","","朋友"
"","","","","","html-keyboard-response","364","2106770","0.0-14.2-0.2-1.71","null","<span style='color:GreenYellow; font-size: 70px;'>正确! </span>","null","","","","","","","","","","","","","","","","","","","","","","","feedback_test",""
"","","","","","html-keyboard-response","365","2124961","0.0-15.0","18189","[""<style>.context{color:white; font-size: 35px; line-height:40px}</style>              <div><p class='context'>您正确回答了79% 的试次。</p><p class='context'>您的平均反应时为926毫秒。</p><p class='context'>恭喜您完成这一阶段的练习。按任意键进入<span style='color: yellow;'>重点关注图形为“朋友”</span>的练习。</p></div><p class='footer' style='font-size:35px; line-height:30px;'>任务要求：\n              <p class='footer' style='font-size:35px; line-height:35px;'>对于与“朋友”对应的图形：如果 匹配 ，请按 <span style=\""color: lightgreen;\"">k键</span></p><p class='footer' style='font-size:35px'>如果 不匹配 ，请按<span style=\""color: lightgreen;\"">j键</p></span>\n              <p class='footer' style='font-size:35px; line-height:35px;'>对于非“朋友”对应的图形：如果 匹配 ，请按 <span style=\""color: lightgreen;\"">d键</span></p><p class='footer' style='font-size:35px'>如果 不匹配 ，请按<span style=\""color: lightgreen;\"">f键</p></span>\n              <p class='footer' style='font-size:22px; line-height:25px;'>请在实验过程中将您的<span style=\""color: lightgreen;\"">食指和中指</span>放在电脑键盘的相应键位上进行按键。</p></span>""]"," ","","","","","","","","","","","","","","","","","","","","","","","",""
"","","","","","psychophysics","366","2127469","0.0-16.0-0.0-0.0","null","","null","","","","","","","","","","","","","key","null","16.666221476510017","742","366.8","f","false","img/H_28.png","朋友","prac_friend","","生人"
"","","","","","html-keyboard-response","367","2127784","0.0-16.0-0.0-1.0","null","<span class='add_' style='color:yellow; font-size: 70px;'> 太慢! </span>","null","","","","","","","","","","","","","","","","","","","","","","","feedback_test",""
"","","","","","psychophysics","368","2130287","0.0-16.0-0.0-0.1","null","","null","","","","","","","","","","","","","key","null","16.66639999999975","742","366.8","j","false","img/S_28.png","生人","prac_friend","","朋友"
"","","","","","html-keyboard-response","369","2130593","0.0-16.0-0.0-1.1","null","<span class='add_' style='color:yellow; font-size: 70px;'> 太慢! </span>","null","","","","","","","","","","","","","","","","","","","","","","","feedback_test",""
"","","","","","psychophysics","370","2132349","0.0-16.0-0.0-0.2","755","","d","","","","","","","","","","","","","key","d","16.66584615384748","742","366.8","f","false","img/H_28.png","自我","prac_friend","","生人"
"","","","","","html-keyboard-response","371","2132654","0.0-16.0-0.0-1.2","null","<span style='color:red; font-size: 70px;'>错误! </span>","null","","","","","","","","","","","","","","","","","","","","","","","feedback_test",""
"","","","","","psychophysics","372","2135164","0.0-16.0-0.0-0.3","null","","null","","","","","","","","","","","","","key","null","16.666040268457877","742","366.8","j","false","img/S_28.png","自我","prac_friend","","朋友"
"","","","","","html-keyboard-response","373","2135473","0.0-16.0-0.0-1.3","null","<span class='add_' style='color:yellow; font-size: 70px;'> 太慢! </span>","null","","","","","","","","","","","","","","","","","","","","","","","feedback_test",""
"","","","","","psychophysics","374","2137424","0.0-16.0-0.0-0.4","939","","d","","","","","","","","","","","","","key","d","16.66549999999878","742","366.8","d","true","img/H_28.png","生人","prac_friend","","生人"
"","","","","","html-keyboard-response","375","2137734","0.0-16.0-0.0-1.4","null","<span style='color:GreenYellow; font-size: 70px;'>正确! </span>","null","","","","","","","","","","","","","","","","","","","","","","","feedback_test",""
"","","","","","psychophysics","376","2139296","0.0-16.0-0.0-0.5","561","","d","","","","","","","","","","","","","key","d","16.650456521741074","742","366.8","d","true","img/H_28.png","生人","prac_friend","","生人"
"","","","","","html-keyboard-response","377","2139606","0.0-16.0-0.0-1.5","null","<span style='color:GreenYellow; font-size: 70px;'>正确! </span>","null","","","","","","","","","","","","","","","","","","","","","","","feedback_test",""
"","","","","","psychophysics","378","2141265","0.0-16.0-0.0-0.6","652","","k","","","","","","","","","","","","","key","k","16.665469387755255","742","366.8","k","true","img/S_28.png","朋友","prac_friend","","朋友"
"","","","","","html-keyboard-response","379","2141575","0.0-16.0-0.0-1.6","null","<span style='color:GreenYellow; font-size: 70px;'>正确! </span>","null","","","","","","","","","","","","","","","","","","","","","","","feedback_test",""
"","","","","","psychophysics","380","2143859","0.0-16.0-0.0-0.7","1274","","d","","","","","","","","","","","","","key","d","16.66621323529398","742","366.8","d","true","img/C_28.png","自我","prac_friend","","自我"
"","","","","","html-keyboard-response","381","2144166","0.0-16.0-0.0-1.7","null","<span style='color:GreenYellow; font-size: 70px;'>正确! </span>","null","","","","","","","","","","","","","","","","","","","","","","","feedback_test",""
"","","","","","psychophysics","382","2146107","0.0-16.0-0.0-0.8","939","","k","","","","","","","","","","","","","key","k","16.667637931034452","742","366.8","f","false","img/C_28.png","朋友","prac_friend","","自我"
"","","","","","html-keyboard-response","383","2146414","0.0-16.0-0.0-1.8","null","<span style='color:red; font-size: 70px;'>错误! </span>","null","","","","","","","","","","","","","","","","","","","","","","","feedback_test",""
"","","","","","psychophysics","384","2148209","0.0-16.0-0.0-0.9","789","","k","","","","","","","","","","","","","key","k","16.66581308411295","742","366.8","f","false","img/C_28.png","生人","prac_friend","","自我"
"","","","","","html-keyboard-response","385","2148520","0.0-16.0-0.0-1.9","null","<span style='color:red; font-size: 70px;'>错误! </span>","null","","","","","","","","","","","","","","","","","","","","","","","feedback_test",""
"","","","","","psychophysics","386","2150564","0.0-16.0-0.0-0.10","1031","","j","","","","","","","","","","","","","key","j","16.66558677686209","742","366.8","d","false","img/C_28.png","自我","prac_friend","","自我"
"","","","","","html-keyboard-response","387","2150873","0.0-16.0-0.0-1.10","null","<span style='color:red; font-size: 70px;'>错误! </span>","null","","","","","","","","","","","","","","","","","","","","","","","feedback_test",""
"","","","","","psychophysics","388","2152500","0.0-16.0-0.0-0.11","624","","k","","","","","","","","","","","","","key","k","16.66635416666395","742","366.8","k","true","img/S_28.png","朋友","prac_friend","","朋友"
"","","","","","html-keyboard-response","389","2152808","0.0-16.0-0.0-1.11","null","<span style='color:GreenYellow; font-size: 70px;'>正确! </span>","null","","","","","","","","","","","","","","","","","","","","","","","feedback_test",""
"","","","","","psychophysics","390","2154872","0.0-16.0-0.0-0.12","1062","","f","","","","","","","","","","","","","key","f","16.665772357724638","742","366.8","d","false","img/C_28.png","自我","prac_friend","","自我"
"","","","","","html-keyboard-response","391","2155184","0.0-16.0-0.0-1.12","null","<span style='color:red; font-size: 70px;'>错误! </span>","null","","","","","","","","","","","","","","","","","","","","","","","feedback_test",""
"","","","","","psychophysics","392","2157227","0.0-16.0-0.0-0.13","1042","","f","","","","","","","","","","","","","key","f","16.665867768597504","742","366.8","f","true","img/C_28.png","生人","prac_friend","","自我"
"","","","","","html-keyboard-response","393","2157528","0.0-16.0-0.0-1.13","null","<span style='color:GreenYellow; font-size: 70px;'>正确! </span>","null","","","","","","","","","","","","","","","","","","","","","","","feedback_test",""
"","","","","","psychophysics","394","2159243","0.0-16.0-0.0-0.14","710","","d","","","","","","","","","","","","","key","d","16.666323529414868","742","366.8","d","true","img/H_28.png","生人","prac_friend","","生人"
"","","","","","html-keyboard-response","395","2159549","0.0-16.0-0.0-1.14","null","<span style='color:GreenYellow; font-size: 70px;'>正确! </span>","null","","","","","","","","","","","","","","","","","","","","","","","feedback_test",""
"","","","","","psychophysics","396","2161450","0.0-16.0-0.0-0.15","899","","k","","","","","","","","","","","","","key","k","16.665814159289663","742","366.8","k","true","img/S_28.png","朋友","prac_friend","","朋友"
"","","","","","html-keyboard-response","397","2161764","0.0-16.0-0.0-1.15","null","<span style='color:GreenYellow; font-size: 70px;'>正确! </span>","null","","","","","","","","","","","","","","","","","","","","","","","feedback_test",""
"","","","","","psychophysics","398","2163389","0.0-16.0-0.0-0.16","621","","k","","","","","","","","","","","","","key","k","16.667525773195877","742","366.8","k","true","img/S_28.png","朋友","prac_friend","","朋友"
"","","","","","html-keyboard-response","399","2163696","0.0-16.0-0.0-1.16","null","<span style='color:GreenYellow; font-size: 70px;'>正确! </span>","null","","","","","","","","","","","","","","","","","","","","","","","feedback_test",""
"","","","","","psychophysics","400","2165945","0.0-16.0-0.0-0.17","1244","","f","","","","","","","","","","","","","key","f","16.666365671642264","742","366.8","d","false","img/C_28.png","自我","prac_friend","","自我"
"","","","","","html-keyboard-response","401","2166256","0.0-16.0-0.0-1.17","null","<span style='color:red; font-size: 70px;'>错误! </span>","null","","","","","","","","","","","","","","","","","","","","","","","feedback_test",""
"","","","","","psychophysics","402","2168526","0.0-16.0-0.0-0.18","1258","","f","","","","","","","","","","","","","key","f","16.66569629629591","742","366.8","f","true","img/H_28.png","自我","prac_friend","","生人"
"","","","","","html-keyboard-response","403","2168834","0.0-16.0-0.0-1.18","null","<span style='color:GreenYellow; font-size: 70px;'>正确! </span>","null","","","","","","","","","","","","","","","","","","","","","","","feedback_test",""
"","","","","","psychophysics","404","2170888","0.0-16.0-0.0-0.19","1053","","f","","","","","","","","","","","","","key","f","16.666147540983758","742","366.8","j","false","img/S_28.png","生人","prac_friend","","朋友"
"","","","","","html-keyboard-response","405","2171191","0.0-16.0-0.0-1.19","null","<span style='color:red; font-size: 70px;'>错误! </span>","null","","","","","","","","","","","","","","","","","","","","","","","feedback_test",""
"","","","","","psychophysics","406","2173699","0.0-16.0-0.0-0.20","null","","null","","","","","","","","","","","","","key","null","16.665865771813106","742","366.8","j","false","img/S_28.png","自我","prac_friend","","朋友"
"","","","","","html-keyboard-response","407","2174011","0.0-16.0-0.0-1.20","null","<span class='add_' style='color:yellow; font-size: 70px;'> 太慢! </span>","null","","","","","","","","","","","","","","","","","","","","","","","feedback_test",""
"","","","","","psychophysics","408","2176223","0.0-16.0-0.0-0.21","1205","","d","","","","","","","","","","","","","key","d","16.66528787878765","742","366.8","d","true","img/H_28.png","生人","prac_friend","","生人"
"","","","","","html-keyboard-response","409","2176534","0.0-16.0-0.0-1.21","null","<span style='color:GreenYellow; font-size: 70px;'>正确! </span>","null","","","","","","","","","","","","","","","","","","","","","","","feedback_test",""
"","","","","","psychophysics","410","2178772","0.0-16.0-0.0-0.22","1238","","f","","","","","","","","","","","","","key","f","16.665413533834588","742","366.8","f","true","img/C_28.png","朋友","prac_friend","","自我"
"","","","","","html-keyboard-response","411","2179089","0.0-16.0-0.0-1.22","null","<span style='color:GreenYellow; font-size: 70px;'>正确! </span>","null","","","","","","","","","","","","","","","","","","","","","","","feedback_test",""
"","","","","","psychophysics","412","2181099","0.0-16.0-0.0-0.23","1000","","f","","","","","","","","","","","","","key","f","16.666588235294306","742","366.8","f","true","img/H_28.png","朋友","prac_friend","","生人"
"","","","","","html-keyboard-response","413","2181411","0.0-16.0-0.0-1.23","null","<span style='color:GreenYellow; font-size: 70px;'>正确! </span>","null","","","","","","","","","","","","","","","","","","","","","","","feedback_test",""
"","","","","","html-keyboard-response","414","2183313","0.0-16.0-1.0-0.0","1899","<style>.context{color:white; font-size: 35px; line-height:40px}</style>                              <div><p class='context'>您正确回答了54% 的试次。</p><p class='context'>您的平均反应时为925毫秒。</p>"," ","","","","","","","","","","","","","","","","","","","","","","","",""
"","","","","","instructions","415","2191186","0.0-16.0-1.0-1.0","7872","","","","","","","","","","","","","","[{""page_index"":0,""viewing_time"":2178},{""page_index"":1,""viewing_time"":3988},{""page_index"":2,""viewing_time"":1705}]","","","","","","","","","","","",""
"","","","","","psychophysics","416","2193459","0.0-16.1-0.1-0.24","1260","","f","","","","","","","","","","","","","key","f","16.666088888887316","742","366.8","f","true","img/H_28.png","朋友","prac_friend","","生人"
"","","","","","html-keyboard-response","417","2193775","0.0-16.1-0.1-1.24","null","<span style='color:GreenYellow; font-size: 70px;'>正确! </span>","null","","","","","","","","","","","","","","","","","","","","","","","feedback_test",""
"","","","","","psychophysics","418","2195927","0.0-16.1-0.1-0.25","1144","","d","","","","","","","","","","","","","key","d","16.66577343750032","742","366.8","f","false","img/H_28.png","自我","prac_friend","","生人"
"","","","","","html-keyboard-response","419","2196241","0.0-16.1-0.1-1.25","null","<span style='color:red; font-size: 70px;'>错误! </span>","null","","","","","","","","","","","","","","","","","","","","","","","feedback_test",""
"","","","","","psychophysics","420","2198109","0.0-16.1-0.1-0.26","860","","f","","","","","","","","","","","","","key","f","16.66533333333293","742","366.8","d","false","img/H_28.png","生人","prac_friend","","生人"
"","","","","","html-keyboard-response","421","2198423","0.0-16.1-0.1-1.26","null","<span style='color:red; font-size: 70px;'>错误! </span>","null","","","","","","","","","","","","","","","","","","","","","","","feedback_test",""
"","","","","","psychophysics","422","2200285","0.0-16.1-0.1-0.27","852","","k","","","","","","","","","","","","","key","k","16.66670270270022","742","366.8","j","false","img/S_28.png","自我","prac_friend","","朋友"
"","","","","","html-keyboard-response","423","2200592","0.0-16.1-0.1-1.27","null","<span style='color:red; font-size: 70px;'>错误! </span>","null","","","","","","","","","","","","","","","","","","","","","","","feedback_test",""
