"success","timeout","failed_images","failed_audio","failed_video","trial_type","trial_index","time_elapsed","internal_node_id","rt","stimulus","response","value","item_width_mm","item_height_mm","item_width_px","px2mm","view_dist_mm","item_width_deg","px2deg","scale_factor","win_width_deg","win_height_deg","view_history","response_type","key_press","avg_frame_time","center_x","center_y","correct_response","correct","Image","text","condition","screen_id","label"
"true","false","[]","[]","[]","preload","0","40961","0.0-0.0","","","","","","","","","","","","","","","","","","","","","","","","","","",""
"","","","","","html-keyboard-response","1","95837","0.0-1.0","54874","
     <p>您好，欢迎参加本次实验。</p>
     <p>为充分保障您的权利，请确保您已经知晓并同意《参与实验同意书》以及《数据公开知情同意书》。</p>
     <p>如果您未见过上述内容，请咨询实验员。</p>
     <p>如果您选择继续实验，则表示您已经清楚两份知情同意书的内容并同意。</p>
     <p> <div style = ""color: green""><按任意键至下页></div> </p>
     "," ","","","","","","","","","","","","","","","","","","","","","","","",""
"","","","","","html-keyboard-response","2","100420","0.0-2.0","4582","
     <p>本实验首先需要您填写一些基本个人信息。</p>
     <p> <div style = ""color: green""><按任意键至下页></div></p>
     "," ","","","","","","","","","","","","","","","","","","","","","","","",""
"","","","","","call-function","3","100422","0.0-3.0-0.0","","","","","","","","","","","","","","","","","","","","","","","","","","",""
"","","","","","survey-html-form","4","105347","0.0-3.0-1.0","4923","","{""Q0"":""55""}","","","","","","","","","","","","","","","","","","","","","","","",""
"","","","","","html-button-response","5","106635","0.0-3.0-2.0","1286","<p style = 'color : white'>您的性别</p>","1","","","","","","","","","","","","","","","","","","","","","","","",""
"","","","","","survey-html-form","6","111282","0.0-3.0-3.0","4647","","{""Q0"":""2002""}","","","","","","","","","","","","","","","","","","","","","","","",""
"","","","","","survey-html-form","7","114506","0.0-3.0-4.0","3223","","{""Q0"":""5""}","","","","","","","","","","","","","","","","","","","","","","","",""
"","","","","","virtual-chinrest","8","265731","0.0-4.0","151222","","","","85.6","53.98","501.77179146965386","5.858755860625788","487.47","10.035435829393077","50","0.7015141265096172","38.4","19.38","","","","","","","","","","","","",""
"true","","","","","fullscreen","9","269892","0.0-5.0","","","","","","","","","","","","","","","","","","","","","","","","","","",""
"","","","","","instructions","10","573994","0.0-6.0","304101","","","","","","","","","","","","","","[{""page_index"":0,""viewing_time"":6325},{""page_index"":1,""viewing_time"":22400},{""page_index"":2,""viewing_time"":266688},{""page_index"":3,""viewing_time"":6432},{""page_index"":4,""viewing_time"":2256}]","","","","","","","","","","","",""
"","","","","","instructions","11","644201","0.0-7.0","70207","","","","","","","","","","","","","","[{""page_index"":0,""viewing_time"":70207}]","","","","","","","","","","","",""
"","","","","","psychophysics","12","650923","0.0-8.0-0.0-0.0","5716","","f","","","","","","","","","","","","","key","f","16.68331094527361","960","536","j","false","img/C_28.png","自我","freeprac_self","",""
"","","","","","html-keyboard-response","13","651226","0.0-8.0-0.0-1.0","null","<span style='color:red; font-size: 70px;'>错误! </span>","null","","","","","","","","","","","","","","","","","","","","","","","feedback_test",""
"","","","","","psychophysics","14","656483","0.0-8.0-0.0-0.1","4255","","d","","","","","","","","","","","","","key","d","16.683261146496797","960","536","d","true","img/H_28.png","生人","freeprac_self","",""
"","","","","","html-keyboard-response","15","656785","0.0-8.0-0.0-1.1","null","<span style='color:GreenYellow; font-size: 70px;'>正确! </span>","null","","","","","","","","","","","","","","","","","","","","","","","feedback_test",""
"","","","","","psychophysics","16","659115","0.0-8.0-0.0-0.2","1328","","d","","","","","","","","","","","","","key","d","16.684366906474665","960","536","k","false","img/C_28.png","生人","freeprac_self","",""
"","","","","","html-keyboard-response","17","659417","0.0-8.0-0.0-1.2","null","<span style='color:red; font-size: 70px;'>错误! </span>","null","","","","","","","","","","","","","","","","","","","","","","","feedback_test",""
"","","","","","psychophysics","18","663747","0.0-8.0-0.0-0.3","3328","","d","","","","","","","","","","","","","key","d","16.68335658914722","960","536","k","false","img/C_28.png","朋友","freeprac_self","",""
"","","","","","html-keyboard-response","19","664049","0.0-8.0-0.0-1.3","null","<span style='color:red; font-size: 70px;'>错误! </span>","null","","","","","","","","","","","","","","","","","","","","","","","feedback_test",""
"","","","","","psychophysics","20","670131","0.0-8.0-0.0-0.4","5081","","d","","","","","","","","","","","","","key","d","16.64807438016542","960","536","d","true","img/S_28.png","朋友","freeprac_self","",""
"","","","","","html-keyboard-response","21","670434","0.0-8.0-0.0-1.4","null","<span style='color:GreenYellow; font-size: 70px;'>正确! </span>","null","","","","","","","","","","","","","","","","","","","","","","","feedback_test",""
"","","","","","psychophysics","22","676307","0.0-8.0-0.0-0.5","4870","","f","","","","","","","","","","","","","key","f","16.683227920228155","960","536","f","true","img/H_28.png","朋友","freeprac_self","",""
"","","","","","html-keyboard-response","23","676609","0.0-8.0-0.0-1.5","null","<span style='color:GreenYellow; font-size: 70px;'>正确! </span>","null","","","","","","","","","","","","","","","","","","","","","","","feedback_test",""
"","","","","","psychophysics","24","682723","0.0-8.0-0.0-0.6","5113","","k","","","","","","","","","","","","","key","k","16.68325136612008","960","536","d","false","img/H_28.png","自我","freeprac_self","",""
"","","","","","html-keyboard-response","25","683025","0.0-8.0-0.0-1.6","null","<span style='color:red; font-size: 70px;'>错误! </span>","null","","","","","","","","","","","","","","","","","","","","","","","feedback_test",""
"","","","","","psychophysics","26","686843","0.0-8.0-0.0-0.7","2816","","f","","","","","","","","","","","","","key","f","16.683315789473564","960","536","f","true","img/S_28.png","生人","freeprac_self","",""
"","","","","","html-keyboard-response","27","687145","0.0-8.0-0.0-1.7","null","<span style='color:GreenYellow; font-size: 70px;'>正确! </span>","null","","","","","","","","","","","","","","","","","","","","","","","feedback_test",""
"","","","","","psychophysics","28","692443","0.0-8.0-0.0-0.8","4295","","f","","","","","","","","","","","","","key","f","16.683158227847816","960","536","f","true","img/H_28.png","朋友","freeprac_self","",""
"","","","","","html-keyboard-response","29","692745","0.0-8.0-0.0-1.8","null","<span style='color:GreenYellow; font-size: 70px;'>正确! </span>","null","","","","","","","","","","","","","","","","","","","","","","","feedback_test",""
"","","","","","psychophysics","30","699283","0.0-8.0-0.0-0.9","5537","","k","","","","","","","","","","","","","key","k","16.683215384615455","960","536","d","false","img/S_28.png","自我","freeprac_self","",""
"","","","","","html-keyboard-response","31","699586","0.0-8.0-0.0-1.9","null","<span style='color:red; font-size: 70px;'>错误! </span>","null","","","","","","","","","","","","","","","","","","","","","","","feedback_test",""
"","","","","","psychophysics","32","702387","0.0-8.0-0.0-0.10","1798","","j","","","","","","","","","","","","","key","j","16.683897590361457","960","536","j","true","img/C_28.png","自我","freeprac_self","",""
"","","","","","html-keyboard-response","33","702689","0.0-8.0-0.0-1.10","null","<span style='color:GreenYellow; font-size: 70px;'>正确! </span>","null","","","","","","","","","","","","","","","","","","","","","","","feedback_test",""
"","","","","","psychophysics","34","708395","0.0-8.0-0.0-0.11","4705","","f","","","","","","","","","","","","","key","f","16.683322580645264","960","536","f","true","img/S_28.png","生人","freeprac_self","",""
"","","","","","html-keyboard-response","35","708697","0.0-8.0-0.0-1.11","null","<span style='color:GreenYellow; font-size: 70px;'>正确! </span>","null","","","","","","","","","","","","","","","","","","","","","","","feedback_test",""
"","","","","","html-keyboard-response","36","716651","0.0-8.0-1.0-0.0","7952","<style>.context{color:white; font-size: 35px; line-height:40px}</style>                              <div><p class='context'>您正确回答了58% 的试次。</p><p class='context'>您的平均反应时为3974毫秒。</p>"," ","","","","","","","","","","","","","","","","","","","","","","","",""
"","","","","","instructions","37","756329","0.0-8.0-1.0-1.0","39676","","","","","","","","","","","","","","[{""page_index"":0,""viewing_time"":2236},{""page_index"":1,""viewing_time"":34920},{""page_index"":2,""viewing_time"":2520}]","","","","","","","","","","","",""
"","","","","","psychophysics","38","759690","0.0-8.1-0.1-0.12","2359","","f","","","","","","","","","","","","","key","f","16.68329000000027","960","536","f","true","img/H_28.png","朋友","freeprac_self","",""
"","","","","","html-keyboard-response","39","759993","0.0-8.1-0.1-1.12","null","<span style='color:GreenYellow; font-size: 70px;'>正确! </span>","null","","","","","","","","","","","","","","","","","","","","","","","feedback_test",""
"","","","","","psychophysics","40","763522","0.0-8.1-0.1-0.13","2528","","k","","","","","","","","","","","","","key","k","16.68328909952606","960","536","d","false","img/S_28.png","自我","freeprac_self","",""
"","","","","","html-keyboard-response","41","763824","0.0-8.1-0.1-1.13","null","<span style='color:red; font-size: 70px;'>错误! </span>","null","","","","","","","","","","","","","","","","","","","","","","","feedback_test",""
"","","","","","psychophysics","42","768011","0.0-8.1-0.1-0.14","3184","","j","","","","","","","","","","","","","key","j","16.683279999999794","960","536","f","false","img/S_28.png","生人","freeprac_self","",""
"","","","","","html-keyboard-response","43","768313","0.0-8.1-0.1-1.14","null","<span style='color:red; font-size: 70px;'>错误! </span>","null","","","","","","","","","","","","","","","","","","","","","","","feedback_test",""
"","","","","","psychophysics","44","770770","0.0-8.1-0.1-0.15","1456","","f","","","","","","","","","","","","","key","f","16.68339726027366","960","536","f","true","img/S_28.png","生人","freeprac_self","",""
"","","","","","html-keyboard-response","45","771073","0.0-8.1-0.1-1.15","null","<span style='color:GreenYellow; font-size: 70px;'>正确! </span>","null","","","","","","","","","","","","","","","","","","","","","","","feedback_test",""
"","","","","","psychophysics","46","773754","0.0-8.1-0.1-0.16","1681","","d","","","","","","","","","","","","","key","d","16.683327044025738","960","536","d","true","img/H_28.png","生人","freeprac_self","",""
"","","","","","html-keyboard-response","47","774057","0.0-8.1-0.1-1.16","null","<span style='color:GreenYellow; font-size: 70px;'>正确! </span>","null","","","","","","","","","","","","","","","","","","","","","","","feedback_test",""
"","","","","","psychophysics","48","777690","0.0-8.1-0.1-0.17","2632","","d","","","","","","","","","","","","","key","d","16.683341013825036","960","536","d","true","img/S_28.png","朋友","freeprac_self","",""
"","","","","","html-keyboard-response","49","777992","0.0-8.1-0.1-1.17","null","<span style='color:GreenYellow; font-size: 70px;'>正确! </span>","null","","","","","","","","","","","","","","","","","","","","","","","feedback_test",""
"","","","","","psychophysics","50","781771","0.0-8.1-0.1-0.18","2776","","d","","","","","","","","","","","","","key","d","16.683415929203754","960","536","k","false","img/C_28.png","朋友","freeprac_self","",""
"","","","","","html-keyboard-response","51","782073","0.0-8.1-0.1-1.18","null","<span style='color:red; font-size: 70px;'>错误! </span>","null","","","","","","","","","","","","","","","","","","","","","","","feedback_test",""
"","","","","","psychophysics","52","787698","0.0-8.1-0.1-0.19","4623","","k","","","","","","","","","","","","","key","k","16.683321428571485","960","536","k","true","img/C_28.png","生人","freeprac_self","",""
"","","","","","html-keyboard-response","53","788001","0.0-8.1-0.1-1.19","null","<span style='color:GreenYellow; font-size: 70px;'>正确! </span>","null","","","","","","","","","","","","","","","","","","","","","","","feedback_test",""
"","","","","","psychophysics","54","790442","0.0-8.1-0.1-0.20","1440","","j","","","","","","","","","","","","","key","j","16.68356849315053","960","536","j","true","img/C_28.png","自我","freeprac_self","",""
"","","","","","html-keyboard-response","55","790744","0.0-8.1-0.1-1.20","null","<span style='color:GreenYellow; font-size: 70px;'>正确! </span>","null","","","","","","","","","","","","","","","","","","","","","","","feedback_test",""
"","","","","","psychophysics","56","792882","0.0-8.1-0.1-0.21","1137","","j","","","","","","","","","","","","","key","j","16.683141732283165","960","536","j","true","img/C_28.png","自我","freeprac_self","",""
"","","","","","html-keyboard-response","57","793184","0.0-8.1-0.1-1.21","null","<span style='color:GreenYellow; font-size: 70px;'>正确! </span>","null","","","","","","","","","","","","","","","","","","","","","","","feedback_test",""
"","","","","","psychophysics","58","796866","0.0-8.1-0.1-0.22","2680","","d","","","","","","","","","","","","","key","d","16.683254545454506","960","536","d","true","img/H_28.png","自我","freeprac_self","",""
"","","","","","html-keyboard-response","59","797168","0.0-8.1-0.1-1.22","null","<span style='color:GreenYellow; font-size: 70px;'>正确! </span>","null","","","","","","","","","","","","","","","","","","","","","","","feedback_test",""
"","","","","","psychophysics","60","799666","0.0-8.1-0.1-0.23","1496","","f","","","","","","","","","","","","","key","f","16.683297297297475","960","536","f","true","img/H_28.png","朋友","freeprac_self","",""
"","","","","","html-keyboard-response","61","799968","0.0-8.1-0.1-1.23","null","<span style='color:GreenYellow; font-size: 70px;'>正确! </span>","null","","","","","","","","","","","","","","","","","","","","","","","feedback_test",""
"","","","","","html-keyboard-response","62","810890","0.0-9.0","10921","[""<style>.context{color:white; font-size: 35px; line-height:40px}</style>              <div><p class='context'>您正确回答了75% 的试次。</p><p class='context'>您的平均反应时为2167毫秒。</p><p class='context'>恭喜您完成这一阶段的练习。按任意键进入<span style='color: yellow;'>重点关注图形为“朋友”</span>的练习。</p></div><p class='footer' style='font-size:35px; line-height:30px;'>任务要求：\n              <p class='footer' style='font-size:35px; line-height:35px;'>对于与“朋友”对应的图形：如果 匹配 ，请按 <span style=\""color: lightgreen;\"">j键</span></p><p class='footer' style='font-size:35px'>如果 不匹配 ，请按<span style=\""color: lightgreen;\"">k键</p></span>\n              <p class='footer' style='font-size:35px; line-height:35px;'>对于非“朋友”对应的图形：如果 匹配 ，请按 <span style=\""color: lightgreen;\"">f键</span></p><p class='footer' style='font-size:35px'>如果 不匹配 ，请按<span style=\""color: lightgreen;\"">d键</p></span>\n              <p class='footer' style='font-size:22px; line-height:25px;'>请在实验过程中将您的<span style=\""color: lightgreen;\"">食指和中指</span>放在电脑键盘的相应键位上进行按键。</p></span>""]"," ","","","","","","","","","","","","","","","","","","","","","","","",""
"","","","","","psychophysics","63","814218","0.0-10.0-0.0-0.0","2324","","k","","","","","","","","","","","","","key","k","16.683286432161033","960","536","k","true","img/H_28.png","生人","freeprac_friend","",""
"","","","","","html-keyboard-response","64","814520","0.0-10.0-0.0-1.0","null","<span style='color:GreenYellow; font-size: 70px;'>正确! </span>","null","","","","","","","","","","","","","","","","","","","","","","","feedback_test",""
"","","","","","psychophysics","65","817026","0.0-10.0-0.0-0.1","1503","","d","","","","","","","","","","","","","key","d","16.68311409395963","960","536","d","true","img/C_28.png","生人","freeprac_friend","",""
"","","","","","html-keyboard-response","66","817328","0.0-10.0-0.0-1.1","null","<span style='color:GreenYellow; font-size: 70px;'>正确! </span>","null","","","","","","","","","","","","","","","","","","","","","","","feedback_test",""
"","","","","","psychophysics","67","820410","0.0-10.0-0.0-0.2","2079","","f","","","","","","","","","","","","","key","f","16.683135869565454","960","536","f","true","img/S_28.png","生人","freeprac_friend","",""
"","","","","","html-keyboard-response","68","820712","0.0-10.0-0.0-1.2","null","<span style='color:GreenYellow; font-size: 70px;'>正确! </span>","null","","","","","","","","","","","","","","","","","","","","","","","feedback_test",""
"","","","","","psychophysics","69","823978","0.0-10.0-0.0-0.3","2265","","f","","","","","","","","","","","","","key","f","16.683338461538106","960","536","f","true","img/C_28.png","自我","freeprac_friend","",""
"","","","","","html-keyboard-response","70","824280","0.0-10.0-0.0-1.3","null","<span style='color:GreenYellow; font-size: 70px;'>正确! </span>","null","","","","","","","","","","","","","","","","","","","","","","","feedback_test",""
"","","","","","psychophysics","71","826322","0.0-10.0-0.0-0.4","1040","","j","","","","","","","","","","","","","key","j","16.683330578513036","960","536","j","true","img/H_28.png","朋友","freeprac_friend","",""
"","","","","","html-keyboard-response","72","826624","0.0-10.0-0.0-1.4","null","<span style='color:GreenYellow; font-size: 70px;'>正确! </span>","null","","","","","","","","","","","","","","","","","","","","","","","feedback_test",""
"","","","","","psychophysics","73","829018","0.0-10.0-0.0-0.5","1393","","k","","","","","","","","","","","","","key","k","16.683314685314127","960","536","d","false","img/C_28.png","朋友","freeprac_friend","",""
"","","","","","html-keyboard-response","74","829320","0.0-10.0-0.0-1.5","null","<span style='color:red; font-size: 70px;'>错误! </span>","null","","","","","","","","","","","","","","","","","","","","","","","feedback_test",""
"","","","","","psychophysics","75","833082","0.0-10.0-0.0-0.6","2761","","f","","","","","","","","","","","","","key","f","16.683312500000152","960","536","d","false","img/S_28.png","自我","freeprac_friend","",""
"","","","","","html-keyboard-response","76","833384","0.0-10.0-0.0-1.6","null","<span style='color:red; font-size: 70px;'>错误! </span>","null","","","","","","","","","","","","","","","","","","","","","","","feedback_test",""
"","","","","","psychophysics","77","837402","0.0-10.0-0.0-0.7","3017","","k","","","","","","","","","","","","","key","k","16.683292887029413","960","536","k","true","img/H_28.png","自我","freeprac_friend","",""
"","","","","","html-keyboard-response","78","837705","0.0-10.0-0.0-1.7","null","<span style='color:GreenYellow; font-size: 70px;'>正确! </span>","null","","","","","","","","","","","","","","","","","","","","","","","feedback_test",""
"","","","","","psychophysics","79","839730","0.0-10.0-0.0-0.8","1024","","j","","","","","","","","","","","","","key","j","16.68310833333332","960","536","j","true","img/H_28.png","朋友","freeprac_friend","",""
"","","","","","html-keyboard-response","80","840032","0.0-10.0-0.0-1.8","null","<span style='color:GreenYellow; font-size: 70px;'>正确! </span>","null","","","","","","","","","","","","","","","","","","","","","","","feedback_test",""
"","","","","","psychophysics","81","844978","0.0-10.0-0.0-0.9","3944","","f","","","","","","","","","","","","","key","f","16.683247457626987","960","536","f","true","img/C_28.png","自我","freeprac_friend","",""
"","","","","","html-keyboard-response","82","845280","0.0-10.0-0.0-1.9","null","<span style='color:GreenYellow; font-size: 70px;'>正确! </span>","null","","","","","","","","","","","","","","","","","","","","","","","feedback_test",""
"","","","","","psychophysics","83","848642","0.0-10.0-0.0-0.10","2360","","d","","","","","","","","","","","","","key","d","16.68324499999988","960","536","d","true","img/S_28.png","朋友","freeprac_friend","",""
"","","","","","html-keyboard-response","84","848944","0.0-10.0-0.0-1.10","null","<span style='color:GreenYellow; font-size: 70px;'>正确! </span>","null","","","","","","","","","","","","","","","","","","","","","","","feedback_test",""
"","","","","","psychophysics","85","851274","0.0-10.0-0.0-0.11","1328","","f","","","","","","","","","","","","","key","f","16.683561151079235","960","536","f","true","img/S_28.png","生人","freeprac_friend","",""
"","","","","","html-keyboard-response","86","851576","0.0-10.0-0.0-1.11","null","<span style='color:GreenYellow; font-size: 70px;'>正确! </span>","null","","","","","","","","","","","","","","","","","","","","","","","feedback_test",""
"","","","","","html-keyboard-response","87","857474","0.0-11.0","5897","[""<style>.context{color:white; font-size: 35px; line-height:40px}</style>                  <div><p class='context'>您正确回答了83% 的试次。</p><p class='context'>您的平均反应时为2088毫秒。</p><p class='context'>恭喜您完成这一阶段的练习。按任意键进入<span style='color: yellow;'>重点关注图形为“生人”</span>的练习。</p></div><p class='footer' style='font-size:35px; line-height:30px;'>任务要求：\n                  <p class='footer' style='font-size:35px; line-height:35px;'>对与“生人”对应的图形，如果 匹配 ，请按 <span style=\""color: lightgreen;\"">j键</span></p><p class='footer' style='font-size:35px'>如果 不匹配 ，请按<span style=\""color: lightgreen;\"">k键</p></span>\n                  <p class='footer' style='font-size:35px; line-height:35px;'>对非“生人”对应的图形，如果 匹配 ，请按 <span style=\""color: lightgreen;\"">f键</span></p><p class='footer' style='font-size:35px'>如果 不匹配 ，请按<span style=\""color: lightgreen;\"">d键</p></span>\n                  <p class='footer' style='font-size:22px; line-height:25px;'>请在实验过程中将您的<span style=\""color: lightgreen;\"">食指和中指</span>放在电脑键盘的相应键位上进行按键。</p></span>""]"," ","","","","","","","","","","","","","","","","","","","","","","","",""
"","","","","","psychophysics","88","859786","0.0-12.0-0.0-0.0","1308","","k","","","","","","","","","","","","","key","k","16.653379562044055","960","536","k","true","img/S_28.png","自我","freeprac_stranger","",""
"","","","","","html-keyboard-response","89","860088","0.0-12.0-0.0-1.0","null","<span style='color:GreenYellow; font-size: 70px;'>正确! </span>","null","","","","","","","","","","","","","","","","","","","","","","","feedback_test",""
"","","","","","psychophysics","90","863298","0.0-12.0-0.0-0.1","2208","","k","","","","","","","","","","","","","key","k","16.68345312499999","960","536","k","true","img/S_28.png","朋友","freeprac_stranger","",""
"","","","","","html-keyboard-response","91","863601","0.0-12.0-0.0-1.1","null","<span style='color:GreenYellow; font-size: 70px;'>正确! </span>","null","","","","","","","","","","","","","","","","","","","","","","","feedback_test",""
"","","","","","psychophysics","92","865466","0.0-12.0-0.0-0.2","863","","j","","","","","","","","","","","","","key","j","16.683145454546057","960","536","j","true","img/S_28.png","生人","freeprac_stranger","",""
"","","","","","html-keyboard-response","93","865768","0.0-12.0-0.0-1.2","null","<span style='color:GreenYellow; font-size: 70px;'>正确! </span>","null","","","","","","","","","","","","","","","","","","","","","","","feedback_test",""
"","","","","","psychophysics","94","868202","0.0-12.0-0.0-0.3","1431","","d","","","","","","","","","","","","","key","d","16.683255172413293","960","536","d","true","img/H_28.png","自我","freeprac_stranger","",""
"","","","","","html-keyboard-response","95","868504","0.0-12.0-0.0-1.3","null","<span style='color:GreenYellow; font-size: 70px;'>正确! </span>","null","","","","","","","","","","","","","","","","","","","","","","","feedback_test",""
"","","","","","psychophysics","96","870802","0.0-12.0-0.0-0.4","1296","","f","","","","","","","","","","","","","key","f","16.68338235294162","960","536","f","true","img/H_28.png","朋友","freeprac_stranger","",""
"","","","","","html-keyboard-response","97","871104","0.0-12.0-0.0-1.4","null","<span style='color:GreenYellow; font-size: 70px;'>正确! </span>","null","","","","","","","","","","","","","","","","","","","","","","","feedback_test",""
"","","","","","psychophysics","98","874754","0.0-12.0-0.0-0.5","2648","","j","","","","","","","","","","","","","key","j","16.623133640552865","960","536","d","false","img/H_28.png","生人","freeprac_stranger","",""
"","","","","","html-keyboard-response","99","875057","0.0-12.0-0.0-1.5","null","<span style='color:red; font-size: 70px;'>错误! </span>","null","","","","","","","","","","","","","","","","","","","","","","","feedback_test",""
"","","","","","psychophysics","100","877882","0.0-12.0-0.0-0.6","1824","","f","","","","","","","","","","","","","key","f","16.683360946745633","960","536","f","true","img/C_28.png","自我","freeprac_stranger","",""
"","","","","","html-keyboard-response","101","878185","0.0-12.0-0.0-1.6","null","<span style='color:GreenYellow; font-size: 70px;'>正确! </span>","null","","","","","","","","","","","","","","","","","","","","","","","feedback_test",""
"","","","","","psychophysics","102","881626","0.0-12.0-0.0-0.7","2440","","f","","","","","","","","","","","","","key","f","16.683302439024626","960","536","f","true","img/C_28.png","自我","freeprac_stranger","",""
"","","","","","html-keyboard-response","103","881928","0.0-12.0-0.0-1.7","null","<span style='color:GreenYellow; font-size: 70px;'>正确! </span>","null","","","","","","","","","","","","","","","","","","","","","","","feedback_test",""
"","","","","","psychophysics","104","884571","0.0-12.0-0.0-0.8","1637","","f","","","","","","","","","","","","","key","f","16.683297468354496","960","536","j","false","img/S_28.png","生人","freeprac_stranger","",""
"","","","","","html-keyboard-response","105","884872","0.0-12.0-0.0-1.8","null","<span style='color:red; font-size: 70px;'>错误! </span>","null","","","","","","","","","","","","","","","","","","","","","","","feedback_test",""
"","","","","","psychophysics","106","888771","0.0-12.0-0.0-0.9","2897","","d","","","","","","","","","","","","","key","d","16.68320689655204","960","536","d","true","img/C_28.png","生人","freeprac_stranger","",""
"","","","","","html-keyboard-response","107","889074","0.0-12.0-0.0-1.9","null","<span style='color:GreenYellow; font-size: 70px;'>正确! </span>","null","","","","","","","","","","","","","","","","","","","","","","","feedback_test",""
"","","","","","psychophysics","108","891618","0.0-12.0-0.0-0.10","1543","","f","","","","","","","","","","","","","key","f","16.683291390729416","960","536","f","true","img/H_28.png","朋友","freeprac_stranger","",""
"","","","","","html-keyboard-response","109","891921","0.0-12.0-0.0-1.10","null","<span style='color:GreenYellow; font-size: 70px;'>正确! </span>","null","","","","","","","","","","","","","","","","","","","","","","","feedback_test",""
"","","","","","psychophysics","110","896995","0.0-12.0-0.0-0.11","4072","","d","","","","","","","","","","","","","key","d","16.68329042904294","960","536","d","true","img/C_28.png","朋友","freeprac_stranger","",""
"","","","","","html-keyboard-response","111","897298","0.0-12.0-0.0-1.11","null","<span style='color:GreenYellow; font-size: 70px;'>正确! </span>","null","","","","","","","","","","","","","","","","","","","","","","","feedback_test",""
"","","","","","instructions","112","910794","0.0-13.0","13495","","","","","","","","","","","","","","[{""page_index"":0,""viewing_time"":13494}]","","","","","","","","","","","",""
"","","","","","psychophysics","113","913082","0.0-14.0-0.0-0.0","1287","","d","","","","","","","","","","","","","key","d","16.683364963503962","960","536","f","false","img/S_28.png","生人","prac_self","","生人"
"","","","","","html-keyboard-response","114","913384","0.0-14.0-0.0-1.0","null","<span style='color:red; font-size: 70px;'>错误! </span>","null","","","","","","","","","","","","","","","","","","","","","","","feedback_test",""
"","","","","","psychophysics","115","915888","0.0-14.0-0.0-0.1","null","","null","","","","","","","","","","","","","key","null","16.68316107382529","960","536","d","false","img/S_28.png","朋友","prac_self","","生人"
"","","","","","html-keyboard-response","116","916191","0.0-14.0-0.0-1.1","null","<span class='add_' style='color:yellow; font-size: 70px;'> 太慢! </span>","null","","","","","","","","","","","","","","","","","","","","","","","feedback_test",""
"","","","","","psychophysics","117","918466","0.0-14.0-0.0-0.2","1274","","j","","","","","","","","","","","","","key","j","16.68331851851954","960","536","j","true","img/C_28.png","自我","prac_self","","自我"
"","","","","","html-keyboard-response","118","918768","0.0-14.0-0.0-1.2","null","<span style='color:GreenYellow; font-size: 70px;'>正确! </span>","null","","","","","","","","","","","","","","","","","","","","","","","feedback_test",""
"","","","","","psychophysics","119","920746","0.0-14.0-0.0-0.3","977","","f","","","","","","","","","","","","","key","f","16.683440677965674","960","536","f","true","img/H_28.png","朋友","prac_self","","朋友"
"","","","","","html-keyboard-response","120","921049","0.0-14.0-0.0-1.3","null","<span style='color:GreenYellow; font-size: 70px;'>正确! </span>","null","","","","","","","","","","","","","","","","","","","","","","","feedback_test",""
"","","","","","psychophysics","121","923010","0.0-14.0-0.0-0.4","960","","k","","","","","","","","","","","","","key","k","16.683290598289165","960","536","k","true","img/C_28.png","朋友","prac_self","","自我"
"","","","","","html-keyboard-response","122","923312","0.0-14.0-0.0-1.4","null","<span style='color:GreenYellow; font-size: 70px;'>正确! </span>","null","","","","","","","","","","","","","","","","","","","","","","","feedback_test",""
"","","","","","psychophysics","123","925815","0.0-14.0-0.0-0.5","null","","null","","","","","","","","","","","","","key","null","16.68325503355661","960","536","f","false","img/H_28.png","朋友","prac_self","","朋友"
"","","","","","html-keyboard-response","124","926117","0.0-14.0-0.0-1.5","null","<span class='add_' style='color:yellow; font-size: 70px;'> 太慢! </span>","null","","","","","","","","","","","","","","","","","","","","","","","feedback_test",""
"","","","","","psychophysics","125","928250","0.0-14.0-0.0-0.6","1131","","d","","","","","","","","","","","","","key","d","16.683393700788987","960","536","d","true","img/H_28.png","自我","prac_self","","朋友"
"","","","","","html-keyboard-response","126","928552","0.0-14.0-0.0-1.6","null","<span style='color:GreenYellow; font-size: 70px;'>正确! </span>","null","","","","","","","","","","","","","","","","","","","","","","","feedback_test",""
"","","","","","psychophysics","127","930266","0.0-14.0-0.0-0.7","711","","j","","","","","","","","","","","","","key","j","16.683117647059536","960","536","j","true","img/C_28.png","自我","prac_self","","自我"
"","","","","","html-keyboard-response","128","930569","0.0-14.0-0.0-1.7","null","<span style='color:GreenYellow; font-size: 70px;'>正确! </span>","null","","","","","","","","","","","","","","","","","","","","","","","feedback_test",""
"","","","","","psychophysics","129","932987","0.0-14.0-0.0-0.8","1416","","d","","","","","","","","","","","","","key","d","16.68325694444421","960","536","d","true","img/S_28.png","自我","prac_self","","生人"
"","","","","","html-keyboard-response","130","933290","0.0-14.0-0.0-1.8","null","<span style='color:GreenYellow; font-size: 70px;'>正确! </span>","null","","","","","","","","","","","","","","","","","","","","","","","feedback_test",""
"","","","","","psychophysics","131","935210","0.0-14.0-0.0-0.9","919","","d","","","","","","","","","","","","","key","d","16.68338596491192","960","536","k","false","img/C_28.png","生人","prac_self","","自我"
"","","","","","html-keyboard-response","132","935513","0.0-14.0-0.0-1.9","null","<span style='color:red; font-size: 70px;'>错误! </span>","null","","","","","","","","","","","","","","","","","","","","","","","feedback_test",""
"","","","","","psychophysics","133","937882","0.0-14.0-0.0-0.10","1368","","f","","","","","","","","","","","","","key","f","16.68323404255409","960","536","f","true","img/S_28.png","生人","prac_self","","生人"
"","","","","","html-keyboard-response","134","938184","0.0-14.0-0.0-1.10","null","<span style='color:GreenYellow; font-size: 70px;'>正确! </span>","null","","","","","","","","","","","","","","","","","","","","","","","feedback_test",""
"","","","","","psychophysics","135","940418","0.0-14.0-0.0-0.11","1232","","d","","","","","","","","","","","","","key","d","16.683233082707606","960","536","d","true","img/H_28.png","生人","prac_self","","朋友"
"","","","","","html-keyboard-response","136","940720","0.0-14.0-0.0-1.11","null","<span style='color:GreenYellow; font-size: 70px;'>正确! </span>","null","","","","","","","","","","","","","","","","","","","","","","","feedback_test",""
"","","","","","psychophysics","137","943074","0.0-14.0-0.0-0.12","1351","","f","","","","","","","","","","","","","key","f","16.683235714285235","960","536","d","false","img/H_28.png","生人","prac_self","","朋友"
"","","","","","html-keyboard-response","138","943376","0.0-14.0-0.0-1.12","null","<span style='color:red; font-size: 70px;'>错误! </span>","null","","","","","","","","","","","","","","","","","","","","","","","feedback_test",""
"","","","","","psychophysics","139","945878","0.0-14.0-0.0-0.13","null","","null","","","","","","","","","","","","","key","null","16.603317567567352","960","536","f","false","img/H_28.png","朋友","prac_self","","朋友"
"","","","","","html-keyboard-response","140","946180","0.0-14.0-0.0-1.13","null","<span class='add_' style='color:yellow; font-size: 70px;'> 太慢! </span>","null","","","","","","","","","","","","","","","","","","","","","","","feedback_test",""
"","","","","","psychophysics","141","948130","0.0-14.0-0.0-0.14","949","","d","","","","","","","","","","","","","key","d","16.683321739129884","960","536","d","true","img/S_28.png","朋友","prac_self","","生人"
"","","","","","html-keyboard-response","142","948433","0.0-14.0-0.0-1.14","null","<span style='color:GreenYellow; font-size: 70px;'>正确! </span>","null","","","","","","","","","","","","","","","","","","","","","","","feedback_test",""
"","","","","","psychophysics","143","950618","0.0-14.0-0.0-0.15","1183","","f","","","","","","","","","","","","","key","f","16.683284615384988","960","536","f","true","img/S_28.png","生人","prac_self","","生人"
"","","","","","html-keyboard-response","144","950920","0.0-14.0-0.0-1.15","null","<span style='color:GreenYellow; font-size: 70px;'>正确! </span>","null","","","","","","","","","","","","","","","","","","","","","","","feedback_test",""
"","","","","","psychophysics","145","953322","0.0-14.0-0.0-0.16","1399","","k","","","","","","","","","","","","","key","k","16.683307692307615","960","536","k","true","img/C_28.png","生人","prac_self","","自我"
"","","","","","html-keyboard-response","146","953624","0.0-14.0-0.0-1.16","null","<span style='color:GreenYellow; font-size: 70px;'>正确! </span>","null","","","","","","","","","","","","","","","","","","","","","","","feedback_test",""
"","","","","","psychophysics","147","955458","0.0-14.0-0.0-0.17","833","","k","","","","","","","","","","","","","key","k","16.68302752293535","960","536","k","true","img/C_28.png","朋友","prac_self","","自我"
"","","","","","html-keyboard-response","148","955761","0.0-14.0-0.0-1.17","null","<span style='color:GreenYellow; font-size: 70px;'>正确! </span>","null","","","","","","","","","","","","","","","","","","","","","","","feedback_test",""
"","","","","","psychophysics","149","957434","0.0-14.0-0.0-0.18","672","","j","","","","","","","","","","","","","key","j","16.68318181818191","960","536","j","true","img/C_28.png","自我","prac_self","","自我"
"","","","","","html-keyboard-response","150","957736","0.0-14.0-0.0-1.18","null","<span style='color:GreenYellow; font-size: 70px;'>正确! </span>","null","","","","","","","","","","","","","","","","","","","","","","","feedback_test",""
"","","","","","psychophysics","151","960122","0.0-14.0-0.0-0.19","1384","","f","","","","","","","","","","","","","key","f","16.683338028168908","960","536","f","true","img/S_28.png","生人","prac_self","","生人"
"","","","","","html-keyboard-response","152","960424","0.0-14.0-0.0-1.19","null","<span style='color:GreenYellow; font-size: 70px;'>正确! </span>","null","","","","","","","","","","","","","","","","","","","","","","","feedback_test",""
"","","","","","psychophysics","153","962738","0.0-14.0-0.0-0.20","1312","","d","","","","","","","","","","","","","key","d","16.68333333333367","960","536","d","true","img/S_28.png","自我","prac_self","","生人"
"","","","","","html-keyboard-response","154","963041","0.0-14.0-0.0-1.20","null","<span style='color:GreenYellow; font-size: 70px;'>正确! </span>","null","","","","","","","","","","","","","","","","","","","","","","","feedback_test",""
"","","","","","psychophysics","155","964834","0.0-14.0-0.0-0.21","791","","f","","","","","","","","","","","","","key","f","16.683719626168728","960","536","f","true","img/H_28.png","朋友","prac_self","","朋友"
"","","","","","html-keyboard-response","156","965138","0.0-14.0-0.0-1.21","null","<span style='color:GreenYellow; font-size: 70px;'>正确! </span>","null","","","","","","","","","","","","","","","","","","","","","","","feedback_test",""
"","","","","","psychophysics","157","967306","0.0-14.0-0.0-0.22","1166","","d","","","","","","","","","","","","","key","d","16.683271317829398","960","536","d","true","img/H_28.png","自我","prac_self","","朋友"
"","","","","","html-keyboard-response","158","967608","0.0-14.0-0.0-1.22","null","<span style='color:GreenYellow; font-size: 70px;'>正确! </span>","null","","","","","","","","","","","","","","","","","","","","","","","feedback_test",""
"","","","","","psychophysics","159","969474","0.0-14.0-0.0-0.23","864","","j","","","","","","","","","","","","","key","j","16.68307207207204","960","536","j","true","img/C_28.png","自我","prac_self","","自我"
"","","","","","html-keyboard-response","160","969776","0.0-14.0-0.0-1.23","null","<span style='color:GreenYellow; font-size: 70px;'>正确! </span>","null","","","","","","","","","","","","","","","","","","","","","","","feedback_test",""
"","","","","","html-keyboard-response","161","978562","0.0-15.0","8782","[""<style>.context{color:white; font-size: 35px; line-height:40px}</style>              <div><p class='context'>您正确回答了75% 的试次。</p><p class='context'>您的平均反应时为1090毫秒。</p><p class='context'>恭喜您完成这一阶段的练习。按任意键进入<span style='color: yellow;'>重点关注图形为“朋友”</span>的练习。</p></div><p class='footer' style='font-size:35px; line-height:30px;'>任务要求：\n              <p class='footer' style='font-size:35px; line-height:35px;'>对于与“朋友”对应的图形：如果 匹配 ，请按 <span style=\""color: lightgreen;\"">j键</span></p><p class='footer' style='font-size:35px'>如果 不匹配 ，请按<span style=\""color: lightgreen;\"">k键</p></span>\n              <p class='footer' style='font-size:35px; line-height:35px;'>对于非“朋友”对应的图形：如果 匹配 ，请按 <span style=\""color: lightgreen;\"">f键</span></p><p class='footer' style='font-size:35px'>如果 不匹配 ，请按<span style=\""color: lightgreen;\"">d键</p></span>\n              <p class='footer' style='font-size:22px; line-height:25px;'>请在实验过程中将您的<span style=\""color: lightgreen;\"">食指和中指</span>放在电脑键盘的相应键位上进行按键。</p></span>""]"," ","","","","","","","","","","","","","","","","","","","","","","","",""
"","","","","","psychophysics","162","980554","0.0-16.0-0.0-0.0","986","","k","","","","","","","","","","","","","key","k","16.683203389830652","960","536","k","true","img/H_28.png","自我","prac_friend","","朋友"
"","","","","","html-keyboard-response","163","980856","0.0-16.0-0.0-1.0","null","<span style='color:GreenYellow; font-size: 70px;'>正确! </span>","null","","","","","","","","","","","","","","","","","","","","","","","feedback_test",""
"","","","","","psychophysics","164","982730","0.0-16.0-0.0-0.1","872","","f","","","","","","","","","","","","","key","f","16.68351351351452","960","536","f","true","img/C_28.png","自我","prac_friend","","自我"
"","","","","","html-keyboard-response","165","983032","0.0-16.0-0.0-1.1","null","<span style='color:GreenYellow; font-size: 70px;'>正确! </span>","null","","","","","","","","","","","","","","","","","","","","","","","feedback_test",""
"","","","","","psychophysics","166","985482","0.0-16.0-0.0-0.2","1448","","k","","","","","","","","","","","","","key","k","16.648910344827215","960","536","d","false","img/C_28.png","朋友","prac_friend","","自我"
"","","","","","html-keyboard-response","167","985783","0.0-16.0-0.0-1.2","null","<span style='color:red; font-size: 70px;'>错误! </span>","null","","","","","","","","","","","","","","","","","","","","","","","feedback_test",""
"","","","","","psychophysics","168","987986","0.0-16.0-0.0-0.3","1201","","d","","","","","","","","","","","","","key","d","16.683473282443885","960","536","d","true","img/S_28.png","朋友","prac_friend","","生人"
"","","","","","html-keyboard-response","169","988288","0.0-16.0-0.0-1.3","null","<span style='color:GreenYellow; font-size: 70px;'>正确! </span>","null","","","","","","","","","","","","","","","","","","","","","","","feedback_test",""
"","","","","","psychophysics","170","990466","0.0-16.0-0.0-0.4","1177","","f","","","","","","","","","","","","","key","f","16.6069612403097","960","536","f","true","img/S_28.png","生人","prac_friend","","生人"
"","","","","","html-keyboard-response","171","990768","0.0-16.0-0.0-1.4","null","<span style='color:GreenYellow; font-size: 70px;'>正确! </span>","null","","","","","","","","","","","","","","","","","","","","","","","feedback_test",""
"","","","","","psychophysics","172","992922","0.0-16.0-0.0-0.5","1153","","f","","","","","","","","","","","","","key","f","16.68346093749824","960","536","f","true","img/S_28.png","生人","prac_friend","","生人"
"","","","","","html-keyboard-response","173","993224","0.0-16.0-0.0-1.5","null","<span style='color:GreenYellow; font-size: 70px;'>正确! </span>","null","","","","","","","","","","","","","","","","","","","","","","","feedback_test",""
"","","","","","psychophysics","174","995050","0.0-16.0-0.0-0.6","824","","j","","","","","","","","","","","","","key","j","16.683385321101465","960","536","j","true","img/H_28.png","朋友","prac_friend","","朋友"
"","","","","","html-keyboard-response","175","995352","0.0-16.0-0.0-1.6","null","<span style='color:GreenYellow; font-size: 70px;'>正确! </span>","null","","","","","","","","","","","","","","","","","","","","","","","feedback_test",""
"","","","","","psychophysics","176","997570","0.0-16.0-0.0-0.7","1217","","f","","","","","","","","","","","","","key","f","16.68340909090881","960","536","f","true","img/C_28.png","自我","prac_friend","","自我"
"","","","","","html-keyboard-response","177","997872","0.0-16.0-0.0-1.7","null","<span style='color:GreenYellow; font-size: 70px;'>正确! </span>","null","","","","","","","","","","","","","","","","","","","","","","","feedback_test",""
"","","","","","psychophysics","178","999722","0.0-16.0-0.0-0.8","848","","j","","","","","","","","","","","","","key","j","16.683399999998933","960","536","j","true","img/H_28.png","朋友","prac_friend","","朋友"
"","","","","","html-keyboard-response","179","1000025","0.0-16.0-0.0-1.8","null","<span style='color:GreenYellow; font-size: 70px;'>正确! </span>","null","","","","","","","","","","","","","","","","","","","","","","","feedback_test",""
"","","","","","psychophysics","180","1001954","0.0-16.0-0.0-0.9","928","","d","","","","","","","","","","","","","key","d","16.683234782608064","960","536","d","true","img/C_28.png","生人","prac_friend","","自我"
"","","","","","html-keyboard-response","181","1002256","0.0-16.0-0.0-1.9","null","<span style='color:GreenYellow; font-size: 70px;'>正确! </span>","null","","","","","","","","","","","","","","","","","","","","","","","feedback_test",""
"","","","","","psychophysics","182","1004442","0.0-16.0-0.0-0.10","1184","","k","","","","","","","","","","","","","key","k","16.683376923076306","960","536","k","true","img/H_28.png","生人","prac_friend","","朋友"
"","","","","","html-keyboard-response","183","1004744","0.0-16.0-0.0-1.10","null","<span style='color:GreenYellow; font-size: 70px;'>正确! </span>","null","","","","","","","","","","","","","","","","","","","","","","","feedback_test",""
"","","","","","psychophysics","184","1006762","0.0-16.0-0.0-0.11","1016","","f","","","","","","","","","","","","","key","f","16.683208333334186","960","536","d","false","img/S_28.png","自我","prac_friend","","生人"
"","","","","","html-keyboard-response","185","1007064","0.0-16.0-0.0-1.11","null","<span style='color:red; font-size: 70px;'>错误! </span>","null","","","","","","","","","","","","","","","","","","","","","","","feedback_test",""
"","","","","","psychophysics","186","1009506","0.0-16.0-0.0-0.12","1439","","d","","","","","","","","","","","","","key","d","16.683420689654504","960","536","d","true","img/S_28.png","朋友","prac_friend","","生人"
"","","","","","html-keyboard-response","187","1009808","0.0-16.0-0.0-1.12","null","<span style='color:GreenYellow; font-size: 70px;'>正确! </span>","null","","","","","","","","","","","","","","","","","","","","","","","feedback_test",""
"","","","","","psychophysics","188","1012311","0.0-16.0-0.0-0.13","null","","null","","","","","","","","","","","","","key","null","16.661175675676017","960","536","f","false","img/S_28.png","生人","prac_friend","","生人"
"","","","","","html-keyboard-response","189","1012613","0.0-16.0-0.0-1.13","null","<span class='add_' style='color:yellow; font-size: 70px;'> 太慢! </span>","null","","","","","","","","","","","","","","","","","","","","","","","feedback_test",""
"","","","","","psychophysics","190","1014802","0.0-16.0-0.0-0.14","1187","","j","","","","","","","","","","","","","key","j","16.68342307692286","960","536","j","true","img/H_28.png","朋友","prac_friend","","朋友"
"","","","","","html-keyboard-response","191","1015103","0.0-16.0-0.0-1.14","null","<span style='color:GreenYellow; font-size: 70px;'>正确! </span>","null","","","","","","","","","","","","","","","","","","","","","","","feedback_test",""
"","","","","","psychophysics","192","1017607","0.0-16.0-0.0-0.15","null","","null","","","","","","","","","","","","","key","null","16.68325503355661","960","536","d","false","img/C_28.png","生人","prac_friend","","自我"
"","","","","","html-keyboard-response","193","1017908","0.0-16.0-0.0-1.15","null","<span class='add_' style='color:yellow; font-size: 70px;'> 太慢! </span>","null","","","","","","","","","","","","","","","","","","","","","","","feedback_test",""
"","","","","","psychophysics","194","1020178","0.0-16.0-0.0-0.16","1268","","d","","","","","","","","","","","","","key","d","16.683399999998855","960","536","k","false","img/H_28.png","生人","prac_friend","","朋友"
"","","","","","html-keyboard-response","195","1020480","0.0-16.0-0.0-1.16","null","<span style='color:red; font-size: 70px;'>错误! </span>","null","","","","","","","","","","","","","","","","","","","","","","","feedback_test",""
"","","","","","psychophysics","196","1022874","0.0-16.0-0.0-0.17","1392","","d","","","","","","","","","","","","","key","d","16.68336363636296","960","536","k","false","img/H_28.png","自我","prac_friend","","朋友"
"","","","","","html-keyboard-response","197","1023176","0.0-16.0-0.0-1.17","null","<span style='color:red; font-size: 70px;'>错误! </span>","null","","","","","","","","","","","","","","","","","","","","","","","feedback_test",""
"","","","","","psychophysics","198","1025679","0.0-16.0-0.0-0.18","null","","null","","","","","","","","","","","","","key","null","16.6835234899327","960","536","d","false","img/S_28.png","自我","prac_friend","","生人"
"","","","","","html-keyboard-response","199","1025981","0.0-16.0-0.0-1.18","null","<span class='add_' style='color:yellow; font-size: 70px;'> 太慢! </span>","null","","","","","","","","","","","","","","","","","","","","","","","feedback_test",""
"","","","","","psychophysics","200","1028226","0.0-16.0-0.0-0.19","1243","","f","","","","","","","","","","","","","key","f","16.683300751881127","960","536","f","true","img/S_28.png","生人","prac_friend","","生人"
"","","","","","html-keyboard-response","201","1028528","0.0-16.0-0.0-1.19","null","<span style='color:GreenYellow; font-size: 70px;'>正确! </span>","null","","","","","","","","","","","","","","","","","","","","","","","feedback_test",""
"","","","","","psychophysics","202","1030746","0.0-16.0-0.0-0.20","1217","","d","","","","","","","","","","","","","key","d","16.683557251907303","960","536","f","false","img/C_28.png","自我","prac_friend","","自我"
"","","","","","html-keyboard-response","203","1031047","0.0-16.0-0.0-1.20","null","<span style='color:red; font-size: 70px;'>错误! </span>","null","","","","","","","","","","","","","","","","","","","","","","","feedback_test",""
"","","","","","psychophysics","204","1033138","0.0-16.0-0.0-0.21","1090","","d","","","","","","","","","","","","","key","d","16.683467741935484","960","536","d","true","img/C_28.png","朋友","prac_friend","","自我"
"","","","","","html-keyboard-response","205","1033440","0.0-16.0-0.0-1.21","null","<span style='color:GreenYellow; font-size: 70px;'>正确! </span>","null","","","","","","","","","","","","","","","","","","","","","","","feedback_test",""
"","","","","","psychophysics","206","1035450","0.0-16.0-0.0-0.22","1008","","j","","","","","","","","","","","","","key","j","16.684621848739262","960","536","j","true","img/H_28.png","朋友","prac_friend","","朋友"
"","","","","","html-keyboard-response","207","1035750","0.0-16.0-0.0-1.22","null","<span style='color:GreenYellow; font-size: 70px;'>正确! </span>","null","","","","","","","","","","","","","","","","","","","","","","","feedback_test",""
"","","","","","psychophysics","208","1037746","0.0-16.0-0.0-0.23","994","","d","","","","","","","","","","","","","key","d","16.683428571430355","960","536","f","false","img/C_28.png","自我","prac_friend","","自我"
"","","","","","html-keyboard-response","209","1038047","0.0-16.0-0.0-1.23","null","<span style='color:red; font-size: 70px;'>错误! </span>","null","","","","","","","","","","","","","","","","","","","","","","","feedback_test",""
"","","","","","html-keyboard-response","210","1045242","0.0-16.0-1.0-0.0","7193","<style>.context{color:white; font-size: 35px; line-height:40px}</style>                              <div><p class='context'>您正确回答了63% 的试次。</p><p class='context'>您的平均反应时为1090毫秒。</p>"," ","","","","","","","","","","","","","","","","","","","","","","","",""
"","","","","","instructions","211","1053968","0.0-16.0-1.0-1.0","8724","","","","","","","","","","","","","","[{""page_index"":0,""viewing_time"":2580},{""page_index"":1,""viewing_time"":3808},{""page_index"":2,""viewing_time"":2336}]","","","","","","","","","","","",""
"","","","","","psychophysics","212","1056472","0.0-16.1-0.1-0.24","null","","null","","","","","","","","","","","","","key","null","16.683277027027028","960","536","d","false","img/C_28.png","生人","prac_friend","","自我"
"","","","","","html-keyboard-response","213","1056773","0.0-16.1-0.1-1.24","null","<span class='add_' style='color:yellow; font-size: 70px;'> 太慢! </span>","null","","","","","","","","","","","","","","","","","","","","","","","feedback_test",""
"","","","","","psychophysics","214","1058450","0.0-16.1-0.1-0.25","676","","j","","","","","","","","","","","","","key","j","16.68347474747347","960","536","j","true","img/H_28.png","朋友","prac_friend","","朋友"
"","","","","","html-keyboard-response","215","1058752","0.0-16.1-0.1-1.25","null","<span style='color:GreenYellow; font-size: 70px;'>正确! </span>","null","","","","","","","","","","","","","","","","","","","","","","","feedback_test",""
"","","","","","psychophysics","216","1061130","0.0-16.1-0.1-0.26","1376","","f","","","","","","","","","","","","","key","f","16.68351408450628","960","536","d","false","img/C_28.png","朋友","prac_friend","","自我"
"","","","","","html-keyboard-response","217","1061431","0.0-16.1-0.1-1.26","null","<span style='color:red; font-size: 70px;'>错误! </span>","null","","","","","","","","","","","","","","","","","","","","","","","feedback_test",""
"","","","","","psychophysics","218","1063498","0.0-16.1-0.1-0.27","1065","","d","","","","","","","","","","","","","key","d","16.68343089431017","960","536","d","true","img/S_28.png","自我","prac_friend","","生人"
"","","","","","html-keyboard-response","219","1063800","0.0-16.1-0.1-1.27","null","<span style='color:GreenYellow; font-size: 70px;'>正确! </span>","null","","","","","","","","","","","","","","","","","","","","","","","feedback_test",""
"","","","","","psychophysics","220","1065882","0.0-16.1-0.1-0.28","1080","","d","","","","","","","","","","","","","key","d","16.683056910569604","960","536","k","false","img/H_28.png","自我","prac_friend","","朋友"
"","","","","","html-keyboard-response","221","1066184","0.0-16.1-0.1-1.28","null","<span style='color:red; font-size: 70px;'>错误! </span>","null","","","","","","","","","","","","","","","","","","","","","","","feedback_test",""
"","","","","","psychophysics","222","1068570","0.0-16.1-0.1-0.29","1384","","f","","","","","","","","","","","","","key","f","16.68345070422568","960","536","d","false","img/S_28.png","朋友","prac_friend","","生人"
"","","","","","html-keyboard-response","223","1068871","0.0-16.1-0.1-1.29","null","<span style='color:red; font-size: 70px;'>错误! </span>","null","","","","","","","","","","","","","","","","","","","","","","","feedback_test",""
"","","","","","psychophysics","224","1070738","0.0-16.1-0.1-0.30","865","","j","","","","","","","","","","","","","key","j","16.683144144143338","960","536","f","false","img/C_28.png","自我","prac_friend","","自我"
"","","","","","html-keyboard-response","225","1071040","0.0-16.1-0.1-1.30","null","<span style='color:red; font-size: 70px;'>错误! </span>","null","","","","","","","","","","","","","","","","","","","","","","","feedback_test",""
"","","","","","psychophysics","226","1072946","0.0-16.1-0.1-0.31","904","","d","","","","","","","","","","","","","key","d","16.68324778761006","960","536","f","false","img/S_28.png","生人","prac_friend","","生人"
"","","","","","html-keyboard-response","227","1073248","0.0-16.1-0.1-1.31","null","<span style='color:red; font-size: 70px;'>错误! </span>","null","","","","","","","","","","","","","","","","","","","","","","","feedback_test",""
"","","","","","psychophysics","228","1074978","0.0-16.1-0.1-0.32","729","","f","","","","","","","","","","","","","key","f","16.68342718446754","960","536","f","true","img/S_28.png","生人","prac_friend","","生人"
"","","","","","html-keyboard-response","229","1075280","0.0-16.1-0.1-1.32","null","<span style='color:GreenYellow; font-size: 70px;'>正确! </span>","null","","","","","","","","","","","","","","","","","","","","","","","feedback_test",""
"","","","","","psychophysics","230","1077066","0.0-16.1-0.1-0.33","784","","j","","","","","","","","","","","","","key","j","16.683160377358842","960","536","j","true","img/H_28.png","朋友","prac_friend","","朋友"
"","","","","","html-keyboard-response","231","1077368","0.0-16.1-0.1-1.33","null","<span style='color:GreenYellow; font-size: 70px;'>正确! </span>","null","","","","","","","","","","","","","","","","","","","","","","","feedback_test",""
"","","","","","psychophysics","232","1079578","0.0-16.1-0.1-0.34","1208","","k","","","","","","","","","","","","","key","k","16.683290076335425","960","536","k","true","img/H_28.png","生人","prac_friend","","朋友"
"","","","","","html-keyboard-response","233","1079880","0.0-16.1-0.1-1.34","null","<span style='color:GreenYellow; font-size: 70px;'>正确! </span>","null","","","","","","","","","","","","","","","","","","","","","","","feedback_test",""
"","","","","","psychophysics","234","1082018","0.0-16.1-0.1-0.35","1136","","f","","","","","","","","","","","","","key","f","16.683244094489083","960","536","f","true","img/C_28.png","自我","prac_friend","","自我"
"","","","","","html-keyboard-response","235","1082332","0.0-16.1-0.1-1.35","null","<span style='color:GreenYellow; font-size: 70px;'>正确! </span>","null","","","","","","","","","","","","","","","","","","","","","","","feedback_test",""
"","","","","","psychophysics","236","1084114","0.0-16.1-0.1-0.36","780","","j","","","","","","","","","","","","","key","j","16.683647619048134","960","536","j","true","img/H_28.png","朋友","prac_friend","","朋友"
"","","","","","html-keyboard-response","237","1084416","0.0-16.1-0.1-1.36","null","<span style='color:GreenYellow; font-size: 70px;'>正确! </span>","null","","","","","","","","","","","","","","","","","","","","","","","feedback_test",""
"","","","","","psychophysics","238","1086698","0.0-16.1-0.1-0.37","1280","","f","","","","","","","","","","","","","key","f","16.67197777777738","960","536","f","true","img/S_28.png","生人","prac_friend","","生人"
"","","","","","html-keyboard-response","239","1087000","0.0-16.1-0.1-1.37","null","<span style='color:GreenYellow; font-size: 70px;'>正确! </span>","null","","","","","","","","","","","","","","","","","","","","","","","feedback_test",""
"","","","","","psychophysics","240","1089330","0.0-16.1-0.1-0.38","1328","","j","","","","","","","","","","","","","key","j","16.683280575539744","960","536","k","false","img/H_28.png","生人","prac_friend","","朋友"
"","","","","","html-keyboard-response","241","1089631","0.0-16.1-0.1-1.38","null","<span style='color:red; font-size: 70px;'>错误! </span>","null","","","","","","","","","","","","","","","","","","","","","","","feedback_test",""
"","","","","","psychophysics","242","1091842","0.0-16.1-0.1-0.39","1209","","d","","","","","","","","","","","","","key","d","16.68328787878713","960","536","d","true","img/C_28.png","生人","prac_friend","","自我"
"","","","","","html-keyboard-response","243","1092144","0.0-16.1-0.1-1.39","null","<span style='color:GreenYellow; font-size: 70px;'>正确! </span>","null","","","","","","","","","","","","","","","","","","","","","","","feedback_test",""
"","","","","","psychophysics","244","1094450","0.0-16.1-0.1-0.40","1304","","k","","","","","","","","","","","","","key","k","16.68310218978075","960","536","k","true","img/H_28.png","自我","prac_friend","","朋友"
"","","","","","html-keyboard-response","245","1094750","0.0-16.1-0.1-1.40","null","<span style='color:GreenYellow; font-size: 70px;'>正确! </span>","null","","","","","","","","","","","","","","","","","","","","","","","feedback_test",""
"","","","","","psychophysics","246","1096882","0.0-16.1-0.1-0.41","1130","","d","","","","","","","","","","","","","key","d","16.683330708661842","960","536","d","true","img/S_28.png","自我","prac_friend","","生人"
"","","","","","html-keyboard-response","247","1097183","0.0-16.1-0.1-1.41","null","<span style='color:GreenYellow; font-size: 70px;'>正确! </span>","null","","","","","","","","","","","","","","","","","","","","","","","feedback_test",""
"","","","","","psychophysics","248","1099426","0.0-16.1-0.1-0.42","1241","","d","","","","","","","","","","","","","key","d","16.683218045111158","960","536","f","false","img/S_28.png","生人","prac_friend","","生人"
"","","","","","html-keyboard-response","249","1099727","0.0-16.1-0.1-1.42","null","<span style='color:red; font-size: 70px;'>错误! </span>","null","","","","","","","","","","","","","","","","","","","","","","","feedback_test",""
"","","","","","psychophysics","250","1101594","0.0-16.1-0.1-0.43","866","","j","","","","","","","","","","","","","key","j","16.683270270269162","960","536","d","false","img/C_28.png","朋友","prac_friend","","自我"
"","","","","","html-keyboard-response","251","1101896","0.0-16.1-0.1-1.43","null","<span style='color:red; font-size: 70px;'>错误! </span>","null","","","","","","","","","","","","","","","","","","","","","","","feedback_test",""
"","","","","","psychophysics","252","1104026","0.0-16.1-0.1-0.44","1129","","f","","","","","","","","","","","","","key","f","16.683244094489083","960","536","f","true","img/C_28.png","自我","prac_friend","","自我"
"","","","","","html-keyboard-response","253","1104328","0.0-16.1-0.1-1.44","null","<span style='color:GreenYellow; font-size: 70px;'>正确! </span>","null","","","","","","","","","","","","","","","","","","","","","","","feedback_test",""
"","","","","","psychophysics","254","1106530","0.0-16.1-0.1-0.45","1200","","d","","","","","","","","","","","","","key","d","16.68341221374047","960","536","d","true","img/S_28.png","朋友","prac_friend","","生人"
"","","","","","html-keyboard-response","255","1106832","0.0-16.1-0.1-1.45","null","<span style='color:GreenYellow; font-size: 70px;'>正确! </span>","null","","","","","","","","","","","","","","","","","","","","","","","feedback_test",""
"","","","","","psychophysics","256","1108730","0.0-16.1-0.1-0.46","896","","f","","","","","","","","","","","","","key","f","16.68322123893726","960","536","f","true","img/C_28.png","自我","prac_friend","","自我"
"","","","","","html-keyboard-response","257","1109031","0.0-16.1-0.1-1.46","null","<span style='color:GreenYellow; font-size: 70px;'>正确! </span>","null","","","","","","","","","","","","","","","","","","","","","","","feedback_test",""
"","","","","","psychophysics","258","1110714","0.0-16.1-0.1-0.47","681","","j","","","","","","","","","","","","","key","j","16.683489999999292","960","536","j","true","img/H_28.png","朋友","prac_friend","","朋友"
"","","","","","html-keyboard-response","259","1111016","0.0-16.1-0.1-1.47","null","<span style='color:GreenYellow; font-size: 70px;'>正确! </span>","null","","","","","","","","","","","","","","","","","","","","","","","feedback_test",""
"","","","","","html-keyboard-response","260","1112066","0.0-16.1-1.1-0.1","1047","<style>.context{color:white; font-size: 35px; line-height:40px}</style>                              <div><p class='context'>您正确回答了63% 的试次。</p><p class='context'>您的平均反应时为1014毫秒。</p>"," ","","","","","","","","","","","","","","","","","","","","","","","",""
"","","","","","instructions","261","1116064","0.0-16.1-1.1-1.1","3996","","","","","","","","","","","","","","[{""page_index"":0,""viewing_time"":1844},{""page_index"":1,""viewing_time"":928},{""page_index"":2,""viewing_time"":1224}]","","","","","","","","","","","",""
"","","","","","psychophysics","262","1118218","0.0-16.2-0.2-0.48","1151","","k","","","","","","","","","","","","","key","k","16.683273437500247","960","536","k","true","img/H_28.png","生人","prac_friend","","朋友"
"","","","","","html-keyboard-response","263","1118519","0.0-16.2-0.2-1.48","null","<span style='color:GreenYellow; font-size: 70px;'>正确! </span>","null","","","","","","","","","","","","","","","","","","","","","","","feedback_test",""
"","","","","","psychophysics","264","1120465","0.0-16.2-0.2-0.49","945","","d","","","","","","","","","","","","","key","d","16.68333043478146","960","536","d","true","img/S_28.png","自我","prac_friend","","生人"
"","","","","","html-keyboard-response","265","1120767","0.0-16.2-0.2-1.49","null","<span style='color:GreenYellow; font-size: 70px;'>正确! </span>","null","","","","","","","","","","","","","","","","","","","","","","","feedback_test",""
"","","","","","psychophysics","266","1122530","0.0-16.2-0.2-0.50","761","","f","","","","","","","","","","","","","key","f","16.68340952380871","960","536","f","true","img/S_28.png","生人","prac_friend","","生人"
"","","","","","html-keyboard-response","267","1122844","0.0-16.2-0.2-1.50","null","<span style='color:GreenYellow; font-size: 70px;'>正确! </span>","null","","","","","","","","","","","","","","","","","","","","","","","feedback_test",""
"","","","","","psychophysics","268","1124745","0.0-16.2-0.2-0.51","900","","f","","","","","","","","","","","","","key","f","16.68309734513225","960","536","f","true","img/S_28.png","生人","prac_friend","","生人"
"","","","","","html-keyboard-response","269","1125048","0.0-16.2-0.2-1.51","null","<span style='color:GreenYellow; font-size: 70px;'>正确! </span>","null","","","","","","","","","","","","","","","","","","","","","","","feedback_test",""
"","","","","","psychophysics","270","1127450","0.0-16.2-0.2-0.52","1401","","f","","","","","","","","","","","","","key","f","16.683356643356447","960","536","f","true","img/C_28.png","自我","prac_friend","","自我"
"","","","","","html-keyboard-response","271","1127753","0.0-16.2-0.2-1.52","null","<span style='color:GreenYellow; font-size: 70px;'>正确! </span>","null","","","","","","","","","","","","","","","","","","","","","","","feedback_test",""
"","","","","","psychophysics","272","1129474","0.0-16.2-0.2-0.53","720","","j","","","","","","","","","","","","","key","j","16.683382352939624","960","536","j","true","img/H_28.png","朋友","prac_friend","","朋友"
"","","","","","html-keyboard-response","273","1129776","0.0-16.2-0.2-1.53","null","<span style='color:GreenYellow; font-size: 70px;'>正确! </span>","null","","","","","","","","","","","","","","","","","","","","","","","feedback_test",""
"","","","","","psychophysics","274","1131626","0.0-16.2-0.2-0.54","848","","f","","","","","","","","","","","","","key","f","16.683477064220817","960","536","f","true","img/C_28.png","自我","prac_friend","","自我"
"","","","","","html-keyboard-response","275","1131928","0.0-16.2-0.2-1.54","null","<span style='color:GreenYellow; font-size: 70px;'>正确! </span>","null","","","","","","","","","","","","","","","","","","","","","","","feedback_test",""
"","","","","","psychophysics","276","1133905","0.0-16.2-0.2-0.55","977","","d","","","","","","","","","","","","","key","d","16.683313559322475","960","536","d","true","img/C_28.png","生人","prac_friend","","自我"
"","","","","","html-keyboard-response","277","1134208","0.0-16.2-0.2-1.55","null","<span style='color:GreenYellow; font-size: 70px;'>正确! </span>","null","","","","","","","","","","","","","","","","","","","","","","","feedback_test",""
"","","","","","psychophysics","278","1136594","0.0-16.2-0.2-0.56","1385","","d","","","","","","","","","","","","","key","d","16.683309859155127","960","536","d","true","img/S_28.png","朋友","prac_friend","","生人"
"","","","","","html-keyboard-response","279","1136895","0.0-16.2-0.2-1.56","null","<span style='color:GreenYellow; font-size: 70px;'>正确! </span>","null","","","","","","","","","","","","","","","","","","","","","","","feedback_test",""
"","","","","","psychophysics","280","1138586","0.0-16.2-0.2-0.57","689","","j","","","","","","","","","","","","","key","j","16.684789999998173","960","536","j","true","img/H_28.png","朋友","prac_friend","","朋友"
"","","","","","html-keyboard-response","281","1138888","0.0-16.2-0.2-1.57","null","<span style='color:GreenYellow; font-size: 70px;'>正确! </span>","null","","","","","","","","","","","","","","","","","","","","","","","feedback_test",""
"","","","","","psychophysics","282","1140577","0.0-16.2-0.2-0.58","689","","k","","","","","","","","","","","","","key","k","16.683629999998956","960","536","k","true","img/H_28.png","自我","prac_friend","","朋友"
"","","","","","html-keyboard-response","283","1140880","0.0-16.2-0.2-1.58","null","<span style='color:GreenYellow; font-size: 70px;'>正确! </span>","null","","","","","","","","","","","","","","","","","","","","","","","feedback_test",""
"","","","","","psychophysics","284","1143082","0.0-16.2-0.2-0.59","1201","","d","","","","","","","","","","","","","key","d","16.683267175571864","960","536","d","true","img/C_28.png","朋友","prac_friend","","自我"
"","","","","","html-keyboard-response","285","1143384","0.0-16.2-0.2-1.59","null","<span style='color:GreenYellow; font-size: 70px;'>正确! </span>","null","","","","","","","","","","","","","","","","","","","","","","","feedback_test",""
"","","","","","psychophysics","286","1145386","0.0-16.2-0.2-0.60","1000","","d","","","","","","","","","","","","","key","d","16.683420168067634","960","536","d","true","img/C_28.png","朋友","prac_friend","","自我"
"","","","","","html-keyboard-response","287","1145688","0.0-16.2-0.2-1.60","null","<span style='color:GreenYellow; font-size: 70px;'>正确! </span>","null","","","","","","","","","","","","","","","","","","","","","","","feedback_test",""
"","","","","","psychophysics","288","1147297","0.0-16.2-0.2-0.61","609","","j","","","","","","","","","","","","","key","j","16.684729166666028","960","536","j","true","img/H_28.png","朋友","prac_friend","","朋友"
"","","","","","html-keyboard-response","289","1147600","0.0-16.2-0.2-1.61","null","<span style='color:GreenYellow; font-size: 70px;'>正确! </span>","null","","","","","","","","","","","","","","","","","","","","","","","feedback_test",""
"","","","","","psychophysics","290","1149626","0.0-16.2-0.2-0.62","1024","","f","","","","","","","","","","","","","key","f","16.683241666667165","960","536","f","true","img/S_28.png","生人","prac_friend","","生人"
"","","","","","html-keyboard-response","291","1149928","0.0-16.2-0.2-1.62","null","<span style='color:GreenYellow; font-size: 70px;'>正确! </span>","null","","","","","","","","","","","","","","","","","","","","","","","feedback_test",""
"","","","","","psychophysics","292","1151610","0.0-16.2-0.2-0.63","680","","j","","","","","","","","","","","","","key","j","16.683330000001007","960","536","j","true","img/H_28.png","朋友","prac_friend","","朋友"
"","","","","","html-keyboard-response","293","1151912","0.0-16.2-0.2-1.63","null","<span style='color:GreenYellow; font-size: 70px;'>正确! </span>","null","","","","","","","","","","","","","","","","","","","","","","","feedback_test",""
"","","","","","psychophysics","294","1153849","0.0-16.2-0.2-0.64","936","","d","","","","","","","","","","","","","key","d","16.6835043478251","960","536","d","true","img/S_28.png","自我","prac_friend","","生人"
"","","","","","html-keyboard-response","295","1154152","0.0-16.2-0.2-1.64","null","<span style='color:GreenYellow; font-size: 70px;'>正确! </span>","null","","","","","","","","","","","","","","","","","","","","","","","feedback_test",""
"","","","","","psychophysics","296","1156034","0.0-16.2-0.2-0.65","880","","d","","","","","","","","","","","","","key","d","16.596864864863623","960","536","d","true","img/S_28.png","朋友","prac_friend","","生人"
"","","","","","html-keyboard-response","297","1156335","0.0-16.2-0.2-1.65","null","<span style='color:GreenYellow; font-size: 70px;'>正确! </span>","null","","","","","","","","","","","","","","","","","","","","","","","feedback_test",""
"","","","","","psychophysics","298","1158153","0.0-16.2-0.2-0.66","817","","d","","","","","","","","","","","","","key","d","16.683490740741103","960","536","d","true","img/C_28.png","生人","prac_friend","","自我"
"","","","","","html-keyboard-response","299","1158455","0.0-16.2-0.2-1.66","null","<span style='color:GreenYellow; font-size: 70px;'>正确! </span>","null","","","","","","","","","","","","","","","","","","","","","","","feedback_test",""
"","","","","","psychophysics","300","1160474","0.0-16.2-0.2-0.67","1017","","f","","","","","","","","","","","","","key","f","16.683408333332046","960","536","f","true","img/S_28.png","生人","prac_friend","","生人"
"","","","","","html-keyboard-response","301","1160775","0.0-16.2-0.2-1.67","null","<span style='color:GreenYellow; font-size: 70px;'>正确! </span>","null","","","","","","","","","","","","","","","","","","","","","","","feedback_test",""
"","","","","","psychophysics","302","1163278","0.0-16.2-0.2-0.68","null","","null","","","","","","","","","","","","","key","null","16.587270270270057","960","536","f","false","img/C_28.png","自我","prac_friend","","自我"
"","","","","","html-keyboard-response","303","1163579","0.0-16.2-0.2-1.68","null","<span class='add_' style='color:yellow; font-size: 70px;'> 太慢! </span>","null","","","","","","","","","","","","","","","","","","","","","","","feedback_test",""
"","","","","","psychophysics","304","1166081","0.0-16.2-0.2-0.69","null","","null","","","","","","","","","","","","","key","null","16.683101351350874","960","536","k","false","img/H_28.png","自我","prac_friend","","朋友"
"","","","","","html-keyboard-response","305","1166383","0.0-16.2-0.2-1.69","null","<span class='add_' style='color:yellow; font-size: 70px;'> 太慢! </span>","null","","","","","","","","","","","","","","","","","","","","","","","feedback_test",""
"","","","","","psychophysics","306","1168273","0.0-16.2-0.2-0.70","889","","f","","","","","","","","","","","","","key","f","16.68305357142734","960","536","f","true","img/C_28.png","自我","prac_friend","","自我"
"","","","","","html-keyboard-response","307","1168576","0.0-16.2-0.2-1.70","null","<span style='color:GreenYellow; font-size: 70px;'>正确! </span>","null","","","","","","","","","","","","","","","","","","","","","","","feedback_test",""
"","","","","","psychophysics","308","1170794","0.0-16.2-0.2-0.71","1216","","d","","","","","","","","","","","","","key","d","16.68361363636337","960","536","k","false","img/H_28.png","生人","prac_friend","","朋友"
"","","","","","html-keyboard-response","309","1171096","0.0-16.2-0.2-1.71","null","<span style='color:red; font-size: 70px;'>错误! </span>","null","","","","","","","","","","","","","","","","","","","","","","","feedback_test",""
"","","","","","html-keyboard-response","310","1181586","0.0-17.0","10485","[""<style>.context{color:white; font-size: 35px; line-height:40px}</style>                  <div><p class='context'>您正确回答了88% 的试次。</p><p class='context'>您的平均反应时为929毫秒。</p><p class='context'>恭喜您完成这一阶段的练习。按任意键进入<span style='color: yellow;'>重点关注图形为“生人”</span>的练习。</p></div><p class='footer' style='font-size:35px; line-height:30px;'>任务要求：\n                  <p class='footer' style='font-size:35px; line-height:35px;'>对与“生人”对应的图形，如果 匹配 ，请按 <span style=\""color: lightgreen;\"">j键</span></p><p class='footer' style='font-size:35px'>如果 不匹配 ，请按<span style=\""color: lightgreen;\"">k键</p></span>\n                  <p class='footer' style='font-size:35px; line-height:35px;'>对非“生人”对应的图形，如果 匹配 ，请按 <span style=\""color: lightgreen;\"">f键</span></p><p class='footer' style='font-size:35px'>如果 不匹配 ，请按<span style=\""color: lightgreen;\"">d键</p></span>\n                  <p class='footer' style='font-size:22px; line-height:25px;'>请在实验过程中将您的<span style=\""color: lightgreen;\"">食指和中指</span>放在电脑键盘的相应键位上进行按键。</p></span>""]"," ","","","","","","","","","","","","","","","","","","","","","","","",""
"","","","","","psychophysics","311","1183858","0.0-18.0-0.0-0.0","1267","","d","","","","","","","","","","","","","key","d","16.683370370371268","960","536","f","false","img/C_28.png","自我","prac_stranger","","自我"
"","","","","","html-keyboard-response","312","1184160","0.0-18.0-0.0-1.0","null","<span style='color:red; font-size: 70px;'>错误! </span>","null","","","","","","","","","","","","","","","","","","","","","","","feedback_test",""
"","","","","","psychophysics","313","1186362","0.0-18.0-0.0-0.1","1200","","d","","","","","","","","","","","","","key","d","16.683244274808306","960","536","k","false","img/S_28.png","自我","prac_stranger","","生人"
"","","","","","html-keyboard-response","314","1186664","0.0-18.0-0.0-1.1","null","<span style='color:red; font-size: 70px;'>错误! </span>","null","","","","","","","","","","","","","","","","","","","","","","","feedback_test",""
"","","","","","psychophysics","315","1188674","0.0-18.0-0.0-0.2","1008","","j","","","","","","","","","","","","","key","j","16.683249999999923","960","536","f","false","img/H_28.png","朋友","prac_stranger","","朋友"
"","","","","","html-keyboard-response","316","1188978","0.0-18.0-0.0-1.2","null","<span style='color:red; font-size: 70px;'>错误! </span>","null","","","","","","","","","","","","","","","","","","","","","","","feedback_test",""
"","","","","","psychophysics","317","1191074","0.0-18.0-0.0-0.3","1094","","j","","","","","","","","","","","","","key","j","16.68328800000064","960","536","j","true","img/S_28.png","生人","prac_stranger","","生人"
"","","","","","html-keyboard-response","318","1191375","0.0-18.0-0.0-1.3","null","<span style='color:GreenYellow; font-size: 70px;'>正确! </span>","null","","","","","","","","","","","","","","","","","","","","","","","feedback_test",""
"","","","","","psychophysics","319","1193562","0.0-18.0-0.0-0.4","1185","","d","","","","","","","","","","","","","key","d","16.683230769231272","960","536","d","true","img/H_28.png","生人","prac_stranger","","朋友"
"","","","","","html-keyboard-response","320","1193865","0.0-18.0-0.0-1.4","null","<span style='color:GreenYellow; font-size: 70px;'>正确! </span>","null","","","","","","","","","","","","","","","","","","","","","","","feedback_test",""
"","","","","","psychophysics","321","1195946","0.0-18.0-0.0-0.5","1080","","d","","","","","","","","","","","","","key","d","16.683120967741424","960","536","d","true","img/C_28.png","生人","prac_stranger","","自我"
"","","","","","html-keyboard-response","322","1196248","0.0-18.0-0.0-1.5","null","<span style='color:GreenYellow; font-size: 70px;'>正确! </span>","null","","","","","","","","","","","","","","","","","","","","","","","feedback_test",""
"","","","","","psychophysics","323","1198122","0.0-18.0-0.0-0.6","872","","f","","","","","","","","","","","","","key","f","16.683324324323685","960","536","f","true","img/C_28.png","自我","prac_stranger","","自我"
"","","","","","html-keyboard-response","324","1198424","0.0-18.0-0.0-1.6","null","<span style='color:GreenYellow; font-size: 70px;'>正确! </span>","null","","","","","","","","","","","","","","","","","","","","","","","feedback_test",""
"","","","","","psychophysics","325","1200522","0.0-18.0-0.0-0.7","1096","","d","","","","","","","","","","","","","key","d","16.683463999999688","960","536","d","true","img/C_28.png","朋友","prac_stranger","","自我"
"","","","","","html-keyboard-response","326","1200824","0.0-18.0-0.0-1.7","null","<span style='color:GreenYellow; font-size: 70px;'>正确! </span>","null","","","","","","","","","","","","","","","","","","","","","","","feedback_test",""
"","","","","","psychophysics","327","1202650","0.0-18.0-0.0-0.8","824","","k","","","","","","","","","","","","","key","k","16.683499999999725","960","536","k","true","img/S_28.png","朋友","prac_stranger","","生人"
"","","","","","html-keyboard-response","328","1202951","0.0-18.0-0.0-1.8","null","<span style='color:GreenYellow; font-size: 70px;'>正确! </span>","null","","","","","","","","","","","","","","","","","","","","","","","feedback_test",""
"","","","","","psychophysics","329","1205266","0.0-18.0-0.0-0.9","1314","","f","","","","","","","","","","","","","key","f","16.683262773723186","960","536","f","true","img/H_28.png","朋友","prac_stranger","","朋友"
"","","","","","html-keyboard-response","330","1205568","0.0-18.0-0.0-1.9","null","<span style='color:GreenYellow; font-size: 70px;'>正确! </span>","null","","","","","","","","","","","","","","","","","","","","","","","feedback_test",""
"","","","","","psychophysics","331","1207210","0.0-18.0-0.0-0.10","640","","j","","","","","","","","","","","","","key","j","16.68325510204114","960","536","j","true","img/S_28.png","生人","prac_stranger","","生人"
"","","","","","html-keyboard-response","332","1207512","0.0-18.0-0.0-1.10","null","<span style='color:GreenYellow; font-size: 70px;'>正确! </span>","null","","","","","","","","","","","","","","","","","","","","","","","feedback_test",""
"","","","","","psychophysics","333","1209674","0.0-18.0-0.0-0.11","1160","","d","","","","","","","","","","","","","key","d","16.683382812499985","960","536","d","true","img/H_28.png","自我","prac_stranger","","朋友"
"","","","","","html-keyboard-response","334","1209976","0.0-18.0-0.0-1.11","null","<span style='color:GreenYellow; font-size: 70px;'>正确! </span>","null","","","","","","","","","","","","","","","","","","","","","","","feedback_test",""
"","","","","","psychophysics","335","1211714","0.0-18.0-0.0-0.12","736","","j","","","","","","","","","","","","","key","j","16.68346601941632","960","536","j","true","img/S_28.png","生人","prac_stranger","","生人"
"","","","","","html-keyboard-response","336","1212015","0.0-18.0-0.0-1.12","null","<span style='color:GreenYellow; font-size: 70px;'>正确! </span>","null","","","","","","","","","","","","","","","","","","","","","","","feedback_test",""
"","","","","","psychophysics","337","1214322","0.0-18.0-0.0-0.13","1305","","f","","","","","","","","","","","","","key","f","16.683364963503962","960","536","f","true","img/H_28.png","朋友","prac_stranger","","朋友"
"","","","","","html-keyboard-response","338","1214623","0.0-18.0-0.0-1.13","null","<span style='color:GreenYellow; font-size: 70px;'>正确! </span>","null","","","","","","","","","","","","","","","","","","","","","","","feedback_test",""
"","","","","","psychophysics","339","1216762","0.0-18.0-0.0-0.14","1138","","d","","","","","","","","","","","","","key","d","16.68313385826704","960","536","d","true","img/C_28.png","朋友","prac_stranger","","自我"
"","","","","","html-keyboard-response","340","1217064","0.0-18.0-0.0-1.14","null","<span style='color:GreenYellow; font-size: 70px;'>正确! </span>","null","","","","","","","","","","","","","","","","","","","","","","","feedback_test",""
"","","","","","psychophysics","341","1219146","0.0-18.0-0.0-0.15","1080","","d","","","","","","","","","","","","","key","d","16.68342741935574","960","536","d","true","img/H_28.png","自我","prac_stranger","","朋友"
"","","","","","html-keyboard-response","342","1219448","0.0-18.0-0.0-1.15","null","<span style='color:GreenYellow; font-size: 70px;'>正确! </span>","null","","","","","","","","","","","","","","","","","","","","","","","feedback_test",""
"","","","","","psychophysics","343","1221378","0.0-18.0-0.0-0.16","927","","f","","","","","","","","","","","","","key","f","16.683399999998105","960","536","f","true","img/C_28.png","自我","prac_stranger","","自我"
"","","","","","html-keyboard-response","344","1221679","0.0-18.0-0.0-1.16","null","<span style='color:GreenYellow; font-size: 70px;'>正确! </span>","null","","","","","","","","","","","","","","","","","","","","","","","feedback_test",""
"","","","","","psychophysics","345","1223594","0.0-18.0-0.0-0.17","912","","d","","","","","","","","","","","","","key","d","16.683061403510358","960","536","d","true","img/C_28.png","生人","prac_stranger","","自我"
"","","","","","html-keyboard-response","346","1223895","0.0-18.0-0.0-1.17","null","<span style='color:GreenYellow; font-size: 70px;'>正确! </span>","null","","","","","","","","","","","","","","","","","","","","","","","feedback_test",""
"","","","","","psychophysics","347","1225738","0.0-18.0-0.0-0.18","841","","k","","","","","","","","","","","","","key","k","16.68317431192674","960","536","k","true","img/S_28.png","自我","prac_stranger","","生人"
"","","","","","html-keyboard-response","348","1226039","0.0-18.0-0.0-1.18","null","<span style='color:GreenYellow; font-size: 70px;'>正确! </span>","null","","","","","","","","","","","","","","","","","","","","","","","feedback_test",""
"","","","","","psychophysics","349","1227994","0.0-18.0-0.0-0.19","954","","d","","","","","","","","","","","","","key","d","16.6833589743588","960","536","d","true","img/H_28.png","生人","prac_stranger","","朋友"
"","","","","","html-keyboard-response","350","1228296","0.0-18.0-0.0-1.19","null","<span style='color:GreenYellow; font-size: 70px;'>正确! </span>","null","","","","","","","","","","","","","","","","","","","","","","","feedback_test",""
"","","","","","psychophysics","351","1230074","0.0-18.0-0.0-0.20","775","","f","","","","","","","","","","","","","key","f","16.68342857142866","960","536","f","true","img/C_28.png","自我","prac_stranger","","自我"
"","","","","","html-keyboard-response","352","1230376","0.0-18.0-0.0-1.20","null","<span style='color:GreenYellow; font-size: 70px;'>正确! </span>","null","","","","","","","","","","","","","","","","","","","","","","","feedback_test",""
"","","","","","psychophysics","353","1232210","0.0-18.0-0.0-0.21","832","","d","","","","","","","","","","","","","key","d","16.683376146788035","960","536","k","false","img/S_28.png","朋友","prac_stranger","","生人"
"","","","","","html-keyboard-response","354","1232512","0.0-18.0-0.0-1.21","null","<span style='color:red; font-size: 70px;'>错误! </span>","null","","","","","","","","","","","","","","","","","","","","","","","feedback_test",""
"","","","","","psychophysics","355","1234642","0.0-18.0-0.0-0.22","1128","","j","","","","","","","","","","","","","key","j","16.683275590549904","960","536","j","true","img/S_28.png","生人","prac_stranger","","生人"
"","","","","","html-keyboard-response","356","1234943","0.0-18.0-0.0-1.22","null","<span style='color:GreenYellow; font-size: 70px;'>正确! </span>","null","","","","","","","","","","","","","","","","","","","","","","","feedback_test",""
"","","","","","psychophysics","357","1236866","0.0-18.0-0.0-0.23","922","","f","","","","","","","","","","","","","key","f","16.683280701755155","960","536","f","true","img/H_28.png","朋友","prac_stranger","","朋友"
"","","","","","html-keyboard-response","358","1237167","0.0-18.0-0.0-1.23","null","<span style='color:GreenYellow; font-size: 70px;'>正确! </span>","null","","","","","","","","","","","","","","","","","","","","","","","feedback_test",""
"","","","","","html-keyboard-response","359","1245978","0.0-19.0","8808","[""<style>.context{color:white; font-size: 35px; line-height:40px}</style>                                        <div><p class='context'>您正确回答了83% 的试次。</p><p class='context'>您的平均反应时为999毫秒。</p><p class='context'>恭喜您完成练习。您可以在此时休息一段时间，准备好后按任意键进入正式实验。</p><p class='footer' style='font-size: 35px; line-height:40px;'>请在进入正式实验实验之前将您的<span style='color: lightgreen;'>食指和中指</span>放在电脑键盘的相应键位上，做好按键准备。</p>""]"," ","","","","","","","","","","","","","","","","","","","","","","","",""
"","","","","","html-keyboard-response","360","1254578","0.0-20.0-0.0-0.0","8595","
                    <p>请您将食指和中指放在相应按键上，准备进入<span style='color: yellow;'>重点图形为“自我”对应图形</span>的正式匹配任务</p>
                    <p> <div style = ""color: green""><按任意键开始></div></p>
                    "," ","","","","","","","","","","","","","","","","","","","","","","","",""
"","","","","","psychophysics","361","1256578","0.0-20.0-0.0-1.0-0.0-0.0","998","","k","","","","","","","","","","","","","key","k","16.68360504201621","960","536","k","true","img/C_28.png","生人","self","","自我"
"","","","","","html-keyboard-response","362","1256880","0.0-20.0-0.0-1.0-0.0-1.0","null","<span style='color:GreenYellow; font-size: 70px;'>正确! </span>","null","","","","","","","","","","","","","","","","","","","","","","","feedback_test",""
"","","","","","psychophysics","363","1258946","0.0-20.0-0.0-1.0-0.0-0.1","1064","","d","","","","","","","","","","","","","key","d","16.683406504064163","960","536","d","true","img/S_28.png","朋友","self","","生人"
"","","","","","html-keyboard-response","364","1259248","0.0-20.0-0.0-1.0-0.0-1.1","null","<span style='color:GreenYellow; font-size: 70px;'>正确! </span>","null","","","","","","","","","","","","","","","","","","","","","","","feedback_test",""
"","","","","","psychophysics","365","1261178","0.0-20.0-0.0-1.0-0.0-0.2","928","","f","","","","","","","","","","","","","key","f","16.683478260870373","960","536","f","true","img/H_28.png","朋友","self","","朋友"
"","","","","","html-keyboard-response","366","1261481","0.0-20.0-0.0-1.0-0.0-1.2","null","<span style='color:GreenYellow; font-size: 70px;'>正确! </span>","null","","","","","","","","","","","","","","","","","","","","","","","feedback_test",""
"","","","","","psychophysics","367","1263450","0.0-20.0-0.0-1.0-0.0-0.3","968","","k","","","","","","","","","","","","","key","k","16.683538461537857","960","536","k","true","img/C_28.png","朋友","self","","自我"
"","","","","","html-keyboard-response","368","1263752","0.0-20.0-0.0-1.0-0.0-1.3","null","<span style='color:GreenYellow; font-size: 70px;'>正确! </span>","null","","","","","","","","","","","","","","","","","","","","","","","feedback_test",""
"","","","","","psychophysics","369","1265322","0.0-20.0-0.0-1.0-0.0-0.4","568","","j","","","","","","","","","","","","","key","j","16.68353763440754","960","536","j","true","img/C_28.png","自我","self","","自我"
"","","","","","html-keyboard-response","370","1265624","0.0-20.0-0.0-1.0-0.0-1.4","null","<span style='color:GreenYellow; font-size: 70px;'>正确! </span>","null","","","","","","","","","","","","","","","","","","","","","","","feedback_test",""
"","","","","","psychophysics","371","1267770","0.0-20.0-0.0-1.0-0.0-0.5","1144","","d","","","","","","","","","","","","","key","d","16.68342187500093","960","536","d","true","img/S_28.png","自我","self","","生人"
"","","","","","html-keyboard-response","372","1268072","0.0-20.0-0.0-1.0-0.0-1.5","null","<span style='color:GreenYellow; font-size: 70px;'>正确! </span>","null","","","","","","","","","","","","","","","","","","","","","","","feedback_test",""
"","","","","","psychophysics","373","1269634","0.0-20.0-0.0-1.0-0.0-0.6","560","","j","","","","","","","","","","","","","key","j","16.683608695652094","960","536","j","true","img/C_28.png","自我","self","","自我"
"","","","","","html-keyboard-response","374","1269936","0.0-20.0-0.0-1.0-0.0-1.6","null","<span style='color:GreenYellow; font-size: 70px;'>正确! </span>","null","","","","","","","","","","","","","","","","","","","","","","","feedback_test",""
"","","","","","psychophysics","375","1271658","0.0-20.0-0.0-1.0-0.0-0.7","720","","f","","","","","","","","","","","","","key","f","16.68326470588206","960","536","f","true","img/H_28.png","朋友","self","","朋友"
"","","","","","html-keyboard-response","376","1271960","0.0-20.0-0.0-1.0-0.0-1.7","null","<span style='color:GreenYellow; font-size: 70px;'>正确! </span>","null","","","","","","","","","","","","","","","","","","","","","","","feedback_test",""
"","","","","","psychophysics","377","1274114","0.0-20.0-0.0-1.0-0.0-0.8","1152","","k","","","","","","","","","","","","","key","k","16.683242187500582","960","536","d","false","img/H_28.png","自我","self","","朋友"
"","","","","","html-keyboard-response","378","1274416","0.0-20.0-0.0-1.0-0.0-1.8","null","<span style='color:red; font-size: 70px;'>错误! </span>","null","","","","","","","","","","","","","","","","","","","","","","","feedback_test",""
"","","","","","psychophysics","379","1276226","0.0-20.0-0.0-1.0-0.0-0.9","808","","f","","","","","","","","","","","","","key","f","16.683425925926443","960","536","f","true","img/S_28.png","生人","self","","生人"
"","","","","","html-keyboard-response","380","1276528","0.0-20.0-0.0-1.0-0.0-1.9","null","<span style='color:GreenYellow; font-size: 70px;'>正确! </span>","null","","","","","","","","","","","","","","","","","","","","","","","feedback_test",""
"","","","","","psychophysics","381","1278874","0.0-20.0-0.0-1.0-0.0-0.10","1344","","f","","","","","","","","","","","","","key","f","16.683251798561635","960","536","f","true","img/S_28.png","生人","self","","生人"
"","","","","","html-keyboard-response","382","1279177","0.0-20.0-0.0-1.0-0.0-1.10","null","<span style='color:GreenYellow; font-size: 70px;'>正确! </span>","null","","","","","","","","","","","","","","","","","","","","","","","feedback_test",""
"","","","","","psychophysics","383","1281066","0.0-20.0-0.0-1.0-0.0-0.11","887","","d","","","","","","","","","","","","","key","d","16.683062500000233","960","536","d","true","img/H_28.png","生人","self","","朋友"
"","","","","","html-keyboard-response","384","1281368","0.0-20.0-0.0-1.0-0.0-1.11","null","<span style='color:GreenYellow; font-size: 70px;'>正确! </span>","null","","","","","","","","","","","","","","","","","","","","","","","feedback_test",""
"","","","","","psychophysics","385","1283410","0.0-20.0-0.0-1.0-0.0-0.12","1040","","d","","","","","","","","","","","","","key","d","16.683289256197025","960","536","d","true","img/H_28.png","生人","self","","朋友"
"","","","","","html-keyboard-response","386","1283716","0.0-20.0-0.0-1.0-0.0-1.12","null","<span style='color:GreenYellow; font-size: 70px;'>正确! </span>","null","","","","","","","","","","","","","","","","","","","","","","","feedback_test",""
"","","","","","psychophysics","387","1285466","0.0-20.0-0.0-1.0-0.0-0.13","749","","j","","","","","","","","","","","","","key","j","16.683194174756775","960","536","j","true","img/C_28.png","自我","self","","自我"
"","","","","","html-keyboard-response","388","1285768","0.0-20.0-0.0-1.0-0.0-1.13","null","<span style='color:GreenYellow; font-size: 70px;'>正确! </span>","null","","","","","","","","","","","","","","","","","","","","","","","feedback_test",""
"","","","","","psychophysics","389","1287498","0.0-20.0-0.0-1.0-0.0-0.14","728","","j","","","","","","","","","","","","","key","j","16.68317647058946","960","536","j","true","img/C_28.png","自我","self","","自我"
"","","","","","html-keyboard-response","390","1287800","0.0-20.0-0.0-1.0-0.0-1.14","null","<span style='color:GreenYellow; font-size: 70px;'>正确! </span>","null","","","","","","","","","","","","","","","","","","","","","","","feedback_test",""
"","","","","","psychophysics","391","1289746","0.0-20.0-0.0-1.0-0.0-0.15","945","","d","","","","","","","","","","","","","key","d","16.68353448275894","960","536","k","false","img/C_28.png","生人","self","","自我"
"","","","","","html-keyboard-response","392","1290049","0.0-20.0-0.0-1.0-0.0-1.15","null","<span style='color:red; font-size: 70px;'>错误! </span>","null","","","","","","","","","","","","","","","","","","","","","","","feedback_test",""
"","","","","","psychophysics","393","1291866","0.0-20.0-0.0-1.0-0.0-0.16","814","","j","","","","","","","","","","","","","key","j","16.683370370370405","960","536","k","false","img/C_28.png","朋友","self","","自我"
"","","","","","html-keyboard-response","394","1292168","0.0-20.0-0.0-1.0-0.0-1.16","null","<span style='color:red; font-size: 70px;'>错误! </span>","null","","","","","","","","","","","","","","","","","","","","","","","feedback_test",""
"","","","","","psychophysics","395","1294458","0.0-20.0-0.0-1.0-0.0-0.17","1288","","d","","","","","","","","","","","","","key","d","16.68327205882387","960","536","d","true","img/S_28.png","朋友","self","","生人"
"","","","","","html-keyboard-response","396","1294760","0.0-20.0-0.0-1.0-0.0-1.17","null","<span style='color:GreenYellow; font-size: 70px;'>正确! </span>","null","","","","","","","","","","","","","","","","","","","","","","","feedback_test",""
"","","","","","psychophysics","397","1296578","0.0-20.0-0.0-1.0-0.0-0.18","817","","f","","","","","","","","","","","","","key","f","16.6832149532715","960","536","f","true","img/H_28.png","朋友","self","","朋友"
"","","","","","html-keyboard-response","398","1296880","0.0-20.0-0.0-1.0-0.0-1.18","null","<span style='color:GreenYellow; font-size: 70px;'>正确! </span>","null","","","","","","","","","","","","","","","","","","","","","","","feedback_test",""
"","","","","","psychophysics","399","1298794","0.0-20.0-0.0-1.0-0.0-0.19","912","","f","","","","","","","","","","","","","key","f","16.683362831858158","960","536","f","true","img/S_28.png","生人","self","","生人"
"","","","","","html-keyboard-response","400","1299096","0.0-20.0-0.0-1.0-0.0-1.19","null","<span style='color:GreenYellow; font-size: 70px;'>正确! </span>","null","","","","","","","","","","","","","","","","","","","","","","","feedback_test",""
"","","","","","psychophysics","401","1301106","0.0-20.0-0.0-1.0-0.0-0.20","1009","","k","","","","","","","","","","","","","key","k","16.622571428570538","960","536","d","false","img/S_28.png","自我","self","","生人"
"","","","","","html-keyboard-response","402","1301408","0.0-20.0-0.0-1.0-0.0-1.20","null","<span style='color:red; font-size: 70px;'>错误! </span>","null","","","","","","","","","","","","","","","","","","","","","","","feedback_test",""
"","","","","","psychophysics","403","1303915","0.0-20.0-0.0-1.0-0.0-0.21","null","","null","","","","","","","","","","","","","key","null","16.68333557047006","960","536","f","false","img/S_28.png","生人","self","","生人"
"","","","","","html-keyboard-response","404","1304217","0.0-20.0-0.0-1.0-0.0-1.21","null","<span class='add_' style='color:yellow; font-size: 70px;'> 太慢! </span>","null","","","","","","","","","","","","","","","","","","","","","","","feedback_test",""
"","","","","","psychophysics","405","1306434","0.0-20.0-0.0-1.0-0.0-0.22","1216","","d","","","","","","","","","","","","","key","d","16.68346212121171","960","536","d","true","img/H_28.png","自我","self","","朋友"
"","","","","","html-keyboard-response","406","1306736","0.0-20.0-0.0-1.0-0.0-1.22","null","<span style='color:GreenYellow; font-size: 70px;'>正确! </span>","null","","","","","","","","","","","","","","","","","","","","","","","feedback_test",""
"","","","","","psychophysics","407","1308666","0.0-20.0-0.0-1.0-0.0-0.23","928","","f","","","","","","","","","","","","","key","f","16.683330434783482","960","536","f","true","img/H_28.png","朋友","self","","朋友"
"","","","","","html-keyboard-response","408","1308967","0.0-20.0-0.0-1.0-0.0-1.23","null","<span style='color:GreenYellow; font-size: 70px;'>正确! </span>","null","","","","","","","","","","","","","","","","","","","","","","","feedback_test",""
"","","","","","psychophysics","409","1311362","0.0-20.0-0.0-1.0-0.0-0.24","1393","","d","","","","","","","","","","","","","key","d","16.68327272727343","960","536","d","true","img/H_28.png","生人","self","","朋友"
"","","","","","html-keyboard-response","410","1311664","0.0-20.0-0.0-1.0-0.0-1.24","null","<span style='color:GreenYellow; font-size: 70px;'>正确! </span>","null","","","","","","","","","","","","","","","","","","","","","","","feedback_test",""
"","","","","","psychophysics","411","1313642","0.0-20.0-0.0-1.0-0.0-0.25","976","","f","","","","","","","","","","","","","key","f","16.68327350427325","960","536","f","true","img/S_28.png","生人","self","","生人"
"","","","","","html-keyboard-response","412","1313944","0.0-20.0-0.0-1.0-0.0-1.25","null","<span style='color:GreenYellow; font-size: 70px;'>正确! </span>","null","","","","","","","","","","","","","","","","","","","","","","","feedback_test",""
"","","","","","psychophysics","413","1316242","0.0-20.0-0.0-1.0-0.0-0.26","1297","","f","","","","","","","","","","","","","key","f","16.653183823530153","960","536","f","true","img/H_28.png","朋友","self","","朋友"
"","","","","","html-keyboard-response","414","1316544","0.0-20.0-0.0-1.0-0.0-1.26","null","<span style='color:GreenYellow; font-size: 70px;'>正确! </span>","null","","","","","","","","","","","","","","","","","","","","","","","feedback_test",""
"","","","","","psychophysics","415","1318738","0.0-20.0-0.0-1.0-0.0-0.27","1190","","d","","","","","","","","","","","","","key","d","16.68317557251941","960","536","d","true","img/S_28.png","朋友","self","","生人"
"","","","","","html-keyboard-response","416","1319040","0.0-20.0-0.0-1.0-0.0-1.27","null","<span style='color:GreenYellow; font-size: 70px;'>正确! </span>","null","","","","","","","","","","","","","","","","","","","","","","","feedback_test",""
"","","","","","psychophysics","417","1320924","0.0-20.0-0.0-1.0-0.0-0.28","882","","k","","","","","","","","","","","","","key","k","16.683499999999185","960","536","k","true","img/C_28.png","生人","self","","自我"
"","","","","","html-keyboard-response","418","1321227","0.0-20.0-0.0-1.0-0.0-1.28","null","<span style='color:GreenYellow; font-size: 70px;'>正确! </span>","null","","","","","","","","","","","","","","","","","","","","","","","feedback_test",""
"","","","","","psychophysics","419","1323090","0.0-20.0-0.0-1.0-0.0-0.29","861","","k","","","","","","","","","","","","","key","k","16.683324324323685","960","536","k","true","img/C_28.png","朋友","self","","自我"
"","","","","","html-keyboard-response","420","1323391","0.0-20.0-0.0-1.0-0.0-1.29","null","<span style='color:GreenYellow; font-size: 70px;'>正确! </span>","null","","","","","","","","","","","","","","","","","","","","","","","feedback_test",""
"","","","","","psychophysics","421","1325018","0.0-20.0-0.0-1.0-0.0-0.30","625","","j","","","","","","","","","","","","","key","j","16.68332291666593","960","536","j","true","img/C_28.png","自我","self","","自我"
