"success","timeout","failed_images","failed_audio","failed_video","trial_type","trial_index","time_elapsed","internal_node_id","rt","stimulus","response","value","item_width_mm","item_height_mm","item_width_px","px2mm","view_dist_mm","item_width_deg","px2deg","scale_factor","win_width_deg","win_height_deg","view_history","response_type","key_press","avg_frame_time","center_x","center_y","correct_response","correct","Image","text","condition","screen_id","label"
"true","false","[]","[]","[]","preload","0","1038","0.0-0.0","","","","","","","","","","","","","","","","","","","","","","","","","","",""
"","","","","","html-keyboard-response","1","52009","0.0-1.0","50968","
     <p>您好，欢迎参加本次实验。</p>
     <p>为充分保障您的权利，请确保您已经知晓并同意《参与实验同意书》以及《数据公开知情同意书》。</p>
     <p>如果您未见过上述内容，请咨询实验员。</p>
     <p>如果您选择继续实验，则表示您已经清楚两份知情同意书的内容并同意。</p>
     <p> <div style = ""color: green""><按任意键至下页></div> </p>
     ","d","","","","","","","","","","","","","","","","","","","","","","","",""
"","","","","","html-keyboard-response","2","54265","0.0-2.0","2256","
     <p>本实验首先需要您填写一些基本个人信息。</p>
     <p> <div style = ""color: green""><按任意键至下页></div></p>
     ","d","","","","","","","","","","","","","","","","","","","","","","","",""
"","","","","","call-function","3","54267","0.0-3.0-0.0","","","","","","","","","","","","","","","","","","","","","","","","","","",""
"","","","","","survey-html-form","4","58899","0.0-3.0-1.0","4630","","{""Q0"":""54""}","","","","","","","","","","","","","","","","","","","","","","","",""
"","","","","","html-button-response","5","60091","0.0-3.0-2.0","1190","<p style = 'color : white'>您的性别</p>","0","","","","","","","","","","","","","","","","","","","","","","","",""
"","","","","","survey-html-form","6","64762","0.0-3.0-3.0","4671","","{""Q0"":""2001""}","","","","","","","","","","","","","","","","","","","","","","","",""
"","","","","","survey-html-form","7","66794","0.0-3.0-4.0","2031","","{""Q0"":""5""}","","","","","","","","","","","","","","","","","","","","","","","",""
"","","","","","virtual-chinrest","8","123051","0.0-4.0","56255","","","","85.6","53.98","191.86339651585598","2.240964471305198","1277.65","3.837267930317119","50","1.3030103945821656","30.72","15.08","","","","","","","","","","","","",""
"true","","","","","fullscreen","9","134736","0.0-5.0","","","","","","","","","","","","","","","","","","","","","","","","","","",""
"","","","","","instructions","10","218058","0.0-6.0","83320","","","","","","","","","","","","","","[{""page_index"":0,""viewing_time"":6184},{""page_index"":1,""viewing_time"":35712},{""page_index"":2,""viewing_time"":35512},{""page_index"":3,""viewing_time"":4000},{""page_index"":4,""viewing_time"":1912}]","","","","","","","","","","","",""
"","","","","","instructions","11","227938","0.0-7.0","9879","","","","","","","","","","","","","","[{""page_index"":0,""viewing_time"":9879}]","","","","","","","","","","","",""
"","","","","","psychophysics","12","230786","0.0-8.0-0.0-0.0","1834","","j","","","","","","","","","","","","","key","j","21.16108270676713","768","428","f","false","img/S_28.png","生人","freeprac_self","",""
"","","","","","html-keyboard-response","13","231104","0.0-8.0-0.0-1.0","null","<span style='color:red; font-size: 70px;'>错误! </span>","null","","","","","","","","","","","","","","","","","","","","","","","feedback_test",""
"","","","","","psychophysics","14","233729","0.0-8.0-0.0-0.1","1608","","j","","","","","","","","","","","","","key","j","21.82833613445366","768","428","f","false","img/H_28.png","自我","freeprac_self","",""
"","","","","","html-keyboard-response","15","234040","0.0-8.0-0.0-1.1","null","<span style='color:red; font-size: 70px;'>错误! </span>","null","","","","","","","","","","","","","","","","","","","","","","","feedback_test",""
"","","","","","psychophysics","16","236589","0.0-8.0-0.0-0.2","1534","","d","","","","","","","","","","","","","key","d","22.30061607142852","768","428","j","false","img/C_28.png","生人","freeprac_self","",""
"","","","","","html-keyboard-response","17","236904","0.0-8.0-0.0-1.2","null","<span style='color:red; font-size: 70px;'>错误! </span>","null","","","","","","","","","","","","","","","","","","","","","","","feedback_test",""
"","","","","","psychophysics","18","239644","0.0-8.0-0.0-0.3","1728","","f","","","","","","","","","","","","","key","f","22.06709756097535","768","428","d","false","img/S_28.png","朋友","freeprac_self","",""
"","","","","","html-keyboard-response","19","239952","0.0-8.0-0.0-1.3","null","<span style='color:red; font-size: 70px;'>错误! </span>","null","","","","","","","","","","","","","","","","","","","","","","","feedback_test",""
"","","","","","psychophysics","20","242638","0.0-8.0-0.0-0.4","1675","","j","","","","","","","","","","","","","key","j","23.023043478261073","768","428","f","false","img/H_28.png","朋友","freeprac_self","",""
"","","","","","html-keyboard-response","21","242945","0.0-8.0-0.0-1.4","null","<span style='color:red; font-size: 70px;'>错误! </span>","null","","","","","","","","","","","","","","","","","","","","","","","feedback_test",""
"","","","","","psychophysics","22","245458","0.0-8.0-0.0-0.5","1501","","k","","","","","","","","","","","","","key","k","22.352441441441304","768","428","d","false","img/S_28.png","朋友","freeprac_self","",""
"","","","","","html-keyboard-response","23","245761","0.0-8.0-0.0-1.5","null","<span style='color:red; font-size: 70px;'>错误! </span>","null","","","","","","","","","","","","","","","","","","","","","","","feedback_test",""
"","","","","","psychophysics","24","248029","0.0-8.0-0.0-0.6","1263","","k","","","","","","","","","","","","","key","k","21.824611650485416","768","428","k","true","img/C_28.png","自我","freeprac_self","",""
"","","","","","html-keyboard-response","25","248344","0.0-8.0-0.0-1.6","null","<span style='color:GreenYellow; font-size: 70px;'>正确! </span>","null","","","","","","","","","","","","","","","","","","","","","","","feedback_test",""
"","","","","","psychophysics","26","250771","0.0-8.0-0.0-0.7","1417","","f","","","","","","","","","","","","","key","f","22.67737142857153","768","428","d","false","img/H_28.png","生人","freeprac_self","",""
"","","","","","html-keyboard-response","27","251088","0.0-8.0-0.0-1.7","null","<span style='color:red; font-size: 70px;'>错误! </span>","null","","","","","","","","","","","","","","","","","","","","","","","feedback_test",""
"","","","","","psychophysics","28","254142","0.0-8.0-0.0-0.8","2044","","f","","","","","","","","","","","","","key","f","22.661398496240714","768","428","f","true","img/S_28.png","自我","freeprac_self","",""
"","","","","","html-keyboard-response","29","254449","0.0-8.0-0.0-1.8","null","<span style='color:GreenYellow; font-size: 70px;'>正确! </span>","null","","","","","","","","","","","","","","","","","","","","","","","feedback_test",""
"","","","","","psychophysics","30","257070","0.0-8.0-0.0-0.9","1600","","k","","","","","","","","","","","","","key","k","22.588991304347797","768","428","k","true","img/C_28.png","自我","freeprac_self","",""
"","","","","","html-keyboard-response","31","257377","0.0-8.0-0.0-1.9","null","<span style='color:GreenYellow; font-size: 70px;'>正确! </span>","null","","","","","","","","","","","","","","","","","","","","","","","feedback_test",""
"","","","","","psychophysics","32","259558","0.0-8.0-0.0-0.10","1177","","k","","","","","","","","","","","","","key","k","22.435094736842437","768","428","d","false","img/H_28.png","生人","freeprac_self","",""
"","","","","","html-keyboard-response","33","259864","0.0-8.0-0.0-1.10","null","<span style='color:red; font-size: 70px;'>错误! </span>","null","","","","","","","","","","","","","","","","","","","","","","","feedback_test",""
"","","","","","psychophysics","34","262428","0.0-8.0-0.0-0.11","1556","","k","","","","","","","","","","","","","key","k","23.009590909090846","768","428","j","false","img/C_28.png","朋友","freeprac_self","",""
"","","","","","html-keyboard-response","35","262737","0.0-8.0-0.0-1.11","null","<span style='color:red; font-size: 70px;'>错误! </span>","null","","","","","","","","","","","","","","","","","","","","","","","feedback_test",""
"","","","","","html-keyboard-response","36","269178","0.0-8.0-1.0-0.0","6440","<style>.context{color:white; font-size: 35px; line-height:40px}</style>                              <div><p class='context'>您正确回答了25% 的试次。</p><p class='context'>您的平均反应时为1636毫秒。</p>","j","","","","","","","","","","","","","","","","","","","","","","","",""
"","","","","","instructions","37","372345","0.0-8.0-1.0-1.0","103164","","","","","","","","","","","","","","[{""page_index"":0,""viewing_time"":5436},{""page_index"":1,""viewing_time"":94520},{""page_index"":2,""viewing_time"":3208}]","","","","","","","","","","","",""
"","","","","","psychophysics","38","374302","0.0-8.1-0.1-0.12","940","","k","","","","","","","","","","","","","key","k","21.278288888889236","768","428","k","true","img/C_28.png","自我","freeprac_self","",""
"","","","","","html-keyboard-response","39","374609","0.0-8.1-0.1-1.12","null","<span style='color:GreenYellow; font-size: 70px;'>正确! </span>","null","","","","","","","","","","","","","","","","","","","","","","","feedback_test",""
"","","","","","psychophysics","40","376431","0.0-8.1-0.1-0.13","811","","j","","","","","","","","","","","","","key","j","22.5546329113923","768","428","j","true","img/C_28.png","生人","freeprac_self","",""
"","","","","","html-keyboard-response","41","376737","0.0-8.1-0.1-1.13","null","<span style='color:GreenYellow; font-size: 70px;'>正确! </span>","null","","","","","","","","","","","","","","","","","","","","","","","feedback_test",""
"","","","","","psychophysics","42","378883","0.0-8.1-0.1-0.14","1144","","j","","","","","","","","","","","","","key","j","22.08542105263148","768","428","j","true","img/C_28.png","朋友","freeprac_self","",""
"","","","","","html-keyboard-response","43","379192","0.0-8.1-0.1-1.14","null","<span style='color:GreenYellow; font-size: 70px;'>正确! </span>","null","","","","","","","","","","","","","","","","","","","","","","","feedback_test",""
"","","","","","psychophysics","44","381772","0.0-8.1-0.1-0.15","1574","","d","","","","","","","","","","","","","key","d","22.347921052631584","768","428","d","true","img/H_28.png","生人","freeprac_self","",""
"","","","","","html-keyboard-response","45","382080","0.0-8.1-0.1-1.15","null","<span style='color:GreenYellow; font-size: 70px;'>正确! </span>","null","","","","","","","","","","","","","","","","","","","","","","","feedback_test",""
"","","","","","psychophysics","46","384941","0.0-8.1-0.1-0.16","1843","","f","","","","","","","","","","","","","key","f","21.985484374999942","768","428","f","true","img/H_28.png","自我","freeprac_self","",""
"","","","","","html-keyboard-response","47","385249","0.0-8.1-0.1-1.16","null","<span style='color:GreenYellow; font-size: 70px;'>正确! </span>","null","","","","","","","","","","","","","","","","","","","","","","","feedback_test",""
"","","","","","psychophysics","48","387814","0.0-8.1-0.1-0.17","1555","","d","","","","","","","","","","","","","key","d","21.63385470085439","768","428","d","true","img/H_28.png","生人","freeprac_self","",""
"","","","","","html-keyboard-response","49","388121","0.0-8.1-0.1-1.17","null","<span style='color:GreenYellow; font-size: 70px;'>正确! </span>","null","","","","","","","","","","","","","","","","","","","","","","","feedback_test",""
"","","","","","psychophysics","50","390398","0.0-8.1-0.1-0.18","1270","","d","","","","","","","","","","","","","key","d","21.615259615384275","768","428","d","true","img/S_28.png","朋友","freeprac_self","",""
"","","","","","html-keyboard-response","51","390704","0.0-8.1-0.1-1.18","null","<span style='color:GreenYellow; font-size: 70px;'>正确! </span>","null","","","","","","","","","","","","","","","","","","","","","","","feedback_test",""
"","","","","","psychophysics","52","392763","0.0-8.1-0.1-0.19","1049","","d","","","","","","","","","","","","","key","d","21.846107526881976","768","428","f","false","img/S_28.png","生人","freeprac_self","",""
"","","","","","html-keyboard-response","53","393080","0.0-8.1-0.1-1.19","null","<span style='color:red; font-size: 70px;'>错误! </span>","null","","","","","","","","","","","","","","","","","","","","","","","feedback_test",""
"","","","","","psychophysics","54","395800","0.0-8.1-0.1-0.20","1682","","k","","","","","","","","","","","","","key","k","21.79718699186995","768","428","k","true","img/C_28.png","自我","freeprac_self","",""
"","","","","","html-keyboard-response","55","396104","0.0-8.1-0.1-1.20","null","<span style='color:GreenYellow; font-size: 70px;'>正确! </span>","null","","","","","","","","","","","","","","","","","","","","","","","feedback_test",""
"","","","","","psychophysics","56","398598","0.0-8.1-0.1-0.21","1475","","f","","","","","","","","","","","","","key","f","22.25389090909104","768","428","f","true","img/H_28.png","朋友","freeprac_self","",""
"","","","","","html-keyboard-response","57","398905","0.0-8.1-0.1-1.21","null","<span style='color:GreenYellow; font-size: 70px;'>正确! </span>","null","","","","","","","","","","","","","","","","","","","","","","","feedback_test",""
"","","","","","psychophysics","58","400784","0.0-8.1-0.1-0.22","869","","d","","","","","","","","","","","","","key","d","21.49162790697707","768","428","d","true","img/S_28.png","朋友","freeprac_self","",""
"","","","","","html-keyboard-response","59","401089","0.0-8.1-0.1-1.22","null","<span style='color:GreenYellow; font-size: 70px;'>正确! </span>","null","","","","","","","","","","","","","","","","","","","","","","","feedback_test",""
"","","","","","psychophysics","60","403779","0.0-8.1-0.1-0.23","1683","","f","","","","","","","","","","","","","key","f","21.5264878048783","768","428","f","true","img/S_28.png","自我","freeprac_self","",""
"","","","","","html-keyboard-response","61","404089","0.0-8.1-0.1-1.23","null","<span style='color:GreenYellow; font-size: 70px;'>正确! </span>","null","","","","","","","","","","","","","","","","","","","","","","","feedback_test",""
"","","","","","html-keyboard-response","62","413700","0.0-9.0","9610","[""<style>.context{color:white; font-size: 35px; line-height:40px}</style>              <div><p class='context'>您正确回答了92% 的试次。</p><p class='context'>您的平均反应时为1350毫秒。</p><p class='context'>恭喜您完成这一阶段的练习。按任意键进入<span style='color: yellow;'>重点关注图形为“朋友”</span>的练习。</p></div><p class='footer' style='font-size:35px; line-height:30px;'>任务要求：\n              <p class='footer' style='font-size:35px; line-height:35px;'>对于与“朋友”对应的图形：如果 匹配 ，请按 <span style=\""color: lightgreen;\"">k键</span></p><p class='footer' style='font-size:35px'>如果 不匹配 ，请按<span style=\""color: lightgreen;\"">j键</p></span>\n              <p class='footer' style='font-size:35px; line-height:35px;'>对于非“朋友”对应的图形：如果 匹配 ，请按 <span style=\""color: lightgreen;\"">d键</span></p><p class='footer' style='font-size:35px'>如果 不匹配 ，请按<span style=\""color: lightgreen;\"">f键</p></span>\n              <p class='footer' style='font-size:22px; line-height:25px;'>请在实验过程中将您的<span style=\""color: lightgreen;\"">食指和中指</span>放在电脑键盘的相应键位上进行按键。</p></span>""]"," ","","","","","","","","","","","","","","","","","","","","","","","",""
"","","","","","psychophysics","63","416040","0.0-10.0-0.0-0.0","1333","","d","","","","","","","","","","","","","key","d","21.455222222222126","768","428","f","false","img/H_28.png","自我","freeprac_friend","",""
"","","","","","html-keyboard-response","64","416385","0.0-10.0-0.0-1.0","null","<span style='color:red; font-size: 70px;'>错误! </span>","null","","","","","","","","","","","","","","","","","","","","","","","feedback_test",""
"","","","","","psychophysics","65","418568","0.0-10.0-0.0-0.1","1179","","f","","","","","","","","","","","","","key","f","22.3176907216494","768","428","f","true","img/C_28.png","生人","freeprac_friend","",""
"","","","","","html-keyboard-response","66","418889","0.0-10.0-0.0-1.1","null","<span style='color:GreenYellow; font-size: 70px;'>正确! </span>","null","","","","","","","","","","","","","","","","","","","","","","","feedback_test",""
"","","","","","psychophysics","67","421103","0.0-10.0-0.0-0.2","1202","","f","","","","","","","","","","","","","key","f","21.387196078431433","768","428","d","false","img/C_28.png","自我","freeprac_friend","",""
"","","","","","html-keyboard-response","68","421416","0.0-10.0-0.0-1.2","null","<span style='color:red; font-size: 70px;'>错误! </span>","null","","","","","","","","","","","","","","","","","","","","","","","feedback_test",""
"","","","","","psychophysics","69","424246","0.0-10.0-0.0-0.3","1818","","j","","","","","","","","","","","","","key","j","21.686472868217","768","428","j","true","img/S_28.png","生人","freeprac_friend","",""
"","","","","","html-keyboard-response","70","424553","0.0-10.0-0.0-1.3","null","<span style='color:GreenYellow; font-size: 70px;'>正确! </span>","null","","","","","","","","","","","","","","","","","","","","","","","feedback_test",""
"","","","","","psychophysics","71","427184","0.0-10.0-0.0-0.4","1628","","d","","","","","","","","","","","","","key","d","22.013677966101707","768","428","d","true","img/H_28.png","生人","freeprac_friend","",""
"","","","","","html-keyboard-response","72","427489","0.0-10.0-0.0-1.4","null","<span style='color:GreenYellow; font-size: 70px;'>正确! </span>","null","","","","","","","","","","","","","","","","","","","","","","","feedback_test",""
"","","","","","psychophysics","73","430167","0.0-10.0-0.0-0.5","1671","","f","","","","","","","","","","","","","key","f","21.701926229508274","768","428","f","true","img/H_28.png","朋友","freeprac_friend","",""
"","","","","","html-keyboard-response","74","430481","0.0-10.0-0.0-1.5","null","<span style='color:GreenYellow; font-size: 70px;'>正确! </span>","null","","","","","","","","","","","","","","","","","","","","","","","feedback_test",""
"","","","","","psychophysics","75","432854","0.0-10.0-0.0-0.6","1369","","f","","","","","","","","","","","","","key","f","21.58626851851888","768","428","j","false","img/S_28.png","自我","freeprac_friend","",""
"","","","","","html-keyboard-response","76","433161","0.0-10.0-0.0-1.6","null","<span style='color:red; font-size: 70px;'>错误! </span>","null","","","","","","","","","","","","","","","","","","","","","","","feedback_test",""
"","","","","","psychophysics","77","436167","0.0-10.0-0.0-0.7","1997","","j","","","","","","","","","","","","","key","j","21.917647058823444","768","428","f","false","img/C_28.png","朋友","freeprac_friend","",""
"","","","","","html-keyboard-response","78","436480","0.0-10.0-0.0-1.7","null","<span style='color:red; font-size: 70px;'>错误! </span>","null","","","","","","","","","","","","","","","","","","","","","","","feedback_test",""
"","","","","","psychophysics","79","439524","0.0-10.0-0.0-0.8","2041","","d","","","","","","","","","","","","","key","d","21.52847142857125","768","428","d","true","img/C_28.png","自我","freeprac_friend","",""
"","","","","","html-keyboard-response","80","439832","0.0-10.0-0.0-1.8","null","<span style='color:GreenYellow; font-size: 70px;'>正确! </span>","null","","","","","","","","","","","","","","","","","","","","","","","feedback_test",""
"","","","","","psychophysics","81","442361","0.0-10.0-0.0-0.9","1527","","k","","","","","","","","","","","","","key","k","21.389517241379384","768","428","k","true","img/S_28.png","朋友","freeprac_friend","",""
"","","","","","html-keyboard-response","82","442672","0.0-10.0-0.0-1.9","null","<span style='color:GreenYellow; font-size: 70px;'>正确! </span>","null","","","","","","","","","","","","","","","","","","","","","","","feedback_test",""
"","","","","","psychophysics","83","445098","0.0-10.0-0.0-0.10","1422","","d","","","","","","","","","","","","","key","d","21.408419642856774","768","428","d","true","img/H_28.png","生人","freeprac_friend","",""
"","","","","","html-keyboard-response","84","445408","0.0-10.0-0.0-1.10","null","<span style='color:GreenYellow; font-size: 70px;'>正确! </span>","null","","","","","","","","","","","","","","","","","","","","","","","feedback_test",""
"","","","","","psychophysics","85","448085","0.0-10.0-0.0-0.11","1668","","d","","","","","","","","","","","","","key","d","21.88147107438013","768","428","k","false","img/S_28.png","朋友","freeprac_friend","",""
"","","","","","html-keyboard-response","86","448393","0.0-10.0-0.0-1.11","null","<span style='color:red; font-size: 70px;'>错误! </span>","null","","","","","","","","","","","","","","","","","","","","","","","feedback_test",""
"","","","","","html-keyboard-response","87","454572","0.0-10.0-1.0-0.0","6178","<style>.context{color:white; font-size: 35px; line-height:40px}</style>                              <div><p class='context'>您正确回答了58% 的试次。</p><p class='context'>您的平均反应时为1612毫秒。</p>"," ","","","","","","","","","","","","","","","","","","","","","","","",""
"","","","","","instructions","88","460929","0.0-10.0-1.0-1.0","6354","","","","","","","","","","","","","","[{""page_index"":0,""viewing_time"":1811},{""page_index"":1,""viewing_time"":3191},{""page_index"":2,""viewing_time"":1352}]","","","","","","","","","","","",""
"","","","","","psychophysics","89","463219","0.0-10.1-0.1-0.12","1278","","d","","","","","","","","","","","","","key","d","21.366424528302026","768","428","d","true","img/C_28.png","自我","freeprac_friend","",""
"","","","","","html-keyboard-response","90","463529","0.0-10.1-0.1-1.12","null","<span style='color:GreenYellow; font-size: 70px;'>正确! </span>","null","","","","","","","","","","","","","","","","","","","","","","","feedback_test",""
"","","","","","psychophysics","91","465691","0.0-10.1-0.1-0.13","1126","","k","","","","","","","","","","","","","key","k","21.750408163265686","768","428","k","true","img/S_28.png","朋友","freeprac_friend","",""
"","","","","","html-keyboard-response","92","466001","0.0-10.1-0.1-1.13","null","<span style='color:GreenYellow; font-size: 70px;'>正确! </span>","null","","","","","","","","","","","","","","","","","","","","","","","feedback_test",""
"","","","","","psychophysics","93","467726","0.0-10.1-0.1-0.14","724","","j","","","","","","","","","","","","","key","j","21.774884615384508","768","428","j","true","img/S_28.png","自我","freeprac_friend","",""
"","","","","","html-keyboard-response","94","468032","0.0-10.1-0.1-1.14","null","<span style='color:GreenYellow; font-size: 70px;'>正确! </span>","null","","","","","","","","","","","","","","","","","","","","","","","feedback_test",""
"","","","","","psychophysics","95","470378","0.0-10.1-0.1-0.15","1338","","d","","","","","","","","","","","","","key","d","22.255519230769444","768","428","d","true","img/H_28.png","生人","freeprac_friend","",""
"","","","","","html-keyboard-response","96","470681","0.0-10.1-0.1-1.15","null","<span style='color:GreenYellow; font-size: 70px;'>正确! </span>","null","","","","","","","","","","","","","","","","","","","","","","","feedback_test",""
"","","","","","psychophysics","97","472884","0.0-10.1-0.1-0.16","1201","","d","","","","","","","","","","","","","key","d","22.259306122449093","768","428","d","true","img/C_28.png","自我","freeprac_friend","",""
"","","","","","html-keyboard-response","98","473193","0.0-10.1-0.1-1.16","null","<span style='color:GreenYellow; font-size: 70px;'>正确! </span>","null","","","","","","","","","","","","","","","","","","","","","","","feedback_test",""
"","","","","","psychophysics","99","475488","0.0-10.1-0.1-0.17","1287","","f","","","","","","","","","","","","","key","f","22.42196039603977","768","428","f","true","img/C_28.png","朋友","freeprac_friend","",""
"","","","","","html-keyboard-response","100","475801","0.0-10.1-0.1-1.17","null","<span style='color:GreenYellow; font-size: 70px;'>正确! </span>","null","","","","","","","","","","","","","","","","","","","","","","","feedback_test",""
"","","","","","psychophysics","101","477663","0.0-10.1-0.1-0.18","849","","j","","","","","","","","","","","","","key","j","22.06889156626498","768","428","k","false","img/S_28.png","朋友","freeprac_friend","",""
"","","","","","html-keyboard-response","102","477968","0.0-10.1-0.1-1.18","null","<span style='color:red; font-size: 70px;'>错误! </span>","null","","","","","","","","","","","","","","","","","","","","","","","feedback_test",""
"","","","","","psychophysics","103","479842","0.0-10.1-0.1-0.19","861","","j","","","","","","","","","","","","","key","j","21.80479761904765","768","428","f","false","img/C_28.png","生人","freeprac_friend","",""
"","","","","","html-keyboard-response","104","480145","0.0-10.1-0.1-1.19","null","<span style='color:red; font-size: 70px;'>错误! </span>","null","","","","","","","","","","","","","","","","","","","","","","","feedback_test",""
"","","","","","psychophysics","105","482579","0.0-10.1-0.1-0.20","1422","","d","","","","","","","","","","","","","key","d","21.950681818181923","768","428","d","true","img/H_28.png","生人","freeprac_friend","",""
"","","","","","html-keyboard-response","106","482888","0.0-10.1-0.1-1.20","null","<span style='color:GreenYellow; font-size: 70px;'>正确! </span>","null","","","","","","","","","","","","","","","","","","","","","","","feedback_test",""
"","","","","","psychophysics","107","485503","0.0-10.1-0.1-0.21","1606","","f","","","","","","","","","","","","","key","f","21.918470085470172","768","428","f","true","img/H_28.png","朋友","freeprac_friend","",""
"","","","","","html-keyboard-response","108","485841","0.0-10.1-0.1-1.21","null","<span style='color:GreenYellow; font-size: 70px;'>正确! </span>","null","","","","","","","","","","","","","","","","","","","","","","","feedback_test",""
"","","","","","psychophysics","109","488273","0.0-10.1-0.1-0.22","1431","","d","","","","","","","","","","","","","key","d","21.603261261261256","768","428","f","false","img/H_28.png","自我","freeprac_friend","",""
"","","","","","html-keyboard-response","110","488576","0.0-10.1-0.1-1.22","null","<span style='color:red; font-size: 70px;'>错误! </span>","null","","","","","","","","","","","","","","","","","","","","","","","feedback_test",""
"","","","","","psychophysics","111","491186","0.0-10.1-0.1-0.23","1603","","f","","","","","","","","","","","","","key","f","21.54929411764689","768","428","j","false","img/S_28.png","生人","freeprac_friend","",""
"","","","","","html-keyboard-response","112","491496","0.0-10.1-0.1-1.23","null","<span style='color:red; font-size: 70px;'>错误! </span>","null","","","","","","","","","","","","","","","","","","","","","","","feedback_test",""
"","","","","","html-keyboard-response","113","499329","0.0-10.1-1.1-0.1","7832","<style>.context{color:white; font-size: 35px; line-height:40px}</style>                              <div><p class='context'>您正确回答了67% 的试次。</p><p class='context'>您的平均反应时为1248毫秒。</p>"," ","","","","","","","","","","","","","","","","","","","","","","","",""
"","","","","","instructions","114","510760","0.0-10.1-1.1-1.1","11429","","","","","","","","","","","","","","[{""page_index"":0,""viewing_time"":3837},{""page_index"":1,""viewing_time"":6720},{""page_index"":2,""viewing_time"":872}]","","","","","","","","","","","",""
"","","","","","psychophysics","115","513211","0.0-10.2-0.2-0.24","1431","","j","","","","","","","","","","","","","key","j","21.999266055046256","768","428","f","false","img/H_28.png","朋友","freeprac_friend","",""
"","","","","","html-keyboard-response","116","513520","0.0-10.2-0.2-1.24","null","<span style='color:red; font-size: 70px;'>错误! </span>","null","","","","","","","","","","","","","","","","","","","","","","","feedback_test",""
"","","","","","psychophysics","117","516368","0.0-10.2-0.2-0.25","1828","","j","","","","","","","","","","","","","key","j","21.985382812500575","768","428","j","true","img/S_28.png","生人","freeprac_friend","",""
"","","","","","html-keyboard-response","118","516672","0.0-10.2-0.2-1.25","null","<span style='color:GreenYellow; font-size: 70px;'>正确! </span>","null","","","","","","","","","","","","","","","","","","","","","","","feedback_test",""
"","","","","","psychophysics","119","519232","0.0-10.2-0.2-0.26","1554","","f","","","","","","","","","","","","","key","f","22.59942857142908","768","428","f","true","img/H_28.png","自我","freeprac_friend","",""
"","","","","","html-keyboard-response","120","519536","0.0-10.2-0.2-1.26","null","<span style='color:GreenYellow; font-size: 70px;'>正确! </span>","null","","","","","","","","","","","","","","","","","","","","","","","feedback_test",""
"","","","","","psychophysics","121","522025","0.0-10.2-0.2-0.27","1475","","d","","","","","","","","","","","","","key","d","21.61707894736901","768","428","d","true","img/H_28.png","生人","freeprac_friend","",""
"","","","","","html-keyboard-response","122","522336","0.0-10.2-0.2-1.27","null","<span style='color:GreenYellow; font-size: 70px;'>正确! </span>","null","","","","","","","","","","","","","","","","","","","","","","","feedback_test",""
"","","","","","psychophysics","123","524461","0.0-10.2-0.2-0.28","1116","","f","","","","","","","","","","","","","key","f","22.55915053763492","768","428","f","true","img/C_28.png","生人","freeprac_friend","",""
"","","","","","html-keyboard-response","124","524768","0.0-10.2-0.2-1.28","null","<span style='color:GreenYellow; font-size: 70px;'>正确! </span>","null","","","","","","","","","","","","","","","","","","","","","","","feedback_test",""
"","","","","","psychophysics","125","527236","0.0-10.2-0.2-0.29","1461","","d","","","","","","","","","","","","","key","d","21.513840707964718","768","428","d","true","img/C_28.png","自我","freeprac_friend","",""
"","","","","","html-keyboard-response","126","527544","0.0-10.2-0.2-1.29","null","<span style='color:GreenYellow; font-size: 70px;'>正确! </span>","null","","","","","","","","","","","","","","","","","","","","","","","feedback_test",""
"","","","","","psychophysics","127","530061","0.0-10.2-0.2-0.30","1507","","f","","","","","","","","","","","","","key","f","21.957185840708064","768","428","d","false","img/H_28.png","生人","freeprac_friend","",""
"","","","","","html-keyboard-response","128","530368","0.0-10.2-0.2-1.30","null","<span style='color:red; font-size: 70px;'>错误! </span>","null","","","","","","","","","","","","","","","","","","","","","","","feedback_test",""
"","","","","","psychophysics","129","532910","0.0-10.2-0.2-0.31","1538","","j","","","","","","","","","","","","","key","j","22.056254385964404","768","428","j","true","img/S_28.png","自我","freeprac_friend","",""
"","","","","","html-keyboard-response","130","533216","0.0-10.2-0.2-1.31","null","<span style='color:GreenYellow; font-size: 70px;'>正确! </span>","null","","","","","","","","","","","","","","","","","","","","","","","feedback_test",""
"","","","","","psychophysics","131","535120","0.0-10.2-0.2-0.32","903","","k","","","","","","","","","","","","","key","k","21.62695402298765","768","428","k","true","img/S_28.png","朋友","freeprac_friend","",""
"","","","","","html-keyboard-response","132","535424","0.0-10.2-0.2-1.32","null","<span style='color:GreenYellow; font-size: 70px;'>正确! </span>","null","","","","","","","","","","","","","","","","","","","","","","","feedback_test",""
"","","","","","psychophysics","133","537569","0.0-10.2-0.2-0.33","1141","","k","","","","","","","","","","","","","key","k","22.029374999999465","768","428","k","true","img/S_28.png","朋友","freeprac_friend","",""
"","","","","","html-keyboard-response","134","537880","0.0-10.2-0.2-1.33","null","<span style='color:GreenYellow; font-size: 70px;'>正确! </span>","null","","","","","","","","","","","","","","","","","","","","","","","feedback_test",""
"","","","","","psychophysics","135","539824","0.0-10.2-0.2-0.34","926","","d","","","","","","","","","","","","","key","d","22.011471264366723","768","428","d","true","img/C_28.png","自我","freeprac_friend","",""
"","","","","","html-keyboard-response","136","540137","0.0-10.2-0.2-1.34","null","<span style='color:GreenYellow; font-size: 70px;'>正确! </span>","null","","","","","","","","","","","","","","","","","","","","","","","feedback_test",""
"","","","","","psychophysics","137","542522","0.0-10.2-0.2-0.35","1382","","d","","","","","","","","","","","","","key","d","21.586777777778615","768","428","f","false","img/C_28.png","朋友","freeprac_friend","",""
"","","","","","html-keyboard-response","138","542841","0.0-10.2-0.2-1.35","null","<span style='color:red; font-size: 70px;'>错误! </span>","null","","","","","","","","","","","","","","","","","","","","","","","feedback_test",""
"","","","","","html-keyboard-response","139","547802","0.0-11.0","4960","[""<style>.context{color:white; font-size: 35px; line-height:40px}</style>                  <div><p class='context'>您正确回答了75% 的试次。</p><p class='context'>您的平均反应时为1327毫秒。</p><p class='context'>恭喜您完成这一阶段的练习。按任意键进入<span style='color: yellow;'>重点关注图形为“生人”</span>的练习。</p></div><p class='footer' style='font-size:35px; line-height:30px;'>任务要求：\n                  <p class='footer' style='font-size:35px; line-height:35px;'>对与“生人”对应的图形，如果 匹配 ，请按 <span style=\""color: lightgreen;\"">k键</span></p><p class='footer' style='font-size:35px'>如果 不匹配 ，请按<span style=\""color: lightgreen;\"">j键</p></span>\n                  <p class='footer' style='font-size:35px; line-height:35px;'>对非“生人”对应的图形，如果 匹配 ，请按 <span style=\""color: lightgreen;\"">d键</span></p><p class='footer' style='font-size:35px'>如果 不匹配 ，请按<span style=\""color: lightgreen;\"">f键</p></span>\n                  <p class='footer' style='font-size:22px; line-height:25px;'>请在实验过程中将您的<span style=\""color: lightgreen;\"">食指和中指</span>放在电脑键盘的相应键位上进行按键。</p></span>""]"," ","","","","","","","","","","","","","","","","","","","","","","","",""
"","","","","","psychophysics","140","549921","0.0-12.0-0.0-0.0","1104","","k","","","","","","","","","","","","","key","k","22.318574468085068","768","428","d","false","img/C_28.png","自我","freeprac_stranger","",""
"","","","","","html-keyboard-response","141","550224","0.0-12.0-0.0-1.0","null","<span style='color:red; font-size: 70px;'>错误! </span>","null","","","","","","","","","","","","","","","","","","","","","","","feedback_test",""
"","","","","","psychophysics","142","552543","0.0-12.0-0.0-0.1","1309","","j","","","","","","","","","","","","","key","j","21.936096153846638","768","428","j","true","img/H_28.png","朋友","freeprac_stranger","",""
"","","","","","html-keyboard-response","143","552856","0.0-12.0-0.0-1.1","null","<span style='color:GreenYellow; font-size: 70px;'>正确! </span>","null","","","","","","","","","","","","","","","","","","","","","","","feedback_test",""
"","","","","","psychophysics","144","555319","0.0-12.0-0.0-0.2","1453","","d","","","","","","","","","","","","","key","d","21.707491071428063","768","428","f","false","img/C_28.png","朋友","freeprac_stranger","",""
"","","","","","html-keyboard-response","145","555624","0.0-12.0-0.0-1.2","null","<span style='color:red; font-size: 70px;'>错误! </span>","null","","","","","","","","","","","","","","","","","","","","","","","feedback_test",""
"","","","","","psychophysics","146","558611","0.0-12.0-0.0-0.3","1984","","j","","","","","","","","","","","","","key","j","21.794764705882272","768","428","f","false","img/S_28.png","生人","freeprac_stranger","",""
"","","","","","html-keyboard-response","147","558920","0.0-12.0-0.0-1.3","null","<span style='color:red; font-size: 70px;'>错误! </span>","null","","","","","","","","","","","","","","","","","","","","","","","feedback_test",""
"","","","","","psychophysics","148","561790","0.0-12.0-0.0-0.4","1866","","f","","","","","","","","","","","","","key","f","21.90390769230793","768","428","f","true","img/C_28.png","生人","freeprac_stranger","",""
"","","","","","html-keyboard-response","149","562096","0.0-12.0-0.0-1.4","null","<span style='color:GreenYellow; font-size: 70px;'>正确! </span>","null","","","","","","","","","","","","","","","","","","","","","","","feedback_test",""
"","","","","","psychophysics","150","564772","0.0-12.0-0.0-0.5","1668","","d","","","","","","","","","","","","","key","d","21.74498347107471","768","428","d","true","img/S_28.png","朋友","freeprac_stranger","",""
"","","","","","html-keyboard-response","151","565104","0.0-12.0-0.0-1.5","null","<span style='color:GreenYellow; font-size: 70px;'>正确! </span>","null","","","","","","","","","","","","","","","","","","","","","","","feedback_test",""
"","","","","","psychophysics","152","567555","0.0-12.0-0.0-0.6","1446","","d","","","","","","","","","","","","","key","d","22.933924528301194","768","428","d","true","img/S_28.png","朋友","freeprac_stranger","",""
"","","","","","html-keyboard-response","153","567872","0.0-12.0-0.0-1.6","null","<span style='color:GreenYellow; font-size: 70px;'>正确! </span>","null","","","","","","","","","","","","","","","","","","","","","","","feedback_test",""
"","","","","","psychophysics","154","570800","0.0-12.0-0.0-0.7","1919","","k","","","","","","","","","","","","","key","k","22.330844961240338","768","428","k","true","img/H_28.png","生人","freeprac_stranger","",""
"","","","","","html-keyboard-response","155","571104","0.0-12.0-0.0-1.7","null","<span style='color:GreenYellow; font-size: 70px;'>正确! </span>","null","","","","","","","","","","","","","","","","","","","","","","","feedback_test",""
"","","","","","psychophysics","156","572840","0.0-12.0-0.0-0.8","723","","j","","","","","","","","","","","","","key","j","21.501759493670463","768","428","j","true","img/H_28.png","自我","freeprac_stranger","",""
"","","","","","html-keyboard-response","157","573152","0.0-12.0-0.0-1.8","null","<span style='color:GreenYellow; font-size: 70px;'>正确! </span>","null","","","","","","","","","","","","","","","","","","","","","","","feedback_test",""
"","","","","","psychophysics","158","575320","0.0-12.0-0.0-0.9","1154","","d","","","","","","","","","","","","","key","d","21.53017171717136","768","428","d","true","img/C_28.png","自我","freeprac_stranger","",""
"","","","","","html-keyboard-response","159","575632","0.0-12.0-0.0-1.9","null","<span style='color:GreenYellow; font-size: 70px;'>正确! </span>","null","","","","","","","","","","","","","","","","","","","","","","","feedback_test",""
"","","","","","psychophysics","160","577924","0.0-12.0-0.0-0.10","1276","","k","","","","","","","","","","","","","key","k","22.422356435644097","768","428","k","true","img/H_28.png","生人","freeprac_stranger","",""
"","","","","","html-keyboard-response","161","578232","0.0-12.0-0.0-1.10","null","<span style='color:GreenYellow; font-size: 70px;'>正确! </span>","null","","","","","","","","","","","","","","","","","","","","","","","feedback_test",""
"","","","","","psychophysics","162","580705","0.0-12.0-0.0-0.11","1464","","f","","","","","","","","","","","","","key","f","21.7058124999998","768","428","f","true","img/S_28.png","自我","freeprac_stranger","",""
"","","","","","html-keyboard-response","163","581016","0.0-12.0-0.0-1.11","null","<span style='color:GreenYellow; font-size: 70px;'>正确! </span>","null","","","","","","","","","","","","","","","","","","","","","","","feedback_test",""
"","","","","","instructions","164","586105","0.0-13.0","5088","","","","","","","","","","","","","","[{""page_index"":0,""viewing_time"":5088}]","","","","","","","","","","","",""
"","","","","","psychophysics","165","588031","0.0-14.0-0.0-0.0","917","","j","","","","","","","","","","","","","key","j","22.26803488372067","768","428","f","false","img/S_28.png","自我","prac_self","","朋友"
"","","","","","html-keyboard-response","166","588344","0.0-14.0-0.0-1.0","null","<span style='color:red; font-size: 70px;'>错误! </span>","null","","","","","","","","","","","","","","","","","","","","","","","feedback_test",""
"","","","","","psychophysics","167","590716","0.0-14.0-0.0-0.1","1362","","d","","","","","","","","","","","","","key","d","21.99357547169828","768","428","d","true","img/S_28.png","朋友","prac_self","","朋友"
"","","","","","html-keyboard-response","168","591024","0.0-14.0-0.0-1.1","null","<span style='color:GreenYellow; font-size: 70px;'>正确! </span>","null","","","","","","","","","","","","","","","","","","","","","","","feedback_test",""
"","","","","","psychophysics","169","593073","0.0-14.0-0.0-0.2","1046","","d","","","","","","","","","","","","","key","d","21.667290322581476","768","428","d","true","img/S_28.png","朋友","prac_self","","朋友"
"","","","","","html-keyboard-response","170","593376","0.0-14.0-0.0-1.2","null","<span style='color:GreenYellow; font-size: 70px;'>正确! </span>","null","","","","","","","","","","","","","","","","","","","","","","","feedback_test",""
"","","","","","psychophysics","171","595340","0.0-14.0-0.0-0.3","951","","d","","","","","","","","","","","","","key","d","21.46293333333322","768","428","d","true","img/H_28.png","生人","prac_self","","生人"
"","","","","","html-keyboard-response","172","595648","0.0-14.0-0.0-1.3","null","<span style='color:GreenYellow; font-size: 70px;'>正确! </span>","null","","","","","","","","","","","","","","","","","","","","","","","feedback_test",""
"","","","","","psychophysics","173","597980","0.0-14.0-0.0-0.4","1321","","f","","","","","","","","","","","","","key","f","21.081550458716357","768","428","f","true","img/S_28.png","生人","prac_self","","朋友"
"","","","","","html-keyboard-response","174","598288","0.0-14.0-0.0-1.4","null","<span style='color:GreenYellow; font-size: 70px;'>正确! </span>","null","","","","","","","","","","","","","","","","","","","","","","","feedback_test",""
"","","","","","psychophysics","175","600494","0.0-14.0-0.0-0.5","1200","","d","","","","","","","","","","","","","key","d","21.17933009708644","768","428","d","true","img/H_28.png","生人","prac_self","","生人"
"","","","","","html-keyboard-response","176","600824","0.0-14.0-0.0-1.5","null","<span style='color:GreenYellow; font-size: 70px;'>正确! </span>","null","","","","","","","","","","","","","","","","","","","","","","","feedback_test",""
"","","","","","psychophysics","177","603331","0.0-14.0-0.0-0.6","null","","null","","","","","","","","","","","","","key","null","21.958132743362576","768","428","j","false","img/C_28.png","朋友","prac_self","","自我"
"","","","","","html-keyboard-response","178","603640","0.0-14.0-0.0-1.6","null","<span class='add_' style='color:yellow; font-size: 70px;'> 太慢! </span>","null","","","","","","","","","","","","","","","","","","","","","","","feedback_test",""
"","","","","","psychophysics","179","605823","0.0-14.0-0.0-0.7","1173","","j","","","","","","","","","","","","","key","j","21.699313131312728","768","428","j","true","img/C_28.png","生人","prac_self","","自我"
"","","","","","html-keyboard-response","180","606136","0.0-14.0-0.0-1.7","null","<span style='color:GreenYellow; font-size: 70px;'>正确! </span>","null","","","","","","","","","","","","","","","","","","","","","","","feedback_test",""
"","","","","","psychophysics","181","608464","0.0-14.0-0.0-0.8","1319","","f","","","","","","","","","","","","","key","f","21.678981132076103","768","428","f","true","img/H_28.png","朋友","prac_self","","生人"
"","","","","","html-keyboard-response","182","608769","0.0-14.0-0.0-1.8","null","<span style='color:GreenYellow; font-size: 70px;'>正确! </span>","null","","","","","","","","","","","","","","","","","","","","","","","feedback_test",""
"","","","","","psychophysics","183","611117","0.0-14.0-0.0-0.9","1339","","k","","","","","","","","","","","","","key","k","22.043561904762118","768","428","k","true","img/C_28.png","自我","prac_self","","自我"
"","","","","","html-keyboard-response","184","611425","0.0-14.0-0.0-1.9","null","<span style='color:GreenYellow; font-size: 70px;'>正确! </span>","null","","","","","","","","","","","","","","","","","","","","","","","feedback_test",""
"","","","","","psychophysics","185","613338","0.0-14.0-0.0-0.10","908","","k","","","","","","","","","","","","","key","k","21.627793103448468","768","428","k","true","img/C_28.png","自我","prac_self","","自我"
"","","","","","html-keyboard-response","186","613640","0.0-14.0-0.0-1.10","null","<span style='color:GreenYellow; font-size: 70px;'>正确! </span>","null","","","","","","","","","","","","","","","","","","","","","","","feedback_test",""
"","","","","","psychophysics","187","616144","0.0-14.0-0.0-0.11","null","","null","","","","","","","","","","","","","key","null","21.245801724138236","768","428","f","false","img/H_28.png","自我","prac_self","","生人"
"","","","","","html-keyboard-response","188","616448","0.0-14.0-0.0-1.11","null","<span class='add_' style='color:yellow; font-size: 70px;'> 太慢! </span>","null","","","","","","","","","","","","","","","","","","","","","","","feedback_test",""
"","","","","","psychophysics","189","618758","0.0-14.0-0.0-0.12","1300","","d","","","","","","","","","","","","","key","d","21.321616822430453","768","428","d","true","img/S_28.png","朋友","prac_self","","朋友"
"","","","","","html-keyboard-response","190","619064","0.0-14.0-0.0-1.12","null","<span style='color:GreenYellow; font-size: 70px;'>正确! </span>","null","","","","","","","","","","","","","","","","","","","","","","","feedback_test",""
"","","","","","psychophysics","191","621362","0.0-14.0-0.0-0.13","1288","","j","","","","","","","","","","","","","key","j","21.776153846153576","768","428","j","true","img/C_28.png","生人","prac_self","","自我"
"","","","","","html-keyboard-response","192","621672","0.0-14.0-0.0-1.13","null","<span style='color:GreenYellow; font-size: 70px;'>正确! </span>","null","","","","","","","","","","","","","","","","","","","","","","","feedback_test",""
"","","","","","psychophysics","193","624042","0.0-14.0-0.0-0.14","1354","","j","","","","","","","","","","","","","key","j","21.94351401869164","768","428","j","true","img/C_28.png","朋友","prac_self","","自我"
"","","","","","html-keyboard-response","194","624345","0.0-14.0-0.0-1.14","null","<span style='color:GreenYellow; font-size: 70px;'>正确! </span>","null","","","","","","","","","","","","","","","","","","","","","","","feedback_test",""
"","","","","","psychophysics","195","626784","0.0-14.0-0.0-0.15","1436","","d","","","","","","","","","","","","","key","d","22.151853211009406","768","428","f","false","img/S_28.png","自我","prac_self","","朋友"
"","","","","","html-keyboard-response","196","627089","0.0-14.0-0.0-1.15","null","<span style='color:red; font-size: 70px;'>错误! </span>","null","","","","","","","","","","","","","","","","","","","","","","","feedback_test",""
"","","","","","psychophysics","197","629601","0.0-14.0-0.0-0.16","null","","null","","","","","","","","","","","","","key","null","21.95672566371772","768","428","f","false","img/H_28.png","自我","prac_self","","生人"
"","","","","","html-keyboard-response","198","629906","0.0-14.0-0.0-1.16","null","<span class='add_' style='color:yellow; font-size: 70px;'> 太慢! </span>","null","","","","","","","","","","","","","","","","","","","","","","","feedback_test",""
"","","","","","psychophysics","199","632209","0.0-14.0-0.0-0.17","1300","","k","","","","","","","","","","","","","key","k","20.551648648647667","768","428","d","false","img/H_28.png","生人","prac_self","","生人"
"","","","","","html-keyboard-response","200","632521","0.0-14.0-0.0-1.17","null","<span style='color:red; font-size: 70px;'>错误! </span>","null","","","","","","","","","","","","","","","","","","","","","","","feedback_test",""
"","","","","","psychophysics","201","635029","0.0-14.0-0.0-0.18","null","","null","","","","","","","","","","","","","key","null","21.7643596491227","768","428","f","false","img/H_28.png","朋友","prac_self","","生人"
"","","","","","html-keyboard-response","202","635345","0.0-14.0-0.0-1.18","null","<span class='add_' style='color:yellow; font-size: 70px;'> 太慢! </span>","null","","","","","","","","","","","","","","","","","","","","","","","feedback_test",""
"","","","","","psychophysics","203","637758","0.0-14.0-0.0-0.19","1402","","f","","","","","","","","","","","","","key","f","21.261598214285705","768","428","f","true","img/S_28.png","生人","prac_self","","朋友"
"","","","","","html-keyboard-response","204","638065","0.0-14.0-0.0-1.19","null","<span style='color:GreenYellow; font-size: 70px;'>正确! </span>","null","","","","","","","","","","","","","","","","","","","","","","","feedback_test",""
"","","","","","psychophysics","205","640088","0.0-14.0-0.0-0.20","1017","","k","","","","","","","","","","","","","key","k","21.71977173913088","768","428","k","true","img/C_28.png","自我","prac_self","","自我"
"","","","","","html-keyboard-response","206","640416","0.0-14.0-0.0-1.20","null","<span style='color:GreenYellow; font-size: 70px;'>正确! </span>","null","","","","","","","","","","","","","","","","","","","","","","","feedback_test",""
"","","","","","psychophysics","207","642205","0.0-14.0-0.0-0.21","786","","k","","","","","","","","","","","","","key","k","22.062625000000118","768","428","k","true","img/C_28.png","自我","prac_self","","自我"
"","","","","","html-keyboard-response","208","642514","0.0-14.0-0.0-1.21","null","<span style='color:GreenYellow; font-size: 70px;'>正确! </span>","null","","","","","","","","","","","","","","","","","","","","","","","feedback_test",""
"","","","","","psychophysics","209","644951","0.0-14.0-0.0-0.22","1430","","d","","","","","","","","","","","","","key","d","21.409232142856386","768","428","d","true","img/H_28.png","生人","prac_self","","生人"
"","","","","","html-keyboard-response","210","645265","0.0-14.0-0.0-1.22","null","<span style='color:GreenYellow; font-size: 70px;'>正确! </span>","null","","","","","","","","","","","","","","","","","","","","","","","feedback_test",""
"","","","","","psychophysics","211","647011","0.0-14.0-0.0-0.23","730","","d","","","","","","","","","","","","","key","d","22.34932894736841","768","428","d","true","img/S_28.png","朋友","prac_self","","朋友"
"","","","","","html-keyboard-response","212","647320","0.0-14.0-0.0-1.23","null","<span style='color:GreenYellow; font-size: 70px;'>正确! </span>","null","","","","","","","","","","","","","","","","","","","","","","","feedback_test",""
"","","","","","html-keyboard-response","213","651037","0.0-15.0","3714","[""<style>.context{color:white; font-size: 35px; line-height:40px}</style>              <div><p class='context'>您正确回答了71% 的试次。</p><p class='context'>您的平均反应时为1172毫秒。</p><p class='context'>恭喜您完成这一阶段的练习。按任意键进入<span style='color: yellow;'>重点关注图形为“朋友”</span>的练习。</p></div><p class='footer' style='font-size:35px; line-height:30px;'>任务要求：\n              <p class='footer' style='font-size:35px; line-height:35px;'>对于与“朋友”对应的图形：如果 匹配 ，请按 <span style=\""color: lightgreen;\"">k键</span></p><p class='footer' style='font-size:35px'>如果 不匹配 ，请按<span style=\""color: lightgreen;\"">j键</p></span>\n              <p class='footer' style='font-size:35px; line-height:35px;'>对于非“朋友”对应的图形：如果 匹配 ，请按 <span style=\""color: lightgreen;\"">d键</span></p><p class='footer' style='font-size:35px'>如果 不匹配 ，请按<span style=\""color: lightgreen;\"">f键</p></span>\n              <p class='footer' style='font-size:22px; line-height:25px;'>请在实验过程中将您的<span style=\""color: lightgreen;\"">食指和中指</span>放在电脑键盘的相应键位上进行按键。</p></span>""]"," ","","","","","","","","","","","","","","","","","","","","","","","",""
"","","","","","psychophysics","214","653172","0.0-16.0-0.0-0.0","1129","","j","","","","","","","","","","","","","key","j","21.17485858585963","768","428","f","false","img/C_28.png","朋友","prac_friend","","自我"
"","","","","","html-keyboard-response","215","653481","0.0-16.0-0.0-1.0","null","<span style='color:red; font-size: 70px;'>错误! </span>","null","","","","","","","","","","","","","","","","","","","","","","","feedback_test",""
"","","","","","psychophysics","216","655981","0.0-16.0-0.0-0.1","1494","","d","","","","","","","","","","","","","key","d","20.71022689075624","768","428","d","true","img/C_28.png","自我","prac_friend","","自我"
"","","","","","html-keyboard-response","217","656289","0.0-16.0-0.0-1.1","null","<span style='color:GreenYellow; font-size: 70px;'>正确! </span>","null","","","","","","","","","","","","","","","","","","","","","","","feedback_test",""
"","","","","","psychophysics","218","658803","0.0-16.0-0.0-0.2","null","","null","","","","","","","","","","","","","key","null","22.503657657658337","768","428","j","false","img/S_28.png","生人","prac_friend","","朋友"
"","","","","","html-keyboard-response","219","659112","0.0-16.0-0.0-1.2","null","<span class='add_' style='color:yellow; font-size: 70px;'> 太慢! </span>","null","","","","","","","","","","","","","","","","","","","","","","","feedback_test",""
"","","","","","psychophysics","220","661079","0.0-16.0-0.0-0.3","954","","k","","","","","","","","","","","","","key","k","21.703382022472184","768","428","k","true","img/S_28.png","朋友","prac_friend","","朋友"
"","","","","","html-keyboard-response","221","661393","0.0-16.0-0.0-1.3","null","<span style='color:GreenYellow; font-size: 70px;'>正确! </span>","null","","","","","","","","","","","","","","","","","","","","","","","feedback_test",""
"","","","","","psychophysics","222","663435","0.0-16.0-0.0-0.4","1034","","d","","","","","","","","","","","","","key","d","21.96027472527483","768","428","d","true","img/C_28.png","自我","prac_friend","","自我"
"","","","","","html-keyboard-response","223","663736","0.0-16.0-0.0-1.4","null","<span style='color:GreenYellow; font-size: 70px;'>正确! </span>","null","","","","","","","","","","","","","","","","","","","","","","","feedback_test",""
"","","","","","psychophysics","224","666031","0.0-16.0-0.0-0.5","1284","","d","","","","","","","","","","","","","key","d","22.421544554455455","768","428","k","false","img/S_28.png","朋友","prac_friend","","朋友"
"","","","","","html-keyboard-response","225","666336","0.0-16.0-0.0-1.5","null","<span style='color:red; font-size: 70px;'>错误! </span>","null","","","","","","","","","","","","","","","","","","","","","","","feedback_test",""
"","","","","","psychophysics","226","668751","0.0-16.0-0.0-0.6","1404","","j","","","","","","","","","","","","","key","j","21.260455357142614","768","428","j","true","img/S_28.png","自我","prac_friend","","朋友"
"","","","","","html-keyboard-response","227","669056","0.0-16.0-0.0-1.6","null","<span style='color:GreenYellow; font-size: 70px;'>正确! </span>","null","","","","","","","","","","","","","","","","","","","","","","","feedback_test",""
"","","","","","psychophysics","228","671435","0.0-16.0-0.0-0.7","1373","","f","","","","","","","","","","","","","key","f","21.942289719625734","768","428","f","true","img/H_28.png","自我","prac_friend","","生人"
"","","","","","html-keyboard-response","229","671744","0.0-16.0-0.0-1.7","null","<span style='color:GreenYellow; font-size: 70px;'>正确! </span>","null","","","","","","","","","","","","","","","","","","","","","","","feedback_test",""
"","","","","","psychophysics","230","673980","0.0-16.0-0.0-0.8","1230","","d","","","","","","","","","","","","","key","d","21.980089999999617","768","428","d","true","img/H_28.png","生人","prac_friend","","生人"
"","","","","","html-keyboard-response","231","674289","0.0-16.0-0.0-1.8","null","<span style='color:GreenYellow; font-size: 70px;'>正确! </span>","null","","","","","","","","","","","","","","","","","","","","","","","feedback_test",""
"","","","","","psychophysics","232","676343","0.0-16.0-0.0-0.9","1047","","d","","","","","","","","","","","","","key","d","21.16195833333404","768","428","d","true","img/H_28.png","生人","prac_friend","","生人"
"","","","","","html-keyboard-response","233","676649","0.0-16.0-0.0-1.9","null","<span style='color:GreenYellow; font-size: 70px;'>正确! </span>","null","","","","","","","","","","","","","","","","","","","","","","","feedback_test",""
"","","","","","psychophysics","234","678351","0.0-16.0-0.0-0.10","697","","k","","","","","","","","","","","","","key","k","21.133858974358866","768","428","f","false","img/H_28.png","朋友","prac_friend","","生人"
"","","","","","html-keyboard-response","235","678665","0.0-16.0-0.0-1.10","null","<span style='color:red; font-size: 70px;'>错误! </span>","null","","","","","","","","","","","","","","","","","","","","","","","feedback_test",""
"","","","","","psychophysics","236","681161","0.0-16.0-0.0-0.11","1487","","f","","","","","","","","","","","","","key","f","21.24570689655154","768","428","f","true","img/C_28.png","生人","prac_friend","","自我"
"","","","","","html-keyboard-response","237","681473","0.0-16.0-0.0-1.11","null","<span style='color:GreenYellow; font-size: 70px;'>正确! </span>","null","","","","","","","","","","","","","","","","","","","","","","","feedback_test",""
"","","","","","psychophysics","238","683686","0.0-16.0-0.0-0.12","1202","","k","","","","","","","","","","","","","key","k","21.81296999999904","768","428","k","true","img/S_28.png","朋友","prac_friend","","朋友"
"","","","","","html-keyboard-response","239","684001","0.0-16.0-0.0-1.12","null","<span style='color:GreenYellow; font-size: 70px;'>正确! </span>","null","","","","","","","","","","","","","","","","","","","","","","","feedback_test",""
"","","","","","psychophysics","240","686507","0.0-16.0-0.0-0.13","null","","null","","","","","","","","","","","","","key","null","22.15167857142868","768","428","f","false","img/H_28.png","朋友","prac_friend","","生人"
"","","","","","html-keyboard-response","241","686817","0.0-16.0-0.0-1.13","null","<span class='add_' style='color:yellow; font-size: 70px;'> 太慢! </span>","null","","","","","","","","","","","","","","","","","","","","","","","feedback_test",""
"","","","","","psychophysics","242","689064","0.0-16.0-0.0-0.14","1236","","k","","","","","","","","","","","","","key","k","22.371535353534245","768","428","j","false","img/S_28.png","生人","prac_friend","","朋友"
"","","","","","html-keyboard-response","243","689369","0.0-16.0-0.0-1.14","null","<span style='color:red; font-size: 70px;'>错误! </span>","null","","","","","","","","","","","","","","","","","","","","","","","feedback_test",""
"","","","","","psychophysics","244","691550","0.0-16.0-0.0-0.15","1171","","d","","","","","","","","","","","","","key","d","21.86560606060672","768","428","d","true","img/H_28.png","生人","prac_friend","","生人"
"","","","","","html-keyboard-response","245","691856","0.0-16.0-0.0-1.15","null","<span style='color:GreenYellow; font-size: 70px;'>正确! </span>","null","","","","","","","","","","","","","","","","","","","","","","","feedback_test",""
"","","","","","psychophysics","246","693993","0.0-16.0-0.0-0.16","1127","","f","","","","","","","","","","","","","key","f","21.80278350515459","768","428","f","true","img/C_28.png","生人","prac_friend","","自我"
"","","","","","html-keyboard-response","247","694304","0.0-16.0-0.0-1.16","null","<span style='color:GreenYellow; font-size: 70px;'>正确! </span>","null","","","","","","","","","","","","","","","","","","","","","","","feedback_test",""
"","","","","","psychophysics","248","696258","0.0-16.0-0.0-0.17","946","","j","","","","","","","","","","","","","key","j","21.277988888889862","768","428","j","true","img/S_28.png","自我","prac_friend","","朋友"
"","","","","","html-keyboard-response","249","696569","0.0-16.0-0.0-1.17","null","<span style='color:GreenYellow; font-size: 70px;'>正确! </span>","null","","","","","","","","","","","","","","","","","","","","","","","feedback_test",""
"","","","","","psychophysics","250","698658","0.0-16.0-0.0-0.18","1079","","d","","","","","","","","","","","","","key","d","21.735599999999824","768","428","d","true","img/C_28.png","自我","prac_friend","","自我"
"","","","","","html-keyboard-response","251","698960","0.0-16.0-0.0-1.18","null","<span style='color:GreenYellow; font-size: 70px;'>正确! </span>","null","","","","","","","","","","","","","","","","","","","","","","","feedback_test",""
"","","","","","psychophysics","252","700662","0.0-16.0-0.0-0.19","693","","d","","","","","","","","","","","","","key","d","21.625363636364277","768","428","d","true","img/C_28.png","自我","prac_friend","","自我"
"","","","","","html-keyboard-response","253","700969","0.0-16.0-0.0-1.19","null","<span style='color:GreenYellow; font-size: 70px;'>正确! </span>","null","","","","","","","","","","","","","","","","","","","","","","","feedback_test",""
"","","","","","psychophysics","254","703174","0.0-16.0-0.0-0.20","1202","","k","","","","","","","","","","","","","key","k","22.26087755102032","768","428","k","true","img/S_28.png","朋友","prac_friend","","朋友"
"","","","","","html-keyboard-response","255","703489","0.0-16.0-0.0-1.20","null","<span style='color:GreenYellow; font-size: 70px;'>正确! </span>","null","","","","","","","","","","","","","","","","","","","","","","","feedback_test",""
"","","","","","psychophysics","256","705792","0.0-16.0-0.0-0.21","1292","","f","","","","","","","","","","","","","key","f","21.364811320755113","768","428","f","true","img/C_28.png","朋友","prac_friend","","自我"
"","","","","","html-keyboard-response","257","706097","0.0-16.0-0.0-1.21","null","<span style='color:GreenYellow; font-size: 70px;'>正确! </span>","null","","","","","","","","","","","","","","","","","","","","","","","feedback_test",""
"","","","","","psychophysics","258","708583","0.0-16.0-0.0-0.22","1481","","k","","","","","","","","","","","","","key","k","22.004982142856793","768","428","d","false","img/H_28.png","生人","prac_friend","","生人"
"","","","","","html-keyboard-response","259","708889","0.0-16.0-0.0-1.22","null","<span style='color:red; font-size: 70px;'>错误! </span>","null","","","","","","","","","","","","","","","","","","","","","","","feedback_test",""
"","","","","","psychophysics","260","711182","0.0-16.0-0.0-0.23","1288","","f","","","","","","","","","","","","","key","f","21.986805825242186","768","428","f","true","img/H_28.png","自我","prac_friend","","生人"
"","","","","","html-keyboard-response","261","711488","0.0-16.0-0.0-1.23","null","<span style='color:GreenYellow; font-size: 70px;'>正确! </span>","null","","","","","","","","","","","","","","","","","","","","","","","feedback_test",""
"","","","","","html-keyboard-response","262","714031","0.0-17.0","2541","[""<style>.context{color:white; font-size: 35px; line-height:40px}</style>                  <div><p class='context'>您正确回答了71% 的试次。</p><p class='context'>您的平均反应时为1178毫秒。</p><p class='context'>恭喜您完成这一阶段的练习。按任意键进入<span style='color: yellow;'>重点关注图形为“生人”</span>的练习。</p></div><p class='footer' style='font-size:35px; line-height:30px;'>任务要求：\n                  <p class='footer' style='font-size:35px; line-height:35px;'>对与“生人”对应的图形，如果 匹配 ，请按 <span style=\""color: lightgreen;\"">k键</span></p><p class='footer' style='font-size:35px'>如果 不匹配 ，请按<span style=\""color: lightgreen;\"">j键</p></span>\n                  <p class='footer' style='font-size:35px; line-height:35px;'>对非“生人”对应的图形，如果 匹配 ，请按 <span style=\""color: lightgreen;\"">d键</span></p><p class='footer' style='font-size:35px'>如果 不匹配 ，请按<span style=\""color: lightgreen;\"">f键</p></span>\n                  <p class='footer' style='font-size:22px; line-height:25px;'>请在实验过程中将您的<span style=\""color: lightgreen;\"">食指和中指</span>放在电脑键盘的相应键位上进行按键。</p></span>""]"," ","","","","","","","","","","","","","","","","","","","","","","","",""
"","","","","","psychophysics","263","716050","0.0-18.0-0.0-0.0","1008","","j","","","","","","","","","","","","","key","j","21.766527472527002","768","428","j","true","img/H_28.png","自我","prac_stranger","","生人"
"","","","","","html-keyboard-response","264","716361","0.0-18.0-0.0-1.0","null","<span style='color:GreenYellow; font-size: 70px;'>正确! </span>","null","","","","","","","","","","","","","","","","","","","","","","","feedback_test",""
"","","","","","psychophysics","265","718409","0.0-18.0-0.0-0.1","1041","","j","","","","","","","","","","","","","key","j","21.666720430107578","768","428","j","true","img/H_28.png","朋友","prac_stranger","","生人"
"","","","","","html-keyboard-response","266","718713","0.0-18.0-0.0-1.1","null","<span style='color:GreenYellow; font-size: 70px;'>正确! </span>","null","","","","","","","","","","","","","","","","","","","","","","","feedback_test",""
"","","","","","psychophysics","267","720860","0.0-18.0-0.0-0.2","1140","","k","","","","","","","","","","","","","key","k","22.261989473683858","768","428","k","true","img/H_28.png","生人","prac_stranger","","生人"
"","","","","","html-keyboard-response","268","721168","0.0-18.0-0.0-1.2","null","<span style='color:GreenYellow; font-size: 70px;'>正确! </span>","null","","","","","","","","","","","","","","","","","","","","","","","feedback_test",""
"","","","","","psychophysics","269","723555","0.0-18.0-0.0-0.3","1382","","j","","","","","","","","","","","","","key","j","22.306349056603757","768","428","f","false","img/S_28.png","自我","prac_stranger","","朋友"
"","","","","","html-keyboard-response","270","723864","0.0-18.0-0.0-1.3","null","<span style='color:red; font-size: 70px;'>错误! </span>","null","","","","","","","","","","","","","","","","","","","","","","","feedback_test",""
"","","","","","psychophysics","271","725969","0.0-18.0-0.0-0.4","1100","","d","","","","","","","","","","","","","key","d","21.910084210527376","768","428","d","true","img/C_28.png","自我","prac_stranger","","自我"
"","","","","","html-keyboard-response","272","726281","0.0-18.0-0.0-1.4","null","<span style='color:GreenYellow; font-size: 70px;'>正确! </span>","null","","","","","","","","","","","","","","","","","","","","","","","feedback_test",""
"","","","","","psychophysics","273","728211","0.0-18.0-0.0-0.5","928","","d","","","","","","","","","","","","","key","d","21.57110227272708","768","428","d","true","img/C_28.png","自我","prac_stranger","","自我"
"","","","","","html-keyboard-response","274","728520","0.0-18.0-0.0-1.5","null","<span style='color:GreenYellow; font-size: 70px;'>正确! </span>","null","","","","","","","","","","","","","","","","","","","","","","","feedback_test",""
"","","","","","psychophysics","275","730563","0.0-18.0-0.0-0.6","1035","","d","","","","","","","","","","","","","key","d","21.209799999999813","768","428","d","true","img/S_28.png","朋友","prac_stranger","","朋友"
"","","","","","html-keyboard-response","276","730872","0.0-18.0-0.0-1.6","null","<span style='color:GreenYellow; font-size: 70px;'>正确! </span>","null","","","","","","","","","","","","","","","","","","","","","","","feedback_test",""
"","","","","","psychophysics","277","733058","0.0-18.0-0.0-0.7","1184","","k","","","","","","","","","","","","","key","k","20.814740384615455","768","428","k","true","img/H_28.png","生人","prac_stranger","","生人"
"","","","","","html-keyboard-response","278","733360","0.0-18.0-0.0-1.7","null","<span style='color:GreenYellow; font-size: 70px;'>正确! </span>","null","","","","","","","","","","","","","","","","","","","","","","","feedback_test",""
"","","","","","psychophysics","279","735805","0.0-18.0-0.0-0.8","1435","","f","","","","","","","","","","","","","key","f","21.602531531530953","768","428","d","false","img/S_28.png","朋友","prac_stranger","","朋友"
"","","","","","html-keyboard-response","280","736112","0.0-18.0-0.0-1.8","null","<span style='color:red; font-size: 70px;'>错误! </span>","null","","","","","","","","","","","","","","","","","","","","","","","feedback_test",""
"","","","","","psychophysics","281","738616","0.0-18.0-0.0-0.9","null","","null","","","","","","","","","","","","","key","null","22.202972972972177","768","428","f","false","img/S_28.png","生人","prac_stranger","","朋友"
"","","","","","html-keyboard-response","282","738920","0.0-18.0-0.0-1.9","null","<span class='add_' style='color:yellow; font-size: 70px;'> 太慢! </span>","null","","","","","","","","","","","","","","","","","","","","","","","feedback_test",""
"","","","","","psychophysics","283","741099","0.0-18.0-0.0-0.10","1170","","f","","","","","","","","","","","","","key","f","21.579673469387355","768","428","f","true","img/C_28.png","朋友","prac_stranger","","自我"
"","","","","","html-keyboard-response","284","741416","0.0-18.0-0.0-1.10","null","<span style='color:GreenYellow; font-size: 70px;'>正确! </span>","null","","","","","","","","","","","","","","","","","","","","","","","feedback_test",""
"","","","","","psychophysics","285","743414","0.0-18.0-0.0-0.11","994","","f","","","","","","","","","","","","","key","f","21.831777777777624","768","428","f","true","img/C_28.png","生人","prac_stranger","","自我"
"","","","","","html-keyboard-response","286","743720","0.0-18.0-0.0-1.11","null","<span style='color:GreenYellow; font-size: 70px;'>正确! </span>","null","","","","","","","","","","","","","","","","","","","","","","","feedback_test",""
"","","","","","psychophysics","287","745982","0.0-18.0-0.0-0.12","1251","","f","","","","","","","","","","","","","key","f","22.09272277227829","768","428","f","true","img/S_28.png","生人","prac_stranger","","朋友"
"","","","","","html-keyboard-response","288","746288","0.0-18.0-0.0-1.12","null","<span style='color:GreenYellow; font-size: 70px;'>正确! </span>","null","","","","","","","","","","","","","","","","","","","","","","","feedback_test",""
"","","","","","psychophysics","289","748804","0.0-18.0-0.0-0.13","null","","null","","","","","","","","","","","","","key","null","21.910657894737373","768","428","f","false","img/C_28.png","朋友","prac_stranger","","自我"
"","","","","","html-keyboard-response","290","749112","0.0-18.0-0.0-1.13","null","<span class='add_' style='color:yellow; font-size: 70px;'> 太慢! </span>","null","","","","","","","","","","","","","","","","","","","","","","","feedback_test",""
"","","","","","psychophysics","291","751207","0.0-18.0-0.0-0.14","1093","","k","","","","","","","","","","","","","key","k","21.50779166666689","768","428","j","false","img/H_28.png","自我","prac_stranger","","生人"
"","","","","","html-keyboard-response","292","751512","0.0-18.0-0.0-1.14","null","<span style='color:red; font-size: 70px;'>错误! </span>","null","","","","","","","","","","","","","","","","","","","","","","","feedback_test",""
"","","","","","psychophysics","293","754022","0.0-18.0-0.0-0.15","null","","null","","","","","","","","","","","","","key","null","22.152892857142433","768","428","f","false","img/S_28.png","自我","prac_stranger","","朋友"
"","","","","","html-keyboard-response","294","754329","0.0-18.0-0.0-1.15","null","<span class='add_' style='color:yellow; font-size: 70px;'> 太慢! </span>","null","","","","","","","","","","","","","","","","","","","","","","","feedback_test",""
"","","","","","psychophysics","295","756524","0.0-18.0-0.0-0.16","1190","","k","","","","","","","","","","","","","key","k","21.648760000000475","768","428","k","true","img/H_28.png","生人","prac_stranger","","生人"
"","","","","","html-keyboard-response","296","756832","0.0-18.0-0.0-1.16","null","<span style='color:GreenYellow; font-size: 70px;'>正确! </span>","null","","","","","","","","","","","","","","","","","","","","","","","feedback_test",""
"","","","","","psychophysics","297","758749","0.0-18.0-0.0-0.17","908","","k","","","","","","","","","","","","","key","k","22.13604705882368","768","428","k","true","img/H_28.png","生人","prac_stranger","","生人"
"","","","","","html-keyboard-response","298","759064","0.0-18.0-0.0-1.17","null","<span style='color:GreenYellow; font-size: 70px;'>正确! </span>","null","","","","","","","","","","","","","","","","","","","","","","","feedback_test",""
"","","","","","psychophysics","299","761188","0.0-18.0-0.0-0.18","1107","","d","","","","","","","","","","","","","key","d","21.19323232323237","768","428","d","true","img/C_28.png","自我","prac_stranger","","自我"
"","","","","","html-keyboard-response","300","761497","0.0-18.0-0.0-1.18","null","<span style='color:GreenYellow; font-size: 70px;'>正确! </span>","null","","","","","","","","","","","","","","","","","","","","","","","feedback_test",""
"","","","","","psychophysics","301","763427","0.0-18.0-0.0-0.19","927","","d","","","","","","","","","","","","","key","d","22.074697674418594","768","428","d","true","img/C_28.png","自我","prac_stranger","","自我"
"","","","","","html-keyboard-response","302","763736","0.0-18.0-0.0-1.19","null","<span style='color:GreenYellow; font-size: 70px;'>正确! </span>","null","","","","","","","","","","","","","","","","","","","","","","","feedback_test",""
"","","","","","psychophysics","303","765579","0.0-18.0-0.0-0.20","831","","d","","","","","","","","","","","","","key","d","20.91060465116319","768","428","d","true","img/S_28.png","朋友","prac_stranger","","朋友"
"","","","","","html-keyboard-response","304","765889","0.0-18.0-0.0-1.20","null","<span style='color:GreenYellow; font-size: 70px;'>正确! </span>","null","","","","","","","","","","","","","","","","","","","","","","","feedback_test",""
"","","","","","psychophysics","305","768074","0.0-18.0-0.0-0.21","1176","","j","","","","","","","","","","","","","key","j","21.3133899999992","768","428","j","true","img/H_28.png","朋友","prac_stranger","","生人"
"","","","","","html-keyboard-response","306","768384","0.0-18.0-0.0-1.21","null","<span style='color:GreenYellow; font-size: 70px;'>正确! </span>","null","","","","","","","","","","","","","","","","","","","","","","","feedback_test",""
"","","","","","psychophysics","307","770607","0.0-18.0-0.0-0.22","1213","","d","","","","","","","","","","","","","key","d","21.76086138613928","768","428","f","false","img/C_28.png","生人","prac_stranger","","自我"
"","","","","","html-keyboard-response","308","770912","0.0-18.0-0.0-1.22","null","<span style='color:red; font-size: 70px;'>错误! </span>","null","","","","","","","","","","","","","","","","","","","","","","","feedback_test",""
"","","","","","psychophysics","309","773040","0.0-18.0-0.0-0.23","1119","","d","","","","","","","","","","","","","key","d","21.4588556701027","768","428","d","true","img/S_28.png","朋友","prac_stranger","","朋友"
"","","","","","html-keyboard-response","310","773344","0.0-18.0-0.0-1.23","null","<span style='color:GreenYellow; font-size: 70px;'>正确! </span>","null","","","","","","","","","","","","","","","","","","","","","","","feedback_test",""
"","","","","","html-keyboard-response","311","776397","0.0-19.0","3050","[""<style>.context{color:white; font-size: 35px; line-height:40px}</style>                                        <div><p class='context'>您正确回答了71% 的试次。</p><p class='context'>您的平均反应时为1065毫秒。</p><p class='context'>恭喜您完成练习。您可以在此时休息一段时间，准备好后按任意键进入正式实验。</p><p class='footer' style='font-size: 35px; line-height:40px;'>请在进入正式实验实验之前将您的<span style='color: lightgreen;'>食指和中指</span>放在电脑键盘的相应键位上，做好按键准备。</p>""]"," ","","","","","","","","","","","","","","","","","","","","","","","",""
"","","","","","html-keyboard-response","312","780768","0.0-20.0-1.0-0.0","4367","
                    <p>请您将食指和中指放在相应按键上，准备进入<span style='color: yellow;'>重点图形为“朋友”对应图形</span>的正式匹配任务</p>
                    <p> <div style = ""color: green""><按任意键开始></div></p>
                    "," ","","","","","","","","","","","","","","","","","","","","","","","",""
"","","","","","psychophysics","313","783176","0.0-20.0-1.0-1.0-0.0-0.0","1399","","f","","","","","","","","","","","","","key","f","22.09729906542022","768","428","d","false","img/H_28.png","生人","friend","","生人"
"","","","","","html-keyboard-response","314","783480","0.0-20.0-1.0-1.0-0.0-1.0","null","<span style='color:red; font-size: 70px;'>错误! </span>","null","","","","","","","","","","","","","","","","","","","","","","","feedback_test",""
"","","","","","psychophysics","315","785981","0.0-20.0-1.0-1.0-0.0-0.1","1488","","j","","","","","","","","","","","","","key","j","22.152848214286287","768","428","f","false","img/C_28.png","朋友","friend","","自我"
"","","","","","html-keyboard-response","316","786288","0.0-20.0-1.0-1.0-0.0-1.1","null","<span style='color:red; font-size: 70px;'>错误! </span>","null","","","","","","","","","","","","","","","","","","","","","","","feedback_test",""
"","","","","","psychophysics","317","788708","0.0-20.0-1.0-1.0-0.0-0.2","1410","","j","","","","","","","","","","","","","key","j","22.201083333333912","768","428","j","true","img/S_28.png","生人","friend","","朋友"
"","","","","","html-keyboard-response","318","789016","0.0-20.0-1.0-1.0-0.0-1.2","null","<span style='color:GreenYellow; font-size: 70px;'>正确! </span>","null","","","","","","","","","","","","","","","","","","","","","","","feedback_test",""
"","","","","","psychophysics","319","791130","0.0-20.0-1.0-1.0-0.0-0.3","1108","","d","","","","","","","","","","","","","key","d","21.91141052631612","768","428","d","true","img/C_28.png","自我","friend","","自我"
"","","","","","html-keyboard-response","320","791440","0.0-20.0-1.0-1.0-0.0-1.3","null","<span style='color:GreenYellow; font-size: 70px;'>正确! </span>","null","","","","","","","","","","","","","","","","","","","","","","","feedback_test",""
"","","","","","psychophysics","321","793662","0.0-20.0-1.0-1.0-0.0-0.4","1220","","f","","","","","","","","","","","","","key","f","22.660484536082876","768","428","f","true","img/H_28.png","朋友","friend","","生人"
"","","","","","html-keyboard-response","322","793969","0.0-20.0-1.0-1.0-0.0-1.4","null","<span style='color:GreenYellow; font-size: 70px;'>正确! </span>","null","","","","","","","","","","","","","","","","","","","","","","","feedback_test",""
"","","","","","psychophysics","323","795931","0.0-20.0-1.0-1.0-0.0-0.5","957","","d","","","","","","","","","","","","","key","d","21.951329545455255","768","428","d","true","img/C_28.png","自我","friend","","自我"
"","","","","","html-keyboard-response","324","796240","0.0-20.0-1.0-1.0-0.0-1.5","null","<span style='color:GreenYellow; font-size: 70px;'>正确! </span>","null","","","","","","","","","","","","","","","","","","","","","","","feedback_test",""
"","","","","","psychophysics","325","798488","0.0-20.0-1.0-1.0-0.0-0.6","1239","","f","","","","","","","","","","","","","key","f","21.92897029702971","768","428","f","true","img/C_28.png","生人","friend","","自我"
"","","","","","html-keyboard-response","326","798800","0.0-20.0-1.0-1.0-0.0-1.6","null","<span style='color:GreenYellow; font-size: 70px;'>正确! </span>","null","","","","","","","","","","","","","","","","","","","","","","","feedback_test",""
"","","","","","psychophysics","327","800997","0.0-20.0-1.0-1.0-0.0-0.7","1181","","k","","","","","","","","","","","","","key","k","22.088540816326788","768","428","k","true","img/S_28.png","朋友","friend","","朋友"
"","","","","","html-keyboard-response","328","801304","0.0-20.0-1.0-1.0-0.0-1.7","null","<span style='color:GreenYellow; font-size: 70px;'>正确! </span>","null","","","","","","","","","","","","","","","","","","","","","","","feedback_test",""
"","","","","","psychophysics","329","803176","0.0-20.0-1.0-1.0-0.0-0.8","863","","k","","","","","","","","","","","","","key","k","22.06844578313232","768","428","k","true","img/S_28.png","朋友","friend","","朋友"
"","","","","","html-keyboard-response","330","803480","0.0-20.0-1.0-1.0-0.0-1.8","null","<span style='color:GreenYellow; font-size: 70px;'>正确! </span>","null","","","","","","","","","","","","","","","","","","","","","","","feedback_test",""
"","","","","","psychophysics","331","805807","0.0-20.0-1.0-1.0-0.0-0.9","1318","","f","","","","","","","","","","","","","key","f","22.094413461538633","768","428","f","true","img/H_28.png","自我","friend","","生人"
"","","","","","html-keyboard-response","332","806112","0.0-20.0-1.0-1.0-0.0-1.9","null","<span style='color:GreenYellow; font-size: 70px;'>正确! </span>","null","","","","","","","","","","","","","","","","","","","","","","","feedback_test",""
"","","","","","psychophysics","333","808243","0.0-20.0-1.0-1.0-0.0-0.10","1120","","d","","","","","","","","","","","","","key","d","21.909568421052473","768","428","j","false","img/S_28.png","自我","friend","","朋友"
"","","","","","html-keyboard-response","334","808552","0.0-20.0-1.0-1.0-0.0-1.10","null","<span style='color:red; font-size: 70px;'>错误! </span>","null","","","","","","","","","","","","","","","","","","","","","","","feedback_test",""
"","","","","","psychophysics","335","810809","0.0-20.0-1.0-1.0-0.0-0.11","1252","","d","","","","","","","","","","","","","key","d","22.767244897958612","768","428","d","true","img/H_28.png","生人","friend","","生人"
"","","","","","html-keyboard-response","336","811120","0.0-20.0-1.0-1.0-0.0-1.11","null","<span style='color:GreenYellow; font-size: 70px;'>正确! </span>","null","","","","","","","","","","","","","","","","","","","","","","","feedback_test",""
"","","","","","psychophysics","337","813060","0.0-20.0-1.0-1.0-0.0-0.12","921","","d","","","","","","","","","","","","","key","d","22.011183908045954","768","428","d","true","img/C_28.png","自我","friend","","自我"
"","","","","","html-keyboard-response","338","813368","0.0-20.0-1.0-1.0-0.0-1.12","null","<span style='color:GreenYellow; font-size: 70px;'>正确! </span>","null","","","","","","","","","","","","","","","","","","","","","","","feedback_test",""
"","","","","","psychophysics","339","815488","0.0-20.0-1.0-1.0-0.0-0.13","1106","","k","","","","","","","","","","","","","key","k","23.055252747253288","768","428","d","false","img/H_28.png","生人","friend","","生人"
"","","","","","html-keyboard-response","340","815808","0.0-20.0-1.0-1.0-0.0-1.13","null","<span style='color:red; font-size: 70px;'>错误! </span>","null","","","","","","","","","","","","","","","","","","","","","","","feedback_test",""
"","","","","","psychophysics","341","818320","0.0-20.0-1.0-1.0-0.0-0.14","null","","null","","","","","","","","","","","","","key","null","22.55613636363573","768","428","f","false","img/C_28.png","朋友","friend","","自我"
"","","","","","html-keyboard-response","342","818624","0.0-20.0-1.0-1.0-0.0-1.14","null","<span class='add_' style='color:yellow; font-size: 70px;'> 太慢! </span>","null","","","","","","","","","","","","","","","","","","","","","","","feedback_test",""
"","","","","","psychophysics","343","820331","0.0-20.0-1.0-1.0-0.0-0.15","694","","d","","","","","","","","","","","","","key","d","22.129539473683842","768","428","d","true","img/C_28.png","自我","friend","","自我"
"","","","","","html-keyboard-response","344","820641","0.0-20.0-1.0-1.0-0.0-1.15","null","<span style='color:GreenYellow; font-size: 70px;'>正确! </span>","null","","","","","","","","","","","","","","","","","","","","","","","feedback_test",""
"","","","","","psychophysics","345","822494","0.0-20.0-1.0-1.0-0.0-0.16","848","","k","","","","","","","","","","","","","key","k","21.608214285715285","768","428","k","true","img/S_28.png","朋友","friend","","朋友"
"","","","","","html-keyboard-response","346","822800","0.0-20.0-1.0-1.0-0.0-1.16","null","<span style='color:GreenYellow; font-size: 70px;'>正确! </span>","null","","","","","","","","","","","","","","","","","","","","","","","feedback_test",""
"","","","","","psychophysics","347","825158","0.0-20.0-1.0-1.0-0.0-0.17","1353","","f","","","","","","","","","","","","","key","f","21.991933962264326","768","428","f","true","img/H_28.png","自我","friend","","生人"
"","","","","","html-keyboard-response","348","825464","0.0-20.0-1.0-1.0-0.0-1.17","null","<span style='color:GreenYellow; font-size: 70px;'>正确! </span>","null","","","","","","","","","","","","","","","","","","","","","","","feedback_test",""
"","","","","","psychophysics","349","827848","0.0-20.0-1.0-1.0-0.0-0.18","1374","","j","","","","","","","","","","","","","key","j","21.73982407407473","768","428","j","true","img/S_28.png","生人","friend","","朋友"
"","","","","","html-keyboard-response","350","828152","0.0-20.0-1.0-1.0-0.0-1.18","null","<span style='color:GreenYellow; font-size: 70px;'>正确! </span>","null","","","","","","","","","","","","","","","","","","","","","","","feedback_test",""
"","","","","","psychophysics","351","830322","0.0-20.0-1.0-1.0-0.0-0.19","1164","","d","","","","","","","","","","","","","key","d","21.69759595959513","768","428","f","false","img/H_28.png","朋友","friend","","生人"
"","","","","","html-keyboard-response","352","830625","0.0-20.0-1.0-1.0-0.0-1.19","null","<span style='color:red; font-size: 70px;'>错误! </span>","null","","","","","","","","","","","","","","","","","","","","","","","feedback_test",""
"","","","","","psychophysics","353","832776","0.0-20.0-1.0-1.0-0.0-0.20","1140","","k","","","","","","","","","","","","","key","k","22.085852631578515","768","428","k","true","img/S_28.png","朋友","friend","","朋友"
"","","","","","html-keyboard-response","354","833088","0.0-20.0-1.0-1.0-0.0-1.20","null","<span style='color:GreenYellow; font-size: 70px;'>正确! </span>","null","","","","","","","","","","","","","","","","","","","","","","","feedback_test",""
"","","","","","psychophysics","355","835395","0.0-20.0-1.0-1.0-0.0-0.21","1278","","f","","","","","","","","","","","","","key","f","21.164794392522563","768","428","d","false","img/H_28.png","生人","friend","","生人"
"","","","","","html-keyboard-response","356","835704","0.0-20.0-1.0-1.0-0.0-1.21","null","<span style='color:red; font-size: 70px;'>错误! </span>","null","","","","","","","","","","","","","","","","","","","","","","","feedback_test",""
"","","","","","psychophysics","357","838213","0.0-20.0-1.0-1.0-0.0-0.22","null","","null","","","","","","","","","","","","","key","null","21.576269565216954","768","428","j","false","img/S_28.png","自我","friend","","朋友"
"","","","","","html-keyboard-response","358","838520","0.0-20.0-1.0-1.0-0.0-1.22","null","<span class='add_' style='color:yellow; font-size: 70px;'> 太慢! </span>","null","","","","","","","","","","","","","","","","","","","","","","","feedback_test",""
"","","","","","psychophysics","359","840623","0.0-20.0-1.0-1.0-0.0-0.23","1088","","f","","","","","","","","","","","","","key","f","21.50901041666657","768","428","f","true","img/C_28.png","生人","friend","","自我"
"","","","","","html-keyboard-response","360","840928","0.0-20.0-1.0-1.0-0.0-1.23","null","<span style='color:GreenYellow; font-size: 70px;'>正确! </span>","null","","","","","","","","","","","","","","","","","","","","","","","feedback_test",""
"","","","","","psychophysics","361","843196","0.0-20.0-1.0-1.0-0.0-0.24","1264","","f","","","","","","","","","","","","","key","f","21.61486538461535","768","428","f","true","img/H_28.png","朋友","friend","","生人"
"","","","","","html-keyboard-response","362","843504","0.0-20.0-1.0-1.0-0.0-1.24","null","<span style='color:GreenYellow; font-size: 70px;'>正确! </span>","null","","","","","","","","","","","","","","","","","","","","","","","feedback_test",""
"","","","","","psychophysics","363","845710","0.0-20.0-1.0-1.0-0.0-0.25","1202","","k","","","","","","","","","","","","","key","k","21.223539215687197","768","428","k","true","img/S_28.png","朋友","friend","","朋友"
"","","","","","html-keyboard-response","364","846025","0.0-20.0-1.0-1.0-0.0-1.25","null","<span style='color:GreenYellow; font-size: 70px;'>正确! </span>","null","","","","","","","","","","","","","","","","","","","","","","","feedback_test",""
"","","","","","psychophysics","365","848517","0.0-20.0-1.0-1.0-0.0-0.26","1489","","f","","","","","","","","","","","","","key","f","21.619131578947417","768","428","f","true","img/C_28.png","生人","friend","","自我"
"","","","","","html-keyboard-response","366","848825","0.0-20.0-1.0-1.0-0.0-1.26","null","<span style='color:GreenYellow; font-size: 70px;'>正确! </span>","null","","","","","","","","","","","","","","","","","","","","","","","feedback_test",""
"","","","","","psychophysics","367","851097","0.0-20.0-1.0-1.0-0.0-0.27","1253","","d","","","","","","","","","","","","","key","d","21.877313725490524","768","428","d","true","img/H_28.png","生人","friend","","生人"
"","","","","","html-keyboard-response","368","851409","0.0-20.0-1.0-1.0-0.0-1.27","null","<span style='color:GreenYellow; font-size: 70px;'>正确! </span>","null","","","","","","","","","","","","","","","","","","","","","","","feedback_test",""
"","","","","","psychophysics","369","853451","0.0-20.0-1.0-1.0-0.0-0.28","1034","","d","","","","","","","","","","","","","key","d","21.66389247311795","768","428","d","true","img/H_28.png","生人","friend","","生人"
"","","","","","html-keyboard-response","370","853761","0.0-20.0-1.0-1.0-0.0-1.28","null","<span style='color:GreenYellow; font-size: 70px;'>正确! </span>","null","","","","","","","","","","","","","","","","","","","","","","","feedback_test",""
"","","","","","psychophysics","371","855972","0.0-20.0-1.0-1.0-0.0-0.29","1203","","f","","","","","","","","","","","","","key","f","21.814949999999953","768","428","f","true","img/H_28.png","自我","friend","","生人"
"","","","","","html-keyboard-response","372","856288","0.0-20.0-1.0-1.0-0.0-1.29","null","<span style='color:GreenYellow; font-size: 70px;'>正确! </span>","null","","","","","","","","","","","","","","","","","","","","","","","feedback_test",""
"","","","","","psychophysics","373","858127","0.0-20.0-1.0-1.0-0.0-0.30","827","","k","","","","","","","","","","","","","key","k","21.931878048780362","768","428","k","true","img/S_28.png","朋友","friend","","朋友"
"","","","","","html-keyboard-response","374","858433","0.0-20.0-1.0-1.0-0.0-1.30","null","<span style='color:GreenYellow; font-size: 70px;'>正确! </span>","null","","","","","","","","","","","","","","","","","","","","","","","feedback_test",""
"","","","","","psychophysics","375","860915","0.0-20.0-1.0-1.0-0.0-0.31","1479","","f","","","","","","","","","","","","","key","f","21.285573913043606","768","428","d","false","img/C_28.png","自我","friend","","自我"
"","","","","","html-keyboard-response","376","861225","0.0-20.0-1.0-1.0-0.0-1.31","null","<span style='color:red; font-size: 70px;'>错误! </span>","null","","","","","","","","","","","","","","","","","","","","","","","feedback_test",""
"","","","","","psychophysics","377","863473","0.0-20.0-1.0-1.0-0.0-0.32","1239","","f","","","","","","","","","","","","","key","f","22.20316161616174","768","428","f","true","img/C_28.png","朋友","friend","","自我"
"","","","","","html-keyboard-response","378","863785","0.0-20.0-1.0-1.0-0.0-1.32","null","<span style='color:GreenYellow; font-size: 70px;'>正确! </span>","null","","","","","","","","","","","","","","","","","","","","","","","feedback_test",""
"","","","","","psychophysics","379","865746","0.0-20.0-1.0-1.0-0.0-0.33","948","","d","","","","","","","","","","","","","key","d","21.70366292134754","768","428","d","true","img/C_28.png","自我","friend","","自我"
"","","","","","html-keyboard-response","380","866064","0.0-20.0-1.0-1.0-0.0-1.33","null","<span style='color:GreenYellow; font-size: 70px;'>正确! </span>","null","","","","","","","","","","","","","","","","","","","","","","","feedback_test",""
"","","","","","psychophysics","381","868177","0.0-20.0-1.0-1.0-0.0-0.34","1110","","f","","","","","","","","","","","","","key","f","21.06970408163271","768","428","j","false","img/S_28.png","生人","friend","","朋友"
"","","","","","html-keyboard-response","382","868481","0.0-20.0-1.0-1.0-0.0-1.34","null","<span style='color:red; font-size: 70px;'>错误! </span>","null","","","","","","","","","","","","","","","","","","","","","","","feedback_test",""
"","","","","","psychophysics","383","870621","0.0-20.0-1.0-1.0-0.0-0.35","1137","","j","","","","","","","","","","","","","key","j","21.57837755102023","768","428","j","true","img/S_28.png","自我","friend","","朋友"
"","","","","","html-keyboard-response","384","870930","0.0-20.0-1.0-1.0-0.0-1.35","null","<span style='color:GreenYellow; font-size: 70px;'>正确! </span>","null","","","","","","","","","","","","","","","","","","","","","","","feedback_test",""
"","","","","","psychophysics","385","873206","0.0-20.0-1.0-1.0-0.0-0.36","1269","","d","","","","","","","","","","","","","key","d","22.25679207920779","768","428","f","false","img/H_28.png","自我","friend","","生人"
"","","","","","html-keyboard-response","386","873512","0.0-20.0-1.0-1.0-0.0-1.36","null","<span style='color:red; font-size: 70px;'>错误! </span>","null","","","","","","","","","","","","","","","","","","","","","","","feedback_test",""
"","","","","","psychophysics","387","875554","0.0-20.0-1.0-1.0-0.0-0.37","1026","","k","","","","","","","","","","","","","key","k","22.708420454545625","768","428","k","true","img/S_28.png","朋友","friend","","朋友"
"","","","","","html-keyboard-response","388","875881","0.0-20.0-1.0-1.0-0.0-1.37","null","<span style='color:GreenYellow; font-size: 70px;'>正确! </span>","null","","","","","","","","","","","","","","","","","","","","","","","feedback_test",""
"","","","","","psychophysics","389","878066","0.0-20.0-1.0-1.0-0.0-0.38","1164","","f","","","","","","","","","","","","","key","f","21.05842156862662","768","428","f","true","img/C_28.png","生人","friend","","自我"
"","","","","","html-keyboard-response","390","878377","0.0-20.0-1.0-1.0-0.0-1.38","null","<span style='color:GreenYellow; font-size: 70px;'>正确! </span>","null","","","","","","","","","","","","","","","","","","","","","","","feedback_test",""
"","","","","","psychophysics","391","880519","0.0-20.0-1.0-1.0-0.0-0.39","1133","","j","","","","","","","","","","","","","key","j","22.49682978723332","768","428","j","true","img/S_28.png","自我","friend","","朋友"
"","","","","","html-keyboard-response","392","880825","0.0-20.0-1.0-1.0-0.0-1.39","null","<span style='color:GreenYellow; font-size: 70px;'>正确! </span>","null","","","","","","","","","","","","","","","","","","","","","","","feedback_test",""
"","","","","","psychophysics","393","882964","0.0-20.0-1.0-1.0-0.0-0.40","1136","","d","","","","","","","","","","","","","key","d","21.148549999999815","768","428","d","true","img/H_28.png","生人","friend","","生人"
"","","","","","html-keyboard-response","394","883272","0.0-20.0-1.0-1.0-0.0-1.40","null","<span style='color:GreenYellow; font-size: 70px;'>正确! </span>","null","","","","","","","","","","","","","","","","","","","","","","","feedback_test",""
"","","","","","psychophysics","395","885240","0.0-20.0-1.0-1.0-0.0-0.41","954","","f","","","","","","","","","","","","","key","f","21.176880434783094","768","428","j","false","img/S_28.png","生人","friend","","朋友"
"","","","","","html-keyboard-response","396","885545","0.0-20.0-1.0-1.0-0.0-1.41","null","<span style='color:red; font-size: 70px;'>错误! </span>","null","","","","","","","","","","","","","","","","","","","","","","","feedback_test",""
"","","","","","psychophysics","397","887840","0.0-20.0-1.0-1.0-0.0-0.42","1279","","k","","","","","","","","","","","","","key","k","21.826349514562555","768","428","k","true","img/S_28.png","朋友","friend","","朋友"
"","","","","","html-keyboard-response","398","888153","0.0-20.0-1.0-1.0-0.0-1.42","null","<span style='color:GreenYellow; font-size: 70px;'>正确! </span>","null","","","","","","","","","","","","","","","","","","","","","","","feedback_test",""
"","","","","","psychophysics","399","890066","0.0-20.0-1.0-1.0-0.0-0.43","906","","d","","","","","","","","","","","","","key","d","21.381079545454917","768","428","d","true","img/C_28.png","自我","friend","","自我"
"","","","","","html-keyboard-response","400","890376","0.0-20.0-1.0-1.0-0.0-1.43","null","<span style='color:GreenYellow; font-size: 70px;'>正确! </span>","null","","","","","","","","","","","","","","","","","","","","","","","feedback_test",""
"","","","","","psychophysics","401","892319","0.0-20.0-1.0-1.0-0.0-0.44","937","","f","","","","","","","","","","","","","key","f","21.76268181818225","768","428","f","true","img/C_28.png","朋友","friend","","自我"
"","","","","","html-keyboard-response","402","892625","0.0-20.0-1.0-1.0-0.0-1.44","null","<span style='color:GreenYellow; font-size: 70px;'>正确! </span>","null","","","","","","","","","","","","","","","","","","","","","","","feedback_test",""
"","","","","","psychophysics","403","894797","0.0-20.0-1.0-1.0-0.0-0.45","1164","","d","","","","","","","","","","","","","key","d","21.751091836734286","768","428","d","true","img/C_28.png","自我","friend","","自我"
"","","","","","html-keyboard-response","404","895105","0.0-20.0-1.0-1.0-0.0-1.45","null","<span style='color:GreenYellow; font-size: 70px;'>正确! </span>","null","","","","","","","","","","","","","","","","","","","","","","","feedback_test",""
"","","","","","psychophysics","405","897428","0.0-20.0-1.0-1.0-0.0-0.46","1315","","f","","","","","","","","","","","","","key","f","22.149116504853772","768","428","f","true","img/H_28.png","朋友","friend","","生人"
"","","","","","html-keyboard-response","406","897737","0.0-20.0-1.0-1.0-0.0-1.46","null","<span style='color:GreenYellow; font-size: 70px;'>正确! </span>","null","","","","","","","","","","","","","","","","","","","","","","","feedback_test",""
"","","","","","psychophysics","407","900083","0.0-20.0-1.0-1.0-0.0-0.47","1336","","d","","","","","","","","","","","","","key","d","21.04096363636411","768","428","d","true","img/H_28.png","生人","friend","","生人"
"","","","","","html-keyboard-response","408","900401","0.0-20.0-1.0-1.0-0.0-1.47","null","<span style='color:GreenYellow; font-size: 70px;'>正确! </span>","null","","","","","","","","","","","","","","","","","","","","","","","feedback_test",""
"","","","","","psychophysics","409","902718","0.0-20.0-1.0-1.0-0.0-0.48","1312","","f","","","","","","","","","","","","","key","f","21.72554285714314","768","428","f","true","img/H_28.png","朋友","friend","","生人"
"","","","","","html-keyboard-response","410","903024","0.0-20.0-1.0-1.0-0.0-1.48","null","<span style='color:GreenYellow; font-size: 70px;'>正确! </span>","null","","","","","","","","","","","","","","","","","","","","","","","feedback_test",""
"","","","","","psychophysics","411","905176","0.0-20.0-1.0-1.0-0.0-0.49","1136","","d","","","","","","","","","","","","","key","d","20.89694117647071","768","428","d","true","img/H_28.png","生人","friend","","生人"
"","","","","","html-keyboard-response","412","905480","0.0-20.0-1.0-1.0-0.0-1.49","null","<span style='color:GreenYellow; font-size: 70px;'>正确! </span>","null","","","","","","","","","","","","","","","","","","","","","","","feedback_test",""
"","","","","","psychophysics","413","907604","0.0-20.0-1.0-1.0-0.0-0.50","1121","","f","","","","","","","","","","","","","key","f","21.909115789474086","768","428","f","true","img/C_28.png","生人","friend","","自我"
"","","","","","html-keyboard-response","414","907913","0.0-20.0-1.0-1.0-0.0-1.50","null","<span style='color:GreenYellow; font-size: 70px;'>正确! </span>","null","","","","","","","","","","","","","","","","","","","","","","","feedback_test",""
"","","","","","psychophysics","415","909831","0.0-20.0-1.0-1.0-0.0-0.51","902","","k","","","","","","","","","","","","","key","k","21.880802325582195","768","428","k","true","img/S_28.png","朋友","friend","","朋友"
"","","","","","html-keyboard-response","416","910145","0.0-20.0-1.0-1.0-0.0-1.51","null","<span style='color:GreenYellow; font-size: 70px;'>正确! </span>","null","","","","","","","","","","","","","","","","","","","","","","","feedback_test",""
"","","","","","psychophysics","417","912209","0.0-20.0-1.0-1.0-0.0-0.52","1063","","f","","","","","","","","","","","","","key","f","21.843935483871327","768","428","f","true","img/H_28.png","自我","friend","","生人"
"","","","","","html-keyboard-response","418","912512","0.0-20.0-1.0-1.0-0.0-1.52","null","<span style='color:GreenYellow; font-size: 70px;'>正确! </span>","null","","","","","","","","","","","","","","","","","","","","","","","feedback_test",""
"","","","","","psychophysics","419","914896","0.0-20.0-1.0-1.0-0.0-0.53","1372","","d","","","","","","","","","","","","","key","d","21.942710280373788","768","428","j","false","img/S_28.png","自我","friend","","朋友"
"","","","","","html-keyboard-response","420","915208","0.0-20.0-1.0-1.0-0.0-1.53","null","<span style='color:red; font-size: 70px;'>错误! </span>","null","","","","","","","","","","","","","","","","","","","","","","","feedback_test",""
"","","","","","psychophysics","421","917397","0.0-20.0-1.0-1.0-0.0-0.54","1184","","d","","","","","","","","","","","","","key","d","21.432059405940944","768","428","d","true","img/C_28.png","自我","friend","","自我"
