"success","timeout","failed_images","failed_audio","failed_video","trial_type","trial_index","time_elapsed","internal_node_id","rt","stimulus","response","value","item_width_mm","item_height_mm","item_width_px","px2mm","view_dist_mm","item_width_deg","px2deg","scale_factor","win_width_deg","win_height_deg","view_history","response_type","key_press","avg_frame_time","center_x","center_y","correct_response","correct","Image","text","condition","screen_id","label"
"true","false","[]","[]","[]","preload","0","8030","0.0-0.0","","","","","","","","","","","","","","","","","","","","","","","","","","",""
"","","","","","html-keyboard-response","1","145880","0.0-1.0","137848","
  <p>您好，欢迎参加本次实验。</p>
  <p>为充分保障您的权利，请确保您已经知晓并同意《参与实验同意书》以及《数据公开知情同意书》。</p>
  <p>如果您未见过上述内容，请咨询实验员。</p>
  <p>如果您选择继续实验，则表示您已经清楚两份知情同意书的内容并同意。</p>
  <p> <div style = ""color: green""><按任意键至下页></div> </p>
  "," ","","","","","","","","","","","","","","","","","","","","","","","",""
"","","","","","html-keyboard-response","2","147414","0.0-2.0","1533","
  <p>本实验首先需要您填写一些基本个人信息。</p>
  <p> <div style = ""color: green""><按任意键至下页></div></p>
  "," ","","","","","","","","","","","","","","","","","","","","","","","",""
"","","","","","call-function","3","147416","0.0-3.0-0.0","","","","","","","","","","","","","","","","","","","","","","","","","","",""
"","","","","","survey-html-form","4","158537","0.0-3.0-1.0","11117","","{""Q0"":""68""}","","","","","","","","","","","","","","","","","","","","","","","",""
"","","","","","html-button-response","5","160675","0.0-3.0-2.0","2134","<p style = 'color : white'>您的性别</p>","0","","","","","","","","","","","","","","","","","","","","","","","",""
"","","","","","survey-html-form","6","165305","0.0-3.0-3.0","4627","","{""Q0"":""1995""}","","","","","","","","","","","","","","","","","","","","","","","",""
"","","","","","survey-html-form","7","168310","0.0-3.0-4.0","3002","","{""Q0"":""6""}","","","","","","","","","","","","","","","","","","","","","","","",""
"","","","","","virtual-chinrest","8","498502","0.0-4.0","330189","","","","85.6","53.98","360.5902606232316","4.211545162834643","679.17","7.211805212464631","50.00000000000001","1.073240301418909","30.719999999999995","17.279999999999998","","","","","","","","","","","","",""
"true","","","","","fullscreen","9","502027","0.0-5.0","","","","","","","","","","","","","","","","","","","","","","","","","","",""
"","","","","","instructions","10","562459","0.0-6.0","60429","","","","","","","","","","","","","","[{""page_index"":0,""viewing_time"":5922},{""page_index"":1,""viewing_time"":9354},{""page_index"":2,""viewing_time"":36875},{""page_index"":3,""viewing_time"":5368},{""page_index"":4,""viewing_time"":2909}]","","","","","","","","","","","",""
"","","","","","instructions","11","588029","0.0-7.0","25570","","","","","","","","","","","","","","[{""page_index"":0,""viewing_time"":25569}]","","","","","","","","","","","",""
"","","","","","psychophysics","12","613060","0.0-8.0-0.0-0.0","null","","null","","","","","","","","","","","","","key","null","16.74491487935653","768","428","f","false","img/S_28.png","朋友","freeprac_self","",""
"","","","","","html-keyboard-response","13","613378","0.0-8.0-0.0-1.0","null","<span style='color:red; font-size: 70px;'>错误! </span>","null","","","","","","","","","","","","","","","","","","","","","","","feedback_test",""
"","","","","","psychophysics","14","616122","0.0-8.0-0.0-0.1","1739","","d","","","","","","","","","","","","","key","d","16.679177914110465","768","428","d","true","img/S_28.png","自我","freeprac_self","",""
"","","","","","html-keyboard-response","15","616432","0.0-8.0-0.0-1.1","null","<span style='color:GreenYellow; font-size: 70px;'>正确! </span>","null","","","","","","","","","","","","","","","","","","","","","","","feedback_test",""
"","","","","","psychophysics","16","618968","0.0-8.0-0.0-0.2","1529","","k","","","","","","","","","","","","","key","k","16.66666887417229","768","428","k","true","img/C_28.png","朋友","freeprac_self","",""
"","","","","","html-keyboard-response","17","619282","0.0-8.0-0.0-1.2","null","<span style='color:GreenYellow; font-size: 70px;'>正确! </span>","null","","","","","","","","","","","","","","","","","","","","","","","feedback_test",""
"","","","","","psychophysics","18","621475","0.0-8.0-0.0-0.3","1186","","f","","","","","","","","","","","","","key","f","17.19829365079354","768","428","f","true","img/S_28.png","生人","freeprac_self","",""
"","","","","","html-keyboard-response","19","621787","0.0-8.0-0.0-1.3","null","<span style='color:GreenYellow; font-size: 70px;'>正确! </span>","null","","","","","","","","","","","","","","","","","","","","","","","feedback_test",""
"","","","","","psychophysics","20","623749","0.0-8.0-0.0-0.4","957","","d","","","","","","","","","","","","","key","d","16.660448275861764","768","428","d","true","img/S_28.png","自我","freeprac_self","",""
"","","","","","html-keyboard-response","21","624052","0.0-8.0-0.0-1.4","null","<span style='color:GreenYellow; font-size: 70px;'>正确! </span>","null","","","","","","","","","","","","","","","","","","","","","","","feedback_test",""
"","","","","","psychophysics","22","626458","0.0-8.0-0.0-0.5","1397","","k","","","","","","","","","","","","","key","k","16.668433566433638","768","428","k","true","img/H_28.png","生人","freeprac_self","",""
"","","","","","html-keyboard-response","23","626770","0.0-8.0-0.0-1.5","null","<span style='color:GreenYellow; font-size: 70px;'>正确! </span>","null","","","","","","","","","","","","","","","","","","","","","","","feedback_test",""
"","","","","","psychophysics","24","629053","0.0-8.0-0.0-0.6","1273","","k","","","","","","","","","","","","","key","k","16.90885714285734","768","428","j","false","img/C_28.png","生人","freeprac_self","",""
"","","","","","html-keyboard-response","25","629367","0.0-8.0-0.0-1.6","null","<span style='color:red; font-size: 70px;'>错误! </span>","null","","","","","","","","","","","","","","","","","","","","","","","feedback_test",""
"","","","","","psychophysics","26","631982","0.0-8.0-0.0-0.7","1611","","f","","","","","","","","","","","","","key","f","16.668416666666207","768","428","k","false","img/H_28.png","生人","freeprac_self","",""
"","","","","","html-keyboard-response","27","632296","0.0-8.0-0.0-1.7","null","<span style='color:red; font-size: 70px;'>错误! </span>","null","","","","","","","","","","","","","","","","","","","","","","","feedback_test",""
"","","","","","psychophysics","28","635859","0.0-8.0-0.0-0.8","2560","","k","","","","","","","","","","","","","key","k","16.667230046948333","768","428","k","true","img/C_28.png","朋友","freeprac_self","",""
"","","","","","html-keyboard-response","29","636177","0.0-8.0-0.0-1.8","null","<span style='color:GreenYellow; font-size: 70px;'>正确! </span>","null","","","","","","","","","","","","","","","","","","","","","","","feedback_test",""
"","","","","","psychophysics","30","639552","0.0-8.0-0.0-0.9","2373","","j","","","","","","","","","","","","","key","j","16.75141499999969","768","428","j","true","img/C_28.png","自我","freeprac_self","",""
"","","","","","html-keyboard-response","31","639858","0.0-8.0-0.0-1.9","null","<span style='color:GreenYellow; font-size: 70px;'>正确! </span>","null","","","","","","","","","","","","","","","","","","","","","","","feedback_test",""
"","","","","","psychophysics","32","642541","0.0-8.0-0.0-0.10","1679","","f","","","","","","","","","","","","","key","f","16.879554140127922","768","428","j","false","img/H_28.png","自我","freeprac_self","",""
"","","","","","html-keyboard-response","33","642848","0.0-8.0-0.0-1.10","null","<span style='color:red; font-size: 70px;'>错误! </span>","null","","","","","","","","","","","","","","","","","","","","","","","feedback_test",""
"","","","","","psychophysics","34","645116","0.0-8.0-0.0-0.11","1258","","j","","","","","","","","","","","","","key","j","16.67010370370311","768","428","j","true","img/H_28.png","朋友","freeprac_self","",""
"","","","","","html-keyboard-response","35","645419","0.0-8.0-0.0-1.11","null","<span style='color:GreenYellow; font-size: 70px;'>正确! </span>","null","","","","","","","","","","","","","","","","","","","","","","","feedback_test",""
"","","","","","html-keyboard-response","36","669066","0.0-8.0-1.0-0.0","23645","<style>.context{color:white; font-size: 35px; line-height:40px}</style>                           <div><p class='context'>您正确回答了67% 的试次。</p><p class='context'>您的平均反应时为1625毫秒。</p>"," ","","","","","","","","","","","","","","","","","","","","","","","",""
"","","","","","instructions","37","700209","0.0-8.0-1.0-1.0","31140","","","","","","","","","","","","","","[{""page_index"":0,""viewing_time"":2567},{""page_index"":1,""viewing_time"":25596},{""page_index"":2,""viewing_time"":2977}]","","","","","","","","","","","",""
"","","","","","psychophysics","38","703057","0.0-8.1-0.1-0.12","1834","","f","","","","","","","","","","","","","key","f","16.66762721893507","768","428","d","false","img/S_28.png","自我","freeprac_self","",""
"","","","","","html-keyboard-response","39","703366","0.0-8.1-0.1-1.12","null","<span style='color:red; font-size: 70px;'>错误! </span>","null","","","","","","","","","","","","","","","","","","","","","","","feedback_test",""
"","","","","","psychophysics","40","706191","0.0-8.1-0.1-0.13","1821","","f","","","","","","","","","","","","","key","f","16.66805952380916","768","428","j","false","img/C_28.png","自我","freeprac_self","",""
"","","","","","html-keyboard-response","41","706509","0.0-8.1-0.1-1.13","null","<span style='color:red; font-size: 70px;'>错误! </span>","null","","","","","","","","","","","","","","","","","","","","","","","feedback_test",""
"","","","","","psychophysics","42","708661","0.0-8.1-0.1-0.14","1150","","k","","","","","","","","","","","","","key","k","16.666913385827492","768","428","j","false","img/C_28.png","生人","freeprac_self","",""
"","","","","","html-keyboard-response","43","708972","0.0-8.1-0.1-1.14","null","<span style='color:red; font-size: 70px;'>错误! </span>","null","","","","","","","","","","","","","","","","","","","","","","","feedback_test",""
"","","","","","psychophysics","44","712669","0.0-8.1-0.1-0.15","2695","","k","","","","","","","","","","","","","key","k","16.667736363636372","768","428","k","true","img/C_28.png","朋友","freeprac_self","",""
"","","","","","html-keyboard-response","45","712971","0.0-8.1-0.1-1.15","null","<span style='color:GreenYellow; font-size: 70px;'>正确! </span>","null","","","","","","","","","","","","","","","","","","","","","","","feedback_test",""
"","","","","","psychophysics","46","716207","0.0-8.1-0.1-0.16","2216","","j","","","","","","","","","","","","","key","j","16.667651041666733","768","428","j","true","img/H_28.png","自我","freeprac_self","",""
"","","","","","html-keyboard-response","47","716530","0.0-8.1-0.1-1.16","null","<span style='color:GreenYellow; font-size: 70px;'>正确! </span>","null","","","","","","","","","","","","","","","","","","","","","","","feedback_test",""
"","","","","","psychophysics","48","720691","0.0-8.1-0.1-0.17","3152","","j","","","","","","","","","","","","","key","j","16.666899598393886","768","428","k","false","img/H_28.png","生人","freeprac_self","",""
"","","","","","html-keyboard-response","49","720995","0.0-8.1-0.1-1.17","null","<span style='color:red; font-size: 70px;'>错误! </span>","null","","","","","","","","","","","","","","","","","","","","","","","feedback_test",""
"","","","","","psychophysics","50","724142","0.0-8.1-0.1-0.18","2134","","j","","","","","","","","","","","","","key","j","16.755941176470767","768","428","f","false","img/S_28.png","朋友","freeprac_self","",""
"","","","","","html-keyboard-response","51","724457","0.0-8.1-0.1-1.18","null","<span style='color:red; font-size: 70px;'>错误! </span>","null","","","","","","","","","","","","","","","","","","","","","","","feedback_test",""
"","","","","","psychophysics","52","727880","0.0-8.1-0.1-0.19","2419","","k","","","","","","","","","","","","","key","k","16.66715763546836","768","428","k","true","img/H_28.png","生人","freeprac_self","",""
"","","","","","html-keyboard-response","53","728196","0.0-8.1-0.1-1.19","null","<span style='color:GreenYellow; font-size: 70px;'>正确! </span>","null","","","","","","","","","","","","","","","","","","","","","","","feedback_test",""
"","","","","","psychophysics","54","731601","0.0-8.1-0.1-0.20","2393","","d","","","","","","","","","","","","","key","d","16.6658472906399","768","428","d","true","img/S_28.png","自我","freeprac_self","",""
"","","","","","html-keyboard-response","55","731915","0.0-8.1-0.1-1.20","null","<span style='color:GreenYellow; font-size: 70px;'>正确! </span>","null","","","","","","","","","","","","","","","","","","","","","","","feedback_test",""
"","","","","","psychophysics","56","734882","0.0-8.1-0.1-0.21","1953","","j","","","","","","","","","","","","","key","j","16.666711864406953","768","428","k","false","img/C_28.png","朋友","freeprac_self","",""
"","","","","","html-keyboard-response","57","735194","0.0-8.1-0.1-1.21","null","<span style='color:red; font-size: 70px;'>错误! </span>","null","","","","","","","","","","","","","","","","","","","","","","","feedback_test",""
"","","","","","psychophysics","58","738564","0.0-8.1-0.1-0.22","2356","","k","","","","","","","","","","","","","key","k","16.749359999999868","768","428","f","false","img/S_28.png","生人","freeprac_self","",""
"","","","","","html-keyboard-response","59","738882","0.0-8.1-0.1-1.22","null","<span style='color:red; font-size: 70px;'>错误! </span>","null","","","","","","","","","","","","","","","","","","","","","","","feedback_test",""
"","","","","","psychophysics","60","741512","0.0-8.1-0.1-0.23","1627","","j","","","","","","","","","","","","","key","j","16.671191082802412","768","428","j","true","img/H_28.png","朋友","freeprac_self","",""
"","","","","","html-keyboard-response","61","741831","0.0-8.1-0.1-1.23","null","<span style='color:GreenYellow; font-size: 70px;'>正确! </span>","null","","","","","","","","","","","","","","","","","","","","","","","feedback_test",""
"","","","","","html-keyboard-response","62","749617","0.0-8.1-1.1-0.1","7783","<style>.context{color:white; font-size: 35px; line-height:40px}</style>                           <div><p class='context'>您正确回答了42% 的试次。</p><p class='context'>您的平均反应时为2270毫秒。</p>"," ","","","","","","","","","","","","","","","","","","","","","","","",""
"","","","","","instructions","63","781675","0.0-8.1-1.1-1.1","32055","","","","","","","","","","","","","","[{""page_index"":0,""viewing_time"":5080},{""page_index"":1,""viewing_time"":14763},{""page_index"":2,""viewing_time"":12211}]","","","","","","","","","","","",""
"","","","","","psychophysics","64","784113","0.0-8.2-0.2-0.24","1428","","k","","","","","","","","","","","","","key","k","16.66685416666668","768","428","k","true","img/C_28.png","朋友","freeprac_self","",""
"","","","","","html-keyboard-response","65","784419","0.0-8.2-0.2-1.24","null","<span style='color:GreenYellow; font-size: 70px;'>正确! </span>","null","","","","","","","","","","","","","","","","","","","","","","","feedback_test",""
"","","","","","psychophysics","66","786683","0.0-8.2-0.2-0.25","1262","","k","","","","","","","","","","","","","key","k","16.66686666666668","768","428","k","true","img/C_28.png","朋友","freeprac_self","",""
"","","","","","html-keyboard-response","67","786990","0.0-8.2-0.2-1.25","null","<span style='color:GreenYellow; font-size: 70px;'>正确! </span>","null","","","","","","","","","","","","","","","","","","","","","","","feedback_test",""
"","","","","","psychophysics","68","789341","0.0-8.2-0.2-0.26","1350","","f","","","","","","","","","","","","","key","f","16.666821428571296","768","428","f","true","img/S_28.png","生人","freeprac_self","",""
"","","","","","html-keyboard-response","69","789645","0.0-8.2-0.2-1.26","null","<span style='color:GreenYellow; font-size: 70px;'>正确! </span>","null","","","","","","","","","","","","","","","","","","","","","","","feedback_test",""
"","","","","","psychophysics","70","792027","0.0-8.2-0.2-0.27","1379","","j","","","","","","","","","","","","","key","j","16.666542253520955","768","428","j","true","img/C_28.png","生人","freeprac_self","",""
"","","","","","html-keyboard-response","71","792332","0.0-8.2-0.2-1.27","null","<span style='color:GreenYellow; font-size: 70px;'>正确! </span>","null","","","","","","","","","","","","","","","","","","","","","","","feedback_test",""
"","","","","","psychophysics","72","795069","0.0-8.2-0.2-0.28","1730","","j","","","","","","","","","","","","","key","j","16.668024539877518","768","428","j","true","img/C_28.png","自我","freeprac_self","",""
"","","","","","html-keyboard-response","73","795379","0.0-8.2-0.2-1.28","null","<span style='color:GreenYellow; font-size: 70px;'>正确! </span>","null","","","","","","","","","","","","","","","","","","","","","","","feedback_test",""
"","","","","","psychophysics","74","797695","0.0-8.2-0.2-0.29","1298","","k","","","","","","","","","","","","","key","k","16.66678985507241","768","428","k","true","img/H_28.png","生人","freeprac_self","",""
"","","","","","html-keyboard-response","75","798007","0.0-8.2-0.2-1.29","null","<span style='color:GreenYellow; font-size: 70px;'>正确! </span>","null","","","","","","","","","","","","","","","","","","","","","","","feedback_test",""
"","","","","","psychophysics","76","800102","0.0-8.2-0.2-0.30","1093","","d","","","","","","","","","","","","","key","d","16.666725806451606","768","428","d","true","img/S_28.png","自我","freeprac_self","",""
"","","","","","html-keyboard-response","77","800411","0.0-8.2-0.2-1.30","null","<span style='color:GreenYellow; font-size: 70px;'>正确! </span>","null","","","","","","","","","","","","","","","","","","","","","","","feedback_test",""
"","","","","","psychophysics","78","803886","0.0-8.2-0.2-0.31","2468","","k","","","","","","","","","","","","","key","k","16.666879227053112","768","428","k","true","img/H_28.png","生人","freeprac_self","",""
"","","","","","html-keyboard-response","79","804204","0.0-8.2-0.2-1.31","null","<span style='color:GreenYellow; font-size: 70px;'>正确! </span>","null","","","","","","","","","","","","","","","","","","","","","","","feedback_test",""
"","","","","","psychophysics","80","807062","0.0-8.2-0.2-0.32","1849","","f","","","","","","","","","","","","","key","f","16.66032352941179","768","428","f","true","img/S_28.png","朋友","freeprac_self","",""
"","","","","","html-keyboard-response","81","807374","0.0-8.2-0.2-1.32","null","<span style='color:GreenYellow; font-size: 70px;'>正确! </span>","null","","","","","","","","","","","","","","","","","","","","","","","feedback_test",""
"","","","","","psychophysics","82","809375","0.0-8.2-0.2-0.33","992","","d","","","","","","","","","","","","","key","d","16.666923728812943","768","428","d","true","img/S_28.png","自我","freeprac_self","",""
"","","","","","html-keyboard-response","83","809695","0.0-8.2-0.2-1.33","null","<span style='color:GreenYellow; font-size: 70px;'>正确! </span>","null","","","","","","","","","","","","","","","","","","","","","","","feedback_test",""
"","","","","","psychophysics","84","812129","0.0-8.2-0.2-0.34","1427","","j","","","","","","","","","","","","","key","j","16.665910344827793","768","428","j","true","img/H_28.png","朋友","freeprac_self","",""
"","","","","","html-keyboard-response","85","812442","0.0-8.2-0.2-1.34","null","<span style='color:GreenYellow; font-size: 70px;'>正确! </span>","null","","","","","","","","","","","","","","","","","","","","","","","feedback_test",""
"","","","","","psychophysics","86","816131","0.0-8.2-0.2-0.35","2684","","j","","","","","","","","","","","","","key","j","16.667031818181698","768","428","j","true","img/H_28.png","自我","freeprac_self","",""
"","","","","","html-keyboard-response","87","816445","0.0-8.2-0.2-1.35","null","<span style='color:GreenYellow; font-size: 70px;'>正确! </span>","null","","","","","","","","","","","","","","","","","","","","","","","feedback_test",""
"","","","","","html-keyboard-response","88","848298","0.0-9.0","31851","[""<style>.context{color:white; font-size: 35px; line-height:40px}</style>           <div><p class='context'>您正确回答了100% 的试次。</p><p class='context'>您的平均反应时为1580毫秒。</p><p class='context'>恭喜您完成这一阶段的练习。按任意键进入<span style='color: yellow;'>重点关注图形为“朋友”</span>的练习。</p></div><p class='footer' style='font-size:35px; line-height:30px;'>任务要求：\n           <p class='footer' style='font-size:35px; line-height:35px;'>对于与“朋友”对应的图形：如果 匹配 ，请按 <span style=\""color: lightgreen;\"">d键</span></p><p class='footer' style='font-size:35px'>如果 不匹配 ，请按<span style=\""color: lightgreen;\"">f键</p></span>\n           <p class='footer' style='font-size:35px; line-height:35px;'>对于非“朋友”对应的图形：如果 匹配 ，请按 <span style=\""color: lightgreen;\"">k键</span></p><p class='footer' style='font-size:35px'>如果 不匹配 ，请按<span style=\""color: lightgreen;\"">j键</p></span>\n           <p class='footer' style='font-size:22px; line-height:25px;'>请在实验过程中将您的<span style=\""color: lightgreen;\"">食指和中指</span>放在电脑键盘的相应键位上进行按键。</p></span>""]"," ","","","","","","","","","","","","","","","","","","","","","","","",""
"","","","","","psychophysics","89","850637","0.0-10.0-0.0-0.0","1330","","f","","","","","","","","","","","","","key","f","16.663151079136377","768","428","j","false","img/S_28.png","朋友","freeprac_friend","",""
"","","","","","html-keyboard-response","90","850943","0.0-10.0-0.0-1.0","null","<span style='color:red; font-size: 70px;'>错误! </span>","null","","","","","","","","","","","","","","","","","","","","","","","feedback_test",""
"","","","","","psychophysics","91","853382","0.0-10.0-0.0-0.1","1428","","d","","","","","","","","","","","","","key","d","16.669420689655116","768","428","d","true","img/C_28.png","朋友","freeprac_friend","",""
"","","","","","html-keyboard-response","92","853693","0.0-10.0-0.0-1.1","null","<span style='color:GreenYellow; font-size: 70px;'>正确! </span>","null","","","","","","","","","","","","","","","","","","","","","","","feedback_test",""
"","","","","","psychophysics","93","855933","0.0-10.0-0.0-0.2","1233","","f","","","","","","","","","","","","","key","f","16.66621052631513","768","428","f","true","img/C_28.png","自我","freeprac_friend","",""
"","","","","","html-keyboard-response","94","856237","0.0-10.0-0.0-1.2","null","<span style='color:GreenYellow; font-size: 70px;'>正确! </span>","null","","","","","","","","","","","","","","","","","","","","","","","feedback_test",""
"","","","","","psychophysics","95","859612","0.0-10.0-0.0-0.3","2361","","k","","","","","","","","","","","","","key","k","16.667383084576972","768","428","k","true","img/H_28.png","生人","freeprac_friend","",""
"","","","","","html-keyboard-response","96","859921","0.0-10.0-0.0-1.3","null","<span style='color:GreenYellow; font-size: 70px;'>正确! </span>","null","","","","","","","","","","","","","","","","","","","","","","","feedback_test",""
"","","","","","psychophysics","97","862496","0.0-10.0-0.0-0.4","1573","","k","","","","","","","","","","","","","key","k","16.663313725489964","768","428","k","true","img/S_28.png","自我","freeprac_friend","",""
"","","","","","html-keyboard-response","98","862810","0.0-10.0-0.0-1.4","null","<span style='color:GreenYellow; font-size: 70px;'>正确! </span>","null","","","","","","","","","","","","","","","","","","","","","","","feedback_test",""
"","","","","","psychophysics","99","865129","0.0-10.0-0.0-0.5","1312","","k","","","","","","","","","","","","","key","k","16.66840145985399","768","428","k","true","img/S_28.png","自我","freeprac_friend","",""
"","","","","","html-keyboard-response","100","865432","0.0-10.0-0.0-1.5","null","<span style='color:GreenYellow; font-size: 70px;'>正确! </span>","null","","","","","","","","","","","","","","","","","","","","","","","feedback_test",""
"","","","","","psychophysics","101","867381","0.0-10.0-0.0-0.6","936","","d","","","","","","","","","","","","","key","d","16.66874137931054","768","428","d","true","img/C_28.png","朋友","freeprac_friend","",""
"","","","","","html-keyboard-response","102","867696","0.0-10.0-0.0-1.6","null","<span style='color:GreenYellow; font-size: 70px;'>正确! </span>","null","","","","","","","","","","","","","","","","","","","","","","","feedback_test",""
"","","","","","psychophysics","103","870160","0.0-10.0-0.0-0.7","1457","","j","","","","","","","","","","","","","key","j","16.66661904761916","768","428","j","true","img/H_28.png","朋友","freeprac_friend","",""
"","","","","","html-keyboard-response","104","870461","0.0-10.0-0.0-1.7","null","<span style='color:GreenYellow; font-size: 70px;'>正确! </span>","null","","","","","","","","","","","","","","","","","","","","","","","feedback_test",""
"","","","","","psychophysics","105","873271","0.0-10.0-0.0-0.8","1800","","j","","","","","","","","","","","","","key","j","16.668359281437354","768","428","j","true","img/S_28.png","生人","freeprac_friend","",""
"","","","","","html-keyboard-response","106","873582","0.0-10.0-0.0-1.8","null","<span style='color:GreenYellow; font-size: 70px;'>正确! </span>","null","","","","","","","","","","","","","","","","","","","","","","","feedback_test",""
"","","","","","psychophysics","107","876793","0.0-10.0-0.0-0.9","2197","","j","","","","","","","","","","","","","key","j","16.666795811517755","768","428","j","true","img/H_28.png","自我","freeprac_friend","",""
"","","","","","html-keyboard-response","108","877112","0.0-10.0-0.0-1.9","null","<span style='color:GreenYellow; font-size: 70px;'>正确! </span>","null","","","","","","","","","","","","","","","","","","","","","","","feedback_test",""
"","","","","","psychophysics","109","879792","0.0-10.0-0.0-0.10","1671","","k","","","","","","","","","","","","","key","k","16.666886792453035","768","428","k","true","img/H_28.png","生人","freeprac_friend","",""
"","","","","","html-keyboard-response","110","880098","0.0-10.0-0.0-1.10","null","<span style='color:GreenYellow; font-size: 70px;'>正确! </span>","null","","","","","","","","","","","","","","","","","","","","","","","feedback_test",""
"","","","","","psychophysics","111","883071","0.0-10.0-0.0-0.11","1967","","j","","","","","","","","","","","","","key","j","16.66579096045182","768","428","f","false","img/C_28.png","生人","freeprac_friend","",""
"","","","","","html-keyboard-response","112","883386","0.0-10.0-0.0-1.11","null","<span style='color:red; font-size: 70px;'>错误! </span>","null","","","","","","","","","","","","","","","","","","","","","","","feedback_test",""
"","","","","","html-keyboard-response","113","892077","0.0-11.0","8689","[""<style>.context{color:white; font-size: 35px; line-height:40px}</style>               <div><p class='context'>您正确回答了83% 的试次。</p><p class='context'>您的平均反应时为1597毫秒。</p><p class='context'>恭喜您完成这一阶段的练习。按任意键进入<span style='color: yellow;'>重点关注图形为“生人”</span>的练习。</p></div><p class='footer' style='font-size:35px; line-height:30px;'>任务要求：\n               <p class='footer' style='font-size:35px; line-height:35px;'>对与“生人”对应的图形，如果 匹配 ，请按 <span style=\""color: lightgreen;\"">d键</span></p><p class='footer' style='font-size:35px'>如果 不匹配 ，请按<span style=\""color: lightgreen;\"">f键</p></span>\n               <p class='footer' style='font-size:35px; line-height:35px;'>对非“生人”对应的图形，如果 匹配 ，请按 <span style=\""color: lightgreen;\"">k键</span></p><p class='footer' style='font-size:35px'>如果 不匹配 ，请按<span style=\""color: lightgreen;\"">j键</p></span>\n               <p class='footer' style='font-size:22px; line-height:25px;'>请在实验过程中将您的<span style=\""color: lightgreen;\"">食指和中指</span>放在电脑键盘的相应键位上进行按键。</p></span>""]"," ","","","","","","","","","","","","","","","","","","","","","","","",""
"","","","","","psychophysics","114","894961","0.0-12.0-0.0-0.0","1871","","k","","","","","","","","","","","","","key","k","16.667139534883844","768","428","k","true","img/S_28.png","自我","freeprac_stranger","",""
"","","","","","html-keyboard-response","115","895267","0.0-12.0-0.0-1.0","null","<span style='color:GreenYellow; font-size: 70px;'>正确! </span>","null","","","","","","","","","","","","","","","","","","","","","","","feedback_test",""
"","","","","","psychophysics","116","897671","0.0-12.0-0.0-0.1","1396","","k","","","","","","","","","","","","","key","k","16.668209790209815","768","428","k","true","img/S_28.png","自我","freeprac_stranger","",""
"","","","","","html-keyboard-response","117","897980","0.0-12.0-0.0-1.1","null","<span style='color:GreenYellow; font-size: 70px;'>正确! </span>","null","","","","","","","","","","","","","","","","","","","","","","","feedback_test",""
"","","","","","psychophysics","118","900451","0.0-12.0-0.0-0.2","1465","","d","","","","","","","","","","","","","key","d","16.667278911564406","768","428","d","true","img/H_28.png","生人","freeprac_stranger","",""
"","","","","","html-keyboard-response","119","900760","0.0-12.0-0.0-1.2","null","<span style='color:GreenYellow; font-size: 70px;'>正确! </span>","null","","","","","","","","","","","","","","","","","","","","","","","feedback_test",""
"","","","","","psychophysics","120","903039","0.0-12.0-0.0-0.3","1272","","k","","","","","","","","","","","","","key","k","16.666896296296855","768","428","k","true","img/C_28.png","朋友","freeprac_stranger","",""
"","","","","","html-keyboard-response","121","903356","0.0-12.0-0.0-1.3","null","<span style='color:GreenYellow; font-size: 70px;'>正确! </span>","null","","","","","","","","","","","","","","","","","","","","","","","feedback_test",""
"","","","","","psychophysics","122","906148","0.0-12.0-0.0-0.4","1782","","j","","","","","","","","","","","","","key","j","16.666963855421777","768","428","f","false","img/H_28.png","朋友","freeprac_stranger","",""
"","","","","","html-keyboard-response","123","906458","0.0-12.0-0.0-1.4","null","<span style='color:red; font-size: 70px;'>错误! </span>","null","","","","","","","","","","","","","","","","","","","","","","","feedback_test",""
"","","","","","psychophysics","124","910142","0.0-12.0-0.0-0.5","2683","","j","","","","","","","","","","","","","key","j","16.666877272727223","768","428","j","true","img/S_28.png","朋友","freeprac_stranger","",""
"","","","","","html-keyboard-response","125","910449","0.0-12.0-0.0-1.5","null","<span style='color:GreenYellow; font-size: 70px;'>正确! </span>","null","","","","","","","","","","","","","","","","","","","","","","","feedback_test",""
"","","","","","psychophysics","126","912902","0.0-12.0-0.0-0.6","1445","","k","","","","","","","","","","","","","key","k","16.666527397260037","768","428","j","false","img/C_28.png","生人","freeprac_stranger","",""
"","","","","","html-keyboard-response","127","913218","0.0-12.0-0.0-1.6","null","<span style='color:red; font-size: 70px;'>错误! </span>","null","","","","","","","","","","","","","","","","","","","","","","","feedback_test",""
"","","","","","psychophysics","128","915869","0.0-12.0-0.0-0.7","1647","","d","","","","","","","","","","","","","key","d","16.66593670886072","768","428","f","false","img/H_28.png","自我","freeprac_stranger","",""
"","","","","","html-keyboard-response","129","916180","0.0-12.0-0.0-1.7","null","<span style='color:red; font-size: 70px;'>错误! </span>","null","","","","","","","","","","","","","","","","","","","","","","","feedback_test",""
"","","","","","psychophysics","130","918417","0.0-12.0-0.0-0.8","1233","","d","","","","","","","","","","","","","key","d","16.667052631578898","768","428","d","true","img/H_28.png","生人","freeprac_stranger","",""
"","","","","","html-keyboard-response","131","918729","0.0-12.0-0.0-1.8","null","<span style='color:GreenYellow; font-size: 70px;'>正确! </span>","null","","","","","","","","","","","","","","","","","","","","","","","feedback_test",""
"","","","","","psychophysics","132","921798","0.0-12.0-0.0-0.9","2060","","j","","","","","","","","","","","","","key","j","16.668038251365743","768","428","j","true","img/S_28.png","生人","freeprac_stranger","",""
"","","","","","html-keyboard-response","133","922105","0.0-12.0-0.0-1.9","null","<span style='color:GreenYellow; font-size: 70px;'>正确! </span>","null","","","","","","","","","","","","","","","","","","","","","","","feedback_test",""
"","","","","","psychophysics","134","924352","0.0-12.0-0.0-0.10","1240","","k","","","","","","","","","","","","","key","k","16.667000000000076","768","428","k","true","img/C_28.png","朋友","freeprac_stranger","",""
"","","","","","html-keyboard-response","135","924665","0.0-12.0-0.0-1.10","null","<span style='color:GreenYellow; font-size: 70px;'>正确! </span>","null","","","","","","","","","","","","","","","","","","","","","","","feedback_test",""
"","","","","","psychophysics","136","926879","0.0-12.0-0.0-0.11","1207","","j","","","","","","","","","","","","","key","j","17.059484375000466","768","428","j","true","img/C_28.png","自我","freeprac_stranger","",""
"","","","","","html-keyboard-response","137","927196","0.0-12.0-0.0-1.11","null","<span style='color:GreenYellow; font-size: 70px;'>正确! </span>","null","","","","","","","","","","","","","","","","","","","","","","","feedback_test",""
"","","","","","instructions","138","952111","0.0-13.0","24913","","","","","","","","","","","","","","[{""page_index"":0,""viewing_time"":24912}]","","","","","","","","","","","",""
"","","","","","psychophysics","139","954626","0.0-14.0-0.0-0.0","null","","null","","","","","","","","","","","","","key","null","16.66773825503367","768","428","k","false","img/H_28.png","生人","prac_self","","生人"
"","","","","","html-keyboard-response","140","954942","0.0-14.0-0.0-1.0","null","<span class='add_' style='color:yellow; font-size: 70px;'> 太慢! </span>","null","","","","","","","","","","","","","","","","","","","","","","","feedback_test",""
"","","","","","psychophysics","141","957035","0.0-14.0-0.0-0.1","1078","","k","","","","","","","","","","","","","key","k","16.667798387096077","768","428","k","true","img/C_28.png","朋友","prac_self","","朋友"
"","","","","","html-keyboard-response","142","957345","0.0-14.0-0.0-1.1","null","<span style='color:GreenYellow; font-size: 70px;'>正确! </span>","null","","","","","","","","","","","","","","","","","","","","","","","feedback_test",""
"","","","","","psychophysics","143","959285","0.0-14.0-0.0-0.2","933","","k","","","","","","","","","","","","","key","k","16.66695652173974","768","428","j","false","img/C_28.png","生人","prac_self","","朋友"
"","","","","","html-keyboard-response","144","959589","0.0-14.0-0.0-1.2","null","<span style='color:red; font-size: 70px;'>错误! </span>","null","","","","","","","","","","","","","","","","","","","","","","","feedback_test",""
"","","","","","psychophysics","145","961592","0.0-14.0-0.0-0.3","1000","","j","","","","","","","","","","","","","key","j","16.66682203389878","768","428","d","false","img/S_28.png","自我","prac_self","","自我"
"","","","","","html-keyboard-response","146","961899","0.0-14.0-0.0-1.3","null","<span style='color:red; font-size: 70px;'>错误! </span>","null","","","","","","","","","","","","","","","","","","","","","","","feedback_test",""
"","","","","","psychophysics","147","964249","0.0-14.0-0.0-0.4","1341","","k","","","","","","","","","","","","","key","k","16.666249999999334","768","428","j","false","img/H_28.png","朋友","prac_self","","生人"
"","","","","","html-keyboard-response","148","964560","0.0-14.0-0.0-1.4","null","<span style='color:red; font-size: 70px;'>错误! </span>","null","","","","","","","","","","","","","","","","","","","","","","","feedback_test",""
"","","","","","psychophysics","149","966942","0.0-14.0-0.0-0.5","1369","","d","","","","","","","","","","","","","key","d","16.66547183098573","768","428","k","false","img/C_28.png","朋友","prac_self","","朋友"
"","","","","","html-keyboard-response","150","967252","0.0-14.0-0.0-1.5","null","<span style='color:red; font-size: 70px;'>错误! </span>","null","","","","","","","","","","","","","","","","","","","","","","","feedback_test",""
"","","","","","psychophysics","151","969597","0.0-14.0-0.0-0.6","1337","","j","","","","","","","","","","","","","key","j","16.668149999999773","768","428","j","true","img/C_28.png","自我","prac_self","","朋友"
"","","","","","html-keyboard-response","152","969907","0.0-14.0-0.0-1.6","null","<span style='color:GreenYellow; font-size: 70px;'>正确! </span>","null","","","","","","","","","","","","","","","","","","","","","","","feedback_test",""
"","","","","","psychophysics","153","972409","0.0-14.0-0.0-0.7","null","","null","","","","","","","","","","","","","key","null","16.6673557046979","768","428","d","false","img/S_28.png","自我","prac_self","","自我"
"","","","","","html-keyboard-response","154","972727","0.0-14.0-0.0-1.7","null","<span class='add_' style='color:yellow; font-size: 70px;'> 太慢! </span>","null","","","","","","","","","","","","","","","","","","","","","","","feedback_test",""
"","","","","","psychophysics","155","974637","0.0-14.0-0.0-0.8","900","","j","","","","","","","","","","","","","key","j","16.666575221238716","768","428","k","false","img/H_28.png","生人","prac_self","","生人"
"","","","","","html-keyboard-response","156","974950","0.0-14.0-0.0-1.8","null","<span style='color:red; font-size: 70px;'>错误! </span>","null","","","","","","","","","","","","","","","","","","","","","","","feedback_test",""
"","","","","","psychophysics","157","976700","0.0-14.0-0.0-0.9","743","","k","","","","","","","","","","","","","key","k","16.667086538461334","768","428","j","false","img/H_28.png","自我","prac_self","","生人"
"","","","","","html-keyboard-response","158","977005","0.0-14.0-0.0-1.9","null","<span style='color:red; font-size: 70px;'>错误! </span>","null","","","","","","","","","","","","","","","","","","","","","","","feedback_test",""
"","","","","","psychophysics","159","978932","0.0-14.0-0.0-0.10","925","","f","","","","","","","","","","","","","key","f","16.66719298245561","768","428","f","true","img/S_28.png","朋友","prac_self","","自我"
"","","","","","html-keyboard-response","160","979248","0.0-14.0-0.0-1.10","null","<span style='color:GreenYellow; font-size: 70px;'>正确! </span>","null","","","","","","","","","","","","","","","","","","","","","","","feedback_test",""
"","","","","","psychophysics","161","981396","0.0-14.0-0.0-0.11","1140","","f","","","","","","","","","","","","","key","f","16.667992125983957","768","428","f","true","img/S_28.png","生人","prac_self","","自我"
"","","","","","html-keyboard-response","162","981707","0.0-14.0-0.0-1.11","null","<span style='color:GreenYellow; font-size: 70px;'>正确! </span>","null","","","","","","","","","","","","","","","","","","","","","","","feedback_test",""
"","","","","","psychophysics","163","983701","0.0-14.0-0.0-0.12","990","","d","","","","","","","","","","","","","key","d","16.666983050847687","768","428","k","false","img/C_28.png","朋友","prac_self","","朋友"
"","","","","","html-keyboard-response","164","984013","0.0-14.0-0.0-1.12","null","<span style='color:red; font-size: 70px;'>错误! </span>","null","","","","","","","","","","","","","","","","","","","","","","","feedback_test",""
"","","","","","psychophysics","165","985723","0.0-14.0-0.0-0.13","706","","k","","","","","","","","","","","","","key","k","16.670990099010087","768","428","d","false","img/S_28.png","自我","prac_self","","自我"
"","","","","","html-keyboard-response","166","986041","0.0-14.0-0.0-1.13","null","<span style='color:red; font-size: 70px;'>错误! </span>","null","","","","","","","","","","","","","","","","","","","","","","","feedback_test",""
"","","","","","psychophysics","167","987649","0.0-14.0-0.0-0.14","601","","j","","","","","","","","","","","","","key","j","16.66857894736857","768","428","d","false","img/S_28.png","自我","prac_self","","自我"
"","","","","","html-keyboard-response","168","987961","0.0-14.0-0.0-1.14","null","<span style='color:red; font-size: 70px;'>错误! </span>","null","","","","","","","","","","","","","","","","","","","","","","","feedback_test",""
"","","","","","psychophysics","169","989458","0.0-14.0-0.0-0.15","492","","d","","","","","","","","","","","","","key","d","16.668033707864698","768","428","k","false","img/H_28.png","生人","prac_self","","生人"
"","","","","","html-keyboard-response","170","989770","0.0-14.0-0.0-1.15","null","<span style='color:red; font-size: 70px;'>错误! </span>","null","","","","","","","","","","","","","","","","","","","","","","","feedback_test",""
"","","","","","psychophysics","171","991660","0.0-14.0-0.0-0.16","887","","f","","","","","","","","","","","","","key","f","16.66819469026492","768","428","j","false","img/C_28.png","生人","prac_self","","朋友"
"","","","","","html-keyboard-response","172","991978","0.0-14.0-0.0-1.16","null","<span style='color:red; font-size: 70px;'>错误! </span>","null","","","","","","","","","","","","","","","","","","","","","","","feedback_test",""
"","","","","","psychophysics","173","993953","0.0-14.0-0.0-0.17","972","","j","","","","","","","","","","","","","key","j","16.666880341880542","768","428","j","true","img/C_28.png","自我","prac_self","","朋友"
"","","","","","html-keyboard-response","174","994258","0.0-14.0-0.0-1.17","null","<span style='color:GreenYellow; font-size: 70px;'>正确! </span>","null","","","","","","","","","","","","","","","","","","","","","","","feedback_test",""
"","","","","","psychophysics","175","996147","0.0-14.0-0.0-0.18","888","","k","","","","","","","","","","","","","key","k","16.666892857143207","768","428","f","false","img/S_28.png","生人","prac_self","","自我"
"","","","","","html-keyboard-response","176","996463","0.0-14.0-0.0-1.18","null","<span style='color:red; font-size: 70px;'>错误! </span>","null","","","","","","","","","","","","","","","","","","","","","","","feedback_test",""
"","","","","","psychophysics","177","997879","0.0-14.0-0.0-0.19","410","","d","","","","","","","","","","","","","key","d","16.666964285714563","768","428","j","false","img/H_28.png","自我","prac_self","","生人"
"","","","","","html-keyboard-response","178","998190","0.0-14.0-0.0-1.19","null","<span style='color:red; font-size: 70px;'>错误! </span>","null","","","","","","","","","","","","","","","","","","","","","","","feedback_test",""
"","","","","","psychophysics","179","999812","0.0-14.0-0.0-0.20","620","","k","","","","","","","","","","","","","key","k","16.666989583334118","768","428","k","true","img/H_28.png","生人","prac_self","","生人"
"","","","","","html-keyboard-response","180","1000116","0.0-14.0-0.0-1.20","null","<span style='color:GreenYellow; font-size: 70px;'>正确! </span>","null","","","","","","","","","","","","","","","","","","","","","","","feedback_test",""
"","","","","","psychophysics","181","1002068","0.0-14.0-0.0-0.21","950","","k","","","","","","","","","","","","","key","k","16.66704310344809","768","428","f","false","img/S_28.png","朋友","prac_self","","自我"
"","","","","","html-keyboard-response","182","1002374","0.0-14.0-0.0-1.21","null","<span style='color:red; font-size: 70px;'>错误! </span>","null","","","","","","","","","","","","","","","","","","","","","","","feedback_test",""
"","","","","","psychophysics","183","1003742","0.0-14.0-0.0-0.22","366","","j","","","","","","","","","","","","","key","j","16.66744444444402","768","428","j","true","img/H_28.png","朋友","prac_self","","生人"
"","","","","","html-keyboard-response","184","1004055","0.0-14.0-0.0-1.22","null","<span style='color:GreenYellow; font-size: 70px;'>正确! </span>","null","","","","","","","","","","","","","","","","","","","","","","","feedback_test",""
"","","","","","psychophysics","185","1006260","0.0-14.0-0.0-0.23","1203","","j","","","","","","","","","","","","","key","j","16.66633587786288","768","428","k","false","img/C_28.png","朋友","prac_self","","朋友"
"","","","","","html-keyboard-response","186","1006569","0.0-14.0-0.0-1.23","null","<span style='color:red; font-size: 70px;'>错误! </span>","null","","","","","","","","","","","","","","","","","","","","","","","feedback_test",""
"","","","","","html-keyboard-response","187","1013338","0.0-14.0-1.0-0.0","6767","<style>.context{color:white; font-size: 35px; line-height:40px}</style>                           <div><p class='context'>您正确回答了29% 的试次。</p><p class='context'>您的平均反应时为920毫秒。</p>"," ","","","","","","","","","","","","","","","","","","","","","","","",""
"","","","","","instructions","188","1030182","0.0-14.0-1.0-1.0","16841","","","","","","","","","","","","","","[{""page_index"":0,""viewing_time"":2955},{""page_index"":1,""viewing_time"":11490},{""page_index"":2,""viewing_time"":2395}]","","","","","","","","","","","",""
"","","","","","psychophysics","189","1032690","0.0-14.1-0.1-0.24","null","","null","","","","","","","","","","","","","key","null","16.77932432432332","768","428","j","false","img/H_28.png","自我","prac_self","","生人"
"","","","","","html-keyboard-response","190","1032992","0.0-14.1-0.1-1.24","null","<span class='add_' style='color:yellow; font-size: 70px;'> 太慢! </span>","null","","","","","","","","","","","","","","","","","","","","","","","feedback_test",""
"","","","","","psychophysics","191","1034712","0.0-14.1-0.1-0.25","717","","d","","","","","","","","","","","","","key","d","16.669147058823786","768","428","k","false","img/C_28.png","朋友","prac_self","","朋友"
"","","","","","html-keyboard-response","192","1035026","0.0-14.1-0.1-1.25","null","<span style='color:red; font-size: 70px;'>错误! </span>","null","","","","","","","","","","","","","","","","","","","","","","","feedback_test",""
"","","","","","psychophysics","193","1037109","0.0-14.1-0.1-0.26","1064","","k","","","","","","","","","","","","","key","k","16.66656097561136","768","428","j","false","img/C_28.png","自我","prac_self","","朋友"
"","","","","","html-keyboard-response","194","1037420","0.0-14.1-0.1-1.26","null","<span style='color:red; font-size: 70px;'>错误! </span>","null","","","","","","","","","","","","","","","","","","","","","","","feedback_test",""
"","","","","","psychophysics","195","1039227","0.0-14.1-0.1-0.27","804","","f","","","","","","","","","","","","","key","f","16.666805555554607","768","428","j","false","img/C_28.png","生人","prac_self","","朋友"
"","","","","","html-keyboard-response","196","1039537","0.0-14.1-0.1-1.27","null","<span style='color:red; font-size: 70px;'>错误! </span>","null","","","","","","","","","","","","","","","","","","","","","","","feedback_test",""
"","","","","","psychophysics","197","1041583","0.0-14.1-0.1-0.28","1043","","j","","","","","","","","","","","","","key","j","16.667991803277697","768","428","d","false","img/S_28.png","自我","prac_self","","自我"
"","","","","","html-keyboard-response","198","1041903","0.0-14.1-0.1-1.28","null","<span style='color:red; font-size: 70px;'>错误! </span>","null","","","","","","","","","","","","","","","","","","","","","","","feedback_test",""
"","","","","","psychophysics","199","1044408","0.0-14.1-0.1-0.29","null","","null","","","","","","","","","","","","","key","null","16.66689999999944","768","428","k","false","img/H_28.png","生人","prac_self","","生人"
"","","","","","html-keyboard-response","200","1044718","0.0-14.1-0.1-1.29","null","<span class='add_' style='color:yellow; font-size: 70px;'> 太慢! </span>","null","","","","","","","","","","","","","","","","","","","","","","","feedback_test",""
"","","","","","psychophysics","201","1046099","0.0-14.1-0.1-0.30","376","","d","","","","","","","","","","","","","key","d","16.665256097560704","768","428","j","false","img/H_28.png","朋友","prac_self","","生人"
"","","","","","html-keyboard-response","202","1046407","0.0-14.1-0.1-1.30","null","<span style='color:red; font-size: 70px;'>错误! </span>","null","","","","","","","","","","","","","","","","","","","","","","","feedback_test",""
"","","","","","psychophysics","203","1047721","0.0-14.1-0.1-0.31","302","","k","","","","","","","","","","","","","key","k","16.66902597402767","768","428","f","false","img/S_28.png","朋友","prac_self","","自我"
"","","","","","html-keyboard-response","204","1048043","0.0-14.1-0.1-1.31","null","<span style='color:red; font-size: 70px;'>错误! </span>","null","","","","","","","","","","","","","","","","","","","","","","","feedback_test",""
"","","","","","psychophysics","205","1049820","0.0-14.1-0.1-0.32","765","","j","","","","","","","","","","","","","key","j","16.668695238095133","768","428","k","false","img/C_28.png","朋友","prac_self","","朋友"
"","","","","","html-keyboard-response","206","1050128","0.0-14.1-0.1-1.32","null","<span style='color:red; font-size: 70px;'>错误! </span>","null","","","","","","","","","","","","","","","","","","","","","","","feedback_test",""
"","","","","","psychophysics","207","1051804","0.0-14.1-0.1-0.33","664","","f","","","","","","","","","","","","","key","f","16.667595959595413","768","428","k","false","img/H_28.png","生人","prac_self","","生人"
"","","","","","html-keyboard-response","208","1052119","0.0-14.1-0.1-1.33","null","<span style='color:red; font-size: 70px;'>错误! </span>","null","","","","","","","","","","","","","","","","","","","","","","","feedback_test",""
"","","","","","psychophysics","209","1053412","0.0-14.1-0.1-0.34","289","","d","","","","","","","","","","","","","key","d","16.66685714285712","768","428","f","false","img/S_28.png","生人","prac_self","","自我"
"","","","","","html-keyboard-response","210","1053716","0.0-14.1-0.1-1.34","null","<span style='color:red; font-size: 70px;'>错误! </span>","null","","","","","","","","","","","","","","","","","","","","","","","feedback_test",""
"","","","","","psychophysics","211","1055049","0.0-14.1-0.1-0.35","320","","k","","","","","","","","","","","","","key","k","16.666948717950174","768","428","d","false","img/S_28.png","自我","prac_self","","自我"
"","","","","","html-keyboard-response","212","1055358","0.0-14.1-0.1-1.35","null","<span style='color:red; font-size: 70px;'>错误! </span>","null","","","","","","","","","","","","","","","","","","","","","","","feedback_test",""
"","","","","","psychophysics","213","1057877","0.0-14.1-0.1-0.36","null","","null","","","","","","","","","","","","","key","null","16.667453333333444","768","428","f","false","img/S_28.png","生人","prac_self","","自我"
"","","","","","html-keyboard-response","214","1058189","0.0-14.1-0.1-1.36","null","<span class='add_' style='color:yellow; font-size: 70px;'> 太慢! </span>","null","","","","","","","","","","","","","","","","","","","","","","","feedback_test",""
"","","","","","psychophysics","215","1059451","0.0-14.1-0.1-0.37","259","","d","","","","","","","","","","","","","key","d","16.66966216216128","768","428","f","false","img/S_28.png","朋友","prac_self","","自我"
"","","","","","html-keyboard-response","216","1059765","0.0-14.1-0.1-1.37","null","<span style='color:red; font-size: 70px;'>错误! </span>","null","","","","","","","","","","","","","","","","","","","","","","","feedback_test",""
"","","","","","psychophysics","217","1061648","0.0-14.1-0.1-0.38","874","","f","","","","","","","","","","","","","key","f","16.666857142855797","768","428","j","false","img/C_28.png","自我","prac_self","","朋友"
"","","","","","html-keyboard-response","218","1061958","0.0-14.1-0.1-1.38","null","<span style='color:red; font-size: 70px;'>错误! </span>","null","","","","","","","","","","","","","","","","","","","","","","","feedback_test",""
"","","","","","psychophysics","219","1063461","0.0-14.1-0.1-0.39","494","","j","","","","","","","","","","","","","key","j","16.668579545454122","768","428","k","false","img/C_28.png","朋友","prac_self","","朋友"
"","","","","","html-keyboard-response","220","1063767","0.0-14.1-0.1-1.39","null","<span style='color:red; font-size: 70px;'>错误! </span>","null","","","","","","","","","","","","","","","","","","","","","","","feedback_test",""
"","","","","","psychophysics","221","1065577","0.0-14.1-0.1-0.40","808","","k","","","","","","","","","","","","","key","k","16.666981132075033","768","428","d","false","img/S_28.png","自我","prac_self","","自我"
"","","","","","html-keyboard-response","222","1065886","0.0-14.1-0.1-1.40","null","<span style='color:red; font-size: 70px;'>错误! </span>","null","","","","","","","","","","","","","","","","","","","","","","","feedback_test",""
"","","","","","psychophysics","223","1068407","0.0-14.1-0.1-0.41","null","","null","","","","","","","","","","","","","key","null","16.66811999999918","768","428","j","false","img/C_28.png","生人","prac_self","","朋友"
"","","","","","html-keyboard-response","224","1068729","0.0-14.1-0.1-1.41","null","<span class='add_' style='color:yellow; font-size: 70px;'> 太慢! </span>","null","","","","","","","","","","","","","","","","","","","","","","","feedback_test",""
"","","","","","psychophysics","225","1070089","0.0-14.1-0.1-0.42","349","","d","","","","","","","","","","","","","key","d","16.667149999999673","768","428","k","false","img/C_28.png","朋友","prac_self","","朋友"
"","","","","","html-keyboard-response","226","1070401","0.0-14.1-0.1-1.42","null","<span style='color:red; font-size: 70px;'>错误! </span>","null","","","","","","","","","","","","","","","","","","","","","","","feedback_test",""
"","","","","","psychophysics","227","1072870","0.0-14.1-0.1-0.43","1461","","f","","","","","","","","","","","","","key","f","16.666272108843803","768","428","j","false","img/H_28.png","自我","prac_self","","生人"
"","","","","","html-keyboard-response","228","1073186","0.0-14.1-0.1-1.43","null","<span style='color:red; font-size: 70px;'>错误! </span>","null","","","","","","","","","","","","","","","","","","","","","","","feedback_test",""
"","","","","","psychophysics","229","1075690","0.0-14.1-0.1-0.44","null","","null","","","","","","","","","","","","","key","null","16.666812080536786","768","428","d","false","img/S_28.png","自我","prac_self","","自我"
"","","","","","html-keyboard-response","230","1076000","0.0-14.1-0.1-1.44","null","<span class='add_' style='color:yellow; font-size: 70px;'> 太慢! </span>","null","","","","","","","","","","","","","","","","","","","","","","","feedback_test",""
"","","","","","psychophysics","231","1078507","0.0-14.1-0.1-0.45","null","","null","","","","","","","","","","","","","key","null","16.667020134227787","768","428","j","false","img/H_28.png","朋友","prac_self","","生人"
"","","","","","html-keyboard-response","232","1078815","0.0-14.1-0.1-1.45","null","<span class='add_' style='color:yellow; font-size: 70px;'> 太慢! </span>","null","","","","","","","","","","","","","","","","","","","","","","","feedback_test",""
"","","","","","psychophysics","233","1080190","0.0-14.1-0.1-0.46","371","","d","","","","","","","","","","","","","key","d","16.668641975310482","768","428","k","false","img/H_28.png","生人","prac_self","","生人"
"","","","","","html-keyboard-response","234","1080498","0.0-14.1-0.1-1.46","null","<span style='color:red; font-size: 70px;'>错误! </span>","null","","","","","","","","","","","","","","","","","","","","","","","feedback_test",""
"","","","","","psychophysics","235","1081686","0.0-14.1-0.1-0.47","174","","j","","","","","","","","","","","","","key","j","16.66632857142748","768","428","k","false","img/H_28.png","生人","prac_self","","生人"
"","","","","","html-keyboard-response","236","1081994","0.0-14.1-0.1-1.47","null","<span style='color:yellow; font-size: 70px;'>过快! </span>","null","","","","","","","","","","","","","","","","","","","","","","","feedback_test",""
"","","","","","html-keyboard-response","237","1084281","0.0-14.1-1.1-0.1","2284","<style>.context{color:white; font-size: 35px; line-height:40px}</style>                           <div><p class='context'>您正确回答了0% 的试次。</p><p class='context'>您的平均反应时为NaN毫秒。</p>"," ","","","","","","","","","","","","","","","","","","","","","","","",""
"","","","","","instructions","238","1109749","0.0-14.1-1.1-1.1","25466","","","","","","","","","","","","","","[{""page_index"":0,""viewing_time"":3448},{""page_index"":1,""viewing_time"":19429},{""page_index"":2,""viewing_time"":2589}]","","","","","","","","","","","",""
"","","","","","psychophysics","239","1111931","0.0-14.2-0.2-0.48","1174","","f","","","","","","","","","","","","","key","f","16.66736923076857","768","428","j","false","img/H_28.png","自我","prac_self","","生人"
"","","","","","html-keyboard-response","240","1112239","0.0-14.2-0.2-1.48","null","<span style='color:red; font-size: 70px;'>错误! </span>","null","","","","","","","","","","","","","","","","","","","","","","","feedback_test",""
"","","","","","psychophysics","241","1114254","0.0-14.2-0.2-0.49","1014","","j","","","","","","","","","","","","","key","j","16.65976470588323","768","428","j","true","img/C_28.png","自我","prac_self","","朋友"
"","","","","","html-keyboard-response","242","1114563","0.0-14.2-0.2-1.49","null","<span style='color:GreenYellow; font-size: 70px;'>正确! </span>","null","","","","","","","","","","","","","","","","","","","","","","","feedback_test",""
"","","","","","psychophysics","243","1117069","0.0-14.2-0.2-0.50","null","","null","","","","","","","","","","","","","key","null","16.66704026845615","768","428","d","false","img/S_28.png","自我","prac_self","","自我"
"","","","","","html-keyboard-response","244","1117383","0.0-14.2-0.2-1.50","null","<span class='add_' style='color:yellow; font-size: 70px;'> 太慢! </span>","null","","","","","","","","","","","","","","","","","","","","","","","feedback_test",""
"","","","","","psychophysics","245","1119393","0.0-14.2-0.2-0.51","1007","","k","","","","","","","","","","","","","key","k","16.668252100839336","768","428","f","false","img/S_28.png","朋友","prac_self","","自我"
"","","","","","html-keyboard-response","246","1119708","0.0-14.2-0.2-1.51","null","<span style='color:red; font-size: 70px;'>错误! </span>","null","","","","","","","","","","","","","","","","","","","","","","","feedback_test",""
"","","","","","psychophysics","247","1121539","0.0-14.2-0.2-0.52","829","","j","","","","","","","","","","","","","key","j","16.668138888888752","768","428","j","true","img/H_28.png","朋友","prac_self","","生人"
"","","","","","html-keyboard-response","248","1121853","0.0-14.2-0.2-1.52","null","<span style='color:GreenYellow; font-size: 70px;'>正确! </span>","null","","","","","","","","","","","","","","","","","","","","","","","feedback_test",""
"","","","","","psychophysics","249","1123717","0.0-14.2-0.2-0.53","859","","j","","","","","","","","","","","","","key","j","16.668576576577095","768","428","k","false","img/C_28.png","朋友","prac_self","","朋友"
"","","","","","html-keyboard-response","250","1124022","0.0-14.2-0.2-1.53","null","<span style='color:red; font-size: 70px;'>错误! </span>","null","","","","","","","","","","","","","","","","","","","","","","","feedback_test",""
"","","","","","psychophysics","251","1126098","0.0-14.2-0.2-0.54","1072","","j","","","","","","","","","","","","","key","j","16.659186991870524","768","428","j","true","img/C_28.png","生人","prac_self","","朋友"
"","","","","","html-keyboard-response","252","1126415","0.0-14.2-0.2-1.54","null","<span style='color:GreenYellow; font-size: 70px;'>正确! </span>","null","","","","","","","","","","","","","","","","","","","","","","","feedback_test",""
"","","","","","psychophysics","253","1128458","0.0-14.2-0.2-0.55","1037","","j","","","","","","","","","","","","","key","j","16.66851239669337","768","428","f","false","img/S_28.png","生人","prac_self","","自我"
"","","","","","html-keyboard-response","254","1128770","0.0-14.2-0.2-1.55","null","<span style='color:red; font-size: 70px;'>错误! </span>","null","","","","","","","","","","","","","","","","","","","","","","","feedback_test",""
"","","","","","psychophysics","255","1130961","0.0-14.2-0.2-0.56","1174","","j","","","","","","","","","","","","","key","j","16.666893129770195","768","428","k","false","img/H_28.png","生人","prac_self","","生人"
"","","","","","html-keyboard-response","256","1131265","0.0-14.2-0.2-1.56","null","<span style='color:red; font-size: 70px;'>错误! </span>","null","","","","","","","","","","","","","","","","","","","","","","","feedback_test",""
"","","","","","psychophysics","257","1133748","0.0-14.2-0.2-0.57","1474","","k","","","","","","","","","","","","","key","k","16.66669594594655","768","428","k","true","img/C_28.png","朋友","prac_self","","朋友"
"","","","","","html-keyboard-response","258","1134066","0.0-14.2-0.2-1.57","null","<span style='color:GreenYellow; font-size: 70px;'>正确! </span>","null","","","","","","","","","","","","","","","","","","","","","","","feedback_test",""
"","","","","","psychophysics","259","1136570","0.0-14.2-0.2-0.58","null","","null","","","","","","","","","","","","","key","null","16.66678523489793","768","428","k","false","img/H_28.png","生人","prac_self","","生人"
"","","","","","html-keyboard-response","260","1136884","0.0-14.2-0.2-1.58","null","<span class='add_' style='color:yellow; font-size: 70px;'> 太慢! </span>","null","","","","","","","","","","","","","","","","","","","","","","","feedback_test",""
"","","","","","psychophysics","261","1138481","0.0-14.2-0.2-0.59","591","","f","","","","","","","","","","","","","key","f","16.663926315787982","768","428","d","false","img/S_28.png","自我","prac_self","","自我"
"","","","","","html-keyboard-response","262","1138786","0.0-14.2-0.2-1.59","null","<span style='color:red; font-size: 70px;'>错误! </span>","null","","","","","","","","","","","","","","","","","","","","","","","feedback_test",""
"","","","","","psychophysics","263","1139939","0.0-14.2-0.2-0.60","152","","d","","","","","","","","","","","","","key","d","16.66886764705893","768","428","j","false","img/H_28.png","自我","prac_self","","生人"
"","","","","","html-keyboard-response","264","1140248","0.0-14.2-0.2-1.60","null","<span style='color:yellow; font-size: 70px;'>过快! </span>","null","","","","","","","","","","","","","","","","","","","","","","","feedback_test",""
"","","","","","psychophysics","265","1141683","0.0-14.2-0.2-0.61","434","","f","","","","","","","","","","","","","key","f","16.666176470588237","768","428","j","false","img/H_28.png","朋友","prac_self","","生人"
"","","","","","html-keyboard-response","266","1141997","0.0-14.2-0.2-1.61","null","<span style='color:red; font-size: 70px;'>错误! </span>","null","","","","","","","","","","","","","","","","","","","","","","","feedback_test",""
"","","","","","psychophysics","267","1143778","0.0-14.2-0.2-0.62","774","","d","","","","","","","","","","","","","key","d","16.666971428572598","768","428","f","false","img/S_28.png","朋友","prac_self","","自我"
"","","","","","html-keyboard-response","268","1144094","0.0-14.2-0.2-1.62","null","<span style='color:red; font-size: 70px;'>错误! </span>","null","","","","","","","","","","","","","","","","","","","","","","","feedback_test",""
"","","","","","psychophysics","269","1145468","0.0-14.2-0.2-0.63","368","","f","","","","","","","","","","","","","key","f","16.668185185186886","768","428","d","false","img/S_28.png","自我","prac_self","","自我"
"","","","","","html-keyboard-response","270","1145775","0.0-14.2-0.2-1.63","null","<span style='color:red; font-size: 70px;'>错误! </span>","null","","","","","","","","","","","","","","","","","","","","","","","feedback_test",""
"","","","","","psychophysics","271","1147131","0.0-14.2-0.2-0.64","351","","j","","","","","","","","","","","","","key","j","16.671506329115385","768","428","f","false","img/S_28.png","生人","prac_self","","自我"
"","","","","","html-keyboard-response","272","1147437","0.0-14.2-0.2-1.64","null","<span style='color:red; font-size: 70px;'>错误! </span>","null","","","","","","","","","","","","","","","","","","","","","","","feedback_test",""
"","","","","","psychophysics","273","1148769","0.0-14.2-0.2-0.65","305","","k","","","","","","","","","","","","","key","k","16.66851898734281","768","428","j","false","img/C_28.png","生人","prac_self","","朋友"
"","","","","","html-keyboard-response","274","1149085","0.0-14.2-0.2-1.65","null","<span style='color:red; font-size: 70px;'>错误! </span>","null","","","","","","","","","","","","","","","","","","","","","","","feedback_test",""
"","","","","","psychophysics","275","1150335","0.0-14.2-0.2-0.66","245","","d","","","","","","","","","","","","","key","d","16.668743243242766","768","428","d","true","img/S_28.png","自我","prac_self","","自我"
"","","","","","html-keyboard-response","276","1150644","0.0-14.2-0.2-1.66","null","<span style='color:GreenYellow; font-size: 70px;'>正确! </span>","null","","","","","","","","","","","","","","","","","","","","","","","feedback_test",""
"","","","","","psychophysics","277","1152019","0.0-14.2-0.2-0.67","371","","f","","","","","","","","","","","","","key","f","16.667518518520176","768","428","k","false","img/H_28.png","生人","prac_self","","生人"
"","","","","","html-keyboard-response","278","1152323","0.0-14.2-0.2-1.67","null","<span style='color:red; font-size: 70px;'>错误! </span>","null","","","","","","","","","","","","","","","","","","","","","","","feedback_test",""
"","","","","","psychophysics","279","1154826","0.0-14.2-0.2-0.68","null","","null","","","","","","","","","","","","","key","null","16.666986577181557","768","428","j","false","img/C_28.png","自我","prac_self","","朋友"
"","","","","","html-keyboard-response","280","1155142","0.0-14.2-0.2-1.68","null","<span class='add_' style='color:yellow; font-size: 70px;'> 太慢! </span>","null","","","","","","","","","","","","","","","","","","","","","","","feedback_test",""
"","","","","","psychophysics","281","1157071","0.0-14.2-0.2-0.69","929","","f","","","","","","","","","","","","","key","f","16.66769298245689","768","428","k","false","img/C_28.png","朋友","prac_self","","朋友"
"","","","","","html-keyboard-response","282","1157380","0.0-14.2-0.2-1.69","null","<span style='color:red; font-size: 70px;'>错误! </span>","null","","","","","","","","","","","","","","","","","","","","","","","feedback_test",""
"","","","","","psychophysics","283","1159893","0.0-14.2-0.2-0.70","null","","null","","","","","","","","","","","","","key","null","16.666539999999415","768","428","k","false","img/C_28.png","朋友","prac_self","","朋友"
"","","","","","html-keyboard-response","284","1160199","0.0-14.2-0.2-1.70","null","<span class='add_' style='color:yellow; font-size: 70px;'> 太慢! </span>","null","","","","","","","","","","","","","","","","","","","","","","","feedback_test",""
"","","","","","psychophysics","285","1162233","0.0-14.2-0.2-0.71","1031","","d","","","","","","","","","","","","","key","d","16.666611570249167","768","428","k","false","img/H_28.png","生人","prac_self","","生人"
"","","","","","html-keyboard-response","286","1162537","0.0-14.2-0.2-1.71","null","<span style='color:red; font-size: 70px;'>错误! </span>","null","","","","","","","","","","","","","","","","","","","","","","","feedback_test",""
"","","","","","html-keyboard-response","287","1165863","0.0-14.2-1.2-0.2","3324","<style>.context{color:white; font-size: 35px; line-height:40px}</style>                           <div><p class='context'>您正确回答了21% 的试次。</p><p class='context'>您的平均反应时为927毫秒。</p>"," ","","","","","","","","","","","","","","","","","","","","","","","",""
"","","","","","instructions","288","1187402","0.0-14.2-1.2-1.2","21535","","","","","","","","","","","","","","[{""page_index"":0,""viewing_time"":2206},{""page_index"":1,""viewing_time"":15426},{""page_index"":2,""viewing_time"":3903}]","","","","","","","","","","","",""
"","","","","","psychophysics","289","1189480","0.0-14.3-0.3-0.72","1073","","f","","","","","","","","","","","","","key","f","16.66686290322668","768","428","j","false","img/H_28.png","朋友","prac_self","","生人"
"","","","","","html-keyboard-response","290","1189790","0.0-14.3-0.3-1.72","null","<span style='color:red; font-size: 70px;'>错误! </span>","null","","","","","","","","","","","","","","","","","","","","","","","feedback_test",""
"","","","","","psychophysics","291","1191456","0.0-14.3-0.3-0.73","654","","j","","","","","","","","","","","","","key","j","16.669530612245506","768","428","k","false","img/C_28.png","朋友","prac_self","","朋友"
"","","","","","html-keyboard-response","292","1191762","0.0-14.3-0.3-1.73","null","<span style='color:red; font-size: 70px;'>错误! </span>","null","","","","","","","","","","","","","","","","","","","","","","","feedback_test",""
"","","","","","psychophysics","293","1193415","0.0-14.3-0.3-0.74","639","","k","","","","","","","","","","","","","key","k","16.666928571427945","768","428","j","false","img/C_28.png","生人","prac_self","","朋友"
"","","","","","html-keyboard-response","294","1193720","0.0-14.3-0.3-1.74","null","<span style='color:red; font-size: 70px;'>错误! </span>","null","","","","","","","","","","","","","","","","","","","","","","","feedback_test",""
"","","","","","psychophysics","295","1196227","0.0-14.3-0.3-0.75","null","","null","","","","","","","","","","","","","key","null","16.66671812080547","768","428","f","false","img/S_28.png","朋友","prac_self","","自我"
"","","","","","html-keyboard-response","296","1196533","0.0-14.3-0.3-1.75","null","<span class='add_' style='color:yellow; font-size: 70px;'> 太慢! </span>","null","","","","","","","","","","","","","","","","","","","","","","","feedback_test",""
"","","","","","psychophysics","297","1198151","0.0-14.3-0.3-0.76","613","","d","","","","","","","","","","","","","key","d","17.018074468085345","768","428","d","true","img/S_28.png","自我","prac_self","","自我"
"","","","","","html-keyboard-response","298","1198467","0.0-14.3-0.3-1.76","null","<span style='color:GreenYellow; font-size: 70px;'>正确! </span>","null","","","","","","","","","","","","","","","","","","","","","","","feedback_test",""
"","","","","","psychophysics","299","1200471","0.0-14.3-0.3-0.77","997","","d","","","","","","","","","","","","","key","d","16.667991596639954","768","428","k","false","img/C_28.png","朋友","prac_self","","朋友"
"","","","","","html-keyboard-response","300","1200783","0.0-14.3-0.3-1.77","null","<span style='color:red; font-size: 70px;'>错误! </span>","null","","","","","","","","","","","","","","","","","","","","","","","feedback_test",""
"","","","","","psychophysics","301","1202627","0.0-14.3-0.3-0.78","827","","f","","","","","","","","","","","","","key","f","16.663477064221414","768","428","j","false","img/H_28.png","自我","prac_self","","生人"
"","","","","","html-keyboard-response","302","1202932","0.0-14.3-0.3-1.78","null","<span style='color:red; font-size: 70px;'>错误! </span>","null","","","","","","","","","","","","","","","","","","","","","","","feedback_test",""
"","","","","","psychophysics","303","1204288","0.0-14.3-0.3-0.79","353","","j","","","","","","","","","","","","","key","j","16.66653749999823","768","428","j","true","img/C_28.png","自我","prac_self","","朋友"
"","","","","","html-keyboard-response","304","1204602","0.0-14.3-0.3-1.79","null","<span style='color:GreenYellow; font-size: 70px;'>正确! </span>","null","","","","","","","","","","","","","","","","","","","","","","","feedback_test",""
"","","","","","psychophysics","305","1207112","0.0-14.3-0.3-0.80","null","","null","","","","","","","","","","","","","key","null","16.66813333333315","768","428","k","false","img/H_28.png","生人","prac_self","","生人"
"","","","","","html-keyboard-response","306","1207418","0.0-14.3-0.3-1.80","null","<span class='add_' style='color:yellow; font-size: 70px;'> 太慢! </span>","null","","","","","","","","","","","","","","","","","","","","","","","feedback_test",""
"","","","","","psychophysics","307","1208868","0.0-14.3-0.3-0.81","444","","d","","","","","","","","","","","","","key","d","16.66843023255933","768","428","k","false","img/H_28.png","生人","prac_self","","生人"
"","","","","","html-keyboard-response","308","1209172","0.0-14.3-0.3-1.81","null","<span style='color:red; font-size: 70px;'>错误! </span>","null","","","","","","","","","","","","","","","","","","","","","","","feedback_test",""
"","","","","","psychophysics","309","1211010","0.0-14.3-0.3-0.82","823","","k","","","","","","","","","","","","","key","k","16.66720183486324","768","428","d","false","img/S_28.png","自我","prac_self","","自我"
"","","","","","html-keyboard-response","310","1211312","0.0-14.3-0.3-1.82","null","<span style='color:red; font-size: 70px;'>错误! </span>","null","","","","","","","","","","","","","","","","","","","","","","","feedback_test",""
"","","","","","psychophysics","311","1213109","0.0-14.3-0.3-0.83","789","","j","","","","","","","","","","","","","key","j","16.66678301886796","768","428","f","false","img/S_28.png","生人","prac_self","","自我"
"","","","","","html-keyboard-response","312","1213422","0.0-14.3-0.3-1.83","null","<span style='color:red; font-size: 70px;'>错误! </span>","null","","","","","","","","","","","","","","","","","","","","","","","feedback_test",""
"","","","","","psychophysics","313","1215593","0.0-14.3-0.3-0.84","1170","","f","","","","","","","","","","","","","key","f","16.79507142856961","768","428","j","false","img/H_28.png","朋友","prac_self","","生人"
"","","","","","html-keyboard-response","314","1215913","0.0-14.3-0.3-1.84","null","<span style='color:red; font-size: 70px;'>错误! </span>","null","","","","","","","","","","","","","","","","","","","","","","","feedback_test",""
"","","","","","psychophysics","315","1217654","0.0-14.3-0.3-0.85","740","","j","","","","","","","","","","","","","key","j","16.668504854370344","768","428","j","true","img/H_28.png","自我","prac_self","","生人"
"","","","","","html-keyboard-response","316","1217959","0.0-14.3-0.3-1.85","null","<span style='color:GreenYellow; font-size: 70px;'>正确! </span>","null","","","","","","","","","","","","","","","","","","","","","","","feedback_test",""
"","","","","","psychophysics","317","1219553","0.0-14.3-0.3-0.86","574","","k","","","","","","","","","","","","","key","k","16.67562765957282","768","428","k","true","img/H_28.png","生人","prac_self","","生人"
"","","","","","html-keyboard-response","318","1219869","0.0-14.3-0.3-1.86","null","<span style='color:GreenYellow; font-size: 70px;'>正确! </span>","null","","","","","","","","","","","","","","","","","","","","","","","feedback_test",""
"","","","","","psychophysics","319","1222181","0.0-14.3-0.3-0.87","1306","","k","","","","","","","","","","","","","key","k","16.66658394160701","768","428","k","true","img/C_28.png","朋友","prac_self","","朋友"
"","","","","","html-keyboard-response","320","1222500","0.0-14.3-0.3-1.87","null","<span style='color:GreenYellow; font-size: 70px;'>正确! </span>","null","","","","","","","","","","","","","","","","","","","","","","","feedback_test",""
"","","","","","psychophysics","321","1224754","0.0-14.3-0.3-0.88","1250","","f","","","","","","","","","","","","","key","f","16.666753731343075","768","428","j","false","img/C_28.png","生人","prac_self","","朋友"
"","","","","","html-keyboard-response","322","1225061","0.0-14.3-0.3-1.88","null","<span style='color:red; font-size: 70px;'>错误! </span>","null","","","","","","","","","","","","","","","","","","","","","","","feedback_test",""
"","","","","","psychophysics","323","1227220","0.0-14.3-0.3-0.89","1156","","k","","","","","","","","","","","","","key","k","16.66698437500054","768","428","k","true","img/H_28.png","生人","prac_self","","生人"
"","","","","","html-keyboard-response","324","1227523","0.0-14.3-0.3-1.89","null","<span style='color:GreenYellow; font-size: 70px;'>正确! </span>","null","","","","","","","","","","","","","","","","","","","","","","","feedback_test",""
"","","","","","psychophysics","325","1229630","0.0-14.3-0.3-0.90","1104","","k","","","","","","","","","","","","","key","k","16.666623999999835","768","428","d","false","img/S_28.png","自我","prac_self","","自我"
"","","","","","html-keyboard-response","326","1229935","0.0-14.3-0.3-1.90","null","<span style='color:red; font-size: 70px;'>错误! </span>","null","","","","","","","","","","","","","","","","","","","","","","","feedback_test",""
"","","","","","psychophysics","327","1232066","0.0-14.3-0.3-0.91","1128","","j","","","","","","","","","","","","","key","j","17.35358196721206","768","428","j","true","img/C_28.png","自我","prac_self","","朋友"
"","","","","","html-keyboard-response","328","1232371","0.0-14.3-0.3-1.91","null","<span style='color:GreenYellow; font-size: 70px;'>正确! </span>","null","","","","","","","","","","","","","","","","","","","","","","","feedback_test",""
"","","","","","psychophysics","329","1234272","0.0-14.3-0.3-0.92","895","","k","","","","","","","","","","","","","key","k","16.667309734514973","768","428","k","true","img/C_28.png","朋友","prac_self","","朋友"
"","","","","","html-keyboard-response","330","1234580","0.0-14.3-0.3-1.92","null","<span style='color:GreenYellow; font-size: 70px;'>正确! </span>","null","","","","","","","","","","","","","","","","","","","","","","","feedback_test",""
"","","","","","psychophysics","331","1237085","0.0-14.3-0.3-0.93","null","","null","","","","","","","","","","","","","key","null","16.77829054054156","768","428","f","false","img/S_28.png","生人","prac_self","","自我"
"","","","","","html-keyboard-response","332","1237401","0.0-14.3-0.3-1.93","null","<span class='add_' style='color:yellow; font-size: 70px;'> 太慢! </span>","null","","","","","","","","","","","","","","","","","","","","","","","feedback_test",""
"","","","","","psychophysics","333","1239262","0.0-14.3-0.3-0.94","852","","j","","","","","","","","","","","","","key","j","16.667927272725766","768","428","f","false","img/S_28.png","朋友","prac_self","","自我"
"","","","","","html-keyboard-response","334","1239575","0.0-14.3-0.3-1.94","null","<span style='color:red; font-size: 70px;'>错误! </span>","null","","","","","","","","","","","","","","","","","","","","","","","feedback_test",""
"","","","","","psychophysics","335","1241476","0.0-14.3-0.3-0.95","894","","k","","","","","","","","","","","","","key","k","16.81808108108135","768","428","d","false","img/S_28.png","自我","prac_self","","自我"
"","","","","","html-keyboard-response","336","1241783","0.0-14.3-0.3-1.95","null","<span style='color:red; font-size: 70px;'>错误! </span>","null","","","","","","","","","","","","","","","","","","","","","","","feedback_test",""
"","","","","","html-keyboard-response","337","1244315","0.0-14.3-1.3-0.3","2529","<style>.context{color:white; font-size: 35px; line-height:40px}</style>                           <div><p class='context'>您正确回答了33% 的试次。</p><p class='context'>您的平均反应时为846毫秒。</p>"," ","","","","","","","","","","","","","","","","","","","","","","","",""
"","","","","","instructions","338","1297111","0.0-14.3-1.3-1.3","52793","","","","","","","","","","","","","","[{""page_index"":0,""viewing_time"":2868},{""page_index"":1,""viewing_time"":46797},{""page_index"":2,""viewing_time"":3128}]","","","","","","","","","","","",""
"","","","","","psychophysics","339","1299522","0.0-14.4-0.4-0.96","1408","","f","","","","","","","","","","","","","key","f","16.78567605633715","768","428","k","false","img/H_28.png","生人","prac_self","","生人"
"","","","","","html-keyboard-response","340","1299834","0.0-14.4-0.4-1.96","null","<span style='color:red; font-size: 70px;'>错误! </span>","null","","","","","","","","","","","","","","","","","","","","","","","feedback_test",""
"","","","","","psychophysics","341","1302341","0.0-14.4-0.4-0.97","null","","null","","","","","","","","","","","","","key","null","16.666342281880194","768","428","k","false","img/C_28.png","朋友","prac_self","","朋友"
"","","","","","html-keyboard-response","342","1302648","0.0-14.4-0.4-1.97","null","<span class='add_' style='color:yellow; font-size: 70px;'> 太慢! </span>","null","","","","","","","","","","","","","","","","","","","","","","","feedback_test",""
"","","","","","psychophysics","343","1305102","0.0-14.4-0.4-0.98","1442","","f","","","","","","","","","","","","","key","f","16.666780821918447","768","428","j","false","img/C_28.png","自我","prac_self","","朋友"
"","","","","","html-keyboard-response","344","1305406","0.0-14.4-0.4-1.98","null","<span style='color:red; font-size: 70px;'>错误! </span>","null","","","","","","","","","","","","","","","","","","","","","","","feedback_test",""
"","","","","","psychophysics","345","1307765","0.0-14.4-0.4-0.99","1354","","j","","","","","","","","","","","","","key","j","16.779755395683026","768","428","f","false","img/S_28.png","生人","prac_self","","自我"
"","","","","","html-keyboard-response","346","1308085","0.0-14.4-0.4-1.99","null","<span style='color:red; font-size: 70px;'>错误! </span>","null","","","","","","","","","","","","","","","","","","","","","","","feedback_test",""
"","","","","","psychophysics","347","1310426","0.0-14.4-0.4-0.100","1336","","k","","","","","","","","","","","","","key","k","16.66651798561115","768","428","j","false","img/H_28.png","朋友","prac_self","","生人"
"","","","","","html-keyboard-response","348","1310743","0.0-14.4-0.4-1.100","null","<span style='color:red; font-size: 70px;'>错误! </span>","null","","","","","","","","","","","","","","","","","","","","","","","feedback_test",""
"","","","","","psychophysics","349","1313070","0.0-14.4-0.4-0.101","1323","","j","","","","","","","","","","","","","key","j","16.668086956521712","768","428","j","true","img/H_28.png","自我","prac_self","","生人"
"","","","","","html-keyboard-response","350","1313386","0.0-14.4-0.4-1.101","null","<span style='color:GreenYellow; font-size: 70px;'>正确! </span>","null","","","","","","","","","","","","","","","","","","","","","","","feedback_test",""
"","","","","","psychophysics","351","1315887","0.0-14.4-0.4-0.102","1489","","d","","","","","","","","","","","","","key","d","16.66783892617392","768","428","d","true","img/S_28.png","自我","prac_self","","自我"
"","","","","","html-keyboard-response","352","1316200","0.0-14.4-0.4-1.102","null","<span style='color:GreenYellow; font-size: 70px;'>正确! </span>","null","","","","","","","","","","","","","","","","","","","","","","","feedback_test",""
"","","","","","psychophysics","353","1318047","0.0-14.4-0.4-0.103","837","","d","","","","","","","","","","","","","key","d","16.66450458715687","768","428","d","true","img/S_28.png","自我","prac_self","","自我"
"","","","","","html-keyboard-response","354","1318357","0.0-14.4-0.4-1.103","null","<span style='color:GreenYellow; font-size: 70px;'>正确! </span>","null","","","","","","","","","","","","","","","","","","","","","","","feedback_test",""
"","","","","","psychophysics","355","1320276","0.0-14.4-0.4-0.104","916","","f","","","","","","","","","","","","","key","f","16.667141592919215","768","428","k","false","img/H_28.png","生人","prac_self","","生人"
"","","","","","html-keyboard-response","356","1320591","0.0-14.4-0.4-1.104","null","<span style='color:red; font-size: 70px;'>错误! </span>","null","","","","","","","","","","","","","","","","","","","","","","","feedback_test",""
"","","","","","psychophysics","357","1322834","0.0-14.4-0.4-0.105","1239","","k","","","","","","","","","","","","","key","k","17.051415384614554","768","428","k","true","img/C_28.png","朋友","prac_self","","朋友"
"","","","","","html-keyboard-response","358","1323143","0.0-14.4-0.4-1.105","null","<span style='color:GreenYellow; font-size: 70px;'>正确! </span>","null","","","","","","","","","","","","","","","","","","","","","","","feedback_test",""
"","","","","","psychophysics","359","1325321","0.0-14.4-0.4-0.106","1170","","j","","","","","","","","","","","","","key","j","16.66845736434221","768","428","f","false","img/S_28.png","朋友","prac_self","","自我"
"","","","","","html-keyboard-response","360","1325630","0.0-14.4-0.4-1.106","null","<span style='color:red; font-size: 70px;'>错误! </span>","null","","","","","","","","","","","","","","","","","","","","","","","feedback_test",""
"","","","","","psychophysics","361","1328143","0.0-14.4-0.4-0.107","null","","null","","","","","","","","","","","","","key","null","16.665459999999342","768","428","j","false","img/C_28.png","生人","prac_self","","朋友"
"","","","","","html-keyboard-response","362","1328445","0.0-14.4-0.4-1.107","null","<span class='add_' style='color:yellow; font-size: 70px;'> 太慢! </span>","null","","","","","","","","","","","","","","","","","","","","","","","feedback_test",""
"","","","","","psychophysics","363","1330286","0.0-14.4-0.4-0.108","839","","d","","","","","","","","","","","","","key","d","16.666944954127775","768","428","d","true","img/S_28.png","自我","prac_self","","自我"
"","","","","","html-keyboard-response","364","1330600","0.0-14.4-0.4-1.108","null","<span style='color:GreenYellow; font-size: 70px;'>正确! </span>","null","","","","","","","","","","","","","","","","","","","","","","","feedback_test",""
"","","","","","psychophysics","365","1332956","0.0-14.4-0.4-0.109","1346","","j","","","","","","","","","","","","","key","j","16.66686428571286","768","428","k","false","img/H_28.png","生人","prac_self","","生人"
"","","","","","html-keyboard-response","366","1333265","0.0-14.4-0.4-1.109","null","<span style='color:red; font-size: 70px;'>错误! </span>","null","","","","","","","","","","","","","","","","","","","","","","","feedback_test",""
"","","","","","psychophysics","367","1335589","0.0-14.4-0.4-0.110","1318","","j","","","","","","","","","","","","","key","j","16.669028985508096","768","428","f","false","img/S_28.png","朋友","prac_self","","自我"
"","","","","","html-keyboard-response","368","1335912","0.0-14.4-0.4-1.110","null","<span style='color:red; font-size: 70px;'>错误! </span>","null","","","","","","","","","","","","","","","","","","","","","","","feedback_test",""
"","","","","","psychophysics","369","1338427","0.0-14.4-0.4-0.111","null","","null","","","","","","","","","","","","","key","null","16.66674666666581","768","428","k","false","img/C_28.png","朋友","prac_self","","朋友"
"","","","","","html-keyboard-response","370","1338735","0.0-14.4-0.4-1.111","null","<span class='add_' style='color:yellow; font-size: 70px;'> 太慢! </span>","null","","","","","","","","","","","","","","","","","","","","","","","feedback_test",""
"","","","","","psychophysics","371","1340756","0.0-14.4-0.4-0.112","1018","","d","","","","","","","","","","","","","key","d","16.666800000000514","768","428","j","false","img/H_28.png","自我","prac_self","","生人"
"","","","","","html-keyboard-response","372","1341068","0.0-14.4-0.4-1.112","null","<span style='color:red; font-size: 70px;'>错误! </span>","null","","","","","","","","","","","","","","","","","","","","","","","feedback_test",""
"","","","","","psychophysics","373","1343520","0.0-14.4-0.4-0.113","1450","","j","","","","","","","","","","","","","key","j","16.66755479452047","768","428","j","true","img/C_28.png","自我","prac_self","","朋友"
"","","","","","html-keyboard-response","374","1343829","0.0-14.4-0.4-1.113","null","<span style='color:GreenYellow; font-size: 70px;'>正确! </span>","null","","","","","","","","","","","","","","","","","","","","","","","feedback_test",""
"","","","","","psychophysics","375","1345749","0.0-14.4-0.4-0.114","913","","k","","","","","","","","","","","","","key","k","16.814265486724526","768","428","k","true","img/C_28.png","朋友","prac_self","","朋友"
"","","","","","html-keyboard-response","376","1346064","0.0-14.4-0.4-1.114","null","<span style='color:GreenYellow; font-size: 70px;'>正确! </span>","null","","","","","","","","","","","","","","","","","","","","","","","feedback_test",""
"","","","","","psychophysics","377","1348577","0.0-14.4-0.4-0.115","1503","","j","","","","","","","","","","","","","key","j","16.666885906039745","768","428","j","true","img/C_28.png","生人","prac_self","","朋友"
"","","","","","html-keyboard-response","378","1348896","0.0-14.4-0.4-1.115","null","<span class='add_' style='color:yellow; font-size: 70px;'> 太慢! </span>","null","","","","","","","","","","","","","","","","","","","","","","","feedback_test",""
"","","","","","psychophysics","379","1351264","0.0-14.4-0.4-0.116","1362","","j","","","","","","","","","","","","","key","j","17.15912500000045","768","428","d","false","img/S_28.png","自我","prac_self","","自我"
"","","","","","html-keyboard-response","380","1351569","0.0-14.4-0.4-1.116","null","<span style='color:red; font-size: 70px;'>错误! </span>","null","","","","","","","","","","","","","","","","","","","","","","","feedback_test",""
"","","","","","psychophysics","381","1353789","0.0-14.4-0.4-0.117","1204","","f","","","","","","","","","","","","","key","f","16.794723076923177","768","428","f","true","img/S_28.png","生人","prac_self","","自我"
"","","","","","html-keyboard-response","382","1354096","0.0-14.4-0.4-1.117","null","<span style='color:GreenYellow; font-size: 70px;'>正确! </span>","null","","","","","","","","","","","","","","","","","","","","","","","feedback_test",""
"","","","","","psychophysics","383","1356600","0.0-14.4-0.4-0.118","null","","null","","","","","","","","","","","","","key","null","16.89635374149637","768","428","j","false","img/H_28.png","朋友","prac_self","","生人"
"","","","","","html-keyboard-response","384","1356916","0.0-14.4-0.4-1.118","null","<span class='add_' style='color:yellow; font-size: 70px;'> 太慢! </span>","null","","","","","","","","","","","","","","","","","","","","","","","feedback_test",""
"","","","","","psychophysics","385","1359068","0.0-14.4-0.4-0.119","1137","","f","","","","","","","","","","","","","key","f","16.66810156250176","768","428","k","false","img/H_28.png","生人","prac_self","","生人"
"","","","","","html-keyboard-response","386","1359386","0.0-14.4-0.4-1.119","null","<span style='color:red; font-size: 70px;'>错误! </span>","null","","","","","","","","","","","","","","","","","","","","","","","feedback_test",""
"","","","","","html-keyboard-response","387","1363338","0.0-14.4-1.4-0.4","3945","<style>.context{color:white; font-size: 35px; line-height:40px}</style>                           <div><p class='context'>您正确回答了38% 的试次。</p><p class='context'>您的平均反应时为1200毫秒。</p>"," ","","","","","","","","","","","","","","","","","","","","","","","",""
"","","","","","instructions","388","1444985","0.0-14.4-1.4-1.4","81645","","","","","","","","","","","","","","[{""page_index"":0,""viewing_time"":1507},{""page_index"":1,""viewing_time"":74826},{""page_index"":2,""viewing_time"":5312}]","","","","","","","","","","","",""
"","","","","","psychophysics","389","1447454","0.0-14.5-0.5-0.120","1462","","j","","","","","","","","","","","","","key","j","16.668301369862515","768","428","k","false","img/C_28.png","朋友","prac_self","","朋友"
"","","","","","html-keyboard-response","390","1447772","0.0-14.5-0.5-1.120","null","<span style='color:red; font-size: 70px;'>错误! </span>","null","","","","","","","","","","","","","","","","","","","","","","","feedback_test",""
"","","","","","psychophysics","391","1450280","0.0-14.5-0.5-0.121","null","","null","","","","","","","","","","","","","key","null","16.784765100670704","768","428","d","false","img/S_28.png","自我","prac_self","","自我"
"","","","","","html-keyboard-response","392","1450588","0.0-14.5-0.5-1.121","null","<span class='add_' style='color:yellow; font-size: 70px;'> 太慢! </span>","null","","","","","","","","","","","","","","","","","","","","","","","feedback_test",""
"","","","","","psychophysics","393","1452319","0.0-14.5-0.5-0.122","729","","d","","","","","","","","","","","","","key","d","16.668077669902118","768","428","f","false","img/S_28.png","朋友","prac_self","","自我"
"","","","","","html-keyboard-response","394","1452627","0.0-14.5-0.5-1.122","null","<span style='color:red; font-size: 70px;'>错误! </span>","null","","","","","","","","","","","","","","","","","","","","","","","feedback_test",""
"","","","","","psychophysics","395","1455003","0.0-14.5-0.5-0.123","1361","","j","","","","","","","","","","","","","key","j","16.789678571428105","768","428","k","false","img/H_28.png","生人","prac_self","","生人"
"","","","","","html-keyboard-response","396","1455308","0.0-14.5-0.5-1.123","null","<span style='color:red; font-size: 70px;'>错误! </span>","null","","","","","","","","","","","","","","","","","","","","","","","feedback_test",""
"","","","","","psychophysics","397","1457801","0.0-14.5-0.5-0.124","1491","","j","","","","","","","","","","","","","key","j","16.78202054794393","768","428","j","true","img/C_28.png","生人","prac_self","","朋友"
"","","","","","html-keyboard-response","398","1458110","0.0-14.5-0.5-1.124","null","<span style='color:GreenYellow; font-size: 70px;'>正确! </span>","null","","","","","","","","","","","","","","","","","","","","","","","feedback_test",""
"","","","","","psychophysics","399","1460129","0.0-14.5-0.5-0.125","1018","","j","","","","","","","","","","","","","key","j","16.668310924370562","768","428","j","true","img/H_28.png","朋友","prac_self","","生人"
"","","","","","html-keyboard-response","400","1460439","0.0-14.5-0.5-1.125","null","<span style='color:GreenYellow; font-size: 70px;'>正确! </span>","null","","","","","","","","","","","","","","","","","","","","","","","feedback_test",""
"","","","","","psychophysics","401","1462504","0.0-14.5-0.5-0.126","1061","","d","","","","","","","","","","","","","key","d","16.6668211382102","768","428","d","true","img/S_28.png","自我","prac_self","","自我"
"","","","","","html-keyboard-response","402","1462818","0.0-14.5-0.5-1.126","null","<span style='color:GreenYellow; font-size: 70px;'>正确! </span>","null","","","","","","","","","","","","","","","","","","","","","","","feedback_test",""
"","","","","","psychophysics","403","1465256","0.0-14.5-0.5-0.127","1435","","f","","","","","","","","","","","","","key","f","16.668062068965156","768","428","j","false","img/H_28.png","自我","prac_self","","生人"
"","","","","","html-keyboard-response","404","1465570","0.0-14.5-0.5-1.127","null","<span style='color:red; font-size: 70px;'>错误! </span>","null","","","","","","","","","","","","","","","","","","","","","","","feedback_test",""
"","","","","","psychophysics","405","1467717","0.0-14.5-0.5-0.128","1117","","k","","","","","","","","","","","","","key","k","16.667124999999942","768","428","k","true","img/H_28.png","生人","prac_self","","生人"
"","","","","","html-keyboard-response","406","1468022","0.0-14.5-0.5-1.128","null","<span style='color:GreenYellow; font-size: 70px;'>正确! </span>","null","","","","","","","","","","","","","","","","","","","","","","","feedback_test",""
"","","","","","psychophysics","407","1470305","0.0-14.5-0.5-0.129","1277","","j","","","","","","","","","","","","","key","j","16.66686764705981","768","428","j","true","img/C_28.png","自我","prac_self","","朋友"
"","","","","","html-keyboard-response","408","1470621","0.0-14.5-0.5-1.129","null","<span style='color:GreenYellow; font-size: 70px;'>正确! </span>","null","","","","","","","","","","","","","","","","","","","","","","","feedback_test",""
"","","","","","psychophysics","409","1473013","0.0-14.5-0.5-0.130","1385","","f","","","","","","","","","","","","","key","f","17.023857142857743","768","428","f","true","img/S_28.png","生人","prac_self","","自我"
"","","","","","html-keyboard-response","410","1473323","0.0-14.5-0.5-1.130","null","<span style='color:GreenYellow; font-size: 70px;'>正确! </span>","null","","","","","","","","","","","","","","","","","","","","","","","feedback_test",""
"","","","","","psychophysics","411","1475337","0.0-14.5-0.5-0.131","1007","","k","","","","","","","","","","","","","key","k","16.658142857143986","768","428","k","true","img/C_28.png","朋友","prac_self","","朋友"
"","","","","","html-keyboard-response","412","1475640","0.0-14.5-0.5-1.131","null","<span style='color:GreenYellow; font-size: 70px;'>正确! </span>","null","","","","","","","","","","","","","","","","","","","","","","","feedback_test",""
"","","","","","psychophysics","413","1477454","0.0-14.5-0.5-0.132","804","","d","","","","","","","","","","","","","key","d","16.812518867925423","768","428","f","false","img/S_28.png","生人","prac_self","","自我"
"","","","","","html-keyboard-response","414","1477762","0.0-14.5-0.5-1.132","null","<span style='color:red; font-size: 70px;'>错误! </span>","null","","","","","","","","","","","","","","","","","","","","","","","feedback_test",""
"","","","","","psychophysics","415","1479732","0.0-14.5-0.5-0.133","945","","f","","","","","","","","","","","","","key","f","16.678871794870425","768","428","f","true","img/S_28.png","朋友","prac_self","","自我"
"","","","","","html-keyboard-response","416","1480051","0.0-14.5-0.5-1.133","null","<span style='color:GreenYellow; font-size: 70px;'>正确! </span>","null","","","","","","","","","","","","","","","","","","","","","","","feedback_test",""
"","","","","","psychophysics","417","1481966","0.0-14.5-0.5-0.134","907","","k","","","","","","","","","","","","","key","k","16.666684210527148","768","428","k","true","img/H_28.png","生人","prac_self","","生人"
"","","","","","html-keyboard-response","418","1482279","0.0-14.5-0.5-1.134","null","<span style='color:GreenYellow; font-size: 70px;'>正确! </span>","null","","","","","","","","","","","","","","","","","","","","","","","feedback_test",""
"","","","","","psychophysics","419","1484240","0.0-14.5-0.5-0.135","948","","k","","","","","","","","","","","","","key","k","16.667077586207345","768","428","k","true","img/H_28.png","生人","prac_self","","生人"
"","","","","","html-keyboard-response","420","1484546","0.0-14.5-0.5-1.135","null","<span style='color:GreenYellow; font-size: 70px;'>正确! </span>","null","","","","","","","","","","","","","","","","","","","","","","","feedback_test",""
"","","","","","psychophysics","421","1486368","0.0-14.5-0.5-0.136","816","","d","","","","","","","","","","","","","key","d","16.822672897196924","768","428","d","true","img/S_28.png","自我","prac_self","","自我"
"","","","","","html-keyboard-response","422","1486685","0.0-14.5-0.5-1.136","null","<span style='color:GreenYellow; font-size: 70px;'>正确! </span>","null","","","","","","","","","","","","","","","","","","","","","","","feedback_test",""
"","","","","","psychophysics","423","1488957","0.0-14.5-0.5-0.137","1267","","j","","","","","","","","","","","","","key","j","16.66703703703566","768","428","j","true","img/C_28.png","生人","prac_self","","朋友"
"","","","","","html-keyboard-response","424","1489265","0.0-14.5-0.5-1.137","null","<span style='color:GreenYellow; font-size: 70px;'>正确! </span>","null","","","","","","","","","","","","","","","","","","","","","","","feedback_test",""
"","","","","","psychophysics","425","1491316","0.0-14.5-0.5-0.138","1037","","j","","","","","","","","","","","","","key","j","16.669295081966098","768","428","j","true","img/H_28.png","自我","prac_self","","生人"
"","","","","","html-keyboard-response","426","1491624","0.0-14.5-0.5-1.138","null","<span style='color:GreenYellow; font-size: 70px;'>正确! </span>","null","","","","","","","","","","","","","","","","","","","","","","","feedback_test",""
"","","","","","psychophysics","427","1493586","0.0-14.5-0.5-0.139","957","","k","","","","","","","","","","","","","key","k","16.667086206896407","768","428","k","true","img/C_28.png","朋友","prac_self","","朋友"
"","","","","","html-keyboard-response","428","1493906","0.0-14.5-0.5-1.139","null","<span style='color:GreenYellow; font-size: 70px;'>正确! </span>","null","","","","","","","","","","","","","","","","","","","","","","","feedback_test",""
"","","","","","psychophysics","429","1495848","0.0-14.5-0.5-0.140","929","","k","","","","","","","","","","","","","key","k","16.66799137931004","768","428","k","true","img/C_28.png","朋友","prac_self","","朋友"
"","","","","","html-keyboard-response","430","1496168","0.0-14.5-0.5-1.140","null","<span style='color:GreenYellow; font-size: 70px;'>正确! </span>","null","","","","","","","","","","","","","","","","","","","","","","","feedback_test",""
"","","","","","psychophysics","431","1498268","0.0-14.5-0.5-0.141","1089","","j","","","","","","","","","","","","","key","j","16.667677419355904","768","428","j","true","img/H_28.png","朋友","prac_self","","生人"
