"success","timeout","failed_images","failed_audio","failed_video","trial_type","trial_index","time_elapsed","internal_node_id","rt","stimulus","response","value","item_width_mm","item_height_mm","item_width_px","px2mm","view_dist_mm","item_width_deg","px2deg","scale_factor","win_width_deg","win_height_deg","view_history","response_type","key_press","avg_frame_time","center_x","center_y","correct_response","correct","Image","text","condition","screen_id","label"
"true","false","[]","[]","[]","preload","0","1","0.0-0.0","","","","","","","","","","","","","","","","","","","","","","","","","","",""
"","","","","","html-keyboard-response","1","2055","0.0-1.0","2053","
  <p>您好，欢迎参加本次实验。</p>
  <p>为充分保障您的权利，请确保您已经知晓并同意《参与实验同意书》以及《数据公开知情同意书》。</p>
  <p>如果您未见过上述内容，请咨询实验员。</p>
  <p>如果您选择继续实验，则表示您已经清楚两份知情同意书的内容并同意。</p>
  <p> <div style = ""color: green""><按任意键至下页></div> </p>
  "," ","","","","","","","","","","","","","","","","","","","","","","","",""
"","","","","","html-keyboard-response","2","2654","0.0-2.0","599","
  <p>本实验首先需要您填写一些基本个人信息。</p>
  <p> <div style = ""color: green""><按任意键至下页></div></p>
  "," ","","","","","","","","","","","","","","","","","","","","","","","",""
"","","","","","call-function","3","2654","0.0-3.0-0.0","","","","","","","","","","","","","","","","","","","","","","","","","","",""
"","","","","","survey-html-form","4","6062","0.0-3.0-1.0","3407","","{""Q0"":""44""}","","","","","","","","","","","","","","","","","","","","","","","",""
"","","","","","html-button-response","5","6895","0.0-3.0-2.0","832","<p style = 'color : white'>您的性别</p>","0","","","","","","","","","","","","","","","","","","","","","","","",""
"","","","","","survey-html-form","6","9977","0.0-3.0-3.0","3081","","{""Q0"":""2000""}","","","","","","","","","","","","","","","","","","","","","","","",""
"","","","","","survey-html-form","7","11704","0.0-3.0-4.0","1727","","{""Q0"":""5""}","","","","","","","","","","","","","","","","","","","","","","","",""
"","","","","","virtual-chinrest","8","167858","0.0-4.0","156153","","","","85.6","53.98","392.4885992982618","4.589757390700986","623.82","7.849771985965236","50","0.9325111625009712","30.72","14.78","","","","","","","","","","","","",""
"true","","","","","fullscreen","9","171457","0.0-5.0","","","","","","","","","","","","","","","","","","","","","","","","","","",""
"","","","","","instructions","10","256079","0.0-6.0","84621","","","","","","","","","","","","","","[{""page_index"":0,""viewing_time"":6867},{""page_index"":1,""viewing_time"":6802},{""page_index"":2,""viewing_time"":61315},{""page_index"":3,""viewing_time"":6259},{""page_index"":4,""viewing_time"":3376}]","","","","","","","","","","","",""
"","","","","","instructions","11","272419","0.0-7.0","16339","","","","","","","","","","","","","","[{""page_index"":0,""viewing_time"":16339}]","","","","","","","","","","","",""
"","","","","","psychophysics","12","275704","0.0-8.0-0.0-0.0","2283","","d","","","","","","","","","","","","","key","d","16.66859183673496","768","428","k","false","img/H_28.png","生人","freeprac_self","",""
"","","","","","html-keyboard-response","13","276005","0.0-8.0-0.0-1.0","null","<span style='color:red; font-size: 70px;'>错误! </span>","null","","","","","","","","","","","","","","","","","","","","","","","feedback_test",""
"","","","","","psychophysics","14","279579","0.0-8.0-0.0-0.1","2573","","k","","","","","","","","","","","","","key","k","16.66842990654203","768","428","j","false","img/H_28.png","朋友","freeprac_self","",""
"","","","","","html-keyboard-response","15","279881","0.0-8.0-0.0-1.1","null","<span style='color:red; font-size: 70px;'>错误! </span>","null","","","","","","","","","","","","","","","","","","","","","","","feedback_test",""
"","","","","","psychophysics","16","283186","0.0-8.0-0.0-0.2","2304","","f","","","","","","","","","","","","","key","f","16.66794416243636","768","428","f","true","img/S_28.png","生人","freeprac_self","",""
"","","","","","html-keyboard-response","17","283489","0.0-8.0-0.0-1.2","null","<span style='color:GreenYellow; font-size: 70px;'>正确! </span>","null","","","","","","","","","","","","","","","","","","","","","","","feedback_test",""
"","","","","","psychophysics","18","285556","0.0-8.0-0.0-0.3","1066","","d","","","","","","","","","","","","","key","d","16.66920325203233","768","428","d","true","img/S_28.png","自我","freeprac_self","",""
"","","","","","html-keyboard-response","19","285858","0.0-8.0-0.0-1.3","null","<span style='color:GreenYellow; font-size: 70px;'>正确! </span>","null","","","","","","","","","","","","","","","","","","","","","","","feedback_test",""
"","","","","","psychophysics","20","288084","0.0-8.0-0.0-0.4","1224","","f","","","","","","","","","","","","","key","f","16.668765151515167","768","428","j","false","img/H_28.png","自我","freeprac_self","",""
"","","","","","html-keyboard-response","21","288386","0.0-8.0-0.0-1.4","null","<span style='color:red; font-size: 70px;'>错误! </span>","null","","","","","","","","","","","","","","","","","","","","","","","feedback_test",""
"","","","","","psychophysics","22","291841","0.0-8.0-0.0-0.5","2455","","f","","","","","","","","","","","","","key","f","16.66824271844658","768","428","j","false","img/C_28.png","自我","freeprac_self","",""
"","","","","","html-keyboard-response","23","292143","0.0-8.0-0.0-1.5","null","<span style='color:red; font-size: 70px;'>错误! </span>","null","","","","","","","","","","","","","","","","","","","","","","","feedback_test",""
"","","","","","psychophysics","24","295435","0.0-8.0-0.0-0.6","2290","","k","","","","","","","","","","","","","key","k","16.66847448979596","768","428","j","false","img/C_28.png","生人","freeprac_self","",""
"","","","","","html-keyboard-response","25","295737","0.0-8.0-0.0-1.6","null","<span style='color:red; font-size: 70px;'>错误! </span>","null","","","","","","","","","","","","","","","","","","","","","","","feedback_test",""
"","","","","","psychophysics","26","299649","0.0-8.0-0.0-0.7","2911","","k","","","","","","","","","","","","","key","k","16.668307692307778","768","428","k","true","img/C_28.png","朋友","freeprac_self","",""
"","","","","","html-keyboard-response","27","299950","0.0-8.0-0.0-1.7","null","<span style='color:GreenYellow; font-size: 70px;'>正确! </span>","null","","","","","","","","","","","","","","","","","","","","","","","feedback_test",""
"","","","","","psychophysics","28","304096","0.0-8.0-0.0-0.8","3146","","d","","","","","","","","","","","","","key","d","16.668326612903208","768","428","k","false","img/H_28.png","生人","freeprac_self","",""
"","","","","","html-keyboard-response","29","304399","0.0-8.0-0.0-1.8","null","<span style='color:red; font-size: 70px;'>错误! </span>","null","","","","","","","","","","","","","","","","","","","","","","","feedback_test",""
"","","","","","psychophysics","30","306587","0.0-8.0-0.0-0.9","1187","","k","","","","","","","","","","","","","key","k","16.668823076922965","768","428","f","false","img/S_28.png","朋友","freeprac_self","",""
"","","","","","html-keyboard-response","31","306887","0.0-8.0-0.0-1.9","null","<span style='color:red; font-size: 70px;'>错误! </span>","null","","","","","","","","","","","","","","","","","","","","","","","feedback_test",""
"","","","","","psychophysics","32","309467","0.0-8.0-0.0-0.10","1578","","d","","","","","","","","","","","","","key","d","16.668266233766236","768","428","d","true","img/S_28.png","自我","freeprac_self","",""
"","","","","","html-keyboard-response","33","309769","0.0-8.0-0.0-1.10","null","<span style='color:GreenYellow; font-size: 70px;'>正确! </span>","null","","","","","","","","","","","","","","","","","","","","","","","feedback_test",""
"","","","","","psychophysics","34","312046","0.0-8.0-0.0-0.11","1275","","f","","","","","","","","","","","","","key","f","16.668345588235432","768","428","k","false","img/C_28.png","朋友","freeprac_self","",""
"","","","","","html-keyboard-response","35","312348","0.0-8.0-0.0-1.11","null","<span style='color:red; font-size: 70px;'>错误! </span>","null","","","","","","","","","","","","","","","","","","","","","","","feedback_test",""
"","","","","","html-keyboard-response","36","324534","0.0-8.0-1.0-0.0","12183","<style>.context{color:white; font-size: 35px; line-height:40px}</style>                           <div><p class='context'>您正确回答了33% 的试次。</p><p class='context'>您的平均反应时为1965毫秒。</p>"," ","","","","","","","","","","","","","","","","","","","","","","","",""
"","","","","","instructions","37","363527","0.0-8.0-1.0-1.0","38991","","","","","","","","","","","","","","[{""page_index"":0,""viewing_time"":4380},{""page_index"":1,""viewing_time"":32717},{""page_index"":2,""viewing_time"":1894}]","","","","","","","","","","","",""
"","","","","","psychophysics","38","365845","0.0-8.1-0.1-0.12","1316","","d","","","","","","","","","","","","","key","d","16.66862318840593","768","428","k","false","img/C_28.png","朋友","freeprac_self","",""
"","","","","","html-keyboard-response","39","366147","0.0-8.1-0.1-1.12","null","<span style='color:red; font-size: 70px;'>错误! </span>","null","","","","","","","","","","","","","","","","","","","","","","","feedback_test",""
"","","","","","psychophysics","40","369400","0.0-8.1-0.1-0.13","2250","","k","","","","","","","","","","","","","key","k","16.669201030927894","768","428","j","false","img/C_28.png","自我","freeprac_self","",""
"","","","","","html-keyboard-response","41","369701","0.0-8.1-0.1-1.13","null","<span style='color:red; font-size: 70px;'>错误! </span>","null","","","","","","","","","","","","","","","","","","","","","","","feedback_test",""
"","","","","","psychophysics","42","372594","0.0-8.1-0.1-0.14","1892","","f","","","","","","","","","","","","","key","f","16.668360465116187","768","428","f","true","img/S_28.png","朋友","freeprac_self","",""
"","","","","","html-keyboard-response","43","372896","0.0-8.1-0.1-1.14","null","<span style='color:GreenYellow; font-size: 70px;'>正确! </span>","null","","","","","","","","","","","","","","","","","","","","","","","feedback_test",""
"","","","","","psychophysics","44","376832","0.0-8.1-0.1-0.15","2934","","f","","","","","","","","","","","","","key","f","16.6683361702128","768","428","k","false","img/H_28.png","生人","freeprac_self","",""
"","","","","","html-keyboard-response","45","377133","0.0-8.1-0.1-1.15","null","<span style='color:red; font-size: 70px;'>错误! </span>","null","","","","","","","","","","","","","","","","","","","","","","","feedback_test",""
"","","","","","psychophysics","46","379486","0.0-8.1-0.1-0.16","1353","","k","","","","","","","","","","","","","key","k","16.663171428571307","768","428","j","false","img/H_28.png","朋友","freeprac_self","",""
"","","","","","html-keyboard-response","47","379788","0.0-8.1-0.1-1.16","null","<span style='color:red; font-size: 70px;'>错误! </span>","null","","","","","","","","","","","","","","","","","","","","","","","feedback_test",""
"","","","","","psychophysics","48","382344","0.0-8.1-0.1-0.17","1555","","f","","","","","","","","","","","","","key","f","16.668427631579107","768","428","d","false","img/S_28.png","自我","freeprac_self","",""
"","","","","","html-keyboard-response","49","382645","0.0-8.1-0.1-1.17","null","<span style='color:red; font-size: 70px;'>错误! </span>","null","","","","","","","","","","","","","","","","","","","","","","","feedback_test",""
"","","","","","psychophysics","50","385936","0.0-8.1-0.1-0.18","2290","","k","","","","","","","","","","","","","key","k","16.668710659898352","768","428","j","false","img/C_28.png","生人","freeprac_self","",""
"","","","","","html-keyboard-response","51","386237","0.0-8.1-0.1-1.18","null","<span style='color:red; font-size: 70px;'>错误! </span>","null","","","","","","","","","","","","","","","","","","","","","","","feedback_test",""
"","","","","","psychophysics","52","388936","0.0-8.1-0.1-0.19","1697","","d","","","","","","","","","","","","","key","d","16.667956521739296","768","428","d","true","img/S_28.png","自我","freeprac_self","",""
"","","","","","html-keyboard-response","53","389237","0.0-8.1-0.1-1.19","null","<span style='color:GreenYellow; font-size: 70px;'>正确! </span>","null","","","","","","","","","","","","","","","","","","","","","","","feedback_test",""
"","","","","","psychophysics","54","391884","0.0-8.1-0.1-0.20","1646","","j","","","","","","","","","","","","","key","j","16.668242038216867","768","428","k","false","img/C_28.png","朋友","freeprac_self","",""
"","","","","","html-keyboard-response","55","392185","0.0-8.1-0.1-1.20","null","<span style='color:red; font-size: 70px;'>错误! </span>","null","","","","","","","","","","","","","","","","","","","","","","","feedback_test",""
"","","","","","psychophysics","56","395402","0.0-8.1-0.1-0.21","2216","","j","","","","","","","","","","","","","key","j","16.668534031413625","768","428","f","false","img/S_28.png","生人","freeprac_self","",""
"","","","","","html-keyboard-response","57","395703","0.0-8.1-0.1-1.21","null","<span style='color:red; font-size: 70px;'>错误! </span>","null","","","","","","","","","","","","","","","","","","","","","","","feedback_test",""
"","","","","","psychophysics","58","398604","0.0-8.1-0.1-0.22","1901","","f","","","","","","","","","","","","","key","f","16.668473988439352","768","428","j","false","img/H_28.png","自我","freeprac_self","",""
"","","","","","html-keyboard-response","59","398907","0.0-8.1-0.1-1.22","null","<span style='color:red; font-size: 70px;'>错误! </span>","null","","","","","","","","","","","","","","","","","","","","","","","feedback_test",""
"","","","","","psychophysics","60","402017","0.0-8.1-0.1-0.23","2108","","j","","","","","","","","","","","","","key","j","16.668983783784032","768","428","k","false","img/H_28.png","生人","freeprac_self","",""
"","","","","","html-keyboard-response","61","402318","0.0-8.1-0.1-1.23","null","<span style='color:red; font-size: 70px;'>错误! </span>","null","","","","","","","","","","","","","","","","","","","","","","","feedback_test",""
"","","","","","html-keyboard-response","62","412486","0.0-8.1-1.1-0.1","10168","<style>.context{color:white; font-size: 35px; line-height:40px}</style>                           <div><p class='context'>您正确回答了17% 的试次。</p><p class='context'>您的平均反应时为1795毫秒。</p>"," ","","","","","","","","","","","","","","","","","","","","","","","",""
"","","","","","instructions","63","478517","0.0-8.1-1.1-1.1","66029","","","","","","","","","","","","","","[{""page_index"":0,""viewing_time"":1187},{""page_index"":1,""viewing_time"":63805},{""page_index"":2,""viewing_time"":1036}]","","","","","","","","","","","",""
"","","","","","psychophysics","64","481945","0.0-8.2-0.2-0.24","2426","","d","","","","","","","","","","","","","key","d","16.668700980392053","768","428","d","true","img/S_28.png","自我","freeprac_self","",""
"","","","","","html-keyboard-response","65","482247","0.0-8.2-0.2-1.24","null","<span style='color:GreenYellow; font-size: 70px;'>正确! </span>","null","","","","","","","","","","","","","","","","","","","","","","","feedback_test",""
"","","","","","psychophysics","66","485582","0.0-8.2-0.2-0.25","2335","","k","","","","","","","","","","","","","key","k","16.668095477386938","768","428","k","true","img/C_28.png","朋友","freeprac_self","",""
"","","","","","html-keyboard-response","67","485884","0.0-8.2-0.2-1.25","null","<span style='color:GreenYellow; font-size: 70px;'>正确! </span>","null","","","","","","","","","","","","","","","","","","","","","","","feedback_test",""
"","","","","","psychophysics","68","488395","0.0-8.2-0.2-0.26","1509","","j","","","","","","","","","","","","","key","j","16.667302013422916","768","428","j","true","img/C_28.png","生人","freeprac_self","",""
"","","","","","html-keyboard-response","69","488696","0.0-8.2-0.2-1.26","null","<span style='color:GreenYellow; font-size: 70px;'>正确! </span>","null","","","","","","","","","","","","","","","","","","","","","","","feedback_test",""
"","","","","","psychophysics","70","491957","0.0-8.2-0.2-0.27","2261","","f","","","","","","","","","","","","","key","f","16.66798453608236","768","428","j","false","img/C_28.png","自我","freeprac_self","",""
"","","","","","html-keyboard-response","71","492259","0.0-8.2-0.2-1.27","null","<span style='color:red; font-size: 70px;'>错误! </span>","null","","","","","","","","","","","","","","","","","","","","","","","feedback_test",""
"","","","","","psychophysics","72","496233","0.0-8.2-0.2-0.28","2972","","j","","","","","","","","","","","","","key","j","16.66834873949596","768","428","f","false","img/S_28.png","朋友","freeprac_self","",""
"","","","","","html-keyboard-response","73","496535","0.0-8.2-0.2-1.28","null","<span style='color:red; font-size: 70px;'>错误! </span>","null","","","","","","","","","","","","","","","","","","","","","","","feedback_test",""
"","","","","","psychophysics","74","499271","0.0-8.2-0.2-0.29","1734","","k","","","","","","","","","","","","","key","k","16.668693251533583","768","428","k","true","img/H_28.png","生人","freeprac_self","",""
"","","","","","html-keyboard-response","75","499573","0.0-8.2-0.2-1.29","null","<span style='color:GreenYellow; font-size: 70px;'>正确! </span>","null","","","","","","","","","","","","","","","","","","","","","","","feedback_test",""
"","","","","","psychophysics","76","501948","0.0-8.2-0.2-0.30","1374","","d","","","","","","","","","","","","","key","d","16.667802816901265","768","428","d","true","img/S_28.png","自我","freeprac_self","",""
"","","","","","html-keyboard-response","77","502249","0.0-8.2-0.2-1.30","null","<span style='color:GreenYellow; font-size: 70px;'>正确! </span>","null","","","","","","","","","","","","","","","","","","","","","","","feedback_test",""
"","","","","","psychophysics","78","506140","0.0-8.2-0.2-0.31","2890","","j","","","","","","","","","","","","","key","j","16.667801724137902","768","428","k","false","img/C_28.png","朋友","freeprac_self","",""
"","","","","","html-keyboard-response","79","506442","0.0-8.2-0.2-1.31","null","<span style='color:red; font-size: 70px;'>错误! </span>","null","","","","","","","","","","","","","","","","","","","","","","","feedback_test",""
"","","","","","psychophysics","80","509590","0.0-8.2-0.2-0.32","2147","","f","","","","","","","","","","","","","key","f","16.66835106382991","768","428","j","false","img/H_28.png","自我","freeprac_self","",""
"","","","","","html-keyboard-response","81","509892","0.0-8.2-0.2-1.32","null","<span style='color:red; font-size: 70px;'>错误! </span>","null","","","","","","","","","","","","","","","","","","","","","","","feedback_test",""
"","","","","","psychophysics","82","513625","0.0-8.2-0.2-0.33","2732","","j","","","","","","","","","","","","","key","j","16.66850224215247","768","428","j","true","img/H_28.png","朋友","freeprac_self","",""
"","","","","","html-keyboard-response","83","513927","0.0-8.2-0.2-1.33","null","<span style='color:GreenYellow; font-size: 70px;'>正确! </span>","null","","","","","","","","","","","","","","","","","","","","","","","feedback_test",""
"","","","","","psychophysics","84","518238","0.0-8.2-0.2-0.34","3309","","f","","","","","","","","","","","","","key","f","16.668515503876023","768","428","f","true","img/S_28.png","生人","freeprac_self","",""
"","","","","","html-keyboard-response","85","518539","0.0-8.2-0.2-1.34","null","<span style='color:GreenYellow; font-size: 70px;'>正确! </span>","null","","","","","","","","","","","","","","","","","","","","","","","feedback_test",""
"","","","","","psychophysics","86","521276","0.0-8.2-0.2-0.35","1736","","k","","","","","","","","","","","","","key","k","16.66893251533756","768","428","k","true","img/H_28.png","生人","freeprac_self","",""
"","","","","","html-keyboard-response","87","521578","0.0-8.2-0.2-1.35","null","<span style='color:GreenYellow; font-size: 70px;'>正确! </span>","null","","","","","","","","","","","","","","","","","","","","","","","feedback_test",""
"","","","","","html-keyboard-response","88","524133","0.0-8.2-1.2-0.2","2555","<style>.context{color:white; font-size: 35px; line-height:40px}</style>                           <div><p class='context'>您正确回答了67% 的试次。</p><p class='context'>您的平均反应时为2144毫秒。</p>"," ","","","","","","","","","","","","","","","","","","","","","","","",""
"","","","","","instructions","89","529147","0.0-8.2-1.2-1.2","5012","","","","","","","","","","","","","","[{""page_index"":0,""viewing_time"":1882},{""page_index"":1,""viewing_time"":1318},{""page_index"":2,""viewing_time"":1812}]","","","","","","","","","","","",""
"","","","","","psychophysics","90","532466","0.0-8.3-0.3-0.36","2317","","j","","","","","","","","","","","","","key","j","16.668500000000062","768","428","j","true","img/H_28.png","朋友","freeprac_self","",""
"","","","","","html-keyboard-response","91","532767","0.0-8.3-0.3-1.36","null","<span style='color:GreenYellow; font-size: 70px;'>正确! </span>","null","","","","","","","","","","","","","","","","","","","","","","","feedback_test",""
"","","","","","psychophysics","92","535878","0.0-8.3-0.3-0.37","2110","","f","","","","","","","","","","","","","key","f","16.66881621621637","768","428","f","true","img/S_28.png","朋友","freeprac_self","",""
"","","","","","html-keyboard-response","93","536179","0.0-8.3-0.3-1.37","null","<span style='color:GreenYellow; font-size: 70px;'>正确! </span>","null","","","","","","","","","","","","","","","","","","","","","","","feedback_test",""
"","","","","","psychophysics","94","539583","0.0-8.3-0.3-0.38","2402","","k","","","","","","","","","","","","","key","k","16.668438423645174","768","428","k","true","img/C_28.png","朋友","freeprac_self","",""
"","","","","","html-keyboard-response","95","539884","0.0-8.3-0.3-1.38","null","<span style='color:GreenYellow; font-size: 70px;'>正确! </span>","null","","","","","","","","","","","","","","","","","","","","","","","feedback_test",""
"","","","","","psychophysics","96","542088","0.0-8.3-0.3-0.39","1204","","k","","","","","","","","","","","","","key","k","16.65919083969504","768","428","k","true","img/C_28.png","朋友","freeprac_self","",""
"","","","","","html-keyboard-response","97","542389","0.0-8.3-0.3-1.39","null","<span style='color:GreenYellow; font-size: 70px;'>正确! </span>","null","","","","","","","","","","","","","","","","","","","","","","","feedback_test",""
"","","","","","psychophysics","98","544706","0.0-8.3-0.3-0.40","1316","","k","","","","","","","","","","","","","key","k","16.66851449275366","768","428","k","true","img/H_28.png","生人","freeprac_self","",""
"","","","","","html-keyboard-response","99","545008","0.0-8.3-0.3-1.40","null","<span style='color:GreenYellow; font-size: 70px;'>正确! </span>","null","","","","","","","","","","","","","","","","","","","","","","","feedback_test",""
"","","","","","psychophysics","100","547143","0.0-8.3-0.3-0.41","1134","","d","","","","","","","","","","","","","key","d","16.668236220472743","768","428","d","true","img/S_28.png","自我","freeprac_self","",""
"","","","","","html-keyboard-response","101","547445","0.0-8.3-0.3-1.41","null","<span style='color:GreenYellow; font-size: 70px;'>正确! </span>","null","","","","","","","","","","","","","","","","","","","","","","","feedback_test",""
"","","","","","psychophysics","102","549453","0.0-8.3-0.3-0.42","1007","","d","","","","","","","","","","","","","key","d","16.668233333333045","768","428","j","false","img/C_28.png","自我","freeprac_self","",""
"","","","","","html-keyboard-response","103","549755","0.0-8.3-0.3-1.42","null","<span style='color:red; font-size: 70px;'>错误! </span>","null","","","","","","","","","","","","","","","","","","","","","","","feedback_test",""
"","","","","","psychophysics","104","552731","0.0-8.3-0.3-0.43","1975","","f","","","","","","","","","","","","","key","f","16.667163841807845","768","428","f","true","img/S_28.png","生人","freeprac_self","",""
"","","","","","html-keyboard-response","105","553033","0.0-8.3-0.3-1.43","null","<span style='color:GreenYellow; font-size: 70px;'>正确! </span>","null","","","","","","","","","","","","","","","","","","","","","","","feedback_test",""
"","","","","","psychophysics","106","555176","0.0-8.3-0.3-0.44","1142","","k","","","","","","","","","","","","","key","k","16.66833593750016","768","428","k","true","img/H_28.png","生人","freeprac_self","",""
"","","","","","html-keyboard-response","107","555477","0.0-8.3-0.3-1.44","null","<span style='color:GreenYellow; font-size: 70px;'>正确! </span>","null","","","","","","","","","","","","","","","","","","","","","","","feedback_test",""
"","","","","","psychophysics","108","557440","0.0-8.3-0.3-0.45","962","","d","","","","","","","","","","","","","key","d","16.668299145299073","768","428","d","true","img/S_28.png","自我","freeprac_self","",""
"","","","","","html-keyboard-response","109","557742","0.0-8.3-0.3-1.45","null","<span style='color:GreenYellow; font-size: 70px;'>正确! </span>","null","","","","","","","","","","","","","","","","","","","","","","","feedback_test",""
"","","","","","psychophysics","110","562015","0.0-8.3-0.3-0.46","3273","","j","","","","","","","","","","","","","key","j","16.668227450980567","768","428","j","true","img/C_28.png","生人","freeprac_self","",""
"","","","","","html-keyboard-response","111","562317","0.0-8.3-0.3-1.46","null","<span style='color:GreenYellow; font-size: 70px;'>正确! </span>","null","","","","","","","","","","","","","","","","","","","","","","","feedback_test",""
"","","","","","psychophysics","112","566103","0.0-8.3-0.3-0.47","2785","","f","","","","","","","","","","","","","key","f","16.668663716813718","768","428","j","false","img/H_28.png","自我","freeprac_self","",""
"","","","","","html-keyboard-response","113","566405","0.0-8.3-0.3-1.47","null","<span style='color:red; font-size: 70px;'>错误! </span>","null","","","","","","","","","","","","","","","","","","","","","","","feedback_test",""
"","","","","","html-keyboard-response","114","580712","0.0-9.0","14307","[""<style>.context{color:white; font-size: 35px; line-height:40px}</style>           <div><p class='context'>您正确回答了83% 的试次。</p><p class='context'>您的平均反应时为1784毫秒。</p><p class='context'>恭喜您完成这一阶段的练习。按任意键进入<span style='color: yellow;'>重点关注图形为“朋友”</span>的练习。</p></div><p class='footer' style='font-size:35px; line-height:30px;'>任务要求：\n           <p class='footer' style='font-size:35px; line-height:35px;'>对于与“朋友”对应的图形：如果 匹配 ，请按 <span style=\""color: lightgreen;\"">d键</span></p><p class='footer' style='font-size:35px'>如果 不匹配 ，请按<span style=\""color: lightgreen;\"">f键</p></span>\n           <p class='footer' style='font-size:35px; line-height:35px;'>对于非“朋友”对应的图形：如果 匹配 ，请按 <span style=\""color: lightgreen;\"">k键</span></p><p class='footer' style='font-size:35px'>如果 不匹配 ，请按<span style=\""color: lightgreen;\"">j键</p></span>\n           <p class='footer' style='font-size:22px; line-height:25px;'>请在实验过程中将您的<span style=\""color: lightgreen;\"">食指和中指</span>放在电脑键盘的相应键位上进行按键。</p></span>""]"," ","","","","","","","","","","","","","","","","","","","","","","","",""
"","","","","","psychophysics","115","583076","0.0-10.0-0.0-0.0","1359","","j","","","","","","","","","","","","","key","j","16.668326241134316","768","428","d","false","img/C_28.png","朋友","freeprac_friend","",""
"","","","","","html-keyboard-response","116","583377","0.0-10.0-0.0-1.0","null","<span style='color:red; font-size: 70px;'>错误! </span>","null","","","","","","","","","","","","","","","","","","","","","","","feedback_test",""
"","","","","","psychophysics","117","585798","0.0-10.0-0.0-0.1","1419","","k","","","","","","","","","","","","","key","k","16.668083333332714","768","428","k","true","img/H_28.png","生人","freeprac_friend","",""
"","","","","","html-keyboard-response","118","586100","0.0-10.0-0.0-1.1","null","<span style='color:GreenYellow; font-size: 70px;'>正确! </span>","null","","","","","","","","","","","","","","","","","","","","","","","feedback_test",""
"","","","","","psychophysics","119","589825","0.0-10.0-0.0-0.2","2724","","j","","","","","","","","","","","","","key","j","16.6683856502239","768","428","j","true","img/S_28.png","生人","freeprac_friend","",""
"","","","","","html-keyboard-response","120","590127","0.0-10.0-0.0-1.2","null","<span style='color:GreenYellow; font-size: 70px;'>正确! </span>","null","","","","","","","","","","","","","","","","","","","","","","","feedback_test",""
"","","","","","psychophysics","121","593831","0.0-10.0-0.0-0.3","2702","","f","","","","","","","","","","","","","key","f","16.66826244343938","768","428","j","false","img/H_28.png","朋友","freeprac_friend","",""
"","","","","","html-keyboard-response","122","594132","0.0-10.0-0.0-1.3","null","<span style='color:red; font-size: 70px;'>错误! </span>","null","","","","","","","","","","","","","","","","","","","","","","","feedback_test",""
"","","","","","psychophysics","123","596455","0.0-10.0-0.0-0.4","1323","","j","","","","","","","","","","","","","key","j","16.66797101449228","768","428","j","true","img/H_28.png","自我","freeprac_friend","",""
"","","","","","html-keyboard-response","124","596757","0.0-10.0-0.0-1.4","null","<span style='color:GreenYellow; font-size: 70px;'>正确! </span>","null","","","","","","","","","","","","","","","","","","","","","","","feedback_test",""
"","","","","","psychophysics","125","599397","0.0-10.0-0.0-0.5","1638","","f","","","","","","","","","","","","","key","f","16.669509554140205","768","428","f","true","img/C_28.png","自我","freeprac_friend","",""
"","","","","","html-keyboard-response","126","599699","0.0-10.0-0.0-1.5","null","<span style='color:GreenYellow; font-size: 70px;'>正确! </span>","null","","","","","","","","","","","","","","","","","","","","","","","feedback_test",""
"","","","","","psychophysics","127","602800","0.0-10.0-0.0-0.6","2101","","j","","","","","","","","","","","","","key","j","16.667945945945668","768","428","k","false","img/S_28.png","自我","freeprac_friend","",""
"","","","","","html-keyboard-response","128","603101","0.0-10.0-0.0-1.6","null","<span style='color:red; font-size: 70px;'>错误! </span>","null","","","","","","","","","","","","","","","","","","","","","","","feedback_test",""
"","","","","","psychophysics","129","606730","0.0-10.0-0.0-0.7","2626","","k","","","","","","","","","","","","","key","k","16.668612903225974","768","428","k","true","img/H_28.png","生人","freeprac_friend","",""
"","","","","","html-keyboard-response","130","607033","0.0-10.0-0.0-1.7","null","<span style='color:GreenYellow; font-size: 70px;'>正确! </span>","null","","","","","","","","","","","","","","","","","","","","","","","feedback_test",""
"","","","","","psychophysics","131","610503","0.0-10.0-0.0-0.8","2468","","f","","","","","","","","","","","","","key","f","16.66852173913025","768","428","j","false","img/S_28.png","朋友","freeprac_friend","",""
"","","","","","html-keyboard-response","132","610805","0.0-10.0-0.0-1.8","null","<span style='color:red; font-size: 70px;'>错误! </span>","null","","","","","","","","","","","","","","","","","","","","","","","feedback_test",""
"","","","","","psychophysics","133","613045","0.0-10.0-0.0-0.9","1240","","f","","","","","","","","","","","","","key","f","16.667940298507144","768","428","f","true","img/C_28.png","生人","freeprac_friend","",""
"","","","","","html-keyboard-response","134","613347","0.0-10.0-0.0-1.9","null","<span style='color:GreenYellow; font-size: 70px;'>正确! </span>","null","","","","","","","","","","","","","","","","","","","","","","","feedback_test",""
"","","","","","psychophysics","135","615633","0.0-10.0-0.0-0.10","1284","","f","","","","","","","","","","","","","key","f","16.66824264705835","768","428","d","false","img/C_28.png","朋友","freeprac_friend","",""
"","","","","","html-keyboard-response","136","615934","0.0-10.0-0.0-1.10","null","<span style='color:red; font-size: 70px;'>错误! </span>","null","","","","","","","","","","","","","","","","","","","","","","","feedback_test",""
"","","","","","psychophysics","137","618678","0.0-10.0-0.0-0.11","1742","","k","","","","","","","","","","","","","key","k","16.668371951219587","768","428","k","true","img/S_28.png","自我","freeprac_friend","",""
"","","","","","html-keyboard-response","138","618979","0.0-10.0-0.0-1.11","null","<span style='color:GreenYellow; font-size: 70px;'>正确! </span>","null","","","","","","","","","","","","","","","","","","","","","","","feedback_test",""
"","","","","","html-keyboard-response","139","620425","0.0-10.0-1.0-0.0","1446","<style>.context{color:white; font-size: 35px; line-height:40px}</style>                           <div><p class='context'>您正确回答了58% 的试次。</p><p class='context'>您的平均反应时为1816毫秒。</p>"," ","","","","","","","","","","","","","","","","","","","","","","","",""
"","","","","","instructions","140","623893","0.0-10.0-1.0-1.0","3466","","","","","","","","","","","","","","[{""page_index"":0,""viewing_time"":1294},{""page_index"":1,""viewing_time"":1484},{""page_index"":2,""viewing_time"":688}]","","","","","","","","","","","",""
"","","","","","psychophysics","141","626669","0.0-10.1-0.1-0.12","1773","","f","","","","","","","","","","","","","key","f","16.668521212121107","768","428","d","false","img/C_28.png","朋友","freeprac_friend","",""
"","","","","","html-keyboard-response","142","626970","0.0-10.1-0.1-1.12","null","<span style='color:red; font-size: 70px;'>错误! </span>","null","","","","","","","","","","","","","","","","","","","","","","","feedback_test",""
"","","","","","psychophysics","143","629246","0.0-10.1-0.1-0.13","1275","","k","","","","","","","","","","","","","key","k","16.667588235294232","768","428","k","true","img/H_28.png","生人","freeprac_friend","",""
"","","","","","html-keyboard-response","144","629548","0.0-10.1-0.1-1.13","null","<span style='color:GreenYellow; font-size: 70px;'>正确! </span>","null","","","","","","","","","","","","","","","","","","","","","","","feedback_test",""
"","","","","","psychophysics","145","631708","0.0-10.1-0.1-0.14","1159","","f","","","","","","","","","","","","","key","f","16.668312499999956","768","428","f","true","img/C_28.png","生人","freeprac_friend","",""
"","","","","","html-keyboard-response","146","632009","0.0-10.1-0.1-1.14","null","<span style='color:GreenYellow; font-size: 70px;'>正确! </span>","null","","","","","","","","","","","","","","","","","","","","","","","feedback_test",""
"","","","","","psychophysics","147","635516","0.0-10.1-0.1-0.15","2506","","j","","","","","","","","","","","","","key","j","16.66827619047614","768","428","f","false","img/C_28.png","自我","freeprac_friend","",""
"","","","","","html-keyboard-response","148","635818","0.0-10.1-0.1-1.15","null","<span style='color:red; font-size: 70px;'>错误! </span>","null","","","","","","","","","","","","","","","","","","","","","","","feedback_test",""
"","","","","","psychophysics","149","638036","0.0-10.1-0.1-0.16","1217","","k","","","","","","","","","","","","","key","k","16.668234848484367","768","428","k","true","img/S_28.png","自我","freeprac_friend","",""
"","","","","","html-keyboard-response","150","638338","0.0-10.1-0.1-1.16","null","<span style='color:GreenYellow; font-size: 70px;'>正确! </span>","null","","","","","","","","","","","","","","","","","","","","","","","feedback_test",""
"","","","","","psychophysics","151","640376","0.0-10.1-0.1-0.17","1037","","k","","","","","","","","","","","","","key","k","16.668553719007456","768","428","k","true","img/H_28.png","生人","freeprac_friend","",""
"","","","","","html-keyboard-response","152","640677","0.0-10.1-0.1-1.17","null","<span style='color:GreenYellow; font-size: 70px;'>正确! </span>","null","","","","","","","","","","","","","","","","","","","","","","","feedback_test",""
"","","","","","psychophysics","153","642701","0.0-10.1-0.1-0.18","1023","","k","","","","","","","","","","","","","key","k","16.65999166666685","768","428","k","true","img/S_28.png","自我","freeprac_friend","",""
"","","","","","html-keyboard-response","154","643004","0.0-10.1-0.1-1.18","null","<span style='color:GreenYellow; font-size: 70px;'>正确! </span>","null","","","","","","","","","","","","","","","","","","","","","","","feedback_test",""
"","","","","","psychophysics","155","645123","0.0-10.1-0.1-0.19","1118","","d","","","","","","","","","","","","","key","d","16.66842857142818","768","428","d","true","img/C_28.png","朋友","freeprac_friend","",""
"","","","","","html-keyboard-response","156","645425","0.0-10.1-0.1-1.19","null","<span style='color:GreenYellow; font-size: 70px;'>正确! </span>","null","","","","","","","","","","","","","","","","","","","","","","","feedback_test",""
"","","","","","psychophysics","157","648656","0.0-10.1-0.1-0.20","2230","","f","","","","","","","","","","","","","key","f","16.668471502590144","768","428","j","false","img/S_28.png","朋友","freeprac_friend","",""
"","","","","","html-keyboard-response","158","648957","0.0-10.1-0.1-1.20","null","<span style='color:red; font-size: 70px;'>错误! </span>","null","","","","","","","","","","","","","","","","","","","","","","","feedback_test",""
"","","","","","psychophysics","159","652751","0.0-10.1-0.1-0.21","2792","","j","","","","","","","","","","","","","key","j","16.66870044052882","768","428","j","true","img/H_28.png","自我","freeprac_friend","",""
"","","","","","html-keyboard-response","160","653052","0.0-10.1-0.1-1.21","null","<span style='color:GreenYellow; font-size: 70px;'>正确! </span>","null","","","","","","","","","","","","","","","","","","","","","","","feedback_test",""
"","","","","","psychophysics","161","655654","0.0-10.1-0.1-0.22","1600","","j","","","","","","","","","","","","","key","j","16.668367741935164","768","428","j","true","img/H_28.png","朋友","freeprac_friend","",""
"","","","","","html-keyboard-response","162","655955","0.0-10.1-0.1-1.22","null","<span style='color:GreenYellow; font-size: 70px;'>正确! </span>","null","","","","","","","","","","","","","","","","","","","","","","","feedback_test",""
"","","","","","psychophysics","163","658961","0.0-10.1-0.1-0.23","2003","","j","","","","","","","","","","","","","key","j","16.668798882681383","768","428","j","true","img/S_28.png","生人","freeprac_friend","",""
"","","","","","html-keyboard-response","164","659263","0.0-10.1-0.1-1.23","null","<span style='color:GreenYellow; font-size: 70px;'>正确! </span>","null","","","","","","","","","","","","","","","","","","","","","","","feedback_test",""
"","","","","","html-keyboard-response","165","663783","0.0-11.0","4518","[""<style>.context{color:white; font-size: 35px; line-height:40px}</style>               <div><p class='context'>您正确回答了75% 的试次。</p><p class='context'>您的平均反应时为1469毫秒。</p><p class='context'>恭喜您完成这一阶段的练习。按任意键进入<span style='color: yellow;'>重点关注图形为“生人”</span>的练习。</p></div><p class='footer' style='font-size:35px; line-height:30px;'>任务要求：\n               <p class='footer' style='font-size:35px; line-height:35px;'>对与“生人”对应的图形，如果 匹配 ，请按 <span style=\""color: lightgreen;\"">d键</span></p><p class='footer' style='font-size:35px'>如果 不匹配 ，请按<span style=\""color: lightgreen;\"">f键</p></span>\n               <p class='footer' style='font-size:35px; line-height:35px;'>对非“生人”对应的图形，如果 匹配 ，请按 <span style=\""color: lightgreen;\"">k键</span></p><p class='footer' style='font-size:35px'>如果 不匹配 ，请按<span style=\""color: lightgreen;\"">j键</p></span>\n               <p class='footer' style='font-size:22px; line-height:25px;'>请在实验过程中将您的<span style=\""color: lightgreen;\"">食指和中指</span>放在电脑键盘的相应键位上进行按键。</p></span>""]"," ","","","","","","","","","","","","","","","","","","","","","","","",""
"","","","","","psychophysics","166","687161","0.0-12.0-0.0-0.0","22374","","d","","","","","","","","","","","","","key","d","16.66839186295496","768","428","k","false","img/S_28.png","自我","freeprac_stranger","",""
"","","","","","html-keyboard-response","167","687462","0.0-12.0-0.0-1.0","null","<span style='color:red; font-size: 70px;'>错误! </span>","null","","","","","","","","","","","","","","","","","","","","","","","feedback_test",""
"","","","","","psychophysics","168","690371","0.0-12.0-0.0-0.1","1907","","f","","","","","","","","","","","","","key","f","16.668247126436246","768","428","j","false","img/C_28.png","生人","freeprac_stranger","",""
"","","","","","html-keyboard-response","169","690673","0.0-12.0-0.0-1.1","null","<span style='color:red; font-size: 70px;'>错误! </span>","null","","","","","","","","","","","","","","","","","","","","","","","feedback_test",""
"","","","","","psychophysics","170","694324","0.0-12.0-0.0-0.2","2649","","f","","","","","","","","","","","","","key","f","16.668344036696816","768","428","f","true","img/H_28.png","自我","freeprac_stranger","",""
"","","","","","html-keyboard-response","171","694626","0.0-12.0-0.0-1.2","null","<span style='color:GreenYellow; font-size: 70px;'>正确! </span>","null","","","","","","","","","","","","","","","","","","","","","","","feedback_test",""
"","","","","","psychophysics","172","696964","0.0-12.0-0.0-0.3","1337","","k","","","","","","","","","","","","","key","k","16.667719424460184","768","428","k","true","img/C_28.png","朋友","freeprac_stranger","",""
"","","","","","html-keyboard-response","173","697265","0.0-12.0-0.0-1.3","null","<span style='color:GreenYellow; font-size: 70px;'>正确! </span>","null","","","","","","","","","","","","","","","","","","","","","","","feedback_test",""
"","","","","","psychophysics","174","699401","0.0-12.0-0.0-0.4","1135","","k","","","","","","","","","","","","","key","k","16.66840624999986","768","428","d","false","img/H_28.png","生人","freeprac_stranger","",""
"","","","","","html-keyboard-response","175","699703","0.0-12.0-0.0-1.4","null","<span style='color:red; font-size: 70px;'>错误! </span>","null","","","","","","","","","","","","","","","","","","","","","","","feedback_test",""
"","","","","","psychophysics","176","701906","0.0-12.0-0.0-0.5","1202","","k","","","","","","","","","","","","","key","k","16.668541984733032","768","428","k","true","img/S_28.png","自我","freeprac_stranger","",""
"","","","","","html-keyboard-response","177","702207","0.0-12.0-0.0-1.5","null","<span style='color:GreenYellow; font-size: 70px;'>正确! </span>","null","","","","","","","","","","","","","","","","","","","","","","","feedback_test",""
"","","","","","psychophysics","178","705626","0.0-12.0-0.0-0.6","2418","","j","","","","","","","","","","","","","key","j","16.668156862745118","768","428","j","true","img/C_28.png","自我","freeprac_stranger","",""
"","","","","","html-keyboard-response","179","705928","0.0-12.0-0.0-1.6","null","<span style='color:GreenYellow; font-size: 70px;'>正确! </span>","null","","","","","","","","","","","","","","","","","","","","","","","feedback_test",""
"","","","","","psychophysics","180","709376","0.0-12.0-0.0-0.7","2447","","f","","","","","","","","","","","","","key","f","16.668121359222884","768","428","f","true","img/H_28.png","朋友","freeprac_stranger","",""
"","","","","","html-keyboard-response","181","709677","0.0-12.0-0.0-1.7","null","<span style='color:GreenYellow; font-size: 70px;'>正确! </span>","null","","","","","","","","","","","","","","","","","","","","","","","feedback_test",""
"","","","","","psychophysics","182","713059","0.0-12.0-0.0-0.8","2380","","j","","","","","","","","","","","","","key","j","16.66837128712842","768","428","j","true","img/S_28.png","生人","freeprac_stranger","",""
"","","","","","html-keyboard-response","183","713360","0.0-12.0-0.0-1.8","null","<span style='color:GreenYellow; font-size: 70px;'>正确! </span>","null","","","","","","","","","","","","","","","","","","","","","","","feedback_test",""
"","","","","","psychophysics","184","715924","0.0-12.0-0.0-0.9","1562","","j","","","","","","","","","","","","","key","j","16.667993464052152","768","428","j","true","img/S_28.png","朋友","freeprac_stranger","",""
"","","","","","html-keyboard-response","185","716226","0.0-12.0-0.0-1.9","null","<span style='color:GreenYellow; font-size: 70px;'>正确! </span>","null","","","","","","","","","","","","","","","","","","","","","","","feedback_test",""
"","","","","","psychophysics","186","718047","0.0-12.0-0.0-0.10","821","","d","","","","","","","","","","","","","key","d","16.668685185185126","768","428","d","true","img/H_28.png","生人","freeprac_stranger","",""
"","","","","","html-keyboard-response","187","718349","0.0-12.0-0.0-1.10","null","<span style='color:GreenYellow; font-size: 70px;'>正确! </span>","null","","","","","","","","","","","","","","","","","","","","","","","feedback_test",""
"","","","","","psychophysics","188","721961","0.0-12.0-0.0-0.11","2611","","k","","","","","","","","","","","","","key","k","16.668412037036937","768","428","k","true","img/C_28.png","朋友","freeprac_stranger","",""
"","","","","","html-keyboard-response","189","722263","0.0-12.0-0.0-1.11","null","<span style='color:GreenYellow; font-size: 70px;'>正确! </span>","null","","","","","","","","","","","","","","","","","","","","","","","feedback_test",""
"","","","","","instructions","190","732598","0.0-13.0","10334","","","","","","","","","","","","","","[{""page_index"":0,""viewing_time"":10334}]","","","","","","","","","","","",""
"","","","","","psychophysics","191","734749","0.0-14.0-0.0-0.0","1148","","k","","","","","","","","","","","","","key","k","16.668914062499425","768","428","k","true","img/H_28.png","生人","prac_self","","生人"
"","","","","","html-keyboard-response","192","735050","0.0-14.0-0.0-1.0","null","<span style='color:GreenYellow; font-size: 70px;'>正确! </span>","null","","","","","","","","","","","","","","","","","","","","","","","feedback_test",""
"","","","","","psychophysics","193","737552","0.0-14.0-0.0-0.1","null","","null","","","","","","","","","","","","","key","null","16.66737583892626","768","428","k","false","img/C_28.png","朋友","prac_self","","朋友"
"","","","","","html-keyboard-response","194","737853","0.0-14.0-0.0-1.1","null","<span class='add_' style='color:yellow; font-size: 70px;'> 太慢! </span>","null","","","","","","","","","","","","","","","","","","","","","","","feedback_test",""
"","","","","","psychophysics","195","740344","0.0-14.0-0.0-0.2","1490","","j","","","","","","","","","","","","","key","j","16.668825503355894","768","428","j","true","img/H_28.png","自我","prac_self","","生人"
"","","","","","html-keyboard-response","196","740646","0.0-14.0-0.0-1.2","null","<span style='color:GreenYellow; font-size: 70px;'>正确! </span>","null","","","","","","","","","","","","","","","","","","","","","","","feedback_test",""
"","","","","","psychophysics","197","742519","0.0-14.0-0.0-0.3","870","","d","","","","","","","","","","","","","key","d","16.667666666666968","768","428","d","true","img/S_28.png","自我","prac_self","","自我"
"","","","","","html-keyboard-response","198","742821","0.0-14.0-0.0-1.3","null","<span style='color:GreenYellow; font-size: 70px;'>正确! </span>","null","","","","","","","","","","","","","","","","","","","","","","","feedback_test",""
"","","","","","psychophysics","199","745226","0.0-14.0-0.0-0.4","1404","","j","","","","","","","","","","","","","key","j","16.661755244754794","768","428","j","true","img/H_28.png","朋友","prac_self","","生人"
"","","","","","html-keyboard-response","200","745527","0.0-14.0-0.0-1.4","null","<span style='color:GreenYellow; font-size: 70px;'>正确! </span>","null","","","","","","","","","","","","","","","","","","","","","","","feedback_test",""
"","","","","","psychophysics","201","748029","0.0-14.0-0.0-0.5","null","","null","","","","","","","","","","","","","key","null","16.66845637583877","768","428","j","false","img/C_28.png","自我","prac_self","","朋友"
"","","","","","html-keyboard-response","202","748330","0.0-14.0-0.0-1.5","null","<span class='add_' style='color:yellow; font-size: 70px;'> 太慢! </span>","null","","","","","","","","","","","","","","","","","","","","","","","feedback_test",""
"","","","","","psychophysics","203","750191","0.0-14.0-0.0-0.6","860","","j","","","","","","","","","","","","","key","j","16.668333333333837","768","428","f","false","img/S_28.png","生人","prac_self","","自我"
"","","","","","html-keyboard-response","204","750492","0.0-14.0-0.0-1.6","null","<span style='color:red; font-size: 70px;'>错误! </span>","null","","","","","","","","","","","","","","","","","","","","","","","feedback_test",""
"","","","","","psychophysics","205","752921","0.0-14.0-0.0-0.7","1427","","j","","","","","","","","","","","","","key","j","16.66759027777799","768","428","j","true","img/C_28.png","生人","prac_self","","朋友"
"","","","","","html-keyboard-response","206","753222","0.0-14.0-0.0-1.7","null","<span style='color:GreenYellow; font-size: 70px;'>正确! </span>","null","","","","","","","","","","","","","","","","","","","","","","","feedback_test",""
"","","","","","psychophysics","207","755486","0.0-14.0-0.0-0.8","1264","","f","","","","","","","","","","","","","key","f","16.664955223880973","768","428","f","true","img/S_28.png","朋友","prac_self","","自我"
"","","","","","html-keyboard-response","208","755787","0.0-14.0-0.0-1.8","null","<span style='color:GreenYellow; font-size: 70px;'>正确! </span>","null","","","","","","","","","","","","","","","","","","","","","","","feedback_test",""
"","","","","","psychophysics","209","758289","0.0-14.0-0.0-0.9","null","","null","","","","","","","","","","","","","key","null","16.668543624161156","768","428","k","false","img/H_28.png","生人","prac_self","","生人"
"","","","","","html-keyboard-response","210","758591","0.0-14.0-0.0-1.9","null","<span class='add_' style='color:yellow; font-size: 70px;'> 太慢! </span>","null","","","","","","","","","","","","","","","","","","","","","","","feedback_test",""
"","","","","","psychophysics","211","760703","0.0-14.0-0.0-0.10","1111","","j","","","","","","","","","","","","","key","j","16.66815199999977","768","428","k","false","img/C_28.png","朋友","prac_self","","朋友"
"","","","","","html-keyboard-response","212","761005","0.0-14.0-0.0-1.10","null","<span style='color:red; font-size: 70px;'>错误! </span>","null","","","","","","","","","","","","","","","","","","","","","","","feedback_test",""
"","","","","","psychophysics","213","763167","0.0-14.0-0.0-0.11","1160","","d","","","","","","","","","","","","","key","d","16.668852713178346","768","428","d","true","img/S_28.png","自我","prac_self","","自我"
"","","","","","html-keyboard-response","214","763469","0.0-14.0-0.0-1.11","null","<span style='color:GreenYellow; font-size: 70px;'>正确! </span>","null","","","","","","","","","","","","","","","","","","","","","","","feedback_test",""
"","","","","","psychophysics","215","765574","0.0-14.0-0.0-0.12","1102","","k","","","","","","","","","","","","","key","k","16.668648000000044","768","428","k","true","img/C_28.png","朋友","prac_self","","朋友"
"","","","","","html-keyboard-response","216","765875","0.0-14.0-0.0-1.12","null","<span style='color:GreenYellow; font-size: 70px;'>正确! </span>","null","","","","","","","","","","","","","","","","","","","","","","","feedback_test",""
"","","","","","psychophysics","217","767786","0.0-14.0-0.0-0.13","910","","j","","","","","","","","","","","","","key","j","16.667929203540037","768","428","j","true","img/C_28.png","生人","prac_self","","朋友"
"","","","","","html-keyboard-response","218","768088","0.0-14.0-0.0-1.13","null","<span style='color:GreenYellow; font-size: 70px;'>正确! </span>","null","","","","","","","","","","","","","","","","","","","","","","","feedback_test",""
"","","","","","psychophysics","219","770156","0.0-14.0-0.0-0.14","1069","","d","","","","","","","","","","","","","key","d","16.6681869918702","768","428","d","true","img/S_28.png","自我","prac_self","","自我"
"","","","","","html-keyboard-response","220","770458","0.0-14.0-0.0-1.14","null","<span style='color:GreenYellow; font-size: 70px;'>正确! </span>","null","","","","","","","","","","","","","","","","","","","","","","","feedback_test",""
"","","","","","psychophysics","221","772817","0.0-14.0-0.0-0.15","1359","","j","","","","","","","","","","","","","key","j","16.66904285714263","768","428","f","false","img/S_28.png","朋友","prac_self","","自我"
"","","","","","html-keyboard-response","222","773118","0.0-14.0-0.0-1.15","null","<span style='color:red; font-size: 70px;'>错误! </span>","null","","","","","","","","","","","","","","","","","","","","","","","feedback_test",""
"","","","","","psychophysics","223","774918","0.0-14.0-0.0-0.16","799","","d","","","","","","","","","","","","","key","d","16.6678130841122","768","428","d","true","img/S_28.png","自我","prac_self","","自我"
"","","","","","html-keyboard-response","224","775219","0.0-14.0-0.0-1.16","null","<span style='color:GreenYellow; font-size: 70px;'>正确! </span>","null","","","","","","","","","","","","","","","","","","","","","","","feedback_test",""
"","","","","","psychophysics","225","777063","0.0-14.0-0.0-0.17","844","","f","","","","","","","","","","","","","key","f","16.66845454545374","768","428","j","false","img/C_28.png","自我","prac_self","","朋友"
"","","","","","html-keyboard-response","226","777365","0.0-14.0-0.0-1.17","null","<span style='color:red; font-size: 70px;'>错误! </span>","null","","","","","","","","","","","","","","","","","","","","","","","feedback_test",""
"","","","","","psychophysics","227","779733","0.0-14.0-0.0-0.18","1368","","k","","","","","","","","","","","","","key","k","16.668680851063723","768","428","k","true","img/H_28.png","生人","prac_self","","生人"
"","","","","","html-keyboard-response","228","780035","0.0-14.0-0.0-1.18","null","<span style='color:GreenYellow; font-size: 70px;'>正确! </span>","null","","","","","","","","","","","","","","","","","","","","","","","feedback_test",""
"","","","","","psychophysics","229","781864","0.0-14.0-0.0-0.19","828","","j","","","","","","","","","","","","","key","j","16.66888073394545","768","428","j","true","img/H_28.png","自我","prac_self","","生人"
"","","","","","html-keyboard-response","230","782166","0.0-14.0-0.0-1.19","null","<span style='color:GreenYellow; font-size: 70px;'>正确! </span>","null","","","","","","","","","","","","","","","","","","","","","","","feedback_test",""
"","","","","","psychophysics","231","784393","0.0-14.0-0.0-0.20","1226","","j","","","","","","","","","","","","","key","j","16.668300751880288","768","428","f","false","img/S_28.png","生人","prac_self","","自我"
"","","","","","html-keyboard-response","232","784695","0.0-14.0-0.0-1.20","null","<span style='color:red; font-size: 70px;'>错误! </span>","null","","","","","","","","","","","","","","","","","","","","","","","feedback_test",""
"","","","","","psychophysics","233","786922","0.0-14.0-0.0-0.21","1226","","j","","","","","","","","","","","","","key","j","16.66837121212192","768","428","j","true","img/H_28.png","朋友","prac_self","","生人"
"","","","","","html-keyboard-response","234","787224","0.0-14.0-0.0-1.21","null","<span style='color:GreenYellow; font-size: 70px;'>正确! </span>","null","","","","","","","","","","","","","","","","","","","","","","","feedback_test",""
"","","","","","psychophysics","235","789491","0.0-14.0-0.0-0.22","1266","","k","","","","","","","","","","","","","key","k","16.668666666666805","768","428","k","true","img/C_28.png","朋友","prac_self","","朋友"
"","","","","","html-keyboard-response","236","789793","0.0-14.0-0.0-1.22","null","<span style='color:GreenYellow; font-size: 70px;'>正确! </span>","null","","","","","","","","","","","","","","","","","","","","","","","feedback_test",""
"","","","","","psychophysics","237","791667","0.0-14.0-0.0-0.23","872","","k","","","","","","","","","","","","","key","k","16.66871171171131","768","428","k","true","img/H_28.png","生人","prac_self","","生人"
"","","","","","html-keyboard-response","238","791967","0.0-14.0-0.0-1.23","null","<span style='color:GreenYellow; font-size: 70px;'>正确! </span>","null","","","","","","","","","","","","","","","","","","","","","","","feedback_test",""
"","","","","","html-keyboard-response","239","795950","0.0-14.0-1.0-0.0","3981","<style>.context{color:white; font-size: 35px; line-height:40px}</style>                           <div><p class='context'>您正确回答了67% 的试次。</p><p class='context'>您的平均反应时为1138毫秒。</p>"," ","","","","","","","","","","","","","","","","","","","","","","","",""
"","","","","","instructions","240","802634","0.0-14.0-1.0-1.0","6682","","","","","","","","","","","","","","[{""page_index"":0,""viewing_time"":2238},{""page_index"":1,""viewing_time"":2857},{""page_index"":2,""viewing_time"":1587}]","","","","","","","","","","","",""
"","","","","","psychophysics","241","804440","0.0-14.1-0.1-0.24","804","","k","","","","","","","","","","","","","key","k","16.66870093458032","768","428","k","true","img/C_28.png","朋友","prac_self","","朋友"
"","","","","","html-keyboard-response","242","804741","0.0-14.1-0.1-1.24","null","<span style='color:GreenYellow; font-size: 70px;'>正确! </span>","null","","","","","","","","","","","","","","","","","","","","","","","feedback_test",""
"","","","","","psychophysics","243","806614","0.0-14.1-0.1-0.25","871","","j","","","","","","","","","","","","","key","j","16.66922321428553","768","428","j","true","img/C_28.png","生人","prac_self","","朋友"
"","","","","","html-keyboard-response","244","806915","0.0-14.1-0.1-1.25","null","<span style='color:GreenYellow; font-size: 70px;'>正确! </span>","null","","","","","","","","","","","","","","","","","","","","","","","feedback_test",""
"","","","","","psychophysics","245","808572","0.0-14.1-0.1-0.26","655","","d","","","","","","","","","","","","","key","d","16.66784693877574","768","428","d","true","img/S_28.png","自我","prac_self","","自我"
"","","","","","html-keyboard-response","246","808874","0.0-14.1-0.1-1.26","null","<span style='color:GreenYellow; font-size: 70px;'>正确! </span>","null","","","","","","","","","","","","","","","","","","","","","","","feedback_test",""
"","","","","","psychophysics","247","810611","0.0-14.1-0.1-0.27","736","","d","","","","","","","","","","","","","key","d","16.668582524271294","768","428","d","true","img/S_28.png","自我","prac_self","","自我"
"","","","","","html-keyboard-response","248","810913","0.0-14.1-0.1-1.27","null","<span style='color:GreenYellow; font-size: 70px;'>正确! </span>","null","","","","","","","","","","","","","","","","","","","","","","","feedback_test",""
"","","","","","psychophysics","249","812841","0.0-14.1-0.1-0.28","927","","k","","","","","","","","","","","","","key","k","16.668324561402603","768","428","j","false","img/C_28.png","自我","prac_self","","朋友"
"","","","","","html-keyboard-response","250","813142","0.0-14.1-0.1-1.28","null","<span style='color:red; font-size: 70px;'>错误! </span>","null","","","","","","","","","","","","","","","","","","","","","","","feedback_test",""
"","","","","","psychophysics","251","814976","0.0-14.1-0.1-0.29","833","","k","","","","","","","","","","","","","key","k","16.669844036696503","768","428","k","true","img/H_28.png","生人","prac_self","","生人"
"","","","","","html-keyboard-response","252","815280","0.0-14.1-0.1-1.29","null","<span style='color:GreenYellow; font-size: 70px;'>正确! </span>","null","","","","","","","","","","","","","","","","","","","","","","","feedback_test",""
"","","","","","psychophysics","253","817429","0.0-14.1-0.1-0.30","1148","","f","","","","","","","","","","","","","key","f","16.668133858267737","768","428","f","true","img/S_28.png","生人","prac_self","","自我"
"","","","","","html-keyboard-response","254","817730","0.0-14.1-0.1-1.30","null","<span style='color:GreenYellow; font-size: 70px;'>正确! </span>","null","","","","","","","","","","","","","","","","","","","","","","","feedback_test",""
"","","","","","psychophysics","255","820137","0.0-14.1-0.1-0.31","1406","","f","","","","","","","","","","","","","key","f","16.667832167832167","768","428","f","true","img/S_28.png","朋友","prac_self","","自我"
"","","","","","html-keyboard-response","256","820438","0.0-14.1-0.1-1.31","null","<span style='color:GreenYellow; font-size: 70px;'>正确! </span>","null","","","","","","","","","","","","","","","","","","","","","","","feedback_test",""
"","","","","","psychophysics","257","822940","0.0-14.1-0.1-0.32","null","","null","","","","","","","","","","","","","key","null","16.668959731543936","768","428","k","false","img/C_28.png","朋友","prac_self","","朋友"
"","","","","","html-keyboard-response","258","823240","0.0-14.1-0.1-1.32","null","<span class='add_' style='color:yellow; font-size: 70px;'> 太慢! </span>","null","","","","","","","","","","","","","","","","","","","","","","","feedback_test",""
"","","","","","psychophysics","259","825056","0.0-14.1-0.1-0.33","814","","k","","","","","","","","","","","","","key","k","16.667759259259416","768","428","k","true","img/H_28.png","生人","prac_self","","生人"
"","","","","","html-keyboard-response","260","825358","0.0-14.1-0.1-1.33","null","<span style='color:GreenYellow; font-size: 70px;'>正确! </span>","null","","","","","","","","","","","","","","","","","","","","","","","feedback_test",""
"","","","","","psychophysics","261","827464","0.0-14.1-0.1-0.34","1106","","f","","","","","","","","","","","","","key","f","16.669063492063692","768","428","j","false","img/H_28.png","自我","prac_self","","生人"
"","","","","","html-keyboard-response","262","827765","0.0-14.1-0.1-1.34","null","<span style='color:red; font-size: 70px;'>错误! </span>","null","","","","","","","","","","","","","","","","","","","","","","","feedback_test",""
"","","","","","psychophysics","263","829826","0.0-14.1-0.1-0.35","1060","","j","","","","","","","","","","","","","key","j","16.66783606557397","768","428","j","true","img/H_28.png","朋友","prac_self","","生人"
"","","","","","html-keyboard-response","264","830128","0.0-14.1-0.1-1.35","null","<span style='color:GreenYellow; font-size: 70px;'>正确! </span>","null","","","","","","","","","","","","","","","","","","","","","","","feedback_test",""
"","","","","","psychophysics","265","832061","0.0-14.1-0.1-0.36","932","","j","","","","","","","","","","","","","key","j","16.668547826087224","768","428","j","true","img/H_28.png","朋友","prac_self","","生人"
"","","","","","html-keyboard-response","266","832363","0.0-14.1-0.1-1.36","null","<span style='color:GreenYellow; font-size: 70px;'>正确! </span>","null","","","","","","","","","","","","","","","","","","","","","","","feedback_test",""
"","","","","","psychophysics","267","833982","0.0-14.1-0.1-0.37","618","","d","","","","","","","","","","","","","key","d","16.668484536082406","768","428","d","true","img/S_28.png","自我","prac_self","","自我"
"","","","","","html-keyboard-response","268","834285","0.0-14.1-0.1-1.37","null","<span style='color:GreenYellow; font-size: 70px;'>正确! </span>","null","","","","","","","","","","","","","","","","","","","","","","","feedback_test",""
"","","","","","psychophysics","269","835984","0.0-14.1-0.1-0.38","698","","d","","","","","","","","","","","","","key","d","16.668287128713764","768","428","d","true","img/S_28.png","自我","prac_self","","自我"
"","","","","","html-keyboard-response","270","836285","0.0-14.1-0.1-1.38","null","<span style='color:GreenYellow; font-size: 70px;'>正确! </span>","null","","","","","","","","","","","","","","","","","","","","","","","feedback_test",""
"","","","","","psychophysics","271","838144","0.0-14.1-0.1-0.39","858","","j","","","","","","","","","","","","","key","j","16.66826363636329","768","428","f","false","img/S_28.png","朋友","prac_self","","自我"
"","","","","","html-keyboard-response","272","838444","0.0-14.1-0.1-1.39","null","<span style='color:red; font-size: 70px;'>错误! </span>","null","","","","","","","","","","","","","","","","","","","","","","","feedback_test",""
"","","","","","psychophysics","273","840154","0.0-14.1-0.1-0.40","708","","k","","","","","","","","","","","","","key","k","16.6680882352943","768","428","k","true","img/H_28.png","生人","prac_self","","生人"
"","","","","","html-keyboard-response","274","840456","0.0-14.1-0.1-1.40","null","<span style='color:GreenYellow; font-size: 70px;'>正确! </span>","null","","","","","","","","","","","","","","","","","","","","","","","feedback_test",""
"","","","","","psychophysics","275","842899","0.0-14.1-0.1-0.41","1442","","j","","","","","","","","","","","","","key","j","16.66806896551721","768","428","j","true","img/H_28.png","自我","prac_self","","生人"
"","","","","","html-keyboard-response","276","843200","0.0-14.1-0.1-1.41","null","<span style='color:GreenYellow; font-size: 70px;'>正确! </span>","null","","","","","","","","","","","","","","","","","","","","","","","feedback_test",""
"","","","","","psychophysics","277","845502","0.0-14.1-0.1-0.42","1301","","j","","","","","","","","","","","","","key","j","16.66902189780992","768","428","j","true","img/C_28.png","生人","prac_self","","朋友"
"","","","","","html-keyboard-response","278","845804","0.0-14.1-0.1-1.42","null","<span style='color:GreenYellow; font-size: 70px;'>正确! </span>","null","","","","","","","","","","","","","","","","","","","","","","","feedback_test",""
"","","","","","psychophysics","279","847661","0.0-14.1-0.1-0.43","856","","k","","","","","","","","","","","","","key","k","16.668081818181303","768","428","k","true","img/H_28.png","生人","prac_self","","生人"
"","","","","","html-keyboard-response","280","847962","0.0-14.1-0.1-1.43","null","<span style='color:GreenYellow; font-size: 70px;'>正确! </span>","null","","","","","","","","","","","","","","","","","","","","","","","feedback_test",""
"","","","","","psychophysics","281","850414","0.0-14.1-0.1-0.44","1452","","j","","","","","","","","","","","","","key","j","16.66905479452075","768","428","j","true","img/C_28.png","自我","prac_self","","朋友"
"","","","","","html-keyboard-response","282","850715","0.0-14.1-0.1-1.44","null","<span style='color:GreenYellow; font-size: 70px;'>正确! </span>","null","","","","","","","","","","","","","","","","","","","","","","","feedback_test",""
"","","","","","psychophysics","283","852814","0.0-14.1-0.1-0.45","1099","","j","","","","","","","","","","","","","key","j","16.658999999999182","768","428","k","false","img/C_28.png","朋友","prac_self","","朋友"
"","","","","","html-keyboard-response","284","853116","0.0-14.1-0.1-1.45","null","<span style='color:red; font-size: 70px;'>错误! </span>","null","","","","","","","","","","","","","","","","","","","","","","","feedback_test",""
"","","","","","psychophysics","285","855617","0.0-14.1-0.1-0.46","null","","null","","","","","","","","","","","","","key","null","16.665304054053834","768","428","f","false","img/S_28.png","生人","prac_self","","自我"
"","","","","","html-keyboard-response","286","855918","0.0-14.1-0.1-1.46","null","<span class='add_' style='color:yellow; font-size: 70px;'> 太慢! </span>","null","","","","","","","","","","","","","","","","","","","","","","","feedback_test",""
"","","","","","psychophysics","287","857862","0.0-14.1-0.1-0.47","943","","j","","","","","","","","","","","","","key","j","16.668339130434248","768","428","k","false","img/C_28.png","朋友","prac_self","","朋友"
"","","","","","html-keyboard-response","288","858164","0.0-14.1-0.1-1.47","null","<span style='color:red; font-size: 70px;'>错误! </span>","null","","","","","","","","","","","","","","","","","","","","","","","feedback_test",""
"","","","","","html-keyboard-response","289","863135","0.0-15.0","4970","[""<style>.context{color:white; font-size: 35px; line-height:40px}</style>           <div><p class='context'>您正确回答了71% 的试次。</p><p class='context'>您的平均反应时为961毫秒。</p><p class='context'>恭喜您完成这一阶段的练习。按任意键进入<span style='color: yellow;'>重点关注图形为“朋友”</span>的练习。</p></div><p class='footer' style='font-size:35px; line-height:30px;'>任务要求：\n           <p class='footer' style='font-size:35px; line-height:35px;'>对于与“朋友”对应的图形：如果 匹配 ，请按 <span style=\""color: lightgreen;\"">d键</span></p><p class='footer' style='font-size:35px'>如果 不匹配 ，请按<span style=\""color: lightgreen;\"">f键</p></span>\n           <p class='footer' style='font-size:35px; line-height:35px;'>对于非“朋友”对应的图形：如果 匹配 ，请按 <span style=\""color: lightgreen;\"">k键</span></p><p class='footer' style='font-size:35px'>如果 不匹配 ，请按<span style=\""color: lightgreen;\"">j键</p></span>\n           <p class='footer' style='font-size:22px; line-height:25px;'>请在实验过程中将您的<span style=\""color: lightgreen;\"">食指和中指</span>放在电脑键盘的相应键位上进行按键。</p></span>""]"," ","","","","","","","","","","","","","","","","","","","","","","","",""
"","","","","","psychophysics","290","865422","0.0-16.0-0.0-0.0","1283","","j","","","","","","","","","","","","","key","j","16.668698529411547","768","428","f","false","img/C_28.png","自我","prac_friend","","朋友"
"","","","","","html-keyboard-response","291","865723","0.0-16.0-0.0-1.0","null","<span style='color:red; font-size: 70px;'>错误! </span>","null","","","","","","","","","","","","","","","","","","","","","","","feedback_test",""
"","","","","","psychophysics","292","867785","0.0-16.0-0.0-0.1","1061","","j","","","","","","","","","","","","","key","j","16.66904918032748","768","428","j","true","img/S_28.png","生人","prac_friend","","自我"
"","","","","","html-keyboard-response","293","868086","0.0-16.0-0.0-1.1","null","<span style='color:GreenYellow; font-size: 70px;'>正确! </span>","null","","","","","","","","","","","","","","","","","","","","","","","feedback_test",""
"","","","","","psychophysics","294","869966","0.0-16.0-0.0-0.2","880","","k","","","","","","","","","","","","","key","k","16.669144144144354","768","428","k","true","img/H_28.png","生人","prac_friend","","生人"
"","","","","","html-keyboard-response","295","870268","0.0-16.0-0.0-1.2","null","<span style='color:GreenYellow; font-size: 70px;'>正确! </span>","null","","","","","","","","","","","","","","","","","","","","","","","feedback_test",""
"","","","","","psychophysics","296","872449","0.0-16.0-0.0-0.3","1179","","j","","","","","","","","","","","","","key","j","16.66800775193851","768","428","j","true","img/H_28.png","朋友","prac_friend","","生人"
"","","","","","html-keyboard-response","297","872750","0.0-16.0-0.0-1.3","null","<span style='color:GreenYellow; font-size: 70px;'>正确! </span>","null","","","","","","","","","","","","","","","","","","","","","","","feedback_test",""
"","","","","","psychophysics","298","874849","0.0-16.0-0.0-0.4","1098","","f","","","","","","","","","","","","","key","f","16.66142741935478","768","428","f","true","img/C_28.png","生人","prac_friend","","朋友"
"","","","","","html-keyboard-response","299","875151","0.0-16.0-0.0-1.4","null","<span style='color:GreenYellow; font-size: 70px;'>正确! </span>","null","","","","","","","","","","","","","","","","","","","","","","","feedback_test",""
"","","","","","psychophysics","300","877565","0.0-16.0-0.0-0.5","1414","","j","","","","","","","","","","","","","key","j","16.662727272727402","768","428","j","true","img/H_28.png","自我","prac_friend","","生人"
"","","","","","html-keyboard-response","301","877867","0.0-16.0-0.0-1.5","null","<span style='color:GreenYellow; font-size: 70px;'>正确! </span>","null","","","","","","","","","","","","","","","","","","","","","","","feedback_test",""
"","","","","","psychophysics","302","880167","0.0-16.0-0.0-0.6","1299","","k","","","","","","","","","","","","","key","k","16.668175182481175","768","428","k","true","img/S_28.png","自我","prac_friend","","自我"
"","","","","","html-keyboard-response","303","880468","0.0-16.0-0.0-1.6","null","<span style='color:GreenYellow; font-size: 70px;'>正确! </span>","null","","","","","","","","","","","","","","","","","","","","","","","feedback_test",""
"","","","","","psychophysics","304","882304","0.0-16.0-0.0-0.7","835","","d","","","","","","","","","","","","","key","d","16.665275229357928","768","428","d","true","img/C_28.png","朋友","prac_friend","","朋友"
"","","","","","html-keyboard-response","305","882606","0.0-16.0-0.0-1.7","null","<span style='color:GreenYellow; font-size: 70px;'>正确! </span>","null","","","","","","","","","","","","","","","","","","","","","","","feedback_test",""
"","","","","","psychophysics","306","884854","0.0-16.0-0.0-0.8","1246","","j","","","","","","","","","","","","","key","j","16.66902238805952","768","428","k","false","img/S_28.png","自我","prac_friend","","自我"
"","","","","","html-keyboard-response","307","885156","0.0-16.0-0.0-1.8","null","<span style='color:red; font-size: 70px;'>错误! </span>","null","","","","","","","","","","","","","","","","","","","","","","","feedback_test",""
"","","","","","psychophysics","308","887569","0.0-16.0-0.0-0.9","1412","","f","","","","","","","","","","","","","key","f","16.66783916083868","768","428","j","false","img/S_28.png","朋友","prac_friend","","自我"
"","","","","","html-keyboard-response","309","887870","0.0-16.0-0.0-1.9","null","<span style='color:red; font-size: 70px;'>错误! </span>","null","","","","","","","","","","","","","","","","","","","","","","","feedback_test",""
"","","","","","psychophysics","310","889737","0.0-16.0-0.0-0.10","865","","k","","","","","","","","","","","","","key","k","16.668162162162925","768","428","k","true","img/H_28.png","生人","prac_friend","","生人"
"","","","","","html-keyboard-response","311","890038","0.0-16.0-0.0-1.10","null","<span style='color:GreenYellow; font-size: 70px;'>正确! </span>","null","","","","","","","","","","","","","","","","","","","","","","","feedback_test",""
"","","","","","psychophysics","312","891792","0.0-16.0-0.0-0.11","753","","d","","","","","","","","","","","","","key","d","16.66833653846138","768","428","d","true","img/C_28.png","朋友","prac_friend","","朋友"
"","","","","","html-keyboard-response","313","892093","0.0-16.0-0.0-1.11","null","<span style='color:GreenYellow; font-size: 70px;'>正确! </span>","null","","","","","","","","","","","","","","","","","","","","","","","feedback_test",""
"","","","","","psychophysics","314","893839","0.0-16.0-0.0-0.12","744","","j","","","","","","","","","","","","","key","j","16.668432692307622","768","428","j","true","img/H_28.png","朋友","prac_friend","","生人"
"","","","","","html-keyboard-response","315","894142","0.0-16.0-0.0-1.12","null","<span style='color:GreenYellow; font-size: 70px;'>正确! </span>","null","","","","","","","","","","","","","","","","","","","","","","","feedback_test",""
"","","","","","psychophysics","316","896097","0.0-16.0-0.0-0.13","954","","k","","","","","","","","","","","","","key","k","16.669068965516935","768","428","k","true","img/S_28.png","自我","prac_friend","","自我"
"","","","","","html-keyboard-response","317","896399","0.0-16.0-0.0-1.13","null","<span style='color:GreenYellow; font-size: 70px;'>正确! </span>","null","","","","","","","","","","","","","","","","","","","","","","","feedback_test",""
"","","","","","psychophysics","318","898204","0.0-16.0-0.0-0.14","804","","k","","","","","","","","","","","","","key","k","16.66862616822489","768","428","k","true","img/H_28.png","生人","prac_friend","","生人"
"","","","","","html-keyboard-response","319","898504","0.0-16.0-0.0-1.14","null","<span style='color:GreenYellow; font-size: 70px;'>正确! </span>","null","","","","","","","","","","","","","","","","","","","","","","","feedback_test",""
"","","","","","psychophysics","320","900491","0.0-16.0-0.0-0.15","985","","j","","","","","","","","","","","","","key","j","16.668194915254805","768","428","j","true","img/H_28.png","自我","prac_friend","","生人"
"","","","","","html-keyboard-response","321","900792","0.0-16.0-0.0-1.15","null","<span style='color:GreenYellow; font-size: 70px;'>正确! </span>","null","","","","","","","","","","","","","","","","","","","","","","","feedback_test",""
"","","","","","psychophysics","322","902546","0.0-16.0-0.0-0.16","752","","k","","","","","","","","","","","","","key","k","16.665951923076555","768","428","k","true","img/H_28.png","生人","prac_friend","","生人"
"","","","","","html-keyboard-response","323","902848","0.0-16.0-0.0-1.16","null","<span style='color:GreenYellow; font-size: 70px;'>正确! </span>","null","","","","","","","","","","","","","","","","","","","","","","","feedback_test",""
"","","","","","psychophysics","324","904954","0.0-16.0-0.0-0.17","1105","","j","","","","","","","","","","","","","key","j","16.667487999999896","768","428","j","true","img/S_28.png","生人","prac_friend","","自我"
"","","","","","html-keyboard-response","325","905255","0.0-16.0-0.0-1.17","null","<span style='color:GreenYellow; font-size: 70px;'>正确! </span>","null","","","","","","","","","","","","","","","","","","","","","","","feedback_test",""
"","","","","","psychophysics","326","907346","0.0-16.0-0.0-0.18","1090","","f","","","","","","","","","","","","","key","f","16.66766129032288","768","428","f","true","img/C_28.png","生人","prac_friend","","朋友"
"","","","","","html-keyboard-response","327","907647","0.0-16.0-0.0-1.18","null","<span style='color:GreenYellow; font-size: 70px;'>正确! </span>","null","","","","","","","","","","","","","","","","","","","","","","","feedback_test",""
"","","","","","psychophysics","328","910149","0.0-16.0-0.0-0.19","null","","null","","","","","","","","","","","","","key","null","16.668912751677496","768","428","j","false","img/S_28.png","朋友","prac_friend","","自我"
"","","","","","html-keyboard-response","329","910451","0.0-16.0-0.0-1.19","null","<span class='add_' style='color:yellow; font-size: 70px;'> 太慢! </span>","null","","","","","","","","","","","","","","","","","","","","","","","feedback_test",""
"","","","","","psychophysics","330","912251","0.0-16.0-0.0-0.20","799","","d","","","","","","","","","","","","","key","d","16.668056074765982","768","428","d","true","img/C_28.png","朋友","prac_friend","","朋友"
"","","","","","html-keyboard-response","331","912553","0.0-16.0-0.0-1.20","null","<span style='color:GreenYellow; font-size: 70px;'>正确! </span>","null","","","","","","","","","","","","","","","","","","","","","","","feedback_test",""
"","","","","","psychophysics","332","914621","0.0-16.0-0.0-0.21","1067","","f","","","","","","","","","","","","","key","f","16.66832520325225","768","428","f","true","img/C_28.png","自我","prac_friend","","朋友"
"","","","","","html-keyboard-response","333","914924","0.0-16.0-0.0-1.21","null","<span style='color:GreenYellow; font-size: 70px;'>正确! </span>","null","","","","","","","","","","","","","","","","","","","","","","","feedback_test",""
"","","","","","psychophysics","334","916421","0.0-16.0-0.0-0.22","497","","f","","","","","","","","","","","","","key","f","16.66823863636422","768","428","d","false","img/C_28.png","朋友","prac_friend","","朋友"
"","","","","","html-keyboard-response","335","916722","0.0-16.0-0.0-1.22","null","<span style='color:red; font-size: 70px;'>错误! </span>","null","","","","","","","","","","","","","","","","","","","","","","","feedback_test",""
"","","","","","psychophysics","336","918484","0.0-16.0-0.0-0.23","761","","j","","","","","","","","","","","","","key","j","16.66921153846152","768","428","k","false","img/S_28.png","自我","prac_friend","","自我"
"","","","","","html-keyboard-response","337","918785","0.0-16.0-0.0-1.23","null","<span style='color:red; font-size: 70px;'>错误! </span>","null","","","","","","","","","","","","","","","","","","","","","","","feedback_test",""
"","","","","","html-keyboard-response","338","924191","0.0-17.0","5401","[""<style>.context{color:white; font-size: 35px; line-height:40px}</style>               <div><p class='context'>您正确回答了75% 的试次。</p><p class='context'>您的平均反应时为982毫秒。</p><p class='context'>恭喜您完成这一阶段的练习。按任意键进入<span style='color: yellow;'>重点关注图形为“生人”</span>的练习。</p></div><p class='footer' style='font-size:35px; line-height:30px;'>任务要求：\n               <p class='footer' style='font-size:35px; line-height:35px;'>对与“生人”对应的图形，如果 匹配 ，请按 <span style=\""color: lightgreen;\"">d键</span></p><p class='footer' style='font-size:35px'>如果 不匹配 ，请按<span style=\""color: lightgreen;\"">f键</p></span>\n               <p class='footer' style='font-size:35px; line-height:35px;'>对非“生人”对应的图形，如果 匹配 ，请按 <span style=\""color: lightgreen;\"">k键</span></p><p class='footer' style='font-size:35px'>如果 不匹配 ，请按<span style=\""color: lightgreen;\"">j键</p></span>\n               <p class='footer' style='font-size:22px; line-height:25px;'>请在实验过程中将您的<span style=\""color: lightgreen;\"">食指和中指</span>放在电脑键盘的相应键位上进行按键。</p></span>""]"," ","","","","","","","","","","","","","","","","","","","","","","","",""
"","","","","","psychophysics","339","926081","0.0-18.0-0.0-0.0","886","","f","","","","","","","","","","","","","key","f","16.668589285714138","768","428","f","true","img/H_28.png","朋友","prac_stranger","","生人"
"","","","","","html-keyboard-response","340","926382","0.0-18.0-0.0-1.0","null","<span style='color:GreenYellow; font-size: 70px;'>正确! </span>","null","","","","","","","","","","","","","","","","","","","","","","","feedback_test",""
"","","","","","psychophysics","341","928519","0.0-18.0-0.0-0.1","1135","","j","","","","","","","","","","","","","key","j","16.667984251968754","768","428","k","false","img/C_28.png","朋友","prac_stranger","","朋友"
"","","","","","html-keyboard-response","342","928820","0.0-18.0-0.0-1.1","null","<span style='color:red; font-size: 70px;'>错误! </span>","null","","","","","","","","","","","","","","","","","","","","","","","feedback_test",""
"","","","","","psychophysics","343","930432","0.0-18.0-0.0-0.2","611","","k","","","","","","","","","","","","","key","k","16.669052083332645","768","428","d","false","img/H_28.png","生人","prac_stranger","","生人"
"","","","","","html-keyboard-response","344","930734","0.0-18.0-0.0-1.2","null","<span style='color:red; font-size: 70px;'>错误! </span>","null","","","","","","","","","","","","","","","","","","","","","","","feedback_test",""
"","","","","","psychophysics","345","932600","0.0-18.0-0.0-0.3","865","","j","","","","","","","","","","","","","key","j","16.667891891891355","768","428","j","true","img/S_28.png","生人","prac_stranger","","自我"
"","","","","","html-keyboard-response","346","932901","0.0-18.0-0.0-1.3","null","<span style='color:GreenYellow; font-size: 70px;'>正确! </span>","null","","","","","","","","","","","","","","","","","","","","","","","feedback_test",""
"","","","","","psychophysics","347","934768","0.0-18.0-0.0-0.4","864","","k","","","","","","","","","","","","","key","k","16.66756756756841","768","428","k","true","img/C_28.png","朋友","prac_stranger","","朋友"
"","","","","","html-keyboard-response","348","935069","0.0-18.0-0.0-1.4","null","<span style='color:GreenYellow; font-size: 70px;'>正确! </span>","null","","","","","","","","","","","","","","","","","","","","","","","feedback_test",""
"","","","","","psychophysics","349","936942","0.0-18.0-0.0-0.5","872","","f","","","","","","","","","","","","","key","f","16.668553571428806","768","428","k","false","img/S_28.png","自我","prac_stranger","","自我"
"","","","","","html-keyboard-response","350","937243","0.0-18.0-0.0-1.5","null","<span style='color:red; font-size: 70px;'>错误! </span>","null","","","","","","","","","","","","","","","","","","","","","","","feedback_test",""
"","","","","","psychophysics","351","939052","0.0-18.0-0.0-0.6","807","","j","","","","","","","","","","","","","key","j","16.668130841121407","768","428","k","false","img/S_28.png","自我","prac_stranger","","自我"
"","","","","","html-keyboard-response","352","939354","0.0-18.0-0.0-1.6","null","<span style='color:red; font-size: 70px;'>错误! </span>","null","","","","","","","","","","","","","","","","","","","","","","","feedback_test",""
"","","","","","psychophysics","353","941337","0.0-18.0-0.0-0.7","981","","j","","","","","","","","","","","","","key","j","16.669313559321473","768","428","j","true","img/S_28.png","朋友","prac_stranger","","自我"
"","","","","","html-keyboard-response","354","941638","0.0-18.0-0.0-1.7","null","<span style='color:GreenYellow; font-size: 70px;'>正确! </span>","null","","","","","","","","","","","","","","","","","","","","","","","feedback_test",""
"","","","","","psychophysics","355","943482","0.0-18.0-0.0-0.8","841","","d","","","","","","","","","","","","","key","d","16.66886363636427","768","428","d","true","img/H_28.png","生人","prac_stranger","","生人"
"","","","","","html-keyboard-response","356","943783","0.0-18.0-0.0-1.8","null","<span style='color:GreenYellow; font-size: 70px;'>正确! </span>","null","","","","","","","","","","","","","","","","","","","","","","","feedback_test",""
"","","","","","psychophysics","357","945717","0.0-18.0-0.0-0.9","931","","f","","","","","","","","","","","","","key","f","16.667930434782907","768","428","f","true","img/H_28.png","自我","prac_stranger","","生人"
"","","","","","html-keyboard-response","358","946019","0.0-18.0-0.0-1.9","null","<span style='color:GreenYellow; font-size: 70px;'>正确! </span>","null","","","","","","","","","","","","","","","","","","","","","","","feedback_test",""
"","","","","","psychophysics","359","948057","0.0-18.0-0.0-0.10","1038","","j","","","","","","","","","","","","","key","j","16.668685950413884","768","428","j","true","img/C_28.png","自我","prac_stranger","","朋友"
"","","","","","html-keyboard-response","360","948358","0.0-18.0-0.0-1.10","null","<span style='color:GreenYellow; font-size: 70px;'>正确! </span>","null","","","","","","","","","","","","","","","","","","","","","","","feedback_test",""
"","","","","","psychophysics","361","950473","0.0-18.0-0.0-0.11","1113","","j","","","","","","","","","","","","","key","j","16.663447999999857","768","428","j","true","img/C_28.png","生人","prac_stranger","","朋友"
"","","","","","html-keyboard-response","362","950773","0.0-18.0-0.0-1.11","null","<span style='color:GreenYellow; font-size: 70px;'>正确! </span>","null","","","","","","","","","","","","","","","","","","","","","","","feedback_test",""
"","","","","","psychophysics","363","952527","0.0-18.0-0.0-0.12","752","","d","","","","","","","","","","","","","key","d","16.668701923077325","768","428","d","true","img/H_28.png","生人","prac_stranger","","生人"
"","","","","","html-keyboard-response","364","952828","0.0-18.0-0.0-1.12","null","<span style='color:GreenYellow; font-size: 70px;'>正确! </span>","null","","","","","","","","","","","","","","","","","","","","","","","feedback_test",""
"","","","","","psychophysics","365","955032","0.0-18.0-0.0-0.13","1203","","j","","","","","","","","","","","","","key","j","16.667389312977654","768","428","j","true","img/C_28.png","自我","prac_stranger","","朋友"
"","","","","","html-keyboard-response","366","955334","0.0-18.0-0.0-1.13","null","<span style='color:GreenYellow; font-size: 70px;'>正确! </span>","null","","","","","","","","","","","","","","","","","","","","","","","feedback_test",""
"","","","","","psychophysics","367","957455","0.0-18.0-0.0-0.14","1120","","k","","","","","","","","","","","","","key","k","16.667825396825","768","428","k","true","img/S_28.png","自我","prac_stranger","","自我"
"","","","","","html-keyboard-response","368","957756","0.0-18.0-0.0-1.14","null","<span style='color:GreenYellow; font-size: 70px;'>正确! </span>","null","","","","","","","","","","","","","","","","","","","","","","","feedback_test",""
"","","","","","psychophysics","369","959466","0.0-18.0-0.0-0.15","709","","j","","","","","","","","","","","","","key","j","16.669480392156974","768","428","f","false","img/H_28.png","自我","prac_stranger","","生人"
"","","","","","html-keyboard-response","370","959767","0.0-18.0-0.0-1.15","null","<span style='color:red; font-size: 70px;'>错误! </span>","null","","","","","","","","","","","","","","","","","","","","","","","feedback_test",""
"","","","","","psychophysics","371","961670","0.0-18.0-0.0-0.16","901","","k","","","","","","","","","","","","","key","k","16.668362831858612","768","428","k","true","img/S_28.png","自我","prac_stranger","","自我"
"","","","","","html-keyboard-response","372","961971","0.0-18.0-0.0-1.16","null","<span style='color:GreenYellow; font-size: 70px;'>正确! </span>","null","","","","","","","","","","","","","","","","","","","","","","","feedback_test",""
"","","","","","psychophysics","373","964137","0.0-18.0-0.0-0.17","1165","","k","","","","","","","","","","","","","key","k","16.669534883720893","768","428","k","true","img/C_28.png","朋友","prac_stranger","","朋友"
"","","","","","html-keyboard-response","374","964438","0.0-18.0-0.0-1.17","null","<span style='color:GreenYellow; font-size: 70px;'>正确! </span>","null","","","","","","","","","","","","","","","","","","","","","","","feedback_test",""
"","","","","","psychophysics","375","965997","0.0-18.0-0.0-0.18","558","","d","","","","","","","","","","","","","key","d","16.669591397849434","768","428","d","true","img/H_28.png","生人","prac_stranger","","生人"
"","","","","","html-keyboard-response","376","966299","0.0-18.0-0.0-1.18","null","<span style='color:GreenYellow; font-size: 70px;'>正确! </span>","null","","","","","","","","","","","","","","","","","","","","","","","feedback_test",""
"","","","","","psychophysics","377","968090","0.0-18.0-0.0-0.19","790","","j","","","","","","","","","","","","","key","j","16.6681226415094","768","428","f","false","img/H_28.png","朋友","prac_stranger","","生人"
"","","","","","html-keyboard-response","378","968391","0.0-18.0-0.0-1.19","null","<span style='color:red; font-size: 70px;'>错误! </span>","null","","","","","","","","","","","","","","","","","","","","","","","feedback_test",""
"","","","","","psychophysics","379","970407","0.0-18.0-0.0-0.20","1014","","j","","","","","","","","","","","","","key","j","16.66884166666617","768","428","j","true","img/S_28.png","生人","prac_stranger","","自我"
"","","","","","html-keyboard-response","380","970708","0.0-18.0-0.0-1.20","null","<span style='color:GreenYellow; font-size: 70px;'>正确! </span>","null","","","","","","","","","","","","","","","","","","","","","","","feedback_test",""
"","","","","","psychophysics","381","972650","0.0-18.0-0.0-0.21","940","","k","","","","","","","","","","","","","key","k","16.66772413793108","768","428","k","true","img/C_28.png","朋友","prac_stranger","","朋友"
"","","","","","html-keyboard-response","382","972952","0.0-18.0-0.0-1.21","null","<span style='color:GreenYellow; font-size: 70px;'>正确! </span>","null","","","","","","","","","","","","","","","","","","","","","","","feedback_test",""
"","","","","","psychophysics","383","974907","0.0-18.0-0.0-0.22","953","","j","","","","","","","","","","","","","key","j","16.668681034483097","768","428","j","true","img/S_28.png","朋友","prac_stranger","","自我"
"","","","","","html-keyboard-response","384","975208","0.0-18.0-0.0-1.22","null","<span style='color:GreenYellow; font-size: 70px;'>正确! </span>","null","","","","","","","","","","","","","","","","","","","","","","","feedback_test",""
"","","","","","psychophysics","385","977232","0.0-18.0-0.0-0.23","1023","","j","","","","","","","","","","","","","key","j","16.66825619834756","768","428","j","true","img/C_28.png","生人","prac_stranger","","朋友"
"","","","","","html-keyboard-response","386","977534","0.0-18.0-0.0-1.23","null","<span style='color:GreenYellow; font-size: 70px;'>正确! </span>","null","","","","","","","","","","","","","","","","","","","","","","","feedback_test",""
"","","","","","html-keyboard-response","387","989533","0.0-19.0","11998","[""<style>.context{color:white; font-size: 35px; line-height:40px}</style>                                     <div><p class='context'>您正确回答了75% 的试次。</p><p class='context'>您的平均反应时为953毫秒。</p><p class='context'>恭喜您完成练习。您可以在此时休息一段时间，准备好后按任意键进入正式实验。</p><p class='footer' style='font-size: 35px; line-height:40px;'>请在进入正式实验实验之前将您的<span style='color: lightgreen;'>食指和中指</span>放在电脑键盘的相应键位上，做好按键准备。</p>""]"," ","","","","","","","","","","","","","","","","","","","","","","","",""
"","","","","","html-keyboard-response","388","997216","0.0-20.0-2.0-0.0","7680","
                 <p>请您将食指和中指放在相应按键上，准备进入<span style='color: yellow;'>重点图形为“生人”对应图形</span>的正式匹配任务</p>
                 <p> <div style = ""color: green""><按任意键开始></div></p>
                 "," ","","","","","","","","","","","","","","","","","","","","","","","",""
"","","","","","psychophysics","389","999110","0.0-20.0-2.0-1.0-0.0-0.0","893","","j","","","","","","","","","","","","","key","j","16.668250000000366","768","428","j","true","img/S_28.png","生人","stranger","","自我"
"","","","","","html-keyboard-response","390","999412","0.0-20.0-2.0-1.0-0.0-1.0","null","<span style='color:GreenYellow; font-size: 70px;'>正确! </span>","null","","","","","","","","","","","","","","","","","","","","","","","feedback_test",""
"","","","","","psychophysics","391","1001112","0.0-20.0-2.0-1.0-0.0-0.1","700","","d","","","","","","","","","","","","","key","d","16.668118811881005","768","428","d","true","img/H_28.png","生人","stranger","","生人"
"","","","","","html-keyboard-response","392","1001414","0.0-20.0-2.0-1.0-0.0-1.1","null","<span style='color:GreenYellow; font-size: 70px;'>正确! </span>","null","","","","","","","","","","","","","","","","","","","","","","","feedback_test",""
"","","","","","psychophysics","393","1003538","0.0-20.0-2.0-1.0-0.0-0.2","1123","","j","","","","","","","","","","","","","key","j","16.66214285714234","768","428","j","true","img/C_28.png","自我","stranger","","朋友"
"","","","","","html-keyboard-response","394","1003839","0.0-20.0-2.0-1.0-0.0-1.2","null","<span style='color:GreenYellow; font-size: 70px;'>正确! </span>","null","","","","","","","","","","","","","","","","","","","","","","","feedback_test",""
"","","","","","psychophysics","395","1005690","0.0-20.0-2.0-1.0-0.0-0.3","850","","d","","","","","","","","","","","","","key","d","16.669218181817666","768","428","d","true","img/H_28.png","生人","stranger","","生人"
"","","","","","html-keyboard-response","396","1005993","0.0-20.0-2.0-1.0-0.0-1.3","null","<span style='color:GreenYellow; font-size: 70px;'>正确! </span>","null","","","","","","","","","","","","","","","","","","","","","","","feedback_test",""
"","","","","","psychophysics","397","1007840","0.0-20.0-2.0-1.0-0.0-0.4","846","","k","","","","","","","","","","","","","key","k","16.667836363636887","768","428","k","true","img/C_28.png","朋友","stranger","","朋友"
"","","","","","html-keyboard-response","398","1008141","0.0-20.0-2.0-1.0-0.0-1.4","null","<span style='color:GreenYellow; font-size: 70px;'>正确! </span>","null","","","","","","","","","","","","","","","","","","","","","","","feedback_test",""
"","","","","","psychophysics","399","1009903","0.0-20.0-2.0-1.0-0.0-0.5","761","","j","","","","","","","","","","","","","key","j","16.668533333333297","768","428","f","false","img/H_28.png","朋友","stranger","","生人"
"","","","","","html-keyboard-response","400","1010204","0.0-20.0-2.0-1.0-0.0-1.5","null","<span style='color:red; font-size: 70px;'>错误! </span>","null","","","","","","","","","","","","","","","","","","","","","","","feedback_test",""
"","","","","","psychophysics","401","1012152","0.0-20.0-2.0-1.0-0.0-0.6","947","","j","","","","","","","","","","","","","key","j","16.669224137931074","768","428","j","true","img/S_28.png","朋友","stranger","","自我"
"","","","","","html-keyboard-response","402","1012454","0.0-20.0-2.0-1.0-0.0-1.6","null","<span style='color:GreenYellow; font-size: 70px;'>正确! </span>","null","","","","","","","","","","","","","","","","","","","","","","","feedback_test",""
"","","","","","psychophysics","403","1014305","0.0-20.0-2.0-1.0-0.0-0.7","850","","k","","","","","","","","","","","","","key","k","16.66779090909139","768","428","k","true","img/S_28.png","自我","stranger","","自我"
"","","","","","html-keyboard-response","404","1014606","0.0-20.0-2.0-1.0-0.0-1.7","null","<span style='color:GreenYellow; font-size: 70px;'>正确! </span>","null","","","","","","","","","","","","","","","","","","","","","","","feedback_test",""
"","","","","","psychophysics","405","1016525","0.0-20.0-2.0-1.0-0.0-0.8","917","","k","","","","","","","","","","","","","key","k","16.669596491228347","768","428","k","true","img/C_28.png","朋友","stranger","","朋友"
"","","","","","html-keyboard-response","406","1016826","0.0-20.0-2.0-1.0-0.0-1.8","null","<span style='color:GreenYellow; font-size: 70px;'>正确! </span>","null","","","","","","","","","","","","","","","","","","","","","","","feedback_test",""
"","","","","","psychophysics","407","1019135","0.0-20.0-2.0-1.0-0.0-0.9","1307","","k","","","","","","","","","","","","","key","k","16.66798550724575","768","428","k","true","img/S_28.png","自我","stranger","","自我"
"","","","","","html-keyboard-response","408","1019436","0.0-20.0-2.0-1.0-0.0-1.9","null","<span style='color:GreenYellow; font-size: 70px;'>正确! </span>","null","","","","","","","","","","","","","","","","","","","","","","","feedback_test",""
"","","","","","psychophysics","409","1021190","0.0-20.0-2.0-1.0-0.0-0.10","752","","d","","","","","","","","","","","","","key","d","16.668865384615717","768","428","f","false","img/H_28.png","自我","stranger","","生人"
"","","","","","html-keyboard-response","410","1021491","0.0-20.0-2.0-1.0-0.0-1.10","null","<span style='color:red; font-size: 70px;'>错误! </span>","null","","","","","","","","","","","","","","","","","","","","","","","feedback_test",""
"","","","","","psychophysics","411","1023560","0.0-20.0-2.0-1.0-0.0-0.11","1066","","j","","","","","","","","","","","","","key","j","16.66928455284494","768","428","j","true","img/C_28.png","生人","stranger","","朋友"
"","","","","","html-keyboard-response","412","1023861","0.0-20.0-2.0-1.0-0.0-1.11","null","<span style='color:GreenYellow; font-size: 70px;'>正确! </span>","null","","","","","","","","","","","","","","","","","","","","","","","feedback_test",""
"","","","","","psychophysics","413","1025653","0.0-20.0-2.0-1.0-0.0-0.12","790","","k","","","","","","","","","","","","","key","k","16.66908411214903","768","428","k","true","img/S_28.png","自我","stranger","","自我"
"","","","","","html-keyboard-response","414","1025954","0.0-20.0-2.0-1.0-0.0-1.12","null","<span style='color:GreenYellow; font-size: 70px;'>正确! </span>","null","","","","","","","","","","","","","","","","","","","","","","","feedback_test",""
"","","","","","psychophysics","415","1027670","0.0-20.0-2.0-1.0-0.0-0.13","715","","f","","","","","","","","","","","","","key","f","16.66866666666579","768","428","d","false","img/H_28.png","生人","stranger","","生人"
"","","","","","html-keyboard-response","416","1027972","0.0-20.0-2.0-1.0-0.0-1.13","null","<span style='color:red; font-size: 70px;'>错误! </span>","null","","","","","","","","","","","","","","","","","","","","","","","feedback_test",""
"","","","","","psychophysics","417","1029792","0.0-20.0-2.0-1.0-0.0-0.14","819","","f","","","","","","","","","","","","","key","f","16.667925925925374","768","428","f","true","img/H_28.png","自我","stranger","","生人"
"","","","","","html-keyboard-response","418","1030092","0.0-20.0-2.0-1.0-0.0-1.14","null","<span style='color:GreenYellow; font-size: 70px;'>正确! </span>","null","","","","","","","","","","","","","","","","","","","","","","","feedback_test",""
"","","","","","psychophysics","419","1032343","0.0-20.0-2.0-1.0-0.0-0.15","1248","","k","","","","","","","","","","","","","key","k","16.668343283581798","768","428","k","true","img/C_28.png","朋友","stranger","","朋友"
"","","","","","html-keyboard-response","420","1032645","0.0-20.0-2.0-1.0-0.0-1.15","null","<span style='color:GreenYellow; font-size: 70px;'>正确! </span>","null","","","","","","","","","","","","","","","","","","","","","","","feedback_test",""
"","","","","","psychophysics","421","1034930","0.0-20.0-2.0-1.0-0.0-0.16","1284","","j","","","","","","","","","","","","","key","j","16.66786764705937","768","428","j","true","img/C_28.png","生人","stranger","","朋友"
"","","","","","html-keyboard-response","422","1035231","0.0-20.0-2.0-1.0-0.0-1.16","null","<span style='color:GreenYellow; font-size: 70px;'>正确! </span>","null","","","","","","","","","","","","","","","","","","","","","","","feedback_test",""
"","","","","","psychophysics","423","1037255","0.0-20.0-2.0-1.0-0.0-0.17","1024","","d","","","","","","","","","","","","","key","d","16.667553719008065","768","428","d","true","img/H_28.png","生人","stranger","","生人"
