"success","timeout","failed_images","failed_audio","failed_video","trial_type","trial_index","time_elapsed","internal_node_id","rt","stimulus","response","value","item_width_mm","item_height_mm","item_width_px","px2mm","view_dist_mm","item_width_deg","px2deg","scale_factor","win_width_deg","win_height_deg","view_history","response_type","key_press","avg_frame_time","center_x","center_y","correct_response","correct","Image","text","condition","screen_id","label"
"true","false","[]","[]","[]","preload","0","265","0.0-0.0","","","","","","","","","","","","","","","","","","","","","","","","","","",""
"","","","","","html-keyboard-response","1","2406","0.0-1.0","2140","
  <p>您好，欢迎参加本次实验。</p>
  <p>为充分保障您的权利，请确保您已经知晓并同意《参与实验同意书》以及《数据公开知情同意书》。</p>
  <p>如果您未见过上述内容，请咨询实验员。</p>
  <p>如果您选择继续实验，则表示您已经清楚两份知情同意书的内容并同意。</p>
  <p> <div style = ""color: green""><按任意键至下页></div> </p>
  ","enter","","","","","","","","","","","","","","","","","","","","","","","",""
"","","","","","html-keyboard-response","2","2923","0.0-2.0","517","
  <p>本实验首先需要您填写一些基本个人信息。</p>
  <p> <div style = ""color: green""><按任意键至下页></div></p>
  ","enter","","","","","","","","","","","","","","","","","","","","","","","",""
"","","","","","call-function","3","2923","0.0-3.0-0.0","","","","","","","","","","","","","","","","","","","","","","","","","","",""
"","","","","","survey-html-form","4","7318","0.0-3.0-1.0","4394","","{""Q0"":""19""}","","","","","","","","","","","","","","","","","","","","","","","",""
"","","","","","html-button-response","5","8212","0.0-3.0-2.0","892","<p style = 'color : white'>您的性别</p>","1","","","","","","","","","","","","","","","","","","","","","","","",""
"","","","","","survey-html-form","6","10994","0.0-3.0-3.0","2781","","{""Q0"":""1999""}","","","","","","","","","","","","","","","","","","","","","","","",""
"","","","","","survey-html-form","7","12606","0.0-3.0-4.0","1612","","{""Q0"":""6""}","","","","","","","","","","","","","","","","","","","","","","","",""
"","","","","","virtual-chinrest","8","301487","0.0-4.0","288878","","","","85.6","53.98","456.8139647457006","5.3372652003451755","535.68","9.136279294914011","50","0.8581173743631474","29.9","17.12","","","","","","","","","","","","",""
"true","","","","","fullscreen","9","304637","0.0-5.0","","","","","","","","","","","","","","","","","","","","","","","","","","",""
"","","","","","instructions","10","424774","0.0-6.0","120137","","","","","","","","","","","","","","[{""page_index"":0,""viewing_time"":1354},{""page_index"":1,""viewing_time"":13744},{""page_index"":2,""viewing_time"":99972},{""page_index"":3,""viewing_time"":3889},{""page_index"":4,""viewing_time"":1177}]","","","","","","","","","","","",""
"","","","","","instructions","11","433657","0.0-7.0","8882","","","","","","","","","","","","","","[{""page_index"":0,""viewing_time"":8882}]","","","","","","","","","","","",""
"","","","","","psychophysics","12","441064","0.0-8.0-0.0-0.0","6395","","k","","","","","","","","","","","","","key","k","16.667033860045244","775.757530919998","480.90906311329564","k","true","img/S_28.png","朋友","freeprac_self","",""
"","","","","","html-keyboard-response","13","441366","0.0-8.0-0.0-1.0","null","<span style='color:GreenYellow; font-size: 70px;'>正确! </span>","null","","","","","","","","","","","","","","","","","","","","","","","feedback_test",""
"","","","","","psychophysics","14","446650","0.0-8.0-0.0-0.1","4281","","f","","","","","","","","","","","","","key","f","16.666208860759486","775.757530919998","480.90906311329564","f","true","img/C_28.png","自我","freeprac_self","",""
"","","","","","html-keyboard-response","15","446962","0.0-8.0-0.0-1.1","null","<span style='color:GreenYellow; font-size: 70px;'>正确! </span>","null","","","","","","","","","","","","","","","","","","","","","","","feedback_test",""
"","","","","","psychophysics","16","449197","0.0-8.0-0.0-0.2","1228","","f","","","","","","","","","","","","","key","f","16.66751879699269","775.757530919998","480.90906311329564","f","true","img/C_28.png","自我","freeprac_self","",""
"","","","","","html-keyboard-response","17","449512","0.0-8.0-0.0-1.2","null","<span style='color:GreenYellow; font-size: 70px;'>正确! </span>","null","","","","","","","","","","","","","","","","","","","","","","","feedback_test",""
"","","","","","psychophysics","18","456243","0.0-8.0-0.0-0.3","5725","","j","","","","","","","","","","","","","key","j","16.6666029776675","775.757530919998","480.90906311329564","j","true","img/H_28.png","朋友","freeprac_self","",""
"","","","","","html-keyboard-response","19","456552","0.0-8.0-0.0-1.3","null","<span style='color:GreenYellow; font-size: 70px;'>正确! </span>","null","","","","","","","","","","","","","","","","","","","","","","","feedback_test",""
"","","","","","psychophysics","20","462015","0.0-8.0-0.0-0.4","4461","","k","","","","","","","","","","","","","key","k","16.66718098159506","775.757530919998","480.90906311329564","k","true","img/H_28.png","自我","freeprac_self","",""
"","","","","","html-keyboard-response","21","462321","0.0-8.0-0.0-1.4","null","<span style='color:GreenYellow; font-size: 70px;'>正确! </span>","null","","","","","","","","","","","","","","","","","","","","","","","feedback_test",""
"","","","","","psychophysics","22","467888","0.0-8.0-0.0-0.5","4556","","j","","","","","","","","","","","","","key","j","16.666369369369406","775.757530919998","480.90906311329564","j","true","img/S_28.png","生人","freeprac_self","",""
"","","","","","html-keyboard-response","23","468192","0.0-8.0-0.0-1.5","null","<span style='color:GreenYellow; font-size: 70px;'>正确! </span>","null","","","","","","","","","","","","","","","","","","","","","","","feedback_test",""
"","","","","","psychophysics","24","470226","0.0-8.0-0.0-0.6","1027","","j","","","","","","","","","","","","","key","j","16.66525619834698","775.757530919998","480.90906311329564","j","true","img/S_28.png","生人","freeprac_self","",""
"","","","","","html-keyboard-response","25","470535","0.0-8.0-0.0-1.6","null","<span style='color:GreenYellow; font-size: 70px;'>正确! </span>","null","","","","","","","","","","","","","","","","","","","","","","","feedback_test",""
"","","","","","psychophysics","26","474086","0.0-8.0-0.0-0.7","2550","","k","","","","","","","","","","","","","key","k","16.66666824644557","775.757530919998","480.90906311329564","k","true","img/H_28.png","生人","freeprac_self","",""
"","","","","","html-keyboard-response","27","474390","0.0-8.0-0.0-1.7","null","<span style='color:GreenYellow; font-size: 70px;'>正确! </span>","null","","","","","","","","","","","","","","","","","","","","","","","feedback_test",""
"","","","","","psychophysics","28","479032","0.0-8.0-0.0-0.8","3631","","d","","","","","","","","","","","","","key","d","16.66659205776176","775.757530919998","480.90906311329564","d","true","img/C_28.png","生人","freeprac_self","",""
"","","","","","html-keyboard-response","29","479347","0.0-8.0-0.0-1.8","null","<span style='color:GreenYellow; font-size: 70px;'>正确! </span>","null","","","","","","","","","","","","","","","","","","","","","","","feedback_test",""
"","","","","","psychophysics","30","482493","0.0-8.0-0.0-0.9","2139","","j","","","","","","","","","","","","","key","j","16.66604787234045","775.757530919998","480.90906311329564","j","true","img/H_28.png","朋友","freeprac_self","",""
"","","","","","html-keyboard-response","31","482807","0.0-8.0-0.0-1.9","null","<span style='color:GreenYellow; font-size: 70px;'>正确! </span>","null","","","","","","","","","","","","","","","","","","","","","","","feedback_test",""
"","","","","","psychophysics","32","486640","0.0-8.0-0.0-0.10","2822","","k","","","","","","","","","","","","","key","k","16.666475982532845","775.757530919998","480.90906311329564","k","true","img/S_28.png","自我","freeprac_self","",""
"","","","","","html-keyboard-response","33","486951","0.0-8.0-0.0-1.10","null","<span style='color:GreenYellow; font-size: 70px;'>正确! </span>","null","","","","","","","","","","","","","","","","","","","","","","","feedback_test",""
"","","","","","psychophysics","34","491771","0.0-8.0-0.0-0.11","3818","","d","","","","","","","","","","","","","key","d","16.666548611111164","775.757530919998","480.90906311329564","d","true","img/C_28.png","朋友","freeprac_self","",""
"","","","","","html-keyboard-response","35","492073","0.0-8.0-0.0-1.11","null","<span style='color:GreenYellow; font-size: 70px;'>正确! </span>","null","","","","","","","","","","","","","","","","","","","","","","","feedback_test",""
"","","","","","html-keyboard-response","36","502505","0.0-9.0","10430","[""<style>.context{color:white; font-size: 35px; line-height:40px}</style>           <div><p class='context'>您正确回答了100% 的试次。</p><p class='context'>您的平均反应时为3553毫秒。</p><p class='context'>恭喜您完成这一阶段的练习。按任意键进入<span style='color: yellow;'>重点关注图形为“朋友”</span>的练习。</p></div><p class='footer' style='font-size:35px; line-height:30px;'>任务要求：\n           <p class='footer' style='font-size:35px; line-height:35px;'>对于与“朋友”对应的图形：如果 匹配 ，请按 <span style=\""color: lightgreen;\"">f键</span></p><p class='footer' style='font-size:35px'>如果 不匹配 ，请按<span style=\""color: lightgreen;\"">d键</p></span>\n           <p class='footer' style='font-size:35px; line-height:35px;'>对于非“朋友”对应的图形：如果 匹配 ，请按 <span style=\""color: lightgreen;\"">j键</span></p><p class='footer' style='font-size:35px'>如果 不匹配 ，请按<span style=\""color: lightgreen;\"">k键</p></span>\n           <p class='footer' style='font-size:22px; line-height:25px;'>请在实验过程中将您的<span style=\""color: lightgreen;\"">食指和中指</span>放在电脑键盘的相应键位上进行按键。</p></span>""]","enter","","","","","","","","","","","","","","","","","","","","","","","",""
"","","","","","psychophysics","37","507220","0.0-10.0-0.0-0.0","3701","","j","","","","","","","","","","","","","key","j","16.666468085106445","775.757530919998","480.90906311329564","j","true","img/S_28.png","生人","freeprac_friend","",""
"","","","","","html-keyboard-response","38","507526","0.0-10.0-0.0-1.0","null","<span style='color:GreenYellow; font-size: 70px;'>正确! </span>","null","","","","","","","","","","","","","","","","","","","","","","","feedback_test",""
"","","","","","psychophysics","39","511122","0.0-10.0-0.0-0.1","2586","","k","","","","","","","","","","","","","key","k","16.667851162790647","775.757530919998","480.90906311329564","k","true","img/C_28.png","生人","freeprac_friend","",""
"","","","","","html-keyboard-response","40","511433","0.0-10.0-0.0-1.1","null","<span style='color:GreenYellow; font-size: 70px;'>正确! </span>","null","","","","","","","","","","","","","","","","","","","","","","","feedback_test",""
"","","","","","psychophysics","41","514690","0.0-10.0-0.0-0.2","2255","","j","","","","","","","","","","","","","key","j","16.666391752577464","775.757530919998","480.90906311329564","j","true","img/C_28.png","自我","freeprac_friend","",""
"","","","","","html-keyboard-response","42","514999","0.0-10.0-0.0-1.2","null","<span style='color:GreenYellow; font-size: 70px;'>正确! </span>","null","","","","","","","","","","","","","","","","","","","","","","","feedback_test",""
"","","","","","psychophysics","43","516809","0.0-10.0-0.0-0.3","807","","j","","","","","","","","","","","","","key","j","16.669583333333353","775.757530919998","480.90906311329564","j","true","img/C_28.png","自我","freeprac_friend","",""
"","","","","","html-keyboard-response","44","517125","0.0-10.0-0.0-1.3","null","<span style='color:GreenYellow; font-size: 70px;'>正确! </span>","null","","","","","","","","","","","","","","","","","","","","","","","feedback_test",""
"","","","","","psychophysics","45","520790","0.0-10.0-0.0-0.4","2655","","k","","","","","","","","","","","","","key","k","16.666680365296923","775.757530919998","480.90906311329564","k","true","img/S_28.png","自我","freeprac_friend","",""
"","","","","","html-keyboard-response","46","521099","0.0-10.0-0.0-1.4","null","<span style='color:GreenYellow; font-size: 70px;'>正确! </span>","null","","","","","","","","","","","","","","","","","","","","","","","feedback_test",""
"","","","","","psychophysics","47","525059","0.0-10.0-0.0-0.5","2932","","k","","","","","","","","","","","","","key","k","16.615474576271342","775.757530919998","480.90906311329564","k","true","img/S_28.png","朋友","freeprac_friend","",""
"","","","","","html-keyboard-response","48","525361","0.0-10.0-0.0-1.5","null","<span style='color:GreenYellow; font-size: 70px;'>正确! </span>","null","","","","","","","","","","","","","","","","","","","","","","","feedback_test",""
"","","","","","psychophysics","49","528611","0.0-10.0-0.0-0.6","2242","","f","","","","","","","","","","","","","key","f","16.667587628865917","775.757530919998","480.90906311329564","f","true","img/H_28.png","朋友","freeprac_friend","",""
"","","","","","html-keyboard-response","50","528923","0.0-10.0-0.0-1.6","null","<span style='color:GreenYellow; font-size: 70px;'>正确! </span>","null","","","","","","","","","","","","","","","","","","","","","","","feedback_test",""
"","","","","","psychophysics","51","532333","0.0-10.0-0.0-0.7","2401","","d","","","","","","","","","","","","","key","d","16.667133004926466","775.757530919998","480.90906311329564","d","true","img/H_28.png","自我","freeprac_friend","",""
"","","","","","html-keyboard-response","52","532634","0.0-10.0-0.0-1.7","null","<span style='color:GreenYellow; font-size: 70px;'>正确! </span>","null","","","","","","","","","","","","","","","","","","","","","","","feedback_test",""
"","","","","","psychophysics","53","536614","0.0-10.0-0.0-0.8","2979","","j","","","","","","","","","","","","","key","j","16.66712236286923","775.757530919998","480.90906311329564","j","true","img/S_28.png","生人","freeprac_friend","",""
"","","","","","html-keyboard-response","54","536920","0.0-10.0-0.0-1.8","null","<span style='color:GreenYellow; font-size: 70px;'>正确! </span>","null","","","","","","","","","","","","","","","","","","","","","","","feedback_test",""
"","","","","","psychophysics","55","542984","0.0-10.0-0.0-0.9","5049","","f","","","","","","","","","","","","","key","f","16.667005524861892","775.757530919998","480.90906311329564","f","true","img/H_28.png","朋友","freeprac_friend","",""
"","","","","","html-keyboard-response","56","543301","0.0-10.0-0.0-1.9","null","<span style='color:GreenYellow; font-size: 70px;'>正确! </span>","null","","","","","","","","","","","","","","","","","","","","","","","feedback_test",""
"","","","","","psychophysics","57","551112","0.0-10.0-0.0-0.10","6811","","k","","","","","","","","","","","","","key","k","16.6665374732335","775.757530919998","480.90906311329564","k","true","img/C_28.png","朋友","freeprac_friend","",""
"","","","","","html-keyboard-response","58","551424","0.0-10.0-0.0-1.10","null","<span style='color:GreenYellow; font-size: 70px;'>正确! </span>","null","","","","","","","","","","","","","","","","","","","","","","","feedback_test",""
"","","","","","psychophysics","59","555042","0.0-10.0-0.0-0.11","2611","","d","","","","","","","","","","","","","key","d","16.666236111111143","775.757530919998","480.90906311329564","d","true","img/H_28.png","生人","freeprac_friend","",""
"","","","","","html-keyboard-response","60","555357","0.0-10.0-0.0-1.11","null","<span style='color:GreenYellow; font-size: 70px;'>正确! </span>","null","","","","","","","","","","","","","","","","","","","","","","","feedback_test",""
"","","","","","html-keyboard-response","61","558460","0.0-11.0","3101","[""<style>.context{color:white; font-size: 35px; line-height:40px}</style>               <div><p class='context'>您正确回答了100% 的试次。</p><p class='context'>您的平均反应时为3086毫秒。</p><p class='context'>恭喜您完成这一阶段的练习。按任意键进入<span style='color: yellow;'>重点关注图形为“生人”</span>的练习。</p></div><p class='footer' style='font-size:35px; line-height:30px;'>任务要求：\n               <p class='footer' style='font-size:35px; line-height:35px;'>对与“生人”对应的图形，如果 匹配 ，请按 <span style=\""color: lightgreen;\"">f键</span></p><p class='footer' style='font-size:35px'>如果 不匹配 ，请按<span style=\""color: lightgreen;\"">d键</p></span>\n               <p class='footer' style='font-size:35px; line-height:35px;'>对非“生人”对应的图形，如果 匹配 ，请按 <span style=\""color: lightgreen;\"">j键</span></p><p class='footer' style='font-size:35px'>如果 不匹配 ，请按<span style=\""color: lightgreen;\"">k键</p></span>\n               <p class='footer' style='font-size:22px; line-height:25px;'>请在实验过程中将您的<span style=\""color: lightgreen;\"">食指和中指</span>放在电脑键盘的相应键位上进行按键。</p></span>""]","j","","","","","","","","","","","","","","","","","","","","","","","",""
"","","","","","psychophysics","62","562843","0.0-12.0-0.0-0.0","3374","","j","","","","","","","","","","","","","key","j","16.66634351145014","775.757530919998","480.90906311329564","j","true","img/C_28.png","自我","freeprac_stranger","",""
"","","","","","html-keyboard-response","63","563154","0.0-12.0-0.0-1.0","null","<span style='color:GreenYellow; font-size: 70px;'>正确! </span>","null","","","","","","","","","","","","","","","","","","","","","","","feedback_test",""
"","","","","","psychophysics","64","567682","0.0-12.0-0.0-0.1","3496","","k","","","","","","","","","","","","","key","k","16.66668888888908","775.757530919998","480.90906311329564","k","true","img/C_28.png","生人","freeprac_stranger","",""
"","","","","","html-keyboard-response","65","567993","0.0-12.0-0.0-1.1","null","<span style='color:GreenYellow; font-size: 70px;'>正确! </span>","null","","","","","","","","","","","","","","","","","","","","","","","feedback_test",""
"","","","","","psychophysics","66","570801","0.0-12.0-0.0-0.2","1798","","k","","","","","","","","","","","","","key","k","16.666958083832235","775.757530919998","480.90906311329564","k","true","img/C_28.png","朋友","freeprac_stranger","",""
"","","","","","html-keyboard-response","67","571116","0.0-12.0-0.0-1.2","null","<span style='color:GreenYellow; font-size: 70px;'>正确! </span>","null","","","","","","","","","","","","","","","","","","","","","","","feedback_test",""
"","","","","","psychophysics","68","573339","0.0-12.0-0.0-0.3","1220","","d","","","","","","","","","","","","","key","d","16.56790151515143","775.757530919998","480.90906311329564","d","true","img/S_28.png","自我","freeprac_stranger","",""
"","","","","","html-keyboard-response","69","573647","0.0-12.0-0.0-1.3","null","<span style='color:GreenYellow; font-size: 70px;'>正确! </span>","null","","","","","","","","","","","","","","","","","","","","","","","feedback_test",""
"","","","","","psychophysics","70","576215","0.0-12.0-0.0-0.4","1562","","d","","","","","","","","","","","","","key","d","16.667078431372325","775.757530919998","480.90906311329564","d","true","img/S_28.png","朋友","freeprac_stranger","",""
"","","","","","html-keyboard-response","71","576518","0.0-12.0-0.0-1.4","null","<span style='color:GreenYellow; font-size: 70px;'>正确! </span>","null","","","","","","","","","","","","","","","","","","","","","","","feedback_test",""
"","","","","","psychophysics","72","579342","0.0-12.0-0.0-0.5","1823","","k","","","","","","","","","","","","","key","k","16.666845238095405","775.757530919998","480.90906311329564","k","true","img/H_28.png","自我","freeprac_stranger","",""
"","","","","","html-keyboard-response","73","579655","0.0-12.0-0.0-1.5","null","<span style='color:GreenYellow; font-size: 70px;'>正确! </span>","null","","","","","","","","","","","","","","","","","","","","","","","feedback_test",""
"","","","","","psychophysics","74","586324","0.0-12.0-0.0-0.6","5662","","k","","","","","","","","","","","","","key","k","16.666325814536197","775.757530919998","480.90906311329564","k","true","img/H_28.png","生人","freeprac_stranger","",""
"","","","","","html-keyboard-response","75","586637","0.0-12.0-0.0-1.6","null","<span style='color:GreenYellow; font-size: 70px;'>正确! </span>","null","","","","","","","","","","","","","","","","","","","","","","","feedback_test",""
"","","","","","psychophysics","76","589268","0.0-12.0-0.0-0.7","1630","","j","","","","","","","","","","","","","key","j","16.6662356687901","775.757530919998","480.90906311329564","j","true","img/C_28.png","自我","freeprac_stranger","",""
"","","","","","html-keyboard-response","77","589584","0.0-12.0-0.0-1.7","null","<span style='color:GreenYellow; font-size: 70px;'>正确! </span>","null","","","","","","","","","","","","","","","","","","","","","","","feedback_test",""
"","","","","","psychophysics","78","596394","0.0-12.0-0.0-0.8","5809","","j","","","","","","","","","","","","","key","j","16.666402948403007","775.757530919998","480.90906311329564","j","true","img/H_28.png","朋友","freeprac_stranger","",""
"","","","","","html-keyboard-response","79","596702","0.0-12.0-0.0-1.8","null","<span style='color:GreenYellow; font-size: 70px;'>正确! </span>","null","","","","","","","","","","","","","","","","","","","","","","","feedback_test",""
"","","","","","psychophysics","80","599161","0.0-12.0-0.0-0.9","1448","","f","","","","","","","","","","","","","key","f","16.66619863013708","775.757530919998","480.90906311329564","f","true","img/S_28.png","生人","freeprac_stranger","",""
"","","","","","html-keyboard-response","81","599471","0.0-12.0-0.0-1.9","null","<span style='color:GreenYellow; font-size: 70px;'>正确! </span>","null","","","","","","","","","","","","","","","","","","","","","","","feedback_test",""
"","","","","","psychophysics","82","601445","0.0-12.0-0.0-0.10","964","","f","","","","","","","","","","","","","key","f","16.64974358974375","775.757530919998","480.90906311329564","f","true","img/S_28.png","生人","freeprac_stranger","",""
"","","","","","html-keyboard-response","83","601754","0.0-12.0-0.0-1.10","null","<span style='color:GreenYellow; font-size: 70px;'>正确! </span>","null","","","","","","","","","","","","","","","","","","","","","","","feedback_test",""
"","","","","","psychophysics","84","604703","0.0-12.0-0.0-0.11","1936","","j","","","","","","","","","","","","","key","j","16.666380681818488","775.757530919998","480.90906311329564","j","true","img/H_28.png","朋友","freeprac_stranger","",""
"","","","","","html-keyboard-response","85","605013","0.0-12.0-0.0-1.11","null","<span style='color:GreenYellow; font-size: 70px;'>正确! </span>","null","","","","","","","","","","","","","","","","","","","","","","","feedback_test",""
"","","","","","instructions","86","616980","0.0-13.0","11966","","","","","","","","","","","","","","[{""page_index"":0,""viewing_time"":11966}]","","","","","","","","","","","",""
"","","","","","psychophysics","87","619485","0.0-14.0-0.0-0.0","null","","null","","","","","","","","","","","","","key","null","16.666128378377984","775.757530919998","480.90906311329564","k","false","img/H_28.png","生人","prac_self","","朋友"
"","","","","","html-keyboard-response","88","619795","0.0-14.0-0.0-1.0","null","<span class='add_' style='color:yellow; font-size: 70px;'> 太慢! </span>","null","","","","","","","","","","","","","","","","","","","","","","","feedback_test",""
"","","","","","psychophysics","89","622331","0.0-14.0-0.0-0.1","null","","null","","","","","","","","","","","","","key","null","16.667768211920425","775.757530919998","480.90906311329564","j","false","img/S_28.png","生人","prac_self","","生人"
"","","","","","html-keyboard-response","90","622657","0.0-14.0-0.0-1.1","null","<span class='add_' style='color:yellow; font-size: 70px;'> 太慢! </span>","null","","","","","","","","","","","","","","","","","","","","","","","feedback_test",""
"","","","","","psychophysics","91","625178","0.0-14.0-0.0-0.2","null","","null","","","","","","","","","","","","","key","null","16.666919999999614","775.757530919998","480.90906311329564","d","false","img/C_28.png","生人","prac_self","","自我"
"","","","","","html-keyboard-response","92","625508","0.0-14.0-0.0-1.2","null","<span class='add_' style='color:yellow; font-size: 70px;'> 太慢! </span>","null","","","","","","","","","","","","","","","","","","","","","","","feedback_test",""
"","","","","","psychophysics","93","628032","0.0-14.0-0.0-0.3","null","","null","","","","","","","","","","","","","key","null","16.6675","775.757530919998","480.90906311329564","j","false","img/H_28.png","朋友","prac_self","","朋友"
"","","","","","html-keyboard-response","94","628358","0.0-14.0-0.0-1.3","null","<span class='add_' style='color:yellow; font-size: 70px;'> 太慢! </span>","null","","","","","","","","","","","","","","","","","","","","","","","feedback_test",""
"","","","","","psychophysics","95","630518","0.0-14.0-0.0-0.4","1134","","f","","","","","","","","","","","","","key","f","16.666515625000102","775.757530919998","480.90906311329564","f","true","img/C_28.png","自我","prac_self","","自我"
"","","","","","html-keyboard-response","96","630831","0.0-14.0-0.0-1.4","null","<span style='color:GreenYellow; font-size: 70px;'>正确! </span>","null","","","","","","","","","","","","","","","","","","","","","","","feedback_test",""
"","","","","","psychophysics","97","632833","0.0-14.0-0.0-0.5","999","","k","","","","","","","","","","","","","key","k","16.668773109243965","775.757530919998","480.90906311329564","k","true","img/S_28.png","自我","prac_self","","生人"
"","","","","","html-keyboard-response","98","633138","0.0-14.0-0.0-1.5","null","<span style='color:GreenYellow; font-size: 70px;'>正确! </span>","null","","","","","","","","","","","","","","","","","","","","","","","feedback_test",""
"","","","","","psychophysics","99","634944","0.0-14.0-0.0-0.6","799","","j","","","","","","","","","","","","","key","j","16.666112149532484","775.757530919998","480.90906311329564","j","true","img/H_28.png","朋友","prac_self","","朋友"
"","","","","","html-keyboard-response","100","635252","0.0-14.0-0.0-1.6","null","<span style='color:GreenYellow; font-size: 70px;'>正确! </span>","null","","","","","","","","","","","","","","","","","","","","","","","feedback_test",""
"","","","","","psychophysics","101","637487","0.0-14.0-0.0-0.7","1206","","j","","","","","","","","","","","","","key","j","16.665571428571926","775.757530919998","480.90906311329564","j","true","img/S_28.png","生人","prac_self","","生人"
"","","","","","html-keyboard-response","102","637793","0.0-14.0-0.0-1.7","null","<span style='color:GreenYellow; font-size: 70px;'>正确! </span>","null","","","","","","","","","","","","","","","","","","","","","","","feedback_test",""
"","","","","","psychophysics","103","639509","0.0-14.0-0.0-0.8","708","","f","","","","","","","","","","","","","key","f","16.66600000000029","775.757530919998","480.90906311329564","f","true","img/C_28.png","自我","prac_self","","自我"
"","","","","","html-keyboard-response","104","639826","0.0-14.0-0.0-1.8","null","<span style='color:GreenYellow; font-size: 70px;'>正确! </span>","null","","","","","","","","","","","","","","","","","","","","","","","feedback_test",""
"","","","","","psychophysics","105","641611","0.0-14.0-0.0-0.9","777","","k","","","","","","","","","","","","","key","k","16.666188679244545","775.757530919998","480.90906311329564","k","true","img/H_28.png","自我","prac_self","","朋友"
"","","","","","html-keyboard-response","106","641924","0.0-14.0-0.0-1.9","null","<span style='color:GreenYellow; font-size: 70px;'>正确! </span>","null","","","","","","","","","","","","","","","","","","","","","","","feedback_test",""
"","","","","","psychophysics","107","643689","0.0-14.0-0.0-0.10","755","","j","","","","","","","","","","","","","key","j","16.668361904762598","775.757530919998","480.90906311329564","d","false","img/C_28.png","朋友","prac_self","","自我"
"","","","","","html-keyboard-response","108","644008","0.0-14.0-0.0-1.10","null","<span style='color:red; font-size: 70px;'>错误! </span>","null","","","","","","","","","","","","","","","","","","","","","","","feedback_test",""
"","","","","","psychophysics","109","645886","0.0-14.0-0.0-0.11","867","","k","","","","","","","","","","","","","key","k","16.66421428571422","775.757530919998","480.90906311329564","k","true","img/S_28.png","朋友","prac_self","","生人"
"","","","","","html-keyboard-response","110","646187","0.0-14.0-0.0-1.11","null","<span style='color:GreenYellow; font-size: 70px;'>正确! </span>","null","","","","","","","","","","","","","","","","","","","","","","","feedback_test",""
"","","","","","psychophysics","111","647770","0.0-14.0-0.0-0.12","574","","k","","","","","","","","","","","","","key","k","16.666638297872232","775.757530919998","480.90906311329564","k","true","img/S_28.png","朋友","prac_self","","生人"
"","","","","","html-keyboard-response","112","648083","0.0-14.0-0.0-1.12","null","<span style='color:GreenYellow; font-size: 70px;'>正确! </span>","null","","","","","","","","","","","","","","","","","","","","","","","feedback_test",""
"","","","","","psychophysics","113","649804","0.0-14.0-0.0-0.13","686","","f","","","","","","","","","","","","","key","f","16.665205882353177","775.757530919998","480.90906311329564","f","true","img/C_28.png","自我","prac_self","","自我"
"","","","","","html-keyboard-response","114","650121","0.0-14.0-0.0-1.13","null","<span style='color:GreenYellow; font-size: 70px;'>正确! </span>","null","","","","","","","","","","","","","","","","","","","","","","","feedback_test",""
"","","","","","psychophysics","115","652491","0.0-14.0-0.0-0.14","1357","","k","","","","","","","","","","","","","key","k","16.66750354609941","775.757530919998","480.90906311329564","k","true","img/S_28.png","自我","prac_self","","生人"
"","","","","","html-keyboard-response","116","652798","0.0-14.0-0.0-1.14","null","<span style='color:GreenYellow; font-size: 70px;'>正确! </span>","null","","","","","","","","","","","","","","","","","","","","","","","feedback_test",""
"","","","","","psychophysics","117","654737","0.0-14.0-0.0-0.15","935","","j","","","","","","","","","","","","","key","j","16.66687068965583","775.757530919998","480.90906311329564","k","false","img/H_28.png","生人","prac_self","","朋友"
"","","","","","html-keyboard-response","118","655046","0.0-14.0-0.0-1.15","null","<span style='color:red; font-size: 70px;'>错误! </span>","null","","","","","","","","","","","","","","","","","","","","","","","feedback_test",""
"","","","","","psychophysics","119","656963","0.0-14.0-0.0-0.16","912","","j","","","","","","","","","","","","","key","j","16.668947368421133","775.757530919998","480.90906311329564","j","true","img/H_28.png","朋友","prac_self","","朋友"
"","","","","","html-keyboard-response","120","657269","0.0-14.0-0.0-1.16","null","<span style='color:GreenYellow; font-size: 70px;'>正确! </span>","null","","","","","","","","","","","","","","","","","","","","","","","feedback_test",""
"","","","","","psychophysics","121","659064","0.0-14.0-0.0-0.17","781","","j","","","","","","","","","","","","","key","j","16.669122641508572","775.757530919998","480.90906311329564","j","true","img/S_28.png","生人","prac_self","","生人"
"","","","","","html-keyboard-response","122","659376","0.0-14.0-0.0-1.17","null","<span style='color:GreenYellow; font-size: 70px;'>正确! </span>","null","","","","","","","","","","","","","","","","","","","","","","","feedback_test",""
"","","","","","psychophysics","123","661465","0.0-14.0-0.0-0.18","1063","","k","","","","","","","","","","","","","key","k","16.663782258064582","775.757530919998","480.90906311329564","j","false","img/H_28.png","朋友","prac_self","","朋友"
"","","","","","html-keyboard-response","124","661776","0.0-14.0-0.0-1.18","null","<span style='color:red; font-size: 70px;'>错误! </span>","null","","","","","","","","","","","","","","","","","","","","","","","feedback_test",""
"","","","","","psychophysics","125","663840","0.0-14.0-0.0-0.19","1055","","k","","","","","","","","","","","","","key","k","16.657723577235014","775.757530919998","480.90906311329564","d","false","img/C_28.png","生人","prac_self","","自我"
"","","","","","html-keyboard-response","126","664154","0.0-14.0-0.0-1.19","null","<span style='color:red; font-size: 70px;'>错误! </span>","null","","","","","","","","","","","","","","","","","","","","","","","feedback_test",""
"","","","","","psychophysics","127","666567","0.0-14.0-0.0-0.20","1406","","d","","","","","","","","","","","","","key","d","16.666426573426566","775.757530919998","480.90906311329564","d","true","img/C_28.png","朋友","prac_self","","自我"
"","","","","","html-keyboard-response","128","666875","0.0-14.0-0.0-1.20","null","<span style='color:GreenYellow; font-size: 70px;'>正确! </span>","null","","","","","","","","","","","","","","","","","","","","","","","feedback_test",""
"","","","","","psychophysics","129","668463","0.0-14.0-0.0-0.21","586","","f","","","","","","","","","","","","","key","f","16.669851063829945","775.757530919998","480.90906311329564","f","true","img/C_28.png","自我","prac_self","","自我"
"","","","","","html-keyboard-response","130","668778","0.0-14.0-0.0-1.21","null","<span style='color:GreenYellow; font-size: 70px;'>正确! </span>","null","","","","","","","","","","","","","","","","","","","","","","","feedback_test",""
"","","","","","psychophysics","131","671248","0.0-14.0-0.0-0.22","1464","","k","","","","","","","","","","","","","key","k","16.66626530612239","775.757530919998","480.90906311329564","k","true","img/H_28.png","自我","prac_self","","朋友"
"","","","","","html-keyboard-response","132","671561","0.0-14.0-0.0-1.22","null","<span style='color:GreenYellow; font-size: 70px;'>正确! </span>","null","","","","","","","","","","","","","","","","","","","","","","","feedback_test",""
"","","","","","psychophysics","133","673465","0.0-14.0-0.0-0.23","884","","j","","","","","","","","","","","","","key","j","16.668442477875974","775.757530919998","480.90906311329564","j","true","img/S_28.png","生人","prac_self","","生人"
"","","","","","html-keyboard-response","134","673766","0.0-14.0-0.0-1.23","null","<span style='color:GreenYellow; font-size: 70px;'>正确! </span>","null","","","","","","","","","","","","","","","","","","","","","","","feedback_test",""
"","","","","","html-keyboard-response","135","677585","0.0-14.0-1.0-0.0","3817","<style>.context{color:white; font-size: 35px; line-height:40px}</style>                           <div><p class='context'>您正确回答了67% 的试次。</p><p class='context'>您的平均反应时为946毫秒。</p>","enter","","","","","","","","","","","","","","","","","","","","","","","",""
"","","","","","instructions","136","681718","0.0-14.0-1.0-1.0","4131","","","","","","","","","","","","","","[{""page_index"":0,""viewing_time"":1745},{""page_index"":1,""viewing_time"":1523},{""page_index"":2,""viewing_time"":862}]","","","","","","","","","","","",""
"","","","","","psychophysics","137","683646","0.0-14.1-0.1-0.24","911","","f","","","","","","","","","","","","","key","f","16.665429824561887","775.757530919998","480.90906311329564","f","true","img/C_28.png","自我","prac_self","","自我"
"","","","","","html-keyboard-response","138","683961","0.0-14.1-0.1-1.24","null","<span style='color:GreenYellow; font-size: 70px;'>正确! </span>","null","","","","","","","","","","","","","","","","","","","","","","","feedback_test",""
"","","","","","psychophysics","139","685829","0.0-14.1-0.1-0.25","829","","k","","","","","","","","","","","","","key","k","16.66860360360331","775.757530919998","480.90906311329564","j","false","img/H_28.png","朋友","prac_self","","朋友"
"","","","","","html-keyboard-response","140","686136","0.0-14.1-0.1-1.25","null","<span style='color:red; font-size: 70px;'>错误! </span>","null","","","","","","","","","","","","","","","","","","","","","","","feedback_test",""
"","","","","","psychophysics","141","688292","0.0-14.1-0.1-0.26","1142","","k","","","","","","","","","","","","","key","k","16.665203124999607","775.757530919998","480.90906311329564","j","false","img/H_28.png","朋友","prac_self","","朋友"
"","","","","","html-keyboard-response","142","688593","0.0-14.1-0.1-1.26","null","<span style='color:red; font-size: 70px;'>错误! </span>","null","","","","","","","","","","","","","","","","","","","","","","","feedback_test",""
"","","","","","psychophysics","143","690243","0.0-14.1-0.1-0.27","648","","f","","","","","","","","","","","","","key","f","16.66415306122508","775.757530919998","480.90906311329564","f","true","img/C_28.png","自我","prac_self","","自我"
"","","","","","html-keyboard-response","144","690556","0.0-14.1-0.1-1.27","null","<span style='color:GreenYellow; font-size: 70px;'>正确! </span>","null","","","","","","","","","","","","","","","","","","","","","","","feedback_test",""
"","","","","","psychophysics","145","692935","0.0-14.1-0.1-0.28","1368","","k","","","","","","","","","","","","","key","k","16.665035211268","775.757530919998","480.90906311329564","j","false","img/S_28.png","生人","prac_self","","生人"
"","","","","","html-keyboard-response","146","693249","0.0-14.1-0.1-1.28","null","<span style='color:red; font-size: 70px;'>错误! </span>","null","","","","","","","","","","","","","","","","","","","","","","","feedback_test",""
"","","","","","psychophysics","147","695204","0.0-14.1-0.1-0.29","952","","d","","","","","","","","","","","","","key","d","16.667871794871324","775.757530919998","480.90906311329564","k","false","img/S_28.png","自我","prac_self","","生人"
"","","","","","html-keyboard-response","148","695514","0.0-14.1-0.1-1.29","null","<span style='color:red; font-size: 70px;'>错误! </span>","null","","","","","","","","","","","","","","","","","","","","","","","feedback_test",""
"","","","","","psychophysics","149","698017","0.0-14.1-0.1-0.30","null","","null","","","","","","","","","","","","","key","null","16.779208053690976","775.757530919998","480.90906311329564","k","false","img/H_28.png","自我","prac_self","","朋友"
"","","","","","html-keyboard-response","150","698355","0.0-14.1-0.1-1.30","null","<span class='add_' style='color:yellow; font-size: 70px;'> 太慢! </span>","null","","","","","","","","","","","","","","","","","","","","","","","feedback_test",""
"","","","","","psychophysics","151","700862","0.0-14.1-0.1-0.31","null","","null","","","","","","","","","","","","","key","null","16.667033557046437","775.757530919998","480.90906311329564","k","false","img/H_28.png","生人","prac_self","","朋友"
"","","","","","html-keyboard-response","152","701204","0.0-14.1-0.1-1.31","null","<span class='add_' style='color:yellow; font-size: 70px;'> 太慢! </span>","null","","","","","","","","","","","","","","","","","","","","","","","feedback_test",""
"","","","","","psychophysics","153","703405","0.0-14.1-0.1-0.32","1188","","k","","","","","","","","","","","","","key","k","16.666045801526554","775.757530919998","480.90906311329564","k","true","img/S_28.png","朋友","prac_self","","生人"
"","","","","","html-keyboard-response","154","703714","0.0-14.1-0.1-1.32","null","<span style='color:GreenYellow; font-size: 70px;'>正确! </span>","null","","","","","","","","","","","","","","","","","","","","","","","feedback_test",""
"","","","","","psychophysics","155","706229","0.0-14.1-0.1-0.33","1511","","d","","","","","","","","","","","","","key","d","16.66793333333296","775.757530919998","480.90906311329564","d","true","img/C_28.png","朋友","prac_self","","自我"
"","","","","","html-keyboard-response","156","706544","0.0-14.1-0.1-1.33","null","<span class='add_' style='color:yellow; font-size: 70px;'> 太慢! </span>","null","","","","","","","","","","","","","","","","","","","","","","","feedback_test",""
"","","","","","psychophysics","157","708923","0.0-14.1-0.1-0.34","1372","","f","","","","","","","","","","","","","key","f","16.666345070422835","775.757530919998","480.90906311329564","d","false","img/C_28.png","生人","prac_self","","自我"
"","","","","","html-keyboard-response","158","709238","0.0-14.1-0.1-1.34","null","<span style='color:red; font-size: 70px;'>错误! </span>","null","","","","","","","","","","","","","","","","","","","","","","","feedback_test",""
"","","","","","psychophysics","159","711239","0.0-14.1-0.1-0.35","993","","k","","","","","","","","","","","","","key","k","16.66542857142846","775.757530919998","480.90906311329564","j","false","img/S_28.png","生人","prac_self","","生人"
"","","","","","html-keyboard-response","160","711550","0.0-14.1-0.1-1.35","null","<span style='color:red; font-size: 70px;'>错误! </span>","null","","","","","","","","","","","","","","","","","","","","","","","feedback_test",""
"","","","","","psychophysics","161","713686","0.0-14.1-0.1-0.36","1133","","j","","","","","","","","","","","","","key","j","16.666669291338707","775.757530919998","480.90906311329564","j","true","img/H_28.png","朋友","prac_self","","朋友"
"","","","","","html-keyboard-response","162","714017","0.0-14.1-0.1-1.36","null","<span style='color:GreenYellow; font-size: 70px;'>正确! </span>","null","","","","","","","","","","","","","","","","","","","","","","","feedback_test",""
"","","","","","psychophysics","163","716235","0.0-14.1-0.1-0.37","1209","","j","","","","","","","","","","","","","key","j","16.66262878787926","775.757530919998","480.90906311329564","d","false","img/C_28.png","朋友","prac_self","","自我"
"","","","","","html-keyboard-response","164","716553","0.0-14.1-0.1-1.37","null","<span style='color:red; font-size: 70px;'>错误! </span>","null","","","","","","","","","","","","","","","","","","","","","","","feedback_test",""
"","","","","","psychophysics","165","719063","0.0-14.1-0.1-0.38","null","","null","","","","","","","","","","","","","key","null","16.666073825503325","775.757530919998","480.90906311329564","j","false","img/H_28.png","朋友","prac_self","","朋友"
"","","","","","html-keyboard-response","166","719374","0.0-14.1-0.1-1.38","null","<span class='add_' style='color:yellow; font-size: 70px;'> 太慢! </span>","null","","","","","","","","","","","","","","","","","","","","","","","feedback_test",""
"","","","","","psychophysics","167","721274","0.0-14.1-0.1-0.39","888","","k","","","","","","","","","","","","","key","k","16.668628318584524","775.757530919998","480.90906311329564","k","true","img/S_28.png","朋友","prac_self","","生人"
"","","","","","html-keyboard-response","168","721588","0.0-14.1-0.1-1.39","null","<span style='color:GreenYellow; font-size: 70px;'>正确! </span>","null","","","","","","","","","","","","","","","","","","","","","","","feedback_test",""
"","","","","","psychophysics","169","723518","0.0-14.1-0.1-0.40","922","","d","","","","","","","","","","","","","key","d","16.666121739130872","775.757530919998","480.90906311329564","d","true","img/C_28.png","生人","prac_self","","自我"
"","","","","","html-keyboard-response","170","723823","0.0-14.1-0.1-1.40","null","<span style='color:GreenYellow; font-size: 70px;'>正确! </span>","null","","","","","","","","","","","","","","","","","","","","","","","feedback_test",""
"","","","","","psychophysics","171","725519","0.0-14.1-0.1-0.41","691","","k","","","","","","","","","","","","","key","k","16.667287128713525","775.757530919998","480.90906311329564","k","true","img/S_28.png","自我","prac_self","","生人"
"","","","","","html-keyboard-response","172","725835","0.0-14.1-0.1-1.41","null","<span style='color:GreenYellow; font-size: 70px;'>正确! </span>","null","","","","","","","","","","","","","","","","","","","","","","","feedback_test",""
"","","","","","psychophysics","173","727738","0.0-14.1-0.1-0.42","893","","f","","","","","","","","","","","","","key","f","16.66531858407064","775.757530919998","480.90906311329564","f","true","img/C_28.png","自我","prac_self","","自我"
"","","","","","html-keyboard-response","174","728051","0.0-14.1-0.1-1.42","null","<span style='color:GreenYellow; font-size: 70px;'>正确! </span>","null","","","","","","","","","","","","","","","","","","","","","","","feedback_test",""
"","","","","","psychophysics","175","729767","0.0-14.1-0.1-0.43","708","","k","","","","","","","","","","","","","key","k","16.66565346534682","775.757530919998","480.90906311329564","j","false","img/S_28.png","生人","prac_self","","生人"
"","","","","","html-keyboard-response","176","730075","0.0-14.1-0.1-1.43","null","<span style='color:red; font-size: 70px;'>错误! </span>","null","","","","","","","","","","","","","","","","","","","","","","","feedback_test",""
"","","","","","psychophysics","177","731665","0.0-14.1-0.1-0.44","580","","j","","","","","","","","","","","","","key","j","16.65490425531901","775.757530919998","480.90906311329564","j","true","img/S_28.png","生人","prac_self","","生人"
"","","","","","html-keyboard-response","178","731976","0.0-14.1-0.1-1.44","null","<span style='color:GreenYellow; font-size: 70px;'>正确! </span>","null","","","","","","","","","","","","","","","","","","","","","","","feedback_test",""
"","","","","","psychophysics","179","733609","0.0-14.1-0.1-0.45","608","","k","","","","","","","","","","","","","key","k","16.66078350515484","775.757530919998","480.90906311329564","k","true","img/H_28.png","生人","prac_self","","朋友"
"","","","","","html-keyboard-response","180","733922","0.0-14.1-0.1-1.45","null","<span style='color:GreenYellow; font-size: 70px;'>正确! </span>","null","","","","","","","","","","","","","","","","","","","","","","","feedback_test",""
"","","","","","psychophysics","181","735722","0.0-14.1-0.1-0.46","788","","d","","","","","","","","","","","","","key","d","16.668112149532824","775.757530919998","480.90906311329564","k","false","img/H_28.png","自我","prac_self","","朋友"
"","","","","","html-keyboard-response","182","736036","0.0-14.1-0.1-1.46","null","<span style='color:red; font-size: 70px;'>错误! </span>","null","","","","","","","","","","","","","","","","","","","","","","","feedback_test",""
"","","","","","psychophysics","183","737890","0.0-14.1-0.1-0.47","843","","f","","","","","","","","","","","","","key","f","16.6644272727278","775.757530919998","480.90906311329564","f","true","img/C_28.png","自我","prac_self","","自我"
"","","","","","html-keyboard-response","184","738194","0.0-14.1-0.1-1.47","null","<span style='color:GreenYellow; font-size: 70px;'>正确! </span>","null","","","","","","","","","","","","","","","","","","","","","","","feedback_test",""
"","","","","","html-keyboard-response","185","739596","0.0-14.1-1.1-0.1","1400","<style>.context{color:white; font-size: 35px; line-height:40px}</style>                           <div><p class='context'>您正确回答了50% 的试次。</p><p class='context'>您的平均反应时为901毫秒。</p>","enter","","","","","","","","","","","","","","","","","","","","","","","",""
"","","","","","instructions","186","761494","0.0-14.1-1.1-1.1","21896","","","","","","","","","","","","","","[{""page_index"":0,""viewing_time"":1914},{""page_index"":1,""viewing_time"":18070},{""page_index"":2,""viewing_time"":1912}]","","","","","","","","","","","",""
"","","","","","psychophysics","187","763249","0.0-14.2-0.2-0.48","748","","f","","","","","","","","","","","","","key","f","16.66505769230739","775.757530919998","480.90906311329564","f","true","img/C_28.png","自我","prac_self","","自我"
"","","","","","html-keyboard-response","188","763565","0.0-14.2-0.2-1.48","null","<span style='color:GreenYellow; font-size: 70px;'>正确! </span>","null","","","","","","","","","","","","","","","","","","","","","","","feedback_test",""
"","","","","","psychophysics","189","765439","0.0-14.2-0.2-0.49","853","","j","","","","","","","","","","","","","key","j","16.666553571429436","775.757530919998","480.90906311329564","j","true","img/H_28.png","朋友","prac_self","","朋友"
"","","","","","html-keyboard-response","190","765745","0.0-14.2-0.2-1.49","null","<span style='color:GreenYellow; font-size: 70px;'>正确! </span>","null","","","","","","","","","","","","","","","","","","","","","","","feedback_test",""
"","","","","","psychophysics","191","768154","0.0-14.2-0.2-0.50","1403","","k","","","","","","","","","","","","","key","k","16.666847222222714","775.757530919998","480.90906311329564","k","true","img/H_28.png","自我","prac_self","","朋友"
"","","","","","html-keyboard-response","192","768458","0.0-14.2-0.2-1.50","null","<span style='color:GreenYellow; font-size: 70px;'>正确! </span>","null","","","","","","","","","","","","","","","","","","","","","","","feedback_test",""
"","","","","","psychophysics","193","770895","0.0-14.2-0.2-0.51","1426","","k","","","","","","","","","","","","","key","k","16.66770344827533","775.757530919998","480.90906311329564","k","true","img/S_28.png","朋友","prac_self","","生人"
"","","","","","html-keyboard-response","194","771196","0.0-14.2-0.2-1.51","null","<span style='color:GreenYellow; font-size: 70px;'>正确! </span>","null","","","","","","","","","","","","","","","","","","","","","","","feedback_test",""
"","","","","","psychophysics","195","773312","0.0-14.2-0.2-0.52","1110","","j","","","","","","","","","","","","","key","j","16.66654761904751","775.757530919998","480.90906311329564","k","false","img/S_28.png","自我","prac_self","","生人"
"","","","","","html-keyboard-response","196","773614","0.0-14.2-0.2-1.52","null","<span style='color:red; font-size: 70px;'>错误! </span>","null","","","","","","","","","","","","","","","","","","","","","","","feedback_test",""
"","","","","","psychophysics","197","775895","0.0-14.2-0.2-0.53","1277","","j","","","","","","","","","","","","","key","j","16.668066176470294","775.757530919998","480.90906311329564","j","true","img/H_28.png","朋友","prac_self","","朋友"
"","","","","","html-keyboard-response","198","776198","0.0-14.2-0.2-1.53","null","<span style='color:GreenYellow; font-size: 70px;'>正确! </span>","null","","","","","","","","","","","","","","","","","","","","","","","feedback_test",""
"","","","","","psychophysics","199","777904","0.0-14.2-0.2-0.54","703","","d","","","","","","","","","","","","","key","d","16.66681372548919","775.757530919998","480.90906311329564","d","true","img/C_28.png","生人","prac_self","","自我"
"","","","","","html-keyboard-response","200","778218","0.0-14.2-0.2-1.54","null","<span style='color:GreenYellow; font-size: 70px;'>正确! </span>","null","","","","","","","","","","","","","","","","","","","","","","","feedback_test",""
"","","","","","psychophysics","201","780596","0.0-14.2-0.2-0.55","1368","","k","","","","","","","","","","","","","key","k","16.67455319148911","775.757530919998","480.90906311329564","k","true","img/H_28.png","生人","prac_self","","朋友"
"","","","","","html-keyboard-response","202","780906","0.0-14.2-0.2-1.55","null","<span style='color:GreenYellow; font-size: 70px;'>正确! </span>","null","","","","","","","","","","","","","","","","","","","","","","","feedback_test",""
"","","","","","psychophysics","203","782750","0.0-14.2-0.2-0.56","816","","j","","","","","","","","","","","","","key","j","16.664788990826217","775.757530919998","480.90906311329564","j","true","img/S_28.png","生人","prac_self","","生人"
"","","","","","html-keyboard-response","204","783054","0.0-14.2-0.2-1.56","null","<span style='color:GreenYellow; font-size: 70px;'>正确! </span>","null","","","","","","","","","","","","","","","","","","","","","","","feedback_test",""
"","","","","","psychophysics","205","784841","0.0-14.2-0.2-0.57","779","","d","","","","","","","","","","","","","key","d","16.664339622641904","775.757530919998","480.90906311329564","d","true","img/C_28.png","朋友","prac_self","","自我"
"","","","","","html-keyboard-response","206","785151","0.0-14.2-0.2-1.57","null","<span style='color:GreenYellow; font-size: 70px;'>正确! </span>","null","","","","","","","","","","","","","","","","","","","","","","","feedback_test",""
"","","","","","psychophysics","207","786927","0.0-14.2-0.2-0.58","765","","f","","","","","","","","","","","","","key","f","16.668819047619277","775.757530919998","480.90906311329564","f","true","img/C_28.png","自我","prac_self","","自我"
"","","","","","html-keyboard-response","208","787230","0.0-14.2-0.2-1.58","null","<span style='color:GreenYellow; font-size: 70px;'>正确! </span>","null","","","","","","","","","","","","","","","","","","","","","","","feedback_test",""
"","","","","","psychophysics","209","789394","0.0-14.2-0.2-0.59","1142","","j","","","","","","","","","","","","","key","j","16.667620155038925","775.757530919998","480.90906311329564","j","true","img/S_28.png","生人","prac_self","","生人"
"","","","","","html-keyboard-response","210","789701","0.0-14.2-0.2-1.59","null","<span style='color:GreenYellow; font-size: 70px;'>正确! </span>","null","","","","","","","","","","","","","","","","","","","","","","","feedback_test",""
"","","","","","psychophysics","211","791860","0.0-14.2-0.2-0.60","1147","","j","","","","","","","","","","","","","key","j","16.666835937499854","775.757530919998","480.90906311329564","j","true","img/H_28.png","朋友","prac_self","","朋友"
"","","","","","html-keyboard-response","212","792176","0.0-14.2-0.2-1.60","null","<span style='color:GreenYellow; font-size: 70px;'>正确! </span>","null","","","","","","","","","","","","","","","","","","","","","","","feedback_test",""
"","","","","","psychophysics","213","794184","0.0-14.2-0.2-0.61","1000","","j","","","","","","","","","","","","","key","j","16.66589166666672","775.757530919998","480.90906311329564","j","true","img/H_28.png","朋友","prac_self","","朋友"
"","","","","","html-keyboard-response","214","794491","0.0-14.2-0.2-1.61","null","<span style='color:GreenYellow; font-size: 70px;'>正确! </span>","null","","","","","","","","","","","","","","","","","","","","","","","feedback_test",""
"","","","","","psychophysics","215","796358","0.0-14.2-0.2-0.62","859","","d","","","","","","","","","","","","","key","d","16.667477477477185","775.757530919998","480.90906311329564","d","true","img/C_28.png","生人","prac_self","","自我"
"","","","","","html-keyboard-response","216","796673","0.0-14.2-0.2-1.62","null","<span style='color:GreenYellow; font-size: 70px;'>正确! </span>","null","","","","","","","","","","","","","","","","","","","","","","","feedback_test",""
"","","","","","psychophysics","217","798613","0.0-14.2-0.2-0.63","931","","d","","","","","","","","","","","","","key","d","16.666573913043123","775.757530919998","480.90906311329564","d","true","img/C_28.png","朋友","prac_self","","自我"
"","","","","","html-keyboard-response","218","798923","0.0-14.2-0.2-1.63","null","<span style='color:GreenYellow; font-size: 70px;'>正确! </span>","null","","","","","","","","","","","","","","","","","","","","","","","feedback_test",""
"","","","","","psychophysics","219","800650","0.0-14.2-0.2-0.64","698","","f","","","","","","","","","","","","","key","f","16.665568627450185","775.757530919998","480.90906311329564","f","true","img/C_28.png","自我","prac_self","","自我"
"","","","","","html-keyboard-response","220","800964","0.0-14.2-0.2-1.64","null","<span style='color:GreenYellow; font-size: 70px;'>正确! </span>","null","","","","","","","","","","","","","","","","","","","","","","","feedback_test",""
"","","","","","psychophysics","221","803010","0.0-14.2-0.2-0.65","1042","","k","","","","","","","","","","","","","key","k","16.667352459016524","775.757530919998","480.90906311329564","k","true","img/H_28.png","生人","prac_self","","朋友"
"","","","","","html-keyboard-response","222","803326","0.0-14.2-0.2-1.65","null","<span style='color:GreenYellow; font-size: 70px;'>正确! </span>","null","","","","","","","","","","","","","","","","","","","","","","","feedback_test",""
"","","","","","psychophysics","223","805264","0.0-14.2-0.2-0.66","929","","d","","","","","","","","","","","","","key","d","16.66584347826125","775.757530919998","480.90906311329564","k","false","img/H_28.png","自我","prac_self","","朋友"
"","","","","","html-keyboard-response","224","805565","0.0-14.2-0.2-1.66","null","<span style='color:red; font-size: 70px;'>错误! </span>","null","","","","","","","","","","","","","","","","","","","","","","","feedback_test",""
"","","","","","psychophysics","225","807773","0.0-14.2-0.2-0.67","1189","","k","","","","","","","","","","","","","key","k","16.575587786259558","775.757530919998","480.90906311329564","j","false","img/S_28.png","生人","prac_self","","生人"
"","","","","","html-keyboard-response","226","808079","0.0-14.2-0.2-1.67","null","<span style='color:red; font-size: 70px;'>错误! </span>","null","","","","","","","","","","","","","","","","","","","","","","","feedback_test",""
"","","","","","psychophysics","227","809912","0.0-14.2-0.2-0.68","828","","f","","","","","","","","","","","","","key","f","16.6673394495412","775.757530919998","480.90906311329564","f","true","img/C_28.png","自我","prac_self","","自我"
"","","","","","html-keyboard-response","228","810221","0.0-14.2-0.2-1.68","null","<span style='color:GreenYellow; font-size: 70px;'>正确! </span>","null","","","","","","","","","","","","","","","","","","","","","","","feedback_test",""
"","","","","","psychophysics","229","812339","0.0-14.2-0.2-0.69","1108","","k","","","","","","","","","","","","","key","k","16.668238095237896","775.757530919998","480.90906311329564","k","true","img/S_28.png","朋友","prac_self","","生人"
"","","","","","html-keyboard-response","230","812644","0.0-14.2-0.2-1.69","null","<span style='color:GreenYellow; font-size: 70px;'>正确! </span>","null","","","","","","","","","","","","","","","","","","","","","","","feedback_test",""
"","","","","","psychophysics","231","814603","0.0-14.2-0.2-0.70","935","","d","","","","","","","","","","","","","key","d","16.667632478632584","775.757530919998","480.90906311329564","k","false","img/S_28.png","自我","prac_self","","生人"
"","","","","","html-keyboard-response","232","814919","0.0-14.2-0.2-1.70","null","<span style='color:red; font-size: 70px;'>错误! </span>","null","","","","","","","","","","","","","","","","","","","","","","","feedback_test",""
"","","","","","psychophysics","233","817279","0.0-14.2-0.2-0.71","1352","","k","","","","","","","","","","","","","key","k","16.6669857142859","775.757530919998","480.90906311329564","j","false","img/S_28.png","生人","prac_self","","生人"
"","","","","","html-keyboard-response","234","817591","0.0-14.2-0.2-1.71","null","<span style='color:red; font-size: 70px;'>错误! </span>","null","","","","","","","","","","","","","","","","","","","","","","","feedback_test",""
"","","","","","html-keyboard-response","235","825240","0.0-15.0","7646","[""<style>.context{color:white; font-size: 35px; line-height:40px}</style>           <div><p class='context'>您正确回答了79% 的试次。</p><p class='context'>您的平均反应时为994毫秒。</p><p class='context'>恭喜您完成这一阶段的练习。按任意键进入<span style='color: yellow;'>重点关注图形为“朋友”</span>的练习。</p></div><p class='footer' style='font-size:35px; line-height:30px;'>任务要求：\n           <p class='footer' style='font-size:35px; line-height:35px;'>对于与“朋友”对应的图形：如果 匹配 ，请按 <span style=\""color: lightgreen;\"">f键</span></p><p class='footer' style='font-size:35px'>如果 不匹配 ，请按<span style=\""color: lightgreen;\"">d键</p></span>\n           <p class='footer' style='font-size:35px; line-height:35px;'>对于非“朋友”对应的图形：如果 匹配 ，请按 <span style=\""color: lightgreen;\"">j键</span></p><p class='footer' style='font-size:35px'>如果 不匹配 ，请按<span style=\""color: lightgreen;\"">k键</p></span>\n           <p class='footer' style='font-size:22px; line-height:25px;'>请在实验过程中将您的<span style=\""color: lightgreen;\"">食指和中指</span>放在电脑键盘的相应键位上进行按键。</p></span>""]","j","","","","","","","","","","","","","","","","","","","","","","","",""
"","","","","","psychophysics","236","827746","0.0-16.0-0.0-0.0","null","","null","","","","","","","","","","","","","key","null","16.667362416107615","775.757530919998","480.90906311329564","j","false","img/S_28.png","生人","prac_friend","","生人"
"","","","","","html-keyboard-response","237","828057","0.0-16.0-0.0-1.0","null","<span class='add_' style='color:yellow; font-size: 70px;'> 太慢! </span>","null","","","","","","","","","","","","","","","","","","","","","","","feedback_test",""
"","","","","","psychophysics","238","829924","0.0-16.0-0.0-0.1","857","","k","","","","","","","","","","","","","key","k","16.666783783783053","775.757530919998","480.90906311329564","j","false","img/S_28.png","生人","prac_friend","","生人"
"","","","","","html-keyboard-response","239","830238","0.0-16.0-0.0-1.1","null","<span style='color:red; font-size: 70px;'>错误! </span>","null","","","","","","","","","","","","","","","","","","","","","","","feedback_test",""
"","","","","","psychophysics","240","832511","0.0-16.0-0.0-0.2","1261","","k","","","","","","","","","","","","","key","k","16.667429629629652","775.757530919998","480.90906311329564","k","true","img/S_28.png","自我","prac_friend","","生人"
"","","","","","html-keyboard-response","241","832819","0.0-16.0-0.0-1.2","null","<span style='color:GreenYellow; font-size: 70px;'>正确! </span>","null","","","","","","","","","","","","","","","","","","","","","","","feedback_test",""
"","","","","","psychophysics","242","834637","0.0-16.0-0.0-0.3","806","","k","","","","","","","","","","","","","key","k","16.660166666666218","775.757530919998","480.90906311329564","k","true","img/C_28.png","生人","prac_friend","","自我"
"","","","","","html-keyboard-response","243","834948","0.0-16.0-0.0-1.3","null","<span style='color:GreenYellow; font-size: 70px;'>正确! </span>","null","","","","","","","","","","","","","","","","","","","","","","","feedback_test",""
"","","","","","psychophysics","244","836575","0.0-16.0-0.0-0.4","625","","f","","","","","","","","","","","","","key","f","16.518229166666668","775.757530919998","480.90906311329564","f","true","img/H_28.png","朋友","prac_friend","","朋友"
"","","","","","html-keyboard-response","245","836881","0.0-16.0-0.0-1.4","null","<span style='color:GreenYellow; font-size: 70px;'>正确! </span>","null","","","","","","","","","","","","","","","","","","","","","","","feedback_test",""
"","","","","","psychophysics","246","838728","0.0-16.0-0.0-0.5","822","","k","","","","","","","","","","","","","key","k","16.668181818181818","775.757530919998","480.90906311329564","j","false","img/C_28.png","自我","prac_friend","","自我"
"","","","","","html-keyboard-response","247","839040","0.0-16.0-0.0-1.5","null","<span style='color:red; font-size: 70px;'>错误! </span>","null","","","","","","","","","","","","","","","","","","","","","","","feedback_test",""
"","","","","","psychophysics","248","840938","0.0-16.0-0.0-0.6","889","","k","","","","","","","","","","","","","key","k","16.66943362831917","775.757530919998","480.90906311329564","k","true","img/S_28.png","朋友","prac_friend","","生人"
"","","","","","html-keyboard-response","249","841244","0.0-16.0-0.0-1.6","null","<span style='color:GreenYellow; font-size: 70px;'>正确! </span>","null","","","","","","","","","","","","","","","","","","","","","","","feedback_test",""
"","","","","","psychophysics","250","843558","0.0-16.0-0.0-0.7","1307","","j","","","","","","","","","","","","","key","j","16.668572463768374","775.757530919998","480.90906311329564","f","false","img/H_28.png","朋友","prac_friend","","朋友"
"","","","","","html-keyboard-response","251","843874","0.0-16.0-0.0-1.7","null","<span style='color:red; font-size: 70px;'>错误! </span>","null","","","","","","","","","","","","","","","","","","","","","","","feedback_test",""
"","","","","","psychophysics","252","845713","0.0-16.0-0.0-0.8","815","","d","","","","","","","","","","","","","key","d","16.66757798165194","775.757530919998","480.90906311329564","d","true","img/H_28.png","生人","prac_friend","","朋友"
"","","","","","html-keyboard-response","253","846018","0.0-16.0-0.0-1.8","null","<span style='color:GreenYellow; font-size: 70px;'>正确! </span>","null","","","","","","","","","","","","","","","","","","","","","","","feedback_test",""
"","","","","","psychophysics","254","847825","0.0-16.0-0.0-0.9","798","","k","","","","","","","","","","","","","key","k","16.66650467289712","775.757530919998","480.90906311329564","d","false","img/H_28.png","自我","prac_friend","","朋友"
"","","","","","html-keyboard-response","255","848127","0.0-16.0-0.0-1.9","null","<span style='color:red; font-size: 70px;'>错误! </span>","null","","","","","","","","","","","","","","","","","","","","","","","feedback_test",""
"","","","","","psychophysics","256","850557","0.0-16.0-0.0-0.10","1423","","j","","","","","","","","","","","","","key","j","16.667627586206773","775.757530919998","480.90906311329564","j","true","img/C_28.png","自我","prac_friend","","自我"
"","","","","","html-keyboard-response","257","850867","0.0-16.0-0.0-1.10","null","<span style='color:GreenYellow; font-size: 70px;'>正确! </span>","null","","","","","","","","","","","","","","","","","","","","","","","feedback_test",""
"","","","","","psychophysics","258","853235","0.0-16.0-0.0-0.11","1350","","k","","","","","","","","","","","","","key","k","16.665617021277104","775.757530919998","480.90906311329564","k","true","img/C_28.png","朋友","prac_friend","","自我"
"","","","","","html-keyboard-response","259","853541","0.0-16.0-0.0-1.11","null","<span style='color:GreenYellow; font-size: 70px;'>正确! </span>","null","","","","","","","","","","","","","","","","","","","","","","","feedback_test",""
"","","","","","psychophysics","260","855736","0.0-16.0-0.0-0.12","1185","","j","","","","","","","","","","","","","key","j","16.668351145038198","775.757530919998","480.90906311329564","j","true","img/S_28.png","生人","prac_friend","","生人"
"","","","","","html-keyboard-response","261","856042","0.0-16.0-0.0-1.12","null","<span style='color:GreenYellow; font-size: 70px;'>正确! </span>","null","","","","","","","","","","","","","","","","","","","","","","","feedback_test",""
"","","","","","psychophysics","262","857753","0.0-16.0-0.0-0.13","702","","f","","","","","","","","","","","","","key","f","16.6690588235289","775.757530919998","480.90906311329564","f","true","img/H_28.png","朋友","prac_friend","","朋友"
"","","","","","html-keyboard-response","263","858056","0.0-16.0-0.0-1.13","null","<span style='color:GreenYellow; font-size: 70px;'>正确! </span>","null","","","","","","","","","","","","","","","","","","","","","","","feedback_test",""
"","","","","","psychophysics","264","859912","0.0-16.0-0.0-0.14","827","","k","","","","","","","","","","","","","key","k","16.66611818181859","775.757530919998","480.90906311329564","k","true","img/C_28.png","朋友","prac_friend","","自我"
"","","","","","html-keyboard-response","265","860220","0.0-16.0-0.0-1.14","null","<span style='color:GreenYellow; font-size: 70px;'>正确! </span>","null","","","","","","","","","","","","","","","","","","","","","","","feedback_test",""
"","","","","","psychophysics","266","862226","0.0-16.0-0.0-0.15","996","","j","","","","","","","","","","","","","key","j","16.664495798319916","775.757530919998","480.90906311329564","j","true","img/S_28.png","生人","prac_friend","","生人"
"","","","","","html-keyboard-response","267","862543","0.0-16.0-0.0-1.15","null","<span style='color:GreenYellow; font-size: 70px;'>正确! </span>","null","","","","","","","","","","","","","","","","","","","","","","","feedback_test",""
"","","","","","psychophysics","268","864244","0.0-16.0-0.0-0.16","693","","k","","","","","","","","","","","","","key","k","16.665069306929745","775.757530919998","480.90906311329564","k","true","img/C_28.png","生人","prac_friend","","自我"
"","","","","","html-keyboard-response","269","864553","0.0-16.0-0.0-1.16","null","<span style='color:GreenYellow; font-size: 70px;'>正确! </span>","null","","","","","","","","","","","","","","","","","","","","","","","feedback_test",""
"","","","","","psychophysics","270","866812","0.0-16.0-0.0-0.17","1246","","k","","","","","","","","","","","","","key","k","16.66846268656733","775.757530919998","480.90906311329564","k","true","img/S_28.png","朋友","prac_friend","","生人"
"","","","","","html-keyboard-response","271","867119","0.0-16.0-0.0-1.17","null","<span style='color:GreenYellow; font-size: 70px;'>正确! </span>","null","","","","","","","","","","","","","","","","","","","","","","","feedback_test",""
"","","","","","psychophysics","272","868921","0.0-16.0-0.0-0.18","787","","j","","","","","","","","","","","","","key","j","16.667570093457336","775.757530919998","480.90906311329564","j","true","img/C_28.png","自我","prac_friend","","自我"
"","","","","","html-keyboard-response","273","869237","0.0-16.0-0.0-1.18","null","<span style='color:GreenYellow; font-size: 70px;'>正确! </span>","null","","","","","","","","","","","","","","","","","","","","","","","feedback_test",""
"","","","","","psychophysics","274","871130","0.0-16.0-0.0-0.19","883","","d","","","","","","","","","","","","","key","d","16.665187500000425","775.757530919998","480.90906311329564","d","true","img/H_28.png","自我","prac_friend","","朋友"
"","","","","","html-keyboard-response","275","871445","0.0-16.0-0.0-1.19","null","<span style='color:GreenYellow; font-size: 70px;'>正确! </span>","null","","","","","","","","","","","","","","","","","","","","","","","feedback_test",""
"","","","","","psychophysics","276","873291","0.0-16.0-0.0-0.20","824","","j","","","","","","","","","","","","","key","j","16.665459459459804","775.757530919998","480.90906311329564","j","true","img/C_28.png","自我","prac_friend","","自我"
"","","","","","html-keyboard-response","277","873605","0.0-16.0-0.0-1.20","null","<span style='color:GreenYellow; font-size: 70px;'>正确! </span>","null","","","","","","","","","","","","","","","","","","","","","","","feedback_test",""
"","","","","","psychophysics","278","875274","0.0-16.0-0.0-0.21","657","","k","","","","","","","","","","","","","key","k","16.664757575757445","775.757530919998","480.90906311329564","k","true","img/S_28.png","自我","prac_friend","","生人"
"","","","","","html-keyboard-response","279","875585","0.0-16.0-0.0-1.21","null","<span style='color:GreenYellow; font-size: 70px;'>正确! </span>","null","","","","","","","","","","","","","","","","","","","","","","","feedback_test",""
"","","","","","psychophysics","280","877958","0.0-16.0-0.0-0.22","1362","","k","","","","","","","","","","","","","key","k","16.66775886524809","775.757530919998","480.90906311329564","d","false","img/H_28.png","生人","prac_friend","","朋友"
"","","","","","html-keyboard-response","281","878261","0.0-16.0-0.0-1.22","null","<span style='color:red; font-size: 70px;'>错误! </span>","null","","","","","","","","","","","","","","","","","","","","","","","feedback_test",""
"","","","","","psychophysics","282","880335","0.0-16.0-0.0-0.23","1060","","d","","","","","","","","","","","","","key","d","16.66708064516124","775.757530919998","480.90906311329564","f","false","img/H_28.png","朋友","prac_friend","","朋友"
"","","","","","html-keyboard-response","283","880646","0.0-16.0-0.0-1.23","null","<span style='color:red; font-size: 70px;'>错误! </span>","null","","","","","","","","","","","","","","","","","","","","","","","feedback_test",""
"","","","","","html-keyboard-response","284","887355","0.0-17.0","6708","[""<style>.context{color:white; font-size: 35px; line-height:40px}</style>               <div><p class='context'>您正确回答了71% 的试次。</p><p class='context'>您的平均反应时为939毫秒。</p><p class='context'>恭喜您完成这一阶段的练习。按任意键进入<span style='color: yellow;'>重点关注图形为“生人”</span>的练习。</p></div><p class='footer' style='font-size:35px; line-height:30px;'>任务要求：\n               <p class='footer' style='font-size:35px; line-height:35px;'>对与“生人”对应的图形，如果 匹配 ，请按 <span style=\""color: lightgreen;\"">f键</span></p><p class='footer' style='font-size:35px'>如果 不匹配 ，请按<span style=\""color: lightgreen;\"">d键</p></span>\n               <p class='footer' style='font-size:35px; line-height:35px;'>对非“生人”对应的图形，如果 匹配 ，请按 <span style=\""color: lightgreen;\"">j键</span></p><p class='footer' style='font-size:35px'>如果 不匹配 ，请按<span style=\""color: lightgreen;\"">k键</p></span>\n               <p class='footer' style='font-size:22px; line-height:25px;'>请在实验过程中将您的<span style=\""color: lightgreen;\"">食指和中指</span>放在电脑键盘的相应键位上进行按键。</p></span>""]","j","","","","","","","","","","","","","","","","","","","","","","","",""
"","","","","","psychophysics","285","889062","0.0-18.0-0.0-0.0","696","","f","","","","","","","","","","","","","key","f","16.66785148514831","775.757530919998","480.90906311329564","f","true","img/S_28.png","生人","prac_stranger","","生人"
"","","","","","html-keyboard-response","286","889378","0.0-18.0-0.0-1.0","null","<span style='color:GreenYellow; font-size: 70px;'>正确! </span>","null","","","","","","","","","","","","","","","","","","","","","","","feedback_test",""
"","","","","","psychophysics","287","891448","0.0-18.0-0.0-0.1","1063","","k","","","","","","","","","","","","","key","k","16.66808943089374","775.757530919998","480.90906311329564","k","true","img/H_28.png","生人","prac_stranger","","朋友"
"","","","","","html-keyboard-response","288","891755","0.0-18.0-0.0-1.1","null","<span style='color:GreenYellow; font-size: 70px;'>正确! </span>","null","","","","","","","","","","","","","","","","","","","","","","","feedback_test",""
"","","","","","psychophysics","289","893998","0.0-18.0-0.0-0.2","1218","","k","","","","","","","","","","","","","key","k","16.664962406015494","775.757530919998","480.90906311329564","d","false","img/S_28.png","朋友","prac_stranger","","生人"
"","","","","","html-keyboard-response","290","894307","0.0-18.0-0.0-1.2","null","<span style='color:red; font-size: 70px;'>错误! </span>","null","","","","","","","","","","","","","","","","","","","","","","","feedback_test",""
"","","","","","psychophysics","291","896280","0.0-18.0-0.0-0.3","964","","k","","","","","","","","","","","","","key","k","16.666957264958132","775.757530919998","480.90906311329564","j","false","img/C_28.png","自我","prac_stranger","","自我"
"","","","","","html-keyboard-response","292","896593","0.0-18.0-0.0-1.3","null","<span style='color:red; font-size: 70px;'>错误! </span>","null","","","","","","","","","","","","","","","","","","","","","","","feedback_test",""
"","","","","","psychophysics","293","898962","0.0-18.0-0.0-0.4","1360","","j","","","","","","","","","","","","","key","j","16.668978723404262","775.757530919998","480.90906311329564","k","false","img/C_28.png","生人","prac_stranger","","自我"
"","","","","","html-keyboard-response","294","899274","0.0-18.0-0.0-1.4","null","<span style='color:red; font-size: 70px;'>错误! </span>","null","","","","","","","","","","","","","","","","","","","","","","","feedback_test",""
"","","","","","psychophysics","295","901785","0.0-18.0-0.0-0.5","null","","null","","","","","","","","","","","","","key","null","16.666293333333453","775.757530919998","480.90906311329564","j","false","img/H_28.png","朋友","prac_stranger","","朋友"
"","","","","","html-keyboard-response","296","902088","0.0-18.0-0.0-1.5","null","<span class='add_' style='color:yellow; font-size: 70px;'> 太慢! </span>","null","","","","","","","","","","","","","","","","","","","","","","","feedback_test",""
"","","","","","psychophysics","297","903981","0.0-18.0-0.0-0.6","882","","k","","","","","","","","","","","","","key","k","16.66785714285652","775.757530919998","480.90906311329564","k","true","img/H_28.png","自我","prac_stranger","","朋友"
"","","","","","html-keyboard-response","298","904299","0.0-18.0-0.0-1.6","null","<span style='color:GreenYellow; font-size: 70px;'>正确! </span>","null","","","","","","","","","","","","","","","","","","","","","","","feedback_test",""
"","","","","","psychophysics","299","906488","0.0-18.0-0.0-0.7","1171","","k","","","","","","","","","","","","","key","k","16.559923076923365","775.757530919998","480.90906311329564","k","true","img/C_28.png","朋友","prac_stranger","","自我"
"","","","","","html-keyboard-response","300","906801","0.0-18.0-0.0-1.7","null","<span style='color:GreenYellow; font-size: 70px;'>正确! </span>","null","","","","","","","","","","","","","","","","","","","","","","","feedback_test",""
"","","","","","psychophysics","301","908752","0.0-18.0-0.0-0.8","940","","j","","","","","","","","","","","","","key","j","16.667560344826878","775.757530919998","480.90906311329564","j","true","img/C_28.png","自我","prac_stranger","","自我"
"","","","","","html-keyboard-response","302","909054","0.0-18.0-0.0-1.8","null","<span style='color:GreenYellow; font-size: 70px;'>正确! </span>","null","","","","","","","","","","","","","","","","","","","","","","","feedback_test",""
"","","","","","psychophysics","303","910884","0.0-18.0-0.0-0.9","817","","j","","","","","","","","","","","","","key","j","16.663440366971965","775.757530919998","480.90906311329564","j","true","img/H_28.png","朋友","prac_stranger","","朋友"
"","","","","","html-keyboard-response","304","911195","0.0-18.0-0.0-1.9","null","<span style='color:GreenYellow; font-size: 70px;'>正确! </span>","null","","","","","","","","","","","","","","","","","","","","","","","feedback_test",""
"","","","","","psychophysics","305","912846","0.0-18.0-0.0-0.10","629","","f","","","","","","","","","","","","","key","f","16.66606122448955","775.757530919998","480.90906311329564","f","true","img/S_28.png","生人","prac_stranger","","生人"
"","","","","","html-keyboard-response","306","913152","0.0-18.0-0.0-1.10","null","<span style='color:GreenYellow; font-size: 70px;'>正确! </span>","null","","","","","","","","","","","","","","","","","","","","","","","feedback_test",""
"","","","","","psychophysics","307","914653","0.0-18.0-0.0-0.11","488","","d","","","","","","","","","","","","","key","d","16.66810112359562","775.757530919998","480.90906311329564","d","true","img/S_28.png","自我","prac_stranger","","生人"
"","","","","","html-keyboard-response","308","914967","0.0-18.0-0.0-1.11","null","<span style='color:GreenYellow; font-size: 70px;'>正确! </span>","null","","","","","","","","","","","","","","","","","","","","","","","feedback_test",""
"","","","","","psychophysics","309","916841","0.0-18.0-0.0-0.12","863","","k","","","","","","","","","","","","","key","k","16.66557657657724","775.757530919998","480.90906311329564","k","true","img/H_28.png","自我","prac_stranger","","朋友"
"","","","","","html-keyboard-response","310","917148","0.0-18.0-0.0-1.12","null","<span style='color:GreenYellow; font-size: 70px;'>正确! </span>","null","","","","","","","","","","","","","","","","","","","","","","","feedback_test",""
"","","","","","psychophysics","311","919685","0.0-18.0-0.0-0.13","null","","null","","","","","","","","","","","","","key","null","16.578119205297835","775.757530919998","480.90906311329564","d","false","img/S_28.png","朋友","prac_stranger","","生人"
"","","","","","html-keyboard-response","312","919992","0.0-18.0-0.0-1.13","null","<span class='add_' style='color:yellow; font-size: 70px;'> 太慢! </span>","null","","","","","","","","","","","","","","","","","","","","","","","feedback_test",""
"","","","","","psychophysics","313","921792","0.0-18.0-0.0-0.14","792","","k","","","","","","","","","","","","","key","k","16.667831775700787","775.757530919998","480.90906311329564","k","true","img/C_28.png","生人","prac_stranger","","自我"
"","","","","","html-keyboard-response","314","922106","0.0-18.0-0.0-1.14","null","<span style='color:GreenYellow; font-size: 70px;'>正确! </span>","null","","","","","","","","","","","","","","","","","","","","","","","feedback_test",""
"","","","","","psychophysics","315","923743","0.0-18.0-0.0-0.15","631","","k","","","","","","","","","","","","","key","k","16.666340206185662","775.757530919998","480.90906311329564","k","true","img/C_28.png","朋友","prac_stranger","","自我"
"","","","","","html-keyboard-response","316","924059","0.0-18.0-0.0-1.15","null","<span style='color:GreenYellow; font-size: 70px;'>正确! </span>","null","","","","","","","","","","","","","","","","","","","","","","","feedback_test",""
"","","","","","psychophysics","317","925640","0.0-18.0-0.0-0.16","556","","j","","","","","","","","","","","","","key","j","16.667648936169808","775.757530919998","480.90906311329564","j","true","img/C_28.png","自我","prac_stranger","","自我"
"","","","","","html-keyboard-response","318","925945","0.0-18.0-0.0-1.16","null","<span style='color:GreenYellow; font-size: 70px;'>正确! </span>","null","","","","","","","","","","","","","","","","","","","","","","","feedback_test",""
"","","","","","psychophysics","319","927656","0.0-18.0-0.0-0.17","706","","j","","","","","","","","","","","","","key","j","16.668029411764376","775.757530919998","480.90906311329564","j","true","img/C_28.png","自我","prac_stranger","","自我"
"","","","","","html-keyboard-response","320","927965","0.0-18.0-0.0-1.17","null","<span style='color:GreenYellow; font-size: 70px;'>正确! </span>","null","","","","","","","","","","","","","","","","","","","","","","","feedback_test",""
"","","","","","psychophysics","321","930036","0.0-18.0-0.0-0.18","1070","","k","","","","","","","","","","","","","key","k","16.555715447154494","775.757530919998","480.90906311329564","d","false","img/S_28.png","自我","prac_stranger","","生人"
"","","","","","html-keyboard-response","322","930351","0.0-18.0-0.0-1.18","null","<span style='color:red; font-size: 70px;'>错误! </span>","null","","","","","","","","","","","","","","","","","","","","","","","feedback_test",""
"","","","","","psychophysics","323","932074","0.0-18.0-0.0-0.19","691","","k","","","","","","","","","","","","","key","k","16.665343137254812","775.757530919998","480.90906311329564","j","false","img/H_28.png","朋友","prac_stranger","","朋友"
"","","","","","html-keyboard-response","324","932374","0.0-18.0-0.0-1.19","null","<span style='color:red; font-size: 70px;'>错误! </span>","null","","","","","","","","","","","","","","","","","","","","","","","feedback_test",""
"","","","","","psychophysics","325","933954","0.0-18.0-0.0-0.20","574","","j","","","","","","","","","","","","","key","j","16.668329787233777","775.757530919998","480.90906311329564","f","false","img/S_28.png","生人","prac_stranger","","生人"
"","","","","","html-keyboard-response","326","934266","0.0-18.0-0.0-1.20","null","<span style='color:red; font-size: 70px;'>错误! </span>","null","","","","","","","","","","","","","","","","","","","","","","","feedback_test",""
"","","","","","psychophysics","327","936179","0.0-18.0-0.0-0.21","911","","k","","","","","","","","","","","","","key","k","16.66624778761133","775.757530919998","480.90906311329564","j","false","img/H_28.png","朋友","prac_stranger","","朋友"
"","","","","","html-keyboard-response","328","936483","0.0-18.0-0.0-1.21","null","<span style='color:red; font-size: 70px;'>错误! </span>","null","","","","","","","","","","","","","","","","","","","","","","","feedback_test",""
"","","","","","psychophysics","329","938558","0.0-18.0-0.0-0.22","1047","","k","","","","","","","","","","","","","key","k","16.667650406503466","775.757530919998","480.90906311329564","k","true","img/H_28.png","生人","prac_stranger","","朋友"
"","","","","","html-keyboard-response","330","938874","0.0-18.0-0.0-1.22","null","<span style='color:GreenYellow; font-size: 70px;'>正确! </span>","null","","","","","","","","","","","","","","","","","","","","","","","feedback_test",""
"","","","","","psychophysics","331","940669","0.0-18.0-0.0-0.23","784","","f","","","","","","","","","","","","","key","f","16.667728971963026","775.757530919998","480.90906311329564","f","true","img/S_28.png","生人","prac_stranger","","生人"
"","","","","","html-keyboard-response","332","940976","0.0-18.0-0.0-1.23","null","<span style='color:GreenYellow; font-size: 70px;'>正确! </span>","null","","","","","","","","","","","","","","","","","","","","","","","feedback_test",""
"","","","","","html-keyboard-response","333","942267","0.0-18.0-1.0-0.0","1289","<style>.context{color:white; font-size: 35px; line-height:40px}</style>                           <div><p class='context'>您正确回答了63% 的试次。</p><p class='context'>您的平均反应时为804毫秒。</p>","enter","","","","","","","","","","","","","","","","","","","","","","","",""
"","","","","","instructions","334","951462","0.0-18.0-1.0-1.0","9193","","","","","","","","","","","","","","[{""page_index"":0,""viewing_time"":1436},{""page_index"":1,""viewing_time"":6204},{""page_index"":2,""viewing_time"":1553}]","","","","","","","","","","","",""
"","","","","","psychophysics","335","953231","0.0-18.1-0.1-0.24","763","","d","","","","","","","","","","","","","key","d","16.667647619047646","775.757530919998","480.90906311329564","d","true","img/S_28.png","自我","prac_stranger","","生人"
"","","","","","html-keyboard-response","336","953541","0.0-18.1-0.1-1.24","null","<span style='color:GreenYellow; font-size: 70px;'>正确! </span>","null","","","","","","","","","","","","","","","","","","","","","","","feedback_test",""
"","","","","","psychophysics","337","955346","0.0-18.1-0.1-0.25","798","","k","","","","","","","","","","","","","key","k","16.665028037382594","775.757530919998","480.90906311329564","k","true","img/H_28.png","生人","prac_stranger","","朋友"
"","","","","","html-keyboard-response","338","955654","0.0-18.1-0.1-1.25","null","<span style='color:GreenYellow; font-size: 70px;'>正确! </span>","null","","","","","","","","","","","","","","","","","","","","","","","feedback_test",""
"","","","","","psychophysics","339","957540","0.0-18.1-0.1-0.26","877","","k","","","","","","","","","","","","","key","k","16.666133928572112","775.757530919998","480.90906311329564","k","true","img/H_28.png","自我","prac_stranger","","朋友"
"","","","","","html-keyboard-response","340","957847","0.0-18.1-0.1-1.26","null","<span style='color:GreenYellow; font-size: 70px;'>正确! </span>","null","","","","","","","","","","","","","","","","","","","","","","","feedback_test",""
"","","","","","psychophysics","341","959429","0.0-18.1-0.1-0.27","580","","j","","","","","","","","","","","","","key","j","16.669542553191857","775.757530919998","480.90906311329564","j","true","img/C_28.png","自我","prac_stranger","","自我"
"","","","","","html-keyboard-response","342","959734","0.0-18.1-0.1-1.27","null","<span style='color:GreenYellow; font-size: 70px;'>正确! </span>","null","","","","","","","","","","","","","","","","","","","","","","","feedback_test",""
"","","","","","psychophysics","343","961759","0.0-18.1-0.1-0.28","1003","","d","","","","","","","","","","","","","key","d","16.6691916666663","775.757530919998","480.90906311329564","f","false","img/S_28.png","生人","prac_stranger","","生人"
"","","","","","html-keyboard-response","344","962065","0.0-18.1-0.1-1.28","null","<span style='color:red; font-size: 70px;'>错误! </span>","null","","","","","","","","","","","","","","","","","","","","","","","feedback_test",""
"","","","","","psychophysics","345","963691","0.0-18.1-0.1-0.29","624","","d","","","","","","","","","","","","","key","d","16.536239583332645","775.757530919998","480.90906311329564","k","false","img/C_28.png","生人","prac_stranger","","自我"
"","","","","","html-keyboard-response","346","964002","0.0-18.1-0.1-1.29","null","<span style='color:red; font-size: 70px;'>错误! </span>","null","","","","","","","","","","","","","","","","","","","","","","","feedback_test",""
"","","","","","psychophysics","347","966043","0.0-18.1-0.1-0.30","1029","","j","","","","","","","","","","","","","key","j","16.660727272727065","775.757530919998","480.90906311329564","j","true","img/H_28.png","朋友","prac_stranger","","朋友"
"","","","","","html-keyboard-response","348","966357","0.0-18.1-0.1-1.30","null","<span style='color:GreenYellow; font-size: 70px;'>正确! </span>","null","","","","","","","","","","","","","","","","","","","","","","","feedback_test",""
"","","","","","psychophysics","349","968085","0.0-18.1-0.1-0.31","701","","j","","","","","","","","","","","","","key","j","16.66650485436916","775.757530919998","480.90906311329564","j","true","img/H_28.png","朋友","prac_stranger","","朋友"
"","","","","","html-keyboard-response","350","968398","0.0-18.1-0.1-1.31","null","<span style='color:GreenYellow; font-size: 70px;'>正确! </span>","null","","","","","","","","","","","","","","","","","","","","","","","feedback_test",""
"","","","","","psychophysics","351","970041","0.0-18.1-0.1-0.32","640","","f","","","","","","","","","","","","","key","f","16.66644897959219","775.757530919998","480.90906311329564","d","false","img/S_28.png","朋友","prac_stranger","","生人"
"","","","","","html-keyboard-response","352","970342","0.0-18.1-0.1-1.32","null","<span style='color:red; font-size: 70px;'>错误! </span>","null","","","","","","","","","","","","","","","","","","","","","","","feedback_test",""
"","","","","","psychophysics","353","972194","0.0-18.1-0.1-0.33","842","","f","","","","","","","","","","","","","key","f","16.666954545454463","775.757530919998","480.90906311329564","f","true","img/S_28.png","生人","prac_stranger","","生人"
"","","","","","html-keyboard-response","354","972504","0.0-18.1-0.1-1.33","null","<span style='color:GreenYellow; font-size: 70px;'>正确! </span>","null","","","","","","","","","","","","","","","","","","","","","","","feedback_test",""
"","","","","","psychophysics","355","974461","0.0-18.1-0.1-0.34","952","","j","","","","","","","","","","","","","key","j","16.664991379310056","775.757530919998","480.90906311329564","j","true","img/C_28.png","自我","prac_stranger","","自我"
"","","","","","html-keyboard-response","356","974768","0.0-18.1-0.1-1.34","null","<span style='color:GreenYellow; font-size: 70px;'>正确! </span>","null","","","","","","","","","","","","","","","","","","","","","","","feedback_test",""
"","","","","","psychophysics","357","976739","0.0-18.1-0.1-0.35","962","","k","","","","","","","","","","","","","key","k","16.66566666666693","775.757530919998","480.90906311329564","k","true","img/C_28.png","朋友","prac_stranger","","自我"
"","","","","","html-keyboard-response","358","977050","0.0-18.1-0.1-1.35","null","<span style='color:GreenYellow; font-size: 70px;'>正确! </span>","null","","","","","","","","","","","","","","","","","","","","","","","feedback_test",""
"","","","","","psychophysics","359","978793","0.0-18.1-0.1-0.36","730","","k","","","","","","","","","","","","","key","k","16.666533980583004","775.757530919998","480.90906311329564","k","true","img/C_28.png","朋友","prac_stranger","","自我"
"","","","","","html-keyboard-response","360","979101","0.0-18.1-0.1-1.36","null","<span style='color:GreenYellow; font-size: 70px;'>正确! </span>","null","","","","","","","","","","","","","","","","","","","","","","","feedback_test",""
"","","","","","psychophysics","361","981249","0.0-18.1-0.1-0.37","1115","","k","","","","","","","","","","","","","key","k","16.665244094488454","775.757530919998","480.90906311329564","k","true","img/H_28.png","生人","prac_stranger","","朋友"
"","","","","","html-keyboard-response","362","981551","0.0-18.1-0.1-1.37","null","<span style='color:GreenYellow; font-size: 70px;'>正确! </span>","null","","","","","","","","","","","","","","","","","","","","","","","feedback_test",""
"","","","","","psychophysics","363","983331","0.0-18.1-0.1-0.38","780","","k","","","","","","","","","","","","","key","k","16.668257142857293","775.757530919998","480.90906311329564","k","true","img/C_28.png","生人","prac_stranger","","自我"
"","","","","","html-keyboard-response","364","983635","0.0-18.1-0.1-1.38","null","<span style='color:GreenYellow; font-size: 70px;'>正确! </span>","null","","","","","","","","","","","","","","","","","","","","","","","feedback_test",""
"","","","","","psychophysics","365","986147","0.0-18.1-0.1-0.39","null","","null","","","","","","","","","","","","","key","null","16.667449664429217","775.757530919998","480.90906311329564","j","false","img/H_28.png","朋友","prac_stranger","","朋友"
"","","","","","html-keyboard-response","366","986469","0.0-18.1-0.1-1.39","null","<span class='add_' style='color:yellow; font-size: 70px;'> 太慢! </span>","null","","","","","","","","","","","","","","","","","","","","","","","feedback_test",""
"","","","","","psychophysics","367","988144","0.0-18.1-0.1-0.40","660","","k","","","","","","","","","","","","","key","k","16.665222222222994","775.757530919998","480.90906311329564","j","false","img/H_28.png","朋友","prac_stranger","","朋友"
"","","","","","html-keyboard-response","368","988458","0.0-18.1-0.1-1.40","null","<span style='color:red; font-size: 70px;'>错误! </span>","null","","","","","","","","","","","","","","","","","","","","","","","feedback_test",""
"","","","","","psychophysics","369","990279","0.0-18.1-0.1-0.41","813","","f","","","","","","","","","","","","","key","f","16.667731481481397","775.757530919998","480.90906311329564","f","true","img/S_28.png","生人","prac_stranger","","生人"
"","","","","","html-keyboard-response","370","990582","0.0-18.1-0.1-1.41","null","<span style='color:GreenYellow; font-size: 70px;'>正确! </span>","null","","","","","","","","","","","","","","","","","","","","","","","feedback_test",""
"","","","","","psychophysics","371","992090","0.0-18.1-0.1-0.42","507","","f","","","","","","","","","","","","","key","f","16.518471910113345","775.757530919998","480.90906311329564","f","true","img/S_28.png","生人","prac_stranger","","生人"
"","","","","","html-keyboard-response","372","992400","0.0-18.1-0.1-1.42","null","<span style='color:GreenYellow; font-size: 70px;'>正确! </span>","null","","","","","","","","","","","","","","","","","","","","","","","feedback_test",""
"","","","","","psychophysics","373","993972","0.0-18.1-0.1-0.43","546","","k","","","","","","","","","","","","","key","k","16.664645161290693","775.757530919998","480.90906311329564","j","false","img/C_28.png","自我","prac_stranger","","自我"
"","","","","","html-keyboard-response","374","994285","0.0-18.1-0.1-1.43","null","<span style='color:red; font-size: 70px;'>错误! </span>","null","","","","","","","","","","","","","","","","","","","","","","","feedback_test",""
"","","","","","psychophysics","375","996347","0.0-18.1-0.1-0.44","1052","","d","","","","","","","","","","","","","key","d","16.665172131147166","775.757530919998","480.90906311329564","d","true","img/S_28.png","朋友","prac_stranger","","生人"
"","","","","","html-keyboard-response","376","996653","0.0-18.1-0.1-1.44","null","<span style='color:GreenYellow; font-size: 70px;'>正确! </span>","null","","","","","","","","","","","","","","","","","","","","","","","feedback_test",""
"","","","","","psychophysics","377","998471","0.0-18.1-0.1-0.45","806","","k","","","","","","","","","","","","","key","k","16.6672777777777","775.757530919998","480.90906311329564","k","true","img/H_28.png","自我","prac_stranger","","朋友"
"","","","","","html-keyboard-response","378","998783","0.0-18.1-0.1-1.45","null","<span style='color:GreenYellow; font-size: 70px;'>正确! </span>","null","","","","","","","","","","","","","","","","","","","","","","","feedback_test",""
"","","","","","psychophysics","379","1000698","0.0-18.1-0.1-0.46","880","","k","","","","","","","","","","","","","key","k","16.664407079646868","775.757530919998","480.90906311329564","d","false","img/S_28.png","自我","prac_stranger","","生人"
"","","","","","html-keyboard-response","380","1000999","0.0-18.1-0.1-1.46","null","<span style='color:red; font-size: 70px;'>错误! </span>","null","","","","","","","","","","","","","","","","","","","","","","","feedback_test",""
"","","","","","psychophysics","381","1003047","0.0-18.1-0.1-0.47","1047","","j","","","","","","","","","","","","","key","j","16.66422314049526","775.757530919998","480.90906311329564","j","true","img/C_28.png","自我","prac_stranger","","自我"
"","","","","","html-keyboard-response","382","1003363","0.0-18.1-0.1-1.47","null","<span style='color:GreenYellow; font-size: 70px;'>正确! </span>","null","","","","","","","","","","","","","","","","","","","","","","","feedback_test",""
"","","","","","html-keyboard-response","383","1057658","0.0-19.0","54292","[""<style>.context{color:white; font-size: 35px; line-height:40px}</style>                                     <div><p class='context'>您正确回答了71% 的试次。</p><p class='context'>您的平均反应时为844毫秒。</p><p class='context'>恭喜您完成练习。您可以在此时休息一段时间，准备好后按任意键进入正式实验。</p><p class='footer' style='font-size: 35px; line-height:40px;'>请在进入正式实验实验之前将您的<span style='color: lightgreen;'>食指和中指</span>放在电脑键盘的相应键位上，做好按键准备。</p>""]","enter","","","","","","","","","","","","","","","","","","","","","","","",""
"","","","","","html-keyboard-response","384","1070314","0.0-20.0-2.0-0.0","12653","
                 <p>请您将食指和中指放在相应按键上，准备进入<span style='color: yellow;'>重点图形为“生人”对应图形</span>的正式匹配任务</p>
                 <p> <div style = ""color: green""><按任意键开始></div></p>
                 ","j","","","","","","","","","","","","","","","","","","","","","","","",""
"","","","","","psychophysics","385","1072170","0.0-20.0-2.0-1.0-0.0-0.0","854","","d","","","","","","","","","","","","","key","d","16.628463636361992","775.757530919998","480.90906311329564","d","true","img/S_28.png","朋友","stranger","","生人"
"","","","","","html-keyboard-response","386","1072483","0.0-20.0-2.0-1.0-0.0-1.0","null","<span style='color:GreenYellow; font-size: 70px;'>正确! </span>","null","","","","","","","","","","","","","","","","","","","","","","","feedback_test",""
"","","","","","psychophysics","387","1074115","0.0-20.0-2.0-1.0-0.0-0.1","629","","j","","","","","","","","","","","","","key","j","16.665291666666842","775.757530919998","480.90906311329564","j","true","img/C_28.png","自我","stranger","","自我"
"","","","","","html-keyboard-response","388","1074425","0.0-20.0-2.0-1.0-0.0-1.1","null","<span style='color:GreenYellow; font-size: 70px;'>正确! </span>","null","","","","","","","","","","","","","","","","","","","","","","","feedback_test",""
"","","","","","psychophysics","389","1076307","0.0-20.0-2.0-1.0-0.0-0.2","857","","k","","","","","","","","","","","","","key","k","16.665982142857892","775.757530919998","480.90906311329564","j","false","img/H_28.png","朋友","stranger","","朋友"
"","","","","","html-keyboard-response","390","1076615","0.0-20.0-2.0-1.0-0.0-1.2","null","<span style='color:red; font-size: 70px;'>错误! </span>","null","","","","","","","","","","","","","","","","","","","","","","","feedback_test",""
"","","","","","psychophysics","391","1078356","0.0-20.0-2.0-1.0-0.0-0.3","738","","j","","","","","","","","","","","","","key","j","16.54344660194265","775.757530919998","480.90906311329564","j","true","img/H_28.png","朋友","stranger","","朋友"
"","","","","","html-keyboard-response","392","1078662","0.0-20.0-2.0-1.0-0.0-1.3","null","<span style='color:GreenYellow; font-size: 70px;'>正确! </span>","null","","","","","","","","","","","","","","","","","","","","","","","feedback_test",""
"","","","","","psychophysics","393","1080336","0.0-20.0-2.0-1.0-0.0-0.4","673","","f","","","","","","","","","","","","","key","f","16.666840000001248","775.757530919998","480.90906311329564","f","true","img/S_28.png","生人","stranger","","生人"
"","","","","","html-keyboard-response","394","1080644","0.0-20.0-2.0-1.0-0.0-1.4","null","<span style='color:GreenYellow; font-size: 70px;'>正确! </span>","null","","","","","","","","","","","","","","","","","","","","","","","feedback_test",""
"","","","","","psychophysics","395","1082348","0.0-20.0-2.0-1.0-0.0-0.5","696","","d","","","","","","","","","","","","","key","d","16.667722772278978","775.757530919998","480.90906311329564","d","true","img/S_28.png","自我","stranger","","生人"
"","","","","","html-keyboard-response","396","1082654","0.0-20.0-2.0-1.0-0.0-1.5","null","<span style='color:GreenYellow; font-size: 70px;'>正确! </span>","null","","","","","","","","","","","","","","","","","","","","","","","feedback_test",""
"","","","","","psychophysics","397","1084818","0.0-20.0-2.0-1.0-0.0-0.6","1156","","k","","","","","","","","","","","","","key","k","16.666713178293172","775.757530919998","480.90906311329564","k","true","img/H_28.png","自我","stranger","","朋友"
"","","","","","html-keyboard-response","398","1085122","0.0-20.0-2.0-1.0-0.0-1.6","null","<span style='color:GreenYellow; font-size: 70px;'>正确! </span>","null","","","","","","","","","","","","","","","","","","","","","","","feedback_test",""
"","","","","","psychophysics","399","1086879","0.0-20.0-2.0-1.0-0.0-0.7","749","","j","","","","","","","","","","","","","key","j","16.668721153846352","775.757530919998","480.90906311329564","j","true","img/C_28.png","自我","stranger","","自我"
"","","","","","html-keyboard-response","400","1087188","0.0-20.0-2.0-1.0-0.0-1.7","null","<span style='color:GreenYellow; font-size: 70px;'>正确! </span>","null","","","","","","","","","","","","","","","","","","","","","","","feedback_test",""
