"success","timeout","failed_images","failed_audio","failed_video","trial_type","trial_index","time_elapsed","internal_node_id","rt","stimulus","response","value","item_width_mm","item_height_mm","item_width_px","px2mm","view_dist_mm","item_width_deg","px2deg","scale_factor","win_width_deg","win_height_deg","view_history","response_type","key_press","avg_frame_time","center_x","center_y","correct_response","correct","Image","text","condition","screen_id","label"
"true","false","[]","[]","[]","preload","0","1851","0.0-0.0","","","","","","","","","","","","","","","","","","","","","","","","","","",""
"","","","","","html-keyboard-response","1","14708","0.0-1.0","12856","
  <p>您好，欢迎参加本次实验。</p>
  <p>为充分保障您的权利，请确保您已经知晓并同意《参与实验同意书》以及《数据公开知情同意书》。</p>
  <p>如果您未见过上述内容，请咨询实验员。</p>
  <p>如果您选择继续实验，则表示您已经清楚两份知情同意书的内容并同意。</p>
  <p> <div style = ""color: green""><按任意键至下页></div> </p>
  ","f11","","","","","","","","","","","","","","","","","","","","","","","",""
"","","","","","html-keyboard-response","2","68841","0.0-2.0","54133","
  <p>本实验首先需要您填写一些基本个人信息。</p>
  <p> <div style = ""color: green""><按任意键至下页></div></p>
  "," ","","","","","","","","","","","","","","","","","","","","","","","",""
"","","","","","call-function","3","68842","0.0-3.0-0.0","","","","","","","","","","","","","","","","","","","","","","","","","","",""
"","","","","","survey-html-form","4","72230","0.0-3.0-1.0","3387","","{""Q0"":""56""}","","","","","","","","","","","","","","","","","","","","","","","",""
"","","","","","html-button-response","5","73332","0.0-3.0-2.0","1101","<p style = 'color : white'>您的性别</p>","0","","","","","","","","","","","","","","","","","","","","","","","",""
"","","","","","survey-html-form","6","77544","0.0-3.0-3.0","4211","","{""Q0"":""2000""}","","","","","","","","","","","","","","","","","","","","","","","",""
"","","","","","survey-html-form","7","80069","0.0-3.0-4.0","2524","","{""Q0"":""5""}","","","","","","","","","","","","","","","","","","","","","","","",""
"","","","","","virtual-chinrest","8","248629","0.0-4.0","168560","","","","85.6","53.98","401.05053489589926","4.687882928005686","610.46","8.021010697917985","50","0.9300573557315406","51.2","25.92","","","","","","","","","","","","",""
"true","","","","","fullscreen","9","251632","0.0-5.0","","","","","","","","","","","","","","","","","","","","","","","","","","",""
"","","","","","instructions","10","338017","0.0-6.0","86384","","","","","","","","","","","","","","[{""page_index"":0,""viewing_time"":8428},{""page_index"":1,""viewing_time"":10240},{""page_index"":2,""viewing_time"":63452},{""page_index"":3,""viewing_time"":1924},{""page_index"":4,""viewing_time"":2340}]","","","","","","","","","","","",""
"","","","","","instructions","11","373207","0.0-7.0","35190","","","","","","","","","","","","","","[{""page_index"":0,""viewing_time"":35189}]","","","","","","","","","","","",""
"","","","","","psychophysics","12","381384","0.0-8.0-0.0-0.0","7163","","d","","","","","","","","","","","","","key","d","16.66615950920241","1280","716","k","false","img/C_28.png","朋友","freeprac_self","",""
"","","","","","html-keyboard-response","13","381686","0.0-8.0-0.0-1.0","null","<span style='color:red; font-size: 70px;'>错误! </span>","null","","","","","","","","","","","","","","","","","","","","","","","feedback_test",""
"","","","","","psychophysics","14","388799","0.0-8.0-0.0-0.1","6109","","d","","","","","","","","","","","","","key","d","16.666244131455414","1280","716","f","false","img/S_28.png","朋友","freeprac_self","",""
"","","","","","html-keyboard-response","15","389102","0.0-8.0-0.0-1.1","null","<span style='color:red; font-size: 70px;'>错误! </span>","null","","","","","","","","","","","","","","","","","","","","","","","feedback_test",""
"","","","","","psychophysics","16","394072","0.0-8.0-0.0-0.2","3966","","d","","","","","","","","","","","","","key","d","16.666239057238933","1280","716","k","false","img/H_28.png","生人","freeprac_self","",""
"","","","","","html-keyboard-response","17","394374","0.0-8.0-0.0-1.2","null","<span style='color:red; font-size: 70px;'>错误! </span>","null","","","","","","","","","","","","","","","","","","","","","","","feedback_test",""
"","","","","","psychophysics","18","396874","0.0-8.0-0.0-0.3","1492","","f","","","","","","","","","","","","","key","f","16.665409395973207","1280","716","f","true","img/S_28.png","生人","freeprac_self","",""
"","","","","","html-keyboard-response","19","397176","0.0-8.0-0.0-1.3","null","<span style='color:GreenYellow; font-size: 70px;'>正确! </span>","null","","","","","","","","","","","","","","","","","","","","","","","feedback_test",""
"","","","","","psychophysics","20","399515","0.0-8.0-0.0-0.4","1334","","f","","","","","","","","","","","","","key","f","16.666115107913434","1280","716","j","false","img/C_28.png","自我","freeprac_self","",""
"","","","","","html-keyboard-response","21","399820","0.0-8.0-0.0-1.4","null","<span style='color:red; font-size: 70px;'>错误! </span>","null","","","","","","","","","","","","","","","","","","","","","","","feedback_test",""
"","","","","","psychophysics","22","405436","0.0-8.0-0.0-0.5","4613","","d","","","","","","","","","","","","","key","d","16.715672619047663","1280","716","k","false","img/C_28.png","朋友","freeprac_self","",""
"","","","","","html-keyboard-response","23","405739","0.0-8.0-0.0-1.5","null","<span style='color:red; font-size: 70px;'>错误! </span>","null","","","","","","","","","","","","","","","","","","","","","","","feedback_test",""
"","","","","","psychophysics","24","430747","0.0-8.0-0.0-0.6","null","","null","","","","","","","","","","","","","key","null","16.666128666666648","1280","716","j","false","img/C_28.png","生人","freeprac_self","",""
"","","","","","html-keyboard-response","25","431052","0.0-8.0-0.0-1.6","null","<span style='color:red; font-size: 70px;'>错误! </span>","null","","","","","","","","","","","","","","","","","","","","","","","feedback_test",""
"","","","","","psychophysics","26","434395","0.0-8.0-0.0-0.7","2340","","d","","","","","","","","","","","","","key","d","16.666200000000245","1280","716","k","false","img/H_28.png","生人","freeprac_self","",""
"","","","","","html-keyboard-response","27","434702","0.0-8.0-0.0-1.7","null","<span style='color:red; font-size: 70px;'>错误! </span>","null","","","","","","","","","","","","","","","","","","","","","","","feedback_test",""
"","","","","","psychophysics","28","439339","0.0-8.0-0.0-0.8","3634","","d","","","","","","","","","","","","","key","d","16.666237410071865","1280","716","d","true","img/S_28.png","自我","freeprac_self","",""
"","","","","","html-keyboard-response","29","439643","0.0-8.0-0.0-1.8","null","<span style='color:GreenYellow; font-size: 70px;'>正确! </span>","null","","","","","","","","","","","","","","","","","","","","","","","feedback_test",""
"","","","","","psychophysics","30","441790","0.0-8.0-0.0-0.9","1141","","d","","","","","","","","","","","","","key","d","16.666023255814075","1280","716","d","true","img/S_28.png","自我","freeprac_self","",""
"","","","","","html-keyboard-response","31","442103","0.0-8.0-0.0-1.9","null","<span style='color:GreenYellow; font-size: 70px;'>正确! </span>","null","","","","","","","","","","","","","","","","","","","","","","","feedback_test",""
"","","","","","psychophysics","32","449130","0.0-8.0-0.0-0.10","6025","","j","","","","","","","","","","","","","key","j","16.66613095238087","1280","716","j","true","img/H_28.png","自我","freeprac_self","",""
"","","","","","html-keyboard-response","33","449440","0.0-8.0-0.0-1.10","null","<span style='color:GreenYellow; font-size: 70px;'>正确! </span>","null","","","","","","","","","","","","","","","","","","","","","","","feedback_test",""
"","","","","","psychophysics","34","454916","0.0-8.0-0.0-0.11","4466","","j","","","","","","","","","","","","","key","j","16.66596636085629","1280","716","j","true","img/H_28.png","朋友","freeprac_self","",""
"","","","","","html-keyboard-response","35","455224","0.0-8.0-0.0-1.11","null","<span style='color:GreenYellow; font-size: 70px;'>正确! </span>","null","","","","","","","","","","","","","","","","","","","","","","","feedback_test",""
"","","","","","html-keyboard-response","36","461815","0.0-8.0-1.0-0.0","6590","<style>.context{color:white; font-size: 35px; line-height:40px}</style>                           <div><p class='context'>您正确回答了42% 的试次。</p><p class='context'>您的平均反应时为3352毫秒。</p>"," ","","","","","","","","","","","","","","","","","","","","","","","",""
"","","","","","instructions","37","480340","0.0-8.0-1.0-1.0","18524","","","","","","","","","","","","","","[{""page_index"":0,""viewing_time"":5516},{""page_index"":1,""viewing_time"":11268},{""page_index"":2,""viewing_time"":1740}]","","","","","","","","","","","",""
"","","","","","psychophysics","38","484074","0.0-8.1-0.1-0.12","2721","","j","","","","","","","","","","","","","key","j","16.66622869955139","1280","716","j","true","img/H_28.png","自我","freeprac_self","",""
"","","","","","html-keyboard-response","39","484379","0.0-8.1-0.1-1.12","null","<span style='color:GreenYellow; font-size: 70px;'>正确! </span>","null","","","","","","","","","","","","","","","","","","","","","","","feedback_test",""
"","","","","","psychophysics","40","489727","0.0-8.1-0.1-0.13","4341","","j","","","","","","","","","","","","","key","j","16.666271874999985","1280","716","j","true","img/H_28.png","朋友","freeprac_self","",""
"","","","","","html-keyboard-response","41","490043","0.0-8.1-0.1-1.13","null","<span style='color:GreenYellow; font-size: 70px;'>正确! </span>","null","","","","","","","","","","","","","","","","","","","","","","","feedback_test",""
"","","","","","psychophysics","42","492749","0.0-8.1-0.1-0.14","1695","","k","","","","","","","","","","","","","key","k","16.66637267080759","1280","716","k","true","img/H_28.png","生人","freeprac_self","",""
"","","","","","html-keyboard-response","43","493064","0.0-8.1-0.1-1.14","null","<span style='color:GreenYellow; font-size: 70px;'>正确! </span>","null","","","","","","","","","","","","","","","","","","","","","","","feedback_test",""
"","","","","","psychophysics","44","496250","0.0-8.1-0.1-0.15","2180","","d","","","","","","","","","","","","","key","d","16.666373684210395","1280","716","d","true","img/S_28.png","自我","freeprac_self","",""
"","","","","","html-keyboard-response","45","496560","0.0-8.1-0.1-1.15","null","<span style='color:GreenYellow; font-size: 70px;'>正确! </span>","null","","","","","","","","","","","","","","","","","","","","","","","feedback_test",""
"","","","","","psychophysics","46","499788","0.0-8.1-0.1-0.16","2219","","f","","","","","","","","","","","","","key","f","16.666165803108843","1280","716","j","false","img/C_28.png","生人","freeprac_self","",""
"","","","","","html-keyboard-response","47","500092","0.0-8.1-0.1-1.16","null","<span style='color:red; font-size: 70px;'>错误! </span>","null","","","","","","","","","","","","","","","","","","","","","","","feedback_test",""
"","","","","","psychophysics","48","504461","0.0-8.1-0.1-0.17","3363","","f","","","","","","","","","","","","","key","f","16.66619540229877","1280","716","f","true","img/S_28.png","朋友","freeprac_self","",""
"","","","","","html-keyboard-response","49","504767","0.0-8.1-0.1-1.17","null","<span style='color:GreenYellow; font-size: 70px;'>正确! </span>","null","","","","","","","","","","","","","","","","","","","","","","","feedback_test",""
"","","","","","psychophysics","50","510546","0.0-8.1-0.1-0.18","4777","","f","","","","","","","","","","","","","key","f","16.666086705202357","1280","716","j","false","img/C_28.png","自我","freeprac_self","",""
"","","","","","html-keyboard-response","51","510849","0.0-8.1-0.1-1.18","null","<span style='color:red; font-size: 70px;'>错误! </span>","null","","","","","","","","","","","","","","","","","","","","","","","feedback_test",""
"","","","","","psychophysics","52","515681","0.0-8.1-0.1-0.19","3828","","d","","","","","","","","","","","","","key","d","16.666280276816586","1280","716","d","true","img/S_28.png","自我","freeprac_self","",""
"","","","","","html-keyboard-response","53","515996","0.0-8.1-0.1-1.19","null","<span style='color:GreenYellow; font-size: 70px;'>正确! </span>","null","","","","","","","","","","","","","","","","","","","","","","","feedback_test",""
"","","","","","psychophysics","54","521800","0.0-8.1-0.1-0.20","4798","","k","","","","","","","","","","","","","key","k","16.666213256484422","1280","716","k","true","img/C_28.png","朋友","freeprac_self","",""
"","","","","","html-keyboard-response","55","522103","0.0-8.1-0.1-1.20","null","<span style='color:GreenYellow; font-size: 70px;'>正确! </span>","null","","","","","","","","","","","","","","","","","","","","","","","feedback_test",""
"","","","","","psychophysics","56","525659","0.0-8.1-0.1-0.21","2545","","j","","","","","","","","","","","","","key","j","16.66605660377371","1280","716","k","false","img/H_28.png","生人","freeprac_self","",""
"","","","","","html-keyboard-response","57","525971","0.0-8.1-0.1-1.21","null","<span style='color:red; font-size: 70px;'>错误! </span>","null","","","","","","","","","","","","","","","","","","","","","","","feedback_test",""
"","","","","","psychophysics","58","532045","0.0-8.1-0.1-0.22","5064","","k","","","","","","","","","","","","","key","k","16.666768595041354","1280","716","k","true","img/C_28.png","朋友","freeprac_self","",""
"","","","","","html-keyboard-response","59","532357","0.0-8.1-0.1-1.22","null","<span style='color:GreenYellow; font-size: 70px;'>正确! </span>","null","","","","","","","","","","","","","","","","","","","","","","","feedback_test",""
"","","","","","psychophysics","60","538640","0.0-8.1-0.1-0.23","5272","","f","","","","","","","","","","","","","key","f","16.666087765957197","1280","716","f","true","img/S_28.png","生人","freeprac_self","",""
"","","","","","html-keyboard-response","61","538947","0.0-8.1-0.1-1.23","null","<span style='color:GreenYellow; font-size: 70px;'>正确! </span>","null","","","","","","","","","","","","","","","","","","","","","","","feedback_test",""
"","","","","","html-keyboard-response","62","561960","0.0-9.0","23012","[""<style>.context{color:white; font-size: 35px; line-height:40px}</style>           <div><p class='context'>您正确回答了75% 的试次。</p><p class='context'>您的平均反应时为3696毫秒。</p><p class='context'>恭喜您完成这一阶段的练习。按任意键进入<span style='color: yellow;'>重点关注图形为“朋友”</span>的练习。</p></div><p class='footer' style='font-size:35px; line-height:30px;'>任务要求：\n           <p class='footer' style='font-size:35px; line-height:35px;'>对于与“朋友”对应的图形：如果 匹配 ，请按 <span style=\""color: lightgreen;\"">d键</span></p><p class='footer' style='font-size:35px'>如果 不匹配 ，请按<span style=\""color: lightgreen;\"">f键</p></span>\n           <p class='footer' style='font-size:35px; line-height:35px;'>对于非“朋友”对应的图形：如果 匹配 ，请按 <span style=\""color: lightgreen;\"">k键</span></p><p class='footer' style='font-size:35px'>如果 不匹配 ，请按<span style=\""color: lightgreen;\"">j键</p></span>\n           <p class='footer' style='font-size:22px; line-height:25px;'>请在实验过程中将您的<span style=\""color: lightgreen;\"">食指和中指</span>放在电脑键盘的相应键位上进行按键。</p></span>""]"," ","","","","","","","","","","","","","","","","","","","","","","","",""
"","","","","","psychophysics","63","567260","0.0-10.0-0.0-0.0","4293","","j","","","","","","","","","","","","","key","j","16.66543217665591","1280","716","j","true","img/H_28.png","朋友","freeprac_friend","",""
"","","","","","html-keyboard-response","64","567574","0.0-10.0-0.0-1.0","null","<span style='color:GreenYellow; font-size: 70px;'>正确! </span>","null","","","","","","","","","","","","","","","","","","","","","","","feedback_test",""
"","","","","","psychophysics","65","570465","0.0-10.0-0.0-0.1","1881","","f","","","","","","","","","","","","","key","f","16.666197674418665","1280","716","f","true","img/C_28.png","自我","freeprac_friend","",""
"","","","","","html-keyboard-response","66","570781","0.0-10.0-0.0-1.1","null","<span style='color:GreenYellow; font-size: 70px;'>正确! </span>","null","","","","","","","","","","","","","","","","","","","","","","","feedback_test",""
"","","","","","psychophysics","67","574600","0.0-10.0-0.0-0.2","2816","","f","","","","","","","","","","","","","key","f","16.665069868995534","1280","716","f","true","img/C_28.png","生人","freeprac_friend","",""
"","","","","","html-keyboard-response","68","574910","0.0-10.0-0.0-1.2","null","<span style='color:GreenYellow; font-size: 70px;'>正确! </span>","null","","","","","","","","","","","","","","","","","","","","","","","feedback_test",""
"","","","","","psychophysics","69","579331","0.0-10.0-0.0-0.3","3414","","j","","","","","","","","","","","","","key","j","16.666124528301616","1280","716","k","false","img/S_28.png","自我","freeprac_friend","",""
"","","","","","html-keyboard-response","70","579640","0.0-10.0-0.0-1.3","null","<span style='color:red; font-size: 70px;'>错误! </span>","null","","","","","","","","","","","","","","","","","","","","","","","feedback_test",""
"","","","","","psychophysics","71","582482","0.0-10.0-0.0-0.4","1832","","d","","","","","","","","","","","","","key","d","16.666159763313644","1280","716","d","true","img/C_28.png","朋友","freeprac_friend","",""
"","","","","","html-keyboard-response","72","582797","0.0-10.0-0.0-1.4","null","<span style='color:GreenYellow; font-size: 70px;'>正确! </span>","null","","","","","","","","","","","","","","","","","","","","","","","feedback_test",""
"","","","","","psychophysics","73","587654","0.0-10.0-0.0-0.5","3854","","k","","","","","","","","","","","","","key","k","16.666336769759383","1280","716","k","true","img/H_28.png","生人","freeprac_friend","",""
"","","","","","html-keyboard-response","74","587969","0.0-10.0-0.0-1.5","null","<span style='color:GreenYellow; font-size: 70px;'>正确! </span>","null","","","","","","","","","","","","","","","","","","","","","","","feedback_test",""
"","","","","","psychophysics","75","590642","0.0-10.0-0.0-0.6","1673","","j","","","","","","","","","","","","","key","j","16.665899371069347","1280","716","j","true","img/H_28.png","自我","freeprac_friend","",""
"","","","","","html-keyboard-response","76","590952","0.0-10.0-0.0-1.6","null","<span style='color:GreenYellow; font-size: 70px;'>正确! </span>","null","","","","","","","","","","","","","","","","","","","","","","","feedback_test",""
"","","","","","psychophysics","77","596810","0.0-10.0-0.0-0.7","4844","","j","","","","","","","","","","","","","key","j","16.666108571428673","1280","716","j","true","img/S_28.png","生人","freeprac_friend","",""
"","","","","","html-keyboard-response","78","597126","0.0-10.0-0.0-1.7","null","<span style='color:GreenYellow; font-size: 70px;'>正确! </span>","null","","","","","","","","","","","","","","","","","","","","","","","feedback_test",""
"","","","","","psychophysics","79","603848","0.0-10.0-0.0-0.8","5715","","j","","","","","","","","","","","","","key","j","16.66624626865673","1280","716","j","true","img/S_28.png","朋友","freeprac_friend","",""
"","","","","","html-keyboard-response","80","604150","0.0-10.0-0.0-1.8","null","<span style='color:GreenYellow; font-size: 70px;'>正确! </span>","null","","","","","","","","","","","","","","","","","","","","","","","feedback_test",""
"","","","","","psychophysics","81","607078","0.0-10.0-0.0-0.9","1928","","d","","","","","","","","","","","","","key","d","16.66598275862032","1280","716","d","true","img/C_28.png","朋友","freeprac_friend","",""
"","","","","","html-keyboard-response","82","607379","0.0-10.0-0.0-1.9","null","<span style='color:GreenYellow; font-size: 70px;'>正确! </span>","null","","","","","","","","","","","","","","","","","","","","","","","feedback_test",""
"","","","","","psychophysics","83","611732","0.0-10.0-0.0-0.10","3350","","k","","","","","","","","","","","","","key","k","16.666142307692027","1280","716","k","true","img/S_28.png","自我","freeprac_friend","",""
"","","","","","html-keyboard-response","84","612034","0.0-10.0-0.0-1.10","null","<span style='color:GreenYellow; font-size: 70px;'>正确! </span>","null","","","","","","","","","","","","","","","","","","","","","","","feedback_test",""
"","","","","","psychophysics","85","615486","0.0-10.0-0.0-0.11","2437","","k","","","","","","","","","","","","","key","k","16.665941747572855","1280","716","k","true","img/H_28.png","生人","freeprac_friend","",""
"","","","","","html-keyboard-response","86","615787","0.0-10.0-0.0-1.11","null","<span style='color:GreenYellow; font-size: 70px;'>正确! </span>","null","","","","","","","","","","","","","","","","","","","","","","","feedback_test",""
"","","","","","html-keyboard-response","87","628326","0.0-11.0","12537","[""<style>.context{color:white; font-size: 35px; line-height:40px}</style>               <div><p class='context'>您正确回答了92% 的试次。</p><p class='context'>您的平均反应时为3148毫秒。</p><p class='context'>恭喜您完成这一阶段的练习。按任意键进入<span style='color: yellow;'>重点关注图形为“生人”</span>的练习。</p></div><p class='footer' style='font-size:35px; line-height:30px;'>任务要求：\n               <p class='footer' style='font-size:35px; line-height:35px;'>对与“生人”对应的图形，如果 匹配 ，请按 <span style=\""color: lightgreen;\"">d键</span></p><p class='footer' style='font-size:35px'>如果 不匹配 ，请按<span style=\""color: lightgreen;\"">f键</p></span>\n               <p class='footer' style='font-size:35px; line-height:35px;'>对非“生人”对应的图形，如果 匹配 ，请按 <span style=\""color: lightgreen;\"">k键</span></p><p class='footer' style='font-size:35px'>如果 不匹配 ，请按<span style=\""color: lightgreen;\"">j键</p></span>\n               <p class='footer' style='font-size:22px; line-height:25px;'>请在实验过程中将您的<span style=\""color: lightgreen;\"">食指和中指</span>放在电脑键盘的相应键位上进行按键。</p></span>""]"," ","","","","","","","","","","","","","","","","","","","","","","","",""
"","","","","","psychophysics","88","632539","0.0-12.0-0.0-0.0","3210","","j","","","","","","","","","","","","","key","j","16.666325396825357","1280","716","j","true","img/C_28.png","生人","freeprac_stranger","",""
"","","","","","html-keyboard-response","89","632841","0.0-12.0-0.0-1.0","null","<span style='color:GreenYellow; font-size: 70px;'>正确! </span>","null","","","","","","","","","","","","","","","","","","","","","","","feedback_test",""
"","","","","","psychophysics","90","636233","0.0-12.0-0.0-0.1","2388","","f","","","","","","","","","","","","","key","f","16.66611274509798","1280","716","f","true","img/H_28.png","朋友","freeprac_stranger","",""
"","","","","","html-keyboard-response","91","636547","0.0-12.0-0.0-1.1","null","<span style='color:GreenYellow; font-size: 70px;'>正确! </span>","null","","","","","","","","","","","","","","","","","","","","","","","feedback_test",""
"","","","","","psychophysics","92","641999","0.0-12.0-0.0-0.2","4451","","j","","","","","","","","","","","","","key","j","16.665902140672785","1280","716","j","true","img/C_28.png","自我","freeprac_stranger","",""
"","","","","","html-keyboard-response","93","642300","0.0-12.0-0.0-1.2","null","<span style='color:GreenYellow; font-size: 70px;'>正确! </span>","null","","","","","","","","","","","","","","","","","","","","","","","feedback_test",""
"","","","","","psychophysics","94","646970","0.0-12.0-0.0-0.3","3668","","j","","","","","","","","","","","","","key","j","16.66611827957013","1280","716","j","true","img/S_28.png","生人","freeprac_stranger","",""
"","","","","","html-keyboard-response","95","647279","0.0-12.0-0.0-1.3","null","<span style='color:GreenYellow; font-size: 70px;'>正确! </span>","null","","","","","","","","","","","","","","","","","","","","","","","feedback_test",""
"","","","","","psychophysics","96","651809","0.0-12.0-0.0-0.4","3527","","k","","","","","","","","","","","","","key","k","16.665147601476033","1280","716","k","true","img/S_28.png","自我","freeprac_stranger","",""
"","","","","","html-keyboard-response","97","652112","0.0-12.0-0.0-1.4","null","<span style='color:GreenYellow; font-size: 70px;'>正确! </span>","null","","","","","","","","","","","","","","","","","","","","","","","feedback_test",""
"","","","","","psychophysics","98","655509","0.0-12.0-0.0-0.5","2394","","k","","","","","","","","","","","","","key","k","16.666423645320123","1280","716","k","true","img/C_28.png","朋友","freeprac_stranger","",""
"","","","","","html-keyboard-response","99","655816","0.0-12.0-0.0-1.5","null","<span style='color:GreenYellow; font-size: 70px;'>正确! </span>","null","","","","","","","","","","","","","","","","","","","","","","","feedback_test",""
"","","","","","psychophysics","100","659581","0.0-12.0-0.0-0.6","2760","","d","","","","","","","","","","","","","key","d","16.666178571428777","1280","716","d","true","img/H_28.png","生人","freeprac_stranger","",""
"","","","","","html-keyboard-response","101","659885","0.0-12.0-0.0-1.6","null","<span style='color:GreenYellow; font-size: 70px;'>正确! </span>","null","","","","","","","","","","","","","","","","","","","","","","","feedback_test",""
"","","","","","psychophysics","102","661866","0.0-12.0-0.0-0.7","968","","d","","","","","","","","","","","","","key","d","16.66557627118694","1280","716","d","true","img/H_28.png","生人","freeprac_stranger","",""
"","","","","","html-keyboard-response","103","662170","0.0-12.0-0.0-1.7","null","<span style='color:GreenYellow; font-size: 70px;'>正确! </span>","null","","","","","","","","","","","","","","","","","","","","","","","feedback_test",""
"","","","","","psychophysics","104","664153","0.0-12.0-0.0-0.8","980","","f","","","","","","","","","","","","","key","f","16.666330508474395","1280","716","f","true","img/H_28.png","自我","freeprac_stranger","",""
"","","","","","html-keyboard-response","105","664465","0.0-12.0-0.0-1.8","null","<span style='color:GreenYellow; font-size: 70px;'>正确! </span>","null","","","","","","","","","","","","","","","","","","","","","","","feedback_test",""
"","","","","","psychophysics","106","668453","0.0-12.0-0.0-0.9","2987","","j","","","","","","","","","","","","","key","j","16.665735294117432","1280","716","j","true","img/S_28.png","朋友","freeprac_stranger","",""
"","","","","","html-keyboard-response","107","668756","0.0-12.0-0.0-1.9","null","<span style='color:GreenYellow; font-size: 70px;'>正确! </span>","null","","","","","","","","","","","","","","","","","","","","","","","feedback_test",""
"","","","","","psychophysics","108","671121","0.0-12.0-0.0-0.10","1357","","k","","","","","","","","","","","","","key","k","16.66695744680911","1280","716","k","true","img/S_28.png","自我","freeprac_stranger","",""
"","","","","","html-keyboard-response","109","671428","0.0-12.0-0.0-1.10","null","<span style='color:GreenYellow; font-size: 70px;'>正确! </span>","null","","","","","","","","","","","","","","","","","","","","","","","feedback_test",""
"","","","","","psychophysics","110","675660","0.0-12.0-0.0-0.11","3229","","k","","","","","","","","","","","","","key","k","16.662353174602945","1280","716","k","true","img/C_28.png","朋友","freeprac_stranger","",""
"","","","","","html-keyboard-response","111","675966","0.0-12.0-0.0-1.11","null","<span style='color:GreenYellow; font-size: 70px;'>正确! </span>","null","","","","","","","","","","","","","","","","","","","","","","","feedback_test",""
"","","","","","instructions","112","692962","0.0-13.0","16996","","","","","","","","","","","","","","[{""page_index"":0,""viewing_time"":16996}]","","","","","","","","","","","",""
"","","","","","psychophysics","113","695464","0.0-14.0-0.0-0.0","null","","null","","","","","","","","","","","","","key","null","16.666295302013754","1280","716","j","false","img/C_28.png","生人","prac_self","","朋友"
"","","","","","html-keyboard-response","114","695767","0.0-14.0-0.0-1.0","null","<span class='add_' style='color:yellow; font-size: 70px;'> 太慢! </span>","null","","","","","","","","","","","","","","","","","","","","","","","feedback_test",""
"","","","","","psychophysics","115","698280","0.0-14.0-0.0-0.1","null","","null","","","","","","","","","","","","","key","null","16.666140939597348","1280","716","k","false","img/C_28.png","朋友","prac_self","","朋友"
"","","","","","html-keyboard-response","116","698589","0.0-14.0-0.0-1.1","null","<span class='add_' style='color:yellow; font-size: 70px;'> 太慢! </span>","null","","","","","","","","","","","","","","","","","","","","","","","feedback_test",""
"","","","","","psychophysics","117","701096","0.0-14.0-0.0-0.2","null","","null","","","","","","","","","","","","","key","null","16.666355704698063","1280","716","f","false","img/S_28.png","朋友","prac_self","","自我"
"","","","","","html-keyboard-response","118","701412","0.0-14.0-0.0-1.2","null","<span class='add_' style='color:yellow; font-size: 70px;'> 太慢! </span>","null","","","","","","","","","","","","","","","","","","","","","","","feedback_test",""
"","","","","","psychophysics","119","703638","0.0-14.0-0.0-0.3","1225","","d","","","","","","","","","","","","","key","d","16.6544166666669","1280","716","k","false","img/H_28.png","生人","prac_self","","生人"
"","","","","","html-keyboard-response","120","703940","0.0-14.0-0.0-1.3","null","<span style='color:red; font-size: 70px;'>错误! </span>","null","","","","","","","","","","","","","","","","","","","","","","","feedback_test",""
"","","","","","psychophysics","121","706446","0.0-14.0-0.0-0.4","null","","null","","","","","","","","","","","","","key","null","16.666221476510017","1280","716","d","false","img/S_28.png","自我","prac_self","","自我"
"","","","","","html-keyboard-response","122","706758","0.0-14.0-0.0-1.4","null","<span class='add_' style='color:yellow; font-size: 70px;'> 太慢! </span>","null","","","","","","","","","","","","","","","","","","","","","","","feedback_test",""
"","","","","","psychophysics","123","708367","0.0-14.0-0.0-0.5","605","","f","","","","","","","","","","","","","key","f","16.66652083333368","1280","716","k","false","img/C_28.png","朋友","prac_self","","朋友"
"","","","","","html-keyboard-response","124","708672","0.0-14.0-0.0-1.5","null","<span style='color:red; font-size: 70px;'>错误! </span>","null","","","","","","","","","","","","","","","","","","","","","","","feedback_test",""
"","","","","","psychophysics","125","710544","0.0-14.0-0.0-0.6","865","","d","","","","","","","","","","","","","key","d","16.666423423423407","1280","716","d","true","img/S_28.png","自我","prac_self","","自我"
"","","","","","html-keyboard-response","126","710858","0.0-14.0-0.0-1.6","null","<span style='color:GreenYellow; font-size: 70px;'>正确! </span>","null","","","","","","","","","","","","","","","","","","","","","","","feedback_test",""
"","","","","","psychophysics","127","713050","0.0-14.0-0.0-0.7","1187","","f","","","","","","","","","","","","","key","f","16.665862595419867","1280","716","f","true","img/S_28.png","生人","prac_self","","自我"
"","","","","","html-keyboard-response","128","713365","0.0-14.0-0.0-1.7","null","<span style='color:GreenYellow; font-size: 70px;'>正确! </span>","null","","","","","","","","","","","","","","","","","","","","","","","feedback_test",""
"","","","","","psychophysics","129","715447","0.0-14.0-0.0-0.8","1075","","f","","","","","","","","","","","","","key","f","16.665499999999977","1280","716","j","false","img/H_28.png","朋友","prac_self","","生人"
"","","","","","html-keyboard-response","130","715757","0.0-14.0-0.0-1.8","null","<span style='color:red; font-size: 70px;'>错误! </span>","null","","","","","","","","","","","","","","","","","","","","","","","feedback_test",""
"","","","","","psychophysics","131","717652","0.0-14.0-0.0-0.9","889","","d","","","","","","","","","","","","","key","d","16.66652212389415","1280","716","j","false","img/C_28.png","自我","prac_self","","朋友"
"","","","","","html-keyboard-response","132","717962","0.0-14.0-0.0-1.9","null","<span style='color:red; font-size: 70px;'>错误! </span>","null","","","","","","","","","","","","","","","","","","","","","","","feedback_test",""
"","","","","","psychophysics","133","720463","0.0-14.0-0.0-0.10","null","","null","","","","","","","","","","","","","key","null","16.66568243243288","1280","716","k","false","img/H_28.png","生人","prac_self","","生人"
"","","","","","html-keyboard-response","134","720769","0.0-14.0-0.0-1.10","null","<span class='add_' style='color:yellow; font-size: 70px;'> 太慢! </span>","null","","","","","","","","","","","","","","","","","","","","","","","feedback_test",""
"","","","","","psychophysics","135","723279","0.0-14.0-0.0-0.11","null","","null","","","","","","","","","","","","","key","null","16.666673333332874","1280","716","j","false","img/H_28.png","自我","prac_self","","生人"
"","","","","","html-keyboard-response","136","723593","0.0-14.0-0.0-1.11","null","<span class='add_' style='color:yellow; font-size: 70px;'> 太慢! </span>","null","","","","","","","","","","","","","","","","","","","","","","","feedback_test",""
"","","","","","psychophysics","137","726096","0.0-14.0-0.0-0.12","null","","null","","","","","","","","","","","","","key","null","16.66542953020118","1280","716","j","false","img/C_28.png","自我","prac_self","","朋友"
"","","","","","html-keyboard-response","138","726408","0.0-14.0-0.0-1.12","null","<span class='add_' style='color:yellow; font-size: 70px;'> 太慢! </span>","null","","","","","","","","","","","","","","","","","","","","","","","feedback_test",""
"","","","","","psychophysics","139","728912","0.0-14.0-0.0-0.13","null","","null","","","","","","","","","","","","","key","null","16.666187919463006","1280","716","k","false","img/C_28.png","朋友","prac_self","","朋友"
"","","","","","html-keyboard-response","140","729222","0.0-14.0-0.0-1.13","null","<span class='add_' style='color:yellow; font-size: 70px;'> 太慢! </span>","null","","","","","","","","","","","","","","","","","","","","","","","feedback_test",""
"","","","","","psychophysics","141","731729","0.0-14.0-0.0-0.14","null","","null","","","","","","","","","","","","","key","null","16.666409395973435","1280","716","k","false","img/C_28.png","朋友","prac_self","","朋友"
"","","","","","html-keyboard-response","142","732038","0.0-14.0-0.0-1.14","null","<span class='add_' style='color:yellow; font-size: 70px;'> 太慢! </span>","null","","","","","","","","","","","","","","","","","","","","","","","feedback_test",""
"","","","","","psychophysics","143","734057","0.0-14.0-0.0-0.15","1012","","f","","","","","","","","","","","","","key","f","16.66633333333302","1280","716","j","false","img/H_28.png","朋友","prac_self","","生人"
"","","","","","html-keyboard-response","144","734358","0.0-14.0-0.0-1.15","null","<span style='color:red; font-size: 70px;'>错误! </span>","null","","","","","","","","","","","","","","","","","","","","","","","feedback_test",""
"","","","","","psychophysics","145","736863","0.0-14.0-0.0-0.16","null","","null","","","","","","","","","","","","","key","null","16.66583999999954","1280","716","k","false","img/H_28.png","生人","prac_self","","生人"
"","","","","","html-keyboard-response","146","737173","0.0-14.0-0.0-1.16","null","<span class='add_' style='color:yellow; font-size: 70px;'> 太慢! </span>","null","","","","","","","","","","","","","","","","","","","","","","","feedback_test",""
"","","","","","psychophysics","147","739082","0.0-14.0-0.0-0.17","904","","d","","","","","","","","","","","","","key","d","16.666421052631147","1280","716","k","false","img/H_28.png","生人","prac_self","","生人"
"","","","","","html-keyboard-response","148","739396","0.0-14.0-0.0-1.17","null","<span style='color:red; font-size: 70px;'>错误! </span>","null","","","","","","","","","","","","","","","","","","","","","","","feedback_test",""
"","","","","","psychophysics","149","741906","0.0-14.0-0.0-0.18","null","","null","","","","","","","","","","","","","key","null","16.665563758389226","1280","716","f","false","img/S_28.png","生人","prac_self","","自我"
"","","","","","html-keyboard-response","150","742212","0.0-14.0-0.0-1.18","null","<span class='add_' style='color:yellow; font-size: 70px;'> 太慢! </span>","null","","","","","","","","","","","","","","","","","","","","","","","feedback_test",""
"","","","","","psychophysics","151","744718","0.0-14.0-0.0-0.19","null","","null","","","","","","","","","","","","","key","null","16.66691275167782","1280","716","d","false","img/S_28.png","自我","prac_self","","自我"
"","","","","","html-keyboard-response","152","745033","0.0-14.0-0.0-1.19","null","<span class='add_' style='color:yellow; font-size: 70px;'> 太慢! </span>","null","","","","","","","","","","","","","","","","","","","","","","","feedback_test",""
"","","","","","psychophysics","153","747545","0.0-14.0-0.0-0.20","null","","null","","","","","","","","","","","","","key","null","16.666375838926424","1280","716","f","false","img/S_28.png","朋友","prac_self","","自我"
"","","","","","html-keyboard-response","154","747856","0.0-14.0-0.0-1.20","null","<span class='add_' style='color:yellow; font-size: 70px;'> 太慢! </span>","null","","","","","","","","","","","","","","","","","","","","","","","feedback_test",""
"","","","","","psychophysics","155","749327","0.0-14.0-0.0-0.21","470","","k","","","","","","","","","","","","","key","k","16.66664367815983","1280","716","j","false","img/C_28.png","生人","prac_self","","朋友"
"","","","","","html-keyboard-response","156","749639","0.0-14.0-0.0-1.21","null","<span style='color:red; font-size: 70px;'>错误! </span>","null","","","","","","","","","","","","","","","","","","","","","","","feedback_test",""
"","","","","","psychophysics","157","751688","0.0-14.0-0.0-0.22","1043","","d","","","","","","","","","","","","","key","d","16.666532786885565","1280","716","d","true","img/S_28.png","自我","prac_self","","自我"
"","","","","","html-keyboard-response","158","751999","0.0-14.0-0.0-1.22","null","<span style='color:GreenYellow; font-size: 70px;'>正确! </span>","null","","","","","","","","","","","","","","","","","","","","","","","feedback_test",""
"","","","","","psychophysics","159","754500","0.0-14.0-0.0-0.23","null","","null","","","","","","","","","","","","","key","null","16.66624161073838","1280","716","j","false","img/H_28.png","自我","prac_self","","生人"
"","","","","","html-keyboard-response","160","754802","0.0-14.0-0.0-1.23","null","<span class='add_' style='color:yellow; font-size: 70px;'> 太慢! </span>","null","","","","","","","","","","","","","","","","","","","","","","","feedback_test",""
"","","","","","html-keyboard-response","161","758410","0.0-14.0-1.0-0.0","3607","<style>.context{color:white; font-size: 35px; line-height:40px}</style>                           <div><p class='context'>您正确回答了13% 的试次。</p><p class='context'>您的平均反应时为1032毫秒。</p>"," ","","","","","","","","","","","","","","","","","","","","","","","",""
"","","","","","instructions","162","794177","0.0-14.0-1.0-1.0","35766","","","","","","","","","","","","","","[{""page_index"":0,""viewing_time"":935},{""page_index"":1,""viewing_time"":30896},{""page_index"":2,""viewing_time"":3934}]","","","","","","","","","","","",""
"","","","","","psychophysics","163","796688","0.0-14.1-0.1-0.24","null","","null","","","","","","","","","","","","","key","null","16.66560402684517","1280","716","j","false","img/H_28.png","朋友","prac_self","","生人"
"","","","","","html-keyboard-response","164","796993","0.0-14.1-0.1-1.24","null","<span class='add_' style='color:yellow; font-size: 70px;'> 太慢! </span>","null","","","","","","","","","","","","","","","","","","","","","","","feedback_test",""
"","","","","","psychophysics","165","798770","0.0-14.1-0.1-0.25","777","","f","","","","","","","","","","","","","key","f","16.665066666666064","1280","716","j","false","img/C_28.png","自我","prac_self","","朋友"
"","","","","","html-keyboard-response","166","799080","0.0-14.1-0.1-1.25","null","<span style='color:red; font-size: 70px;'>错误! </span>","null","","","","","","","","","","","","","","","","","","","","","","","feedback_test",""
"","","","","","psychophysics","167","801361","0.0-14.1-0.1-0.26","1276","","j","","","","","","","","","","","","","key","j","16.665441176470587","1280","716","d","false","img/S_28.png","自我","prac_self","","自我"
"","","","","","html-keyboard-response","168","801664","0.0-14.1-0.1-1.26","null","<span style='color:red; font-size: 70px;'>错误! </span>","null","","","","","","","","","","","","","","","","","","","","","","","feedback_test",""
"","","","","","psychophysics","169","803602","0.0-14.1-0.1-0.27","928","","k","","","","","","","","","","","","","key","k","16.666434782608817","1280","716","k","true","img/H_28.png","生人","prac_self","","生人"
"","","","","","html-keyboard-response","170","803910","0.0-14.1-0.1-1.27","null","<span style='color:GreenYellow; font-size: 70px;'>正确! </span>","null","","","","","","","","","","","","","","","","","","","","","","","feedback_test",""
"","","","","","psychophysics","171","806079","0.0-14.1-0.1-0.28","1169","","k","","","","","","","","","","","","","key","k","16.665937984495805","1280","716","d","false","img/S_28.png","自我","prac_self","","自我"
"","","","","","html-keyboard-response","172","806389","0.0-14.1-0.1-1.28","null","<span style='color:red; font-size: 70px;'>错误! </span>","null","","","","","","","","","","","","","","","","","","","","","","","feedback_test",""
"","","","","","psychophysics","173","808893","0.0-14.1-0.1-0.29","null","","null","","","","","","","","","","","","","key","null","16.66644966442938","1280","716","k","false","img/C_28.png","朋友","prac_self","","朋友"
"","","","","","html-keyboard-response","174","809202","0.0-14.1-0.1-1.29","null","<span class='add_' style='color:yellow; font-size: 70px;'> 太慢! </span>","null","","","","","","","","","","","","","","","","","","","","","","","feedback_test",""
"","","","","","psychophysics","175","811705","0.0-14.1-0.1-0.30","null","","null","","","","","","","","","","","","","key","null","16.666120805368983","1280","716","j","false","img/C_28.png","生人","prac_self","","朋友"
"","","","","","html-keyboard-response","176","812017","0.0-14.1-0.1-1.30","null","<span class='add_' style='color:yellow; font-size: 70px;'> 太慢! </span>","null","","","","","","","","","","","","","","","","","","","","","","","feedback_test",""
"","","","","","psychophysics","177","814247","0.0-14.1-0.1-0.31","1221","","d","","","","","","","","","","","","","key","d","16.666669172931574","1280","716","k","false","img/C_28.png","朋友","prac_self","","朋友"
"","","","","","html-keyboard-response","178","814556","0.0-14.1-0.1-1.31","null","<span style='color:red; font-size: 70px;'>错误! </span>","null","","","","","","","","","","","","","","","","","","","","","","","feedback_test",""
"","","","","","psychophysics","179","816976","0.0-14.1-0.1-0.32","1416","","k","","","","","","","","","","","","","key","k","16.664909722222042","1280","716","f","false","img/S_28.png","生人","prac_self","","自我"
"","","","","","html-keyboard-response","180","817292","0.0-14.1-0.1-1.32","null","<span style='color:red; font-size: 70px;'>错误! </span>","null","","","","","","","","","","","","","","","","","","","","","","","feedback_test",""
"","","","","","psychophysics","181","819794","0.0-14.1-0.1-0.33","null","","null","","","","","","","","","","","","","key","null","16.66588590604069","1280","716","f","false","img/S_28.png","朋友","prac_self","","自我"
"","","","","","html-keyboard-response","182","820105","0.0-14.1-0.1-1.33","null","<span class='add_' style='color:yellow; font-size: 70px;'> 太慢! </span>","null","","","","","","","","","","","","","","","","","","","","","","","feedback_test",""
"","","","","","psychophysics","183","822609","0.0-14.1-0.1-0.34","null","","null","","","","","","","","","","","","","key","null","16.666523489933116","1280","716","k","false","img/H_28.png","生人","prac_self","","生人"
"","","","","","html-keyboard-response","184","822919","0.0-14.1-0.1-1.34","null","<span class='add_' style='color:yellow; font-size: 70px;'> 太慢! </span>","null","","","","","","","","","","","","","","","","","","","","","","","feedback_test",""
"","","","","","psychophysics","185","825426","0.0-14.1-0.1-0.35","null","","null","","","","","","","","","","","","","key","null","16.666234899328664","1280","716","j","false","img/H_28.png","自我","prac_self","","生人"
"","","","","","html-keyboard-response","186","825733","0.0-14.1-0.1-1.35","null","<span class='add_' style='color:yellow; font-size: 70px;'> 太慢! </span>","null","","","","","","","","","","","","","","","","","","","","","","","feedback_test",""
"","","","","","psychophysics","187","828241","0.0-14.1-0.1-0.36","null","","null","","","","","","","","","","","","","key","null","16.665852348992896","1280","716","j","false","img/H_28.png","朋友","prac_self","","生人"
"","","","","","html-keyboard-response","188","828546","0.0-14.1-0.1-1.36","null","<span class='add_' style='color:yellow; font-size: 70px;'> 太慢! </span>","null","","","","","","","","","","","","","","","","","","","","","","","feedback_test",""
"","","","","","psychophysics","189","831057","0.0-14.1-0.1-0.37","null","","null","","","","","","","","","","","","","key","null","16.666664429530094","1280","716","k","false","img/H_28.png","生人","prac_self","","生人"
"","","","","","html-keyboard-response","190","831361","0.0-14.1-0.1-1.37","null","<span class='add_' style='color:yellow; font-size: 70px;'> 太慢! </span>","null","","","","","","","","","","","","","","","","","","","","","","","feedback_test",""
"","","","","","psychophysics","191","833420","0.0-14.1-0.1-0.38","1044","","f","","","","","","","","","","","","","key","f","16.664409836065254","1280","716","j","false","img/H_28.png","自我","prac_self","","生人"
"","","","","","html-keyboard-response","192","833733","0.0-14.1-0.1-1.38","null","<span style='color:red; font-size: 70px;'>错误! </span>","null","","","","","","","","","","","","","","","","","","","","","","","feedback_test",""
"","","","","","psychophysics","193","836238","0.0-14.1-0.1-0.39","null","","null","","","","","","","","","","","","","key","null","16.66605369127496","1280","716","f","false","img/S_28.png","朋友","prac_self","","自我"
"","","","","","html-keyboard-response","194","836545","0.0-14.1-0.1-1.39","null","<span class='add_' style='color:yellow; font-size: 70px;'> 太慢! </span>","null","","","","","","","","","","","","","","","","","","","","","","","feedback_test",""
"","","","","","psychophysics","195","839051","0.0-14.1-0.1-0.40","null","","null","","","","","","","","","","","","","key","null","16.666026845637663","1280","716","j","false","img/C_28.png","自我","prac_self","","朋友"
"","","","","","html-keyboard-response","196","839357","0.0-14.1-0.1-1.40","null","<span class='add_' style='color:yellow; font-size: 70px;'> 太慢! </span>","null","","","","","","","","","","","","","","","","","","","","","","","feedback_test",""
"","","","","","psychophysics","197","841859","0.0-14.1-0.1-0.41","null","","null","","","","","","","","","","","","","key","null","16.6613851351352","1280","716","k","false","img/C_28.png","朋友","prac_self","","朋友"
"","","","","","html-keyboard-response","198","842166","0.0-14.1-0.1-1.41","null","<span class='add_' style='color:yellow; font-size: 70px;'> 太慢! </span>","null","","","","","","","","","","","","","","","","","","","","","","","feedback_test",""
"","","","","","psychophysics","199","844670","0.0-14.1-0.1-0.42","null","","null","","","","","","","","","","","","","key","null","16.666409395973435","1280","716","d","false","img/S_28.png","自我","prac_self","","自我"
"","","","","","html-keyboard-response","200","844977","0.0-14.1-0.1-1.42","null","<span class='add_' style='color:yellow; font-size: 70px;'> 太慢! </span>","null","","","","","","","","","","","","","","","","","","","","","","","feedback_test",""
"","","","","","psychophysics","201","847489","0.0-14.1-0.1-0.43","null","","null","","","","","","","","","","","","","key","null","16.665610738254884","1280","716","f","false","img/S_28.png","生人","prac_self","","自我"
"","","","","","html-keyboard-response","202","847795","0.0-14.1-0.1-1.43","null","<span class='add_' style='color:yellow; font-size: 70px;'> 太慢! </span>","null","","","","","","","","","","","","","","","","","","","","","","","feedback_test",""
"","","","","","psychophysics","203","850304","0.0-14.1-0.1-0.44","null","","null","","","","","","","","","","","","","key","null","16.66625503355703","1280","716","k","false","img/H_28.png","生人","prac_self","","生人"
"","","","","","html-keyboard-response","204","850609","0.0-14.1-0.1-1.44","null","<span class='add_' style='color:yellow; font-size: 70px;'> 太慢! </span>","null","","","","","","","","","","","","","","","","","","","","","","","feedback_test",""
"","","","","","psychophysics","205","852476","0.0-14.1-0.1-0.45","853","","f","","","","","","","","","","","","","key","f","16.665801801801624","1280","716","j","false","img/C_28.png","生人","prac_self","","朋友"
"","","","","","html-keyboard-response","206","852789","0.0-14.1-0.1-1.45","null","<span style='color:red; font-size: 70px;'>错误! </span>","null","","","","","","","","","","","","","","","","","","","","","","","feedback_test",""
"","","","","","psychophysics","207","854488","0.0-14.1-0.1-0.46","696","","d","","","","","","","","","","","","","key","d","16.66582178217843","1280","716","d","true","img/S_28.png","自我","prac_self","","自我"
"","","","","","html-keyboard-response","208","854793","0.0-14.1-0.1-1.46","null","<span style='color:GreenYellow; font-size: 70px;'>正确! </span>","null","","","","","","","","","","","","","","","","","","","","","","","feedback_test",""
"","","","","","psychophysics","209","856506","0.0-14.1-0.1-0.47","710","","f","","","","","","","","","","","","","key","f","16.665475247524643","1280","716","k","false","img/C_28.png","朋友","prac_self","","朋友"
"","","","","","html-keyboard-response","210","856819","0.0-14.1-0.1-1.47","null","<span style='color:red; font-size: 70px;'>错误! </span>","null","","","","","","","","","","","","","","","","","","","","","","","feedback_test",""
"","","","","","html-keyboard-response","211","861292","0.0-14.1-1.1-0.1","4471","<style>.context{color:white; font-size: 35px; line-height:40px}</style>                           <div><p class='context'>您正确回答了8% 的试次。</p><p class='context'>您的平均反应时为812毫秒。</p>"," ","","","","","","","","","","","","","","","","","","","","","","","",""
"","","","","","instructions","212","913550","0.0-14.1-1.1-1.1","52257","","","","","","","","","","","","","","[{""page_index"":0,""viewing_time"":1191},{""page_index"":1,""viewing_time"":40968},{""page_index"":2,""viewing_time"":10098}]","","","","","","","","","","","",""
"","","","","","psychophysics","213","915724","0.0-14.2-0.2-0.48","1169","","d","","","","","","","","","","","","","key","d","16.66660769230758","1280","716","d","true","img/S_28.png","自我","prac_self","","自我"
"","","","","","html-keyboard-response","214","916031","0.0-14.2-0.2-1.48","null","<span style='color:GreenYellow; font-size: 70px;'>正确! </span>","null","","","","","","","","","","","","","","","","","","","","","","","feedback_test",""
"","","","","","psychophysics","215","918233","0.0-14.2-0.2-0.49","1194","","k","","","","","","","","","","","","","key","k","16.665901515151333","1280","716","k","true","img/H_28.png","生人","prac_self","","生人"
"","","","","","html-keyboard-response","216","918535","0.0-14.2-0.2-1.49","null","<span style='color:GreenYellow; font-size: 70px;'>正确! </span>","null","","","","","","","","","","","","","","","","","","","","","","","feedback_test",""
"","","","","","psychophysics","217","920325","0.0-14.2-0.2-0.50","786","","d","","","","","","","","","","","","","key","d","16.666841121494908","1280","716","d","true","img/S_28.png","自我","prac_self","","自我"
"","","","","","html-keyboard-response","218","920639","0.0-14.2-0.2-1.50","null","<span style='color:GreenYellow; font-size: 70px;'>正确! </span>","null","","","","","","","","","","","","","","","","","","","","","","","feedback_test",""
"","","","","","psychophysics","219","922944","0.0-14.2-0.2-0.51","1305","","k","","","","","","","","","","","","","key","k","16.666138686131802","1280","716","j","false","img/H_28.png","朋友","prac_self","","生人"
"","","","","","html-keyboard-response","220","923248","0.0-14.2-0.2-1.51","null","<span style='color:red; font-size: 70px;'>错误! </span>","null","","","","","","","","","","","","","","","","","","","","","","","feedback_test",""
"","","","","","psychophysics","221","925755","0.0-14.2-0.2-0.52","null","","null","","","","","","","","","","","","","key","null","16.666315436242115","1280","716","k","false","img/C_28.png","朋友","prac_self","","朋友"
"","","","","","html-keyboard-response","222","926059","0.0-14.2-0.2-1.52","null","<span class='add_' style='color:yellow; font-size: 70px;'> 太慢! </span>","null","","","","","","","","","","","","","","","","","","","","","","","feedback_test",""
"","","","","","psychophysics","223","928085","0.0-14.2-0.2-0.53","1022","","j","","","","","","","","","","","","","key","j","16.665841666666285","1280","716","j","true","img/C_28.png","生人","prac_self","","朋友"
"","","","","","html-keyboard-response","224","928398","0.0-14.2-0.2-1.53","null","<span style='color:GreenYellow; font-size: 70px;'>正确! </span>","null","","","","","","","","","","","","","","","","","","","","","","","feedback_test",""
"","","","","","psychophysics","225","930428","0.0-14.2-0.2-0.54","1023","","k","","","","","","","","","","","","","key","k","16.666289256198702","1280","716","k","true","img/H_28.png","生人","prac_self","","生人"
"","","","","","html-keyboard-response","226","930734","0.0-14.2-0.2-1.54","null","<span style='color:GreenYellow; font-size: 70px;'>正确! </span>","null","","","","","","","","","","","","","","","","","","","","","","","feedback_test",""
"","","","","","psychophysics","227","932848","0.0-14.2-0.2-0.55","1110","","j","","","","","","","","","","","","","key","j","16.666531746031804","1280","716","j","true","img/H_28.png","自我","prac_self","","生人"
"","","","","","html-keyboard-response","228","933149","0.0-14.2-0.2-1.55","null","<span style='color:GreenYellow; font-size: 70px;'>正确! </span>","null","","","","","","","","","","","","","","","","","","","","","","","feedback_test",""
"","","","","","psychophysics","229","935191","0.0-14.2-0.2-0.56","1036","","k","","","","","","","","","","","","","key","k","16.666352459015783","1280","716","k","true","img/C_28.png","朋友","prac_self","","朋友"
"","","","","","html-keyboard-response","230","935503","0.0-14.2-0.2-1.56","null","<span style='color:GreenYellow; font-size: 70px;'>正确! </span>","null","","","","","","","","","","","","","","","","","","","","","","","feedback_test",""
"","","","","","psychophysics","231","937635","0.0-14.2-0.2-0.57","1130","","d","","","","","","","","","","","","","key","d","16.65622222222229","1280","716","f","false","img/S_28.png","朋友","prac_self","","自我"
"","","","","","html-keyboard-response","232","937944","0.0-14.2-0.2-1.57","null","<span style='color:red; font-size: 70px;'>错误! </span>","null","","","","","","","","","","","","","","","","","","","","","","","feedback_test",""
"","","","","","psychophysics","233","940036","0.0-14.2-0.2-0.58","1081","","k","","","","","","","","","","","","","key","k","16.666419354839167","1280","716","j","false","img/C_28.png","自我","prac_self","","朋友"
"","","","","","html-keyboard-response","234","940338","0.0-14.2-0.2-1.58","null","<span style='color:red; font-size: 70px;'>错误! </span>","null","","","","","","","","","","","","","","","","","","","","","","","feedback_test",""
"","","","","","psychophysics","235","942728","0.0-14.2-0.2-0.59","1389","","j","","","","","","","","","","","","","key","j","16.666013986013922","1280","716","f","false","img/S_28.png","生人","prac_self","","自我"
"","","","","","html-keyboard-response","236","943044","0.0-14.2-0.2-1.59","null","<span style='color:red; font-size: 70px;'>错误! </span>","null","","","","","","","","","","","","","","","","","","","","","","","feedback_test",""
"","","","","","psychophysics","237","945555","0.0-14.2-0.2-0.60","null","","null","","","","","","","","","","","","","key","null","16.66624161073838","1280","716","j","false","img/H_28.png","自我","prac_self","","生人"
"","","","","","html-keyboard-response","238","945869","0.0-14.2-0.2-1.60","null","<span class='add_' style='color:yellow; font-size: 70px;'> 太慢! </span>","null","","","","","","","","","","","","","","","","","","","","","","","feedback_test",""
"","","","","","psychophysics","239","947956","0.0-14.2-0.2-0.61","1085","","k","","","","","","","","","","","","","key","k","16.66486400000006","1280","716","k","true","img/C_28.png","朋友","prac_self","","朋友"
"","","","","","html-keyboard-response","240","948263","0.0-14.2-0.2-1.61","null","<span style='color:GreenYellow; font-size: 70px;'>正确! </span>","null","","","","","","","","","","","","","","","","","","","","","","","feedback_test",""
"","","","","","psychophysics","241","950404","0.0-14.2-0.2-0.62","1133","","j","","","","","","","","","","","","","key","j","16.666354330708494","1280","716","f","false","img/S_28.png","朋友","prac_self","","自我"
"","","","","","html-keyboard-response","242","950713","0.0-14.2-0.2-1.62","null","<span style='color:red; font-size: 70px;'>错误! </span>","null","","","","","","","","","","","","","","","","","","","","","","","feedback_test",""
"","","","","","psychophysics","243","952772","0.0-14.2-0.2-0.63","1051","","j","","","","","","","","","","","","","key","j","16.666317073170216","1280","716","k","false","img/H_28.png","生人","prac_self","","生人"
"","","","","","html-keyboard-response","244","953080","0.0-14.2-0.2-1.63","null","<span style='color:red; font-size: 70px;'>错误! </span>","null","","","","","","","","","","","","","","","","","","","","","","","feedback_test",""
"","","","","","psychophysics","245","955586","0.0-14.2-0.2-0.64","null","","null","","","","","","","","","","","","","key","null","16.66656375838906","1280","716","d","false","img/S_28.png","自我","prac_self","","自我"
"","","","","","html-keyboard-response","246","955894","0.0-14.2-0.2-1.64","null","<span class='add_' style='color:yellow; font-size: 70px;'> 太慢! </span>","null","","","","","","","","","","","","","","","","","","","","","","","feedback_test",""
"","","","","","psychophysics","247","957909","0.0-14.2-0.2-0.65","1005","","k","","","","","","","","","","","","","key","k","16.666074380165057","1280","716","f","false","img/S_28.png","生人","prac_self","","自我"
"","","","","","html-keyboard-response","248","958213","0.0-14.2-0.2-1.65","null","<span style='color:red; font-size: 70px;'>错误! </span>","null","","","","","","","","","","","","","","","","","","","","","","","feedback_test",""
"","","","","","psychophysics","249","960685","0.0-14.2-0.2-0.66","1468","","j","","","","","","","","","","","","","key","j","16.666476190475855","1280","716","j","true","img/H_28.png","朋友","prac_self","","生人"
"","","","","","html-keyboard-response","250","960994","0.0-14.2-0.2-1.66","null","<span style='color:GreenYellow; font-size: 70px;'>正确! </span>","null","","","","","","","","","","","","","","","","","","","","","","","feedback_test",""
"","","","","","psychophysics","251","963296","0.0-14.2-0.2-0.67","1301","","j","","","","","","","","","","","","","key","j","16.66617518248135","1280","716","j","true","img/C_28.png","自我","prac_self","","朋友"
"","","","","","html-keyboard-response","252","963603","0.0-14.2-0.2-1.67","null","<span style='color:GreenYellow; font-size: 70px;'>正确! </span>","null","","","","","","","","","","","","","","","","","","","","","","","feedback_test",""
"","","","","","psychophysics","253","965476","0.0-14.2-0.2-0.68","871","","k","","","","","","","","","","","","","key","k","16.661324324324383","1280","716","k","true","img/C_28.png","朋友","prac_self","","朋友"
"","","","","","html-keyboard-response","254","965788","0.0-14.2-0.2-1.68","null","<span style='color:GreenYellow; font-size: 70px;'>正确! </span>","null","","","","","","","","","","","","","","","","","","","","","","","feedback_test",""
"","","","","","psychophysics","255","967816","0.0-14.2-0.2-0.69","1026","","j","","","","","","","","","","","","","key","j","16.666198347107322","1280","716","j","true","img/C_28.png","生人","prac_self","","朋友"
"","","","","","html-keyboard-response","256","968129","0.0-14.2-0.2-1.69","null","<span style='color:GreenYellow; font-size: 70px;'>正确! </span>","null","","","","","","","","","","","","","","","","","","","","","","","feedback_test",""
"","","","","","psychophysics","257","969962","0.0-14.2-0.2-0.70","824","","d","","","","","","","","","","","","","key","d","16.666403669724026","1280","716","d","true","img/S_28.png","自我","prac_self","","自我"
"","","","","","html-keyboard-response","258","970273","0.0-14.2-0.2-1.70","null","<span style='color:GreenYellow; font-size: 70px;'>正确! </span>","null","","","","","","","","","","","","","","","","","","","","","","","feedback_test",""
"","","","","","psychophysics","259","972336","0.0-14.2-0.2-0.71","1051","","j","","","","","","","","","","","","","key","j","16.666098360655464","1280","716","k","false","img/H_28.png","生人","prac_self","","生人"
"","","","","","html-keyboard-response","260","972642","0.0-14.2-0.2-1.71","null","<span style='color:red; font-size: 70px;'>错误! </span>","null","","","","","","","","","","","","","","","","","","","","","","","feedback_test",""
"","","","","","html-keyboard-response","261","975951","0.0-14.2-1.2-0.2","3308","<style>.context{color:white; font-size: 35px; line-height:40px}</style>                           <div><p class='context'>您正确回答了54% 的试次。</p><p class='context'>您的平均反应时为1070毫秒。</p>"," ","","","","","","","","","","","","","","","","","","","","","","","",""
"","","","","","instructions","262","982982","0.0-14.2-1.2-1.2","7030","","","","","","","","","","","","","","[{""page_index"":0,""viewing_time"":1108},{""page_index"":1,""viewing_time"":5244},{""page_index"":2,""viewing_time"":678}]","","","","","","","","","","","",""
"","","","","","psychophysics","263","984963","0.0-14.3-0.3-0.72","975","","d","","","","","","","","","","","","","key","d","16.666440677965234","1280","716","f","false","img/S_28.png","朋友","prac_self","","自我"
"","","","","","html-keyboard-response","264","985276","0.0-14.3-0.3-1.72","null","<span style='color:red; font-size: 70px;'>错误! </span>","null","","","","","","","","","","","","","","","","","","","","","","","feedback_test",""
"","","","","","psychophysics","265","987499","0.0-14.3-0.3-0.73","1211","","j","","","","","","","","","","","","","key","j","16.66648484848503","1280","716","j","true","img/C_28.png","生人","prac_self","","朋友"
"","","","","","html-keyboard-response","266","987811","0.0-14.3-0.3-1.73","null","<span style='color:GreenYellow; font-size: 70px;'>正确! </span>","null","","","","","","","","","","","","","","","","","","","","","","","feedback_test",""
"","","","","","psychophysics","267","989950","0.0-14.3-0.3-0.74","1130","","k","","","","","","","","","","","","","key","k","16.665905511811538","1280","716","k","true","img/H_28.png","生人","prac_self","","生人"
"","","","","","html-keyboard-response","268","990253","0.0-14.3-0.3-1.74","null","<span style='color:GreenYellow; font-size: 70px;'>正确! </span>","null","","","","","","","","","","","","","","","","","","","","","","","feedback_test",""
"","","","","","psychophysics","269","992313","0.0-14.3-0.3-0.75","1059","","f","","","","","","","","","","","","","key","f","16.66554918032727","1280","716","f","true","img/S_28.png","生人","prac_self","","自我"
"","","","","","html-keyboard-response","270","992627","0.0-14.3-0.3-1.75","null","<span style='color:GreenYellow; font-size: 70px;'>正确! </span>","null","","","","","","","","","","","","","","","","","","","","","","","feedback_test",""
"","","","","","psychophysics","271","994877","0.0-14.3-0.3-0.76","1248","","k","","","","","","","","","","","","","key","k","16.666544776119697","1280","716","k","true","img/C_28.png","朋友","prac_self","","朋友"
"","","","","","html-keyboard-response","272","995181","0.0-14.3-0.3-1.76","null","<span style='color:GreenYellow; font-size: 70px;'>正确! </span>","null","","","","","","","","","","","","","","","","","","","","","","","feedback_test",""
"","","","","","psychophysics","273","997298","0.0-14.3-0.3-0.77","1111","","j","","","","","","","","","","","","","key","j","16.666333333333206","1280","716","j","true","img/C_28.png","自我","prac_self","","朋友"
"","","","","","html-keyboard-response","274","997607","0.0-14.3-0.3-1.77","null","<span style='color:GreenYellow; font-size: 70px;'>正确! </span>","null","","","","","","","","","","","","","","","","","","","","","","","feedback_test",""
"","","","","","psychophysics","275","999525","0.0-14.3-0.3-0.78","913","","d","","","","","","","","","","","","","key","d","16.666078947368078","1280","716","d","true","img/S_28.png","自我","prac_self","","自我"
"","","","","","html-keyboard-response","276","999836","0.0-14.3-0.3-1.78","null","<span style='color:GreenYellow; font-size: 70px;'>正确! </span>","null","","","","","","","","","","","","","","","","","","","","","","","feedback_test",""
"","","","","","psychophysics","277","1001709","0.0-14.3-0.3-0.79","871","","j","","","","","","","","","","","","","key","j","16.667749999999483","1280","716","k","false","img/H_28.png","生人","prac_self","","生人"
"","","","","","html-keyboard-response","278","1002012","0.0-14.3-0.3-1.79","null","<span style='color:red; font-size: 70px;'>错误! </span>","null","","","","","","","","","","","","","","","","","","","","","","","feedback_test",""
"","","","","","psychophysics","279","1004186","0.0-14.3-0.3-0.80","1166","","j","","","","","","","","","","","","","key","j","16.666798449612344","1280","716","j","true","img/H_28.png","自我","prac_self","","生人"
"","","","","","html-keyboard-response","280","1004499","0.0-14.3-0.3-1.80","null","<span style='color:GreenYellow; font-size: 70px;'>正确! </span>","null","","","","","","","","","","","","","","","","","","","","","","","feedback_test",""
"","","","","","psychophysics","281","1006611","0.0-14.3-0.3-0.81","1108","","k","","","","","","","","","","","","","key","k","16.666125984251956","1280","716","k","true","img/C_28.png","朋友","prac_self","","朋友"
"","","","","","html-keyboard-response","282","1006919","0.0-14.3-0.3-1.81","null","<span style='color:GreenYellow; font-size: 70px;'>正确! </span>","null","","","","","","","","","","","","","","","","","","","","","","","feedback_test",""
"","","","","","psychophysics","283","1008841","0.0-14.3-0.3-0.82","921","","j","","","","","","","","","","","","","key","j","16.668026315789717","1280","716","j","true","img/H_28.png","朋友","prac_self","","生人"
"","","","","","html-keyboard-response","284","1009154","0.0-14.3-0.3-1.82","null","<span style='color:GreenYellow; font-size: 70px;'>正确! </span>","null","","","","","","","","","","","","","","","","","","","","","","","feedback_test",""
"","","","","","psychophysics","285","1011041","0.0-14.3-0.3-0.83","872","","d","","","","","","","","","","","","","key","d","16.665892857143522","1280","716","d","true","img/S_28.png","自我","prac_self","","自我"
"","","","","","html-keyboard-response","286","1011344","0.0-14.3-0.3-1.83","null","<span style='color:GreenYellow; font-size: 70px;'>正确! </span>","null","","","","","","","","","","","","","","","","","","","","","","","feedback_test",""
"","","","","","psychophysics","287","1013524","0.0-14.3-0.3-0.84","1171","","j","","","","","","","","","","","","","key","j","16.666023076922954","1280","716","j","true","img/C_28.png","生人","prac_self","","朋友"
"","","","","","html-keyboard-response","288","1013833","0.0-14.3-0.3-1.84","null","<span style='color:GreenYellow; font-size: 70px;'>正确! </span>","null","","","","","","","","","","","","","","","","","","","","","","","feedback_test",""
"","","","","","psychophysics","289","1015811","0.0-14.3-0.3-0.85","974","","j","","","","","","","","","","","","","key","j","16.66567226890729","1280","716","j","true","img/H_28.png","朋友","prac_self","","生人"
"","","","","","html-keyboard-response","290","1016114","0.0-14.3-0.3-1.85","null","<span style='color:GreenYellow; font-size: 70px;'>正确! </span>","null","","","","","","","","","","","","","","","","","","","","","","","feedback_test",""
"","","","","","psychophysics","291","1017963","0.0-14.3-0.3-0.86","844","","j","","","","","","","","","","","","","key","j","16.6665727272725","1280","716","j","true","img/H_28.png","自我","prac_self","","生人"
"","","","","","html-keyboard-response","292","1018269","0.0-14.3-0.3-1.86","null","<span style='color:GreenYellow; font-size: 70px;'>正确! </span>","null","","","","","","","","","","","","","","","","","","","","","","","feedback_test",""
"","","","","","psychophysics","293","1020326","0.0-14.3-0.3-0.87","1057","","f","","","","","","","","","","","","","key","f","16.66631967213089","1280","716","f","true","img/S_28.png","生人","prac_self","","自我"
"","","","","","html-keyboard-response","294","1020637","0.0-14.3-0.3-1.87","null","<span style='color:GreenYellow; font-size: 70px;'>正确! </span>","null","","","","","","","","","","","","","","","","","","","","","","","feedback_test",""
"","","","","","psychophysics","295","1022396","0.0-14.3-0.3-0.88","751","","d","","","","","","","","","","","","","key","d","16.665788461538167","1280","716","d","true","img/S_28.png","自我","prac_self","","自我"
"","","","","","html-keyboard-response","296","1022702","0.0-14.3-0.3-1.88","null","<span style='color:GreenYellow; font-size: 70px;'>正确! </span>","null","","","","","","","","","","","","","","","","","","","","","","","feedback_test",""
"","","","","","psychophysics","297","1025015","0.0-14.3-0.3-0.89","1312","","j","","","","","","","","","","","","","key","j","16.666007299269346","1280","716","k","false","img/H_28.png","生人","prac_self","","生人"
"","","","","","html-keyboard-response","298","1025317","0.0-14.3-0.3-1.89","null","<span style='color:red; font-size: 70px;'>错误! </span>","null","","","","","","","","","","","","","","","","","","","","","","","feedback_test",""
"","","","","","psychophysics","299","1027321","0.0-14.3-0.3-0.90","1003","","d","","","","","","","","","","","","","key","d","16.66618333333366","1280","716","d","true","img/S_28.png","自我","prac_self","","自我"
"","","","","","html-keyboard-response","300","1027631","0.0-14.3-0.3-1.90","null","<span style='color:GreenYellow; font-size: 70px;'>正确! </span>","null","","","","","","","","","","","","","","","","","","","","","","","feedback_test",""
"","","","","","psychophysics","301","1029665","0.0-14.3-0.3-0.91","1032","","f","","","","","","","","","","","","","key","f","16.66572727272691","1280","716","j","false","img/C_28.png","自我","prac_self","","朋友"
"","","","","","html-keyboard-response","302","1029980","0.0-14.3-0.3-1.91","null","<span style='color:red; font-size: 70px;'>错误! </span>","null","","","","","","","","","","","","","","","","","","","","","","","feedback_test",""
"","","","","","psychophysics","303","1032168","0.0-14.3-0.3-0.92","1182","","f","","","","","","","","","","","","","key","f","16.6665076923082","1280","716","f","true","img/S_28.png","朋友","prac_self","","自我"
"","","","","","html-keyboard-response","304","1032472","0.0-14.3-0.3-1.92","null","<span style='color:GreenYellow; font-size: 70px;'>正确! </span>","null","","","","","","","","","","","","","","","","","","","","","","","feedback_test",""
"","","","","","psychophysics","305","1034757","0.0-14.3-0.3-0.93","1281","","k","","","","","","","","","","","","","key","k","16.66626470588295","1280","716","k","true","img/H_28.png","生人","prac_self","","生人"
"","","","","","html-keyboard-response","306","1035066","0.0-14.3-0.3-1.93","null","<span style='color:GreenYellow; font-size: 70px;'>正确! </span>","null","","","","","","","","","","","","","","","","","","","","","","","feedback_test",""
"","","","","","psychophysics","307","1037397","0.0-14.3-0.3-0.94","1328","","j","","","","","","","","","","","","","key","j","16.665669064748556","1280","716","k","false","img/C_28.png","朋友","prac_self","","朋友"
"","","","","","html-keyboard-response","308","1037699","0.0-14.3-0.3-1.94","null","<span style='color:red; font-size: 70px;'>错误! </span>","null","","","","","","","","","","","","","","","","","","","","","","","feedback_test",""
"","","","","","psychophysics","309","1039929","0.0-14.3-0.3-0.95","1227","","k","","","","","","","","","","","","","key","k","16.66650375939776","1280","716","k","true","img/C_28.png","朋友","prac_self","","朋友"
"","","","","","html-keyboard-response","310","1040243","0.0-14.3-0.3-1.95","null","<span style='color:GreenYellow; font-size: 70px;'>正确! </span>","null","","","","","","","","","","","","","","","","","","","","","","","feedback_test",""
"","","","","","html-keyboard-response","311","1045686","0.0-15.0","5441","[""<style>.context{color:white; font-size: 35px; line-height:40px}</style>           <div><p class='context'>您正确回答了79% 的试次。</p><p class='context'>您的平均反应时为1065毫秒。</p><p class='context'>恭喜您完成这一阶段的练习。按任意键进入<span style='color: yellow;'>重点关注图形为“朋友”</span>的练习。</p></div><p class='footer' style='font-size:35px; line-height:30px;'>任务要求：\n           <p class='footer' style='font-size:35px; line-height:35px;'>对于与“朋友”对应的图形：如果 匹配 ，请按 <span style=\""color: lightgreen;\"">d键</span></p><p class='footer' style='font-size:35px'>如果 不匹配 ，请按<span style=\""color: lightgreen;\"">f键</p></span>\n           <p class='footer' style='font-size:35px; line-height:35px;'>对于非“朋友”对应的图形：如果 匹配 ，请按 <span style=\""color: lightgreen;\"">k键</span></p><p class='footer' style='font-size:35px'>如果 不匹配 ，请按<span style=\""color: lightgreen;\"">j键</p></span>\n           <p class='footer' style='font-size:22px; line-height:25px;'>请在实验过程中将您的<span style=\""color: lightgreen;\"">食指和中指</span>放在电脑键盘的相应键位上进行按键。</p></span>""]"," ","","","","","","","","","","","","","","","","","","","","","","","",""
"","","","","","psychophysics","312","1048200","0.0-16.0-0.0-0.0","null","","null","","","","","","","","","","","","","key","null","16.66600671140852","1280","716","j","false","img/S_28.png","朋友","prac_friend","","自我"
"","","","","","html-keyboard-response","313","1048505","0.0-16.0-0.0-1.0","null","<span class='add_' style='color:yellow; font-size: 70px;'> 太慢! </span>","null","","","","","","","","","","","","","","","","","","","","","","","feedback_test",""
"","","","","","psychophysics","314","1050770","0.0-16.0-0.0-0.1","1252","","j","","","","","","","","","","","","","key","j","16.666540740740796","1280","716","j","true","img/H_28.png","朋友","prac_friend","","生人"
"","","","","","html-keyboard-response","315","1051085","0.0-16.0-0.0-1.1","null","<span style='color:GreenYellow; font-size: 70px;'>正确! </span>","null","","","","","","","","","","","","","","","","","","","","","","","feedback_test",""
"","","","","","psychophysics","316","1053137","0.0-16.0-0.0-0.2","1052","","j","","","","","","","","","","","","","key","j","16.6661885245894","1280","716","j","true","img/H_28.png","自我","prac_friend","","生人"
"","","","","","html-keyboard-response","317","1053443","0.0-16.0-0.0-1.2","null","<span style='color:GreenYellow; font-size: 70px;'>正确! </span>","null","","","","","","","","","","","","","","","","","","","","","","","feedback_test",""
"","","","","","psychophysics","318","1055499","0.0-16.0-0.0-0.3","1048","","d","","","","","","","","","","","","","key","d","16.666303278687487","1280","716","d","true","img/C_28.png","朋友","prac_friend","","朋友"
"","","","","","html-keyboard-response","319","1055812","0.0-16.0-0.0-1.3","null","<span style='color:GreenYellow; font-size: 70px;'>正确! </span>","null","","","","","","","","","","","","","","","","","","","","","","","feedback_test",""
"","","","","","psychophysics","320","1057762","0.0-16.0-0.0-0.4","943","","f","","","","","","","","","","","","","key","f","16.666120689655333","1280","716","f","true","img/C_28.png","生人","prac_friend","","朋友"
"","","","","","html-keyboard-response","321","1058064","0.0-16.0-0.0-1.4","null","<span style='color:GreenYellow; font-size: 70px;'>正确! </span>","null","","","","","","","","","","","","","","","","","","","","","","","feedback_test",""
"","","","","","psychophysics","322","1060241","0.0-16.0-0.0-0.5","1173","","j","","","","","","","","","","","","","key","j","16.66664615384518","1280","716","j","true","img/S_28.png","生人","prac_friend","","自我"
"","","","","","html-keyboard-response","323","1060556","0.0-16.0-0.0-1.5","null","<span style='color:GreenYellow; font-size: 70px;'>正确! </span>","null","","","","","","","","","","","","","","","","","","","","","","","feedback_test",""
"","","","","","psychophysics","324","1062557","0.0-16.0-0.0-0.6","989","","k","","","","","","","","","","","","","key","k","16.665260504201413","1280","716","k","true","img/S_28.png","自我","prac_friend","","自我"
"","","","","","html-keyboard-response","325","1062862","0.0-16.0-0.0-1.6","null","<span style='color:GreenYellow; font-size: 70px;'>正确! </span>","null","","","","","","","","","","","","","","","","","","","","","","","feedback_test",""
"","","","","","psychophysics","326","1064702","0.0-16.0-0.0-0.7","834","","d","","","","","","","","","","","","","key","d","16.66660909090953","1280","716","d","true","img/C_28.png","朋友","prac_friend","","朋友"
"","","","","","html-keyboard-response","327","1065010","0.0-16.0-0.0-1.7","null","<span style='color:GreenYellow; font-size: 70px;'>正确! </span>","null","","","","","","","","","","","","","","","","","","","","","","","feedback_test",""
"","","","","","psychophysics","328","1066858","0.0-16.0-0.0-0.8","840","","j","","","","","","","","","","","","","key","j","16.666427272727542","1280","716","k","false","img/H_28.png","生人","prac_friend","","生人"
"","","","","","html-keyboard-response","329","1067166","0.0-16.0-0.0-1.8","null","<span style='color:red; font-size: 70px;'>错误! </span>","null","","","","","","","","","","","","","","","","","","","","","","","feedback_test",""
"","","","","","psychophysics","330","1068982","0.0-16.0-0.0-0.9","814","","j","","","","","","","","","","","","","key","j","16.66602803738222","1280","716","k","false","img/H_28.png","生人","prac_friend","","生人"
"","","","","","html-keyboard-response","331","1069293","0.0-16.0-0.0-1.9","null","<span style='color:red; font-size: 70px;'>错误! </span>","null","","","","","","","","","","","","","","","","","","","","","","","feedback_test",""
"","","","","","psychophysics","332","1071352","0.0-16.0-0.0-0.10","1051","","k","","","","","","","","","","","","","key","k","16.66645528455227","1280","716","k","true","img/S_28.png","自我","prac_friend","","自我"
"","","","","","html-keyboard-response","333","1071656","0.0-16.0-0.0-1.10","null","<span style='color:GreenYellow; font-size: 70px;'>正确! </span>","null","","","","","","","","","","","","","","","","","","","","","","","feedback_test",""
"","","","","","psychophysics","334","1073498","0.0-16.0-0.0-0.11","831","","d","","","","","","","","","","","","","key","d","16.666700000000525","1280","716","f","false","img/C_28.png","自我","prac_friend","","朋友"
"","","","","","html-keyboard-response","335","1073804","0.0-16.0-0.0-1.11","null","<span style='color:red; font-size: 70px;'>错误! </span>","null","","","","","","","","","","","","","","","","","","","","","","","feedback_test",""
"","","","","","psychophysics","336","1076315","0.0-16.0-0.0-0.12","null","","null","","","","","","","","","","","","","key","null","16.666516778524965","1280","716","k","false","img/S_28.png","自我","prac_friend","","自我"
"","","","","","html-keyboard-response","337","1076619","0.0-16.0-0.0-1.12","null","<span class='add_' style='color:yellow; font-size: 70px;'> 太慢! </span>","null","","","","","","","","","","","","","","","","","","","","","","","feedback_test",""
"","","","","","psychophysics","338","1078723","0.0-16.0-0.0-0.13","1099","","f","","","","","","","","","","","","","key","f","16.666119047617983","1280","716","f","true","img/C_28.png","自我","prac_friend","","朋友"
"","","","","","html-keyboard-response","339","1079032","0.0-16.0-0.0-1.13","null","<span style='color:GreenYellow; font-size: 70px;'>正确! </span>","null","","","","","","","","","","","","","","","","","","","","","","","feedback_test",""
"","","","","","psychophysics","340","1081178","0.0-16.0-0.0-0.14","1144","","j","","","","","","","","","","","","","key","j","16.66546875000131","1280","716","j","true","img/S_28.png","生人","prac_friend","","自我"
"","","","","","html-keyboard-response","341","1081485","0.0-16.0-0.0-1.14","null","<span style='color:GreenYellow; font-size: 70px;'>正确! </span>","null","","","","","","","","","","","","","","","","","","","","","","","feedback_test",""
"","","","","","psychophysics","342","1083818","0.0-16.0-0.0-0.15","1322","","k","","","","","","","","","","","","","key","k","16.66603571428651","1280","716","j","false","img/H_28.png","自我","prac_friend","","生人"
"","","","","","html-keyboard-response","343","1084127","0.0-16.0-0.0-1.15","null","<span style='color:red; font-size: 70px;'>错误! </span>","null","","","","","","","","","","","","","","","","","","","","","","","feedback_test",""
"","","","","","psychophysics","344","1086294","0.0-16.0-0.0-0.16","1166","","k","","","","","","","","","","","","","key","k","16.666325581393586","1280","716","d","false","img/C_28.png","朋友","prac_friend","","朋友"
"","","","","","html-keyboard-response","345","1086598","0.0-16.0-0.0-1.16","null","<span style='color:red; font-size: 70px;'>错误! </span>","null","","","","","","","","","","","","","","","","","","","","","","","feedback_test",""
"","","","","","psychophysics","346","1088851","0.0-16.0-0.0-0.17","1251","","j","","","","","","","","","","","","","key","j","16.789518518518243","1280","716","j","true","img/H_28.png","朋友","prac_friend","","生人"
"","","","","","html-keyboard-response","347","1089167","0.0-16.0-0.0-1.17","null","<span style='color:GreenYellow; font-size: 70px;'>正确! </span>","null","","","","","","","","","","","","","","","","","","","","","","","feedback_test",""
"","","","","","psychophysics","348","1091134","0.0-16.0-0.0-0.18","967","","f","","","","","","","","","","","","","key","f","16.666205128205096","1280","716","f","true","img/C_28.png","生人","prac_friend","","朋友"
"","","","","","html-keyboard-response","349","1091437","0.0-16.0-0.0-1.18","null","<span style='color:GreenYellow; font-size: 70px;'>正确! </span>","null","","","","","","","","","","","","","","","","","","","","","","","feedback_test",""
"","","","","","psychophysics","350","1093399","0.0-16.0-0.0-0.19","949","","k","","","","","","","","","","","","","key","k","16.6650517241375","1280","716","k","true","img/S_28.png","自我","prac_friend","","自我"
"","","","","","html-keyboard-response","351","1093701","0.0-16.0-0.0-1.19","null","<span style='color:GreenYellow; font-size: 70px;'>正确! </span>","null","","","","","","","","","","","","","","","","","","","","","","","feedback_test",""
"","","","","","psychophysics","352","1096212","0.0-16.0-0.0-0.20","null","","null","","","","","","","","","","","","","key","null","16.66597315436229","1280","716","j","false","img/S_28.png","朋友","prac_friend","","自我"
"","","","","","html-keyboard-response","353","1096519","0.0-16.0-0.0-1.20","null","<span class='add_' style='color:yellow; font-size: 70px;'> 太慢! </span>","null","","","","","","","","","","","","","","","","","","","","","","","feedback_test",""
"","","","","","psychophysics","354","1098868","0.0-16.0-0.0-0.21","1335","","k","","","","","","","","","","","","","key","k","16.665900000000175","1280","716","k","true","img/H_28.png","生人","prac_friend","","生人"
"","","","","","html-keyboard-response","355","1099178","0.0-16.0-0.0-1.21","null","<span style='color:GreenYellow; font-size: 70px;'>正确! </span>","null","","","","","","","","","","","","","","","","","","","","","","","feedback_test",""
"","","","","","psychophysics","356","1100992","0.0-16.0-0.0-0.22","809","","k","","","","","","","","","","","","","key","k","16.66623148148129","1280","716","k","true","img/H_28.png","生人","prac_friend","","生人"
"","","","","","html-keyboard-response","357","1101303","0.0-16.0-0.0-1.22","null","<span style='color:GreenYellow; font-size: 70px;'>正确! </span>","null","","","","","","","","","","","","","","","","","","","","","","","feedback_test",""
"","","","","","psychophysics","358","1103300","0.0-16.0-0.0-0.23","995","","d","","","","","","","","","","","","","key","d","16.6656890756298","1280","716","d","true","img/C_28.png","朋友","prac_friend","","朋友"
"","","","","","html-keyboard-response","359","1103602","0.0-16.0-0.0-1.23","null","<span style='color:GreenYellow; font-size: 70px;'>正确! </span>","null","","","","","","","","","","","","","","","","","","","","","","","feedback_test",""
"","","","","","html-keyboard-response","360","1105130","0.0-16.0-1.0-0.0","1527","<style>.context{color:white; font-size: 35px; line-height:40px}</style>                           <div><p class='context'>您正确回答了67% 的试次。</p><p class='context'>您的平均反应时为1056毫秒。</p>"," ","","","","","","","","","","","","","","","","","","","","","","","",""
"","","","","","instructions","361","1113811","0.0-16.0-1.0-1.0","8680","","","","","","","","","","","","","","[{""page_index"":0,""viewing_time"":818},{""page_index"":1,""viewing_time"":5624},{""page_index"":2,""viewing_time"":2238}]","","","","","","","","","","","",""
"","","","","","psychophysics","362","1115939","0.0-16.1-0.1-0.24","1123","","j","","","","","","","","","","","","","key","j","16.66644094488217","1280","716","j","true","img/H_28.png","自我","prac_friend","","生人"
"","","","","","html-keyboard-response","363","1116245","0.0-16.1-0.1-1.24","null","<span style='color:GreenYellow; font-size: 70px;'>正确! </span>","null","","","","","","","","","","","","","","","","","","","","","","","feedback_test",""
"","","","","","psychophysics","364","1118222","0.0-16.1-0.1-0.25","973","","f","","","","","","","","","","","","","key","f","16.66405084745769","1280","716","f","true","img/C_28.png","生人","prac_friend","","朋友"
"","","","","","html-keyboard-response","365","1118530","0.0-16.1-0.1-1.25","null","<span style='color:GreenYellow; font-size: 70px;'>正确! </span>","null","","","","","","","","","","","","","","","","","","","","","","","feedback_test",""
"","","","","","psychophysics","366","1120535","0.0-16.1-0.1-0.26","1002","","d","","","","","","","","","","","","","key","d","16.666141666667922","1280","716","d","true","img/C_28.png","朋友","prac_friend","","朋友"
"","","","","","html-keyboard-response","367","1120843","0.0-16.1-0.1-1.26","null","<span style='color:GreenYellow; font-size: 70px;'>正确! </span>","null","","","","","","","","","","","","","","","","","","","","","","","feedback_test",""
"","","","","","psychophysics","368","1123265","0.0-16.1-0.1-0.27","1416","","k","","","","","","","","","","","","","key","k","16.666256944443578","1280","716","k","true","img/S_28.png","自我","prac_friend","","自我"
"","","","","","html-keyboard-response","369","1123569","0.0-16.1-0.1-1.27","null","<span style='color:GreenYellow; font-size: 70px;'>正确! </span>","null","","","","","","","","","","","","","","","","","","","","","","","feedback_test",""
"","","","","","psychophysics","370","1125306","0.0-16.1-0.1-0.28","732","","k","","","","","","","","","","","","","key","k","16.664728155339283","1280","716","k","true","img/S_28.png","自我","prac_friend","","自我"
"","","","","","html-keyboard-response","371","1125612","0.0-16.1-0.1-1.28","null","<span style='color:GreenYellow; font-size: 70px;'>正确! </span>","null","","","","","","","","","","","","","","","","","","","","","","","feedback_test",""
"","","","","","psychophysics","372","1127293","0.0-16.1-0.1-0.29","677","","j","","","","","","","","","","","","","key","j","16.66618811881105","1280","716","k","false","img/H_28.png","生人","prac_friend","","生人"
"","","","","","html-keyboard-response","373","1127597","0.0-16.1-0.1-1.29","null","<span style='color:red; font-size: 70px;'>错误! </span>","null","","","","","","","","","","","","","","","","","","","","","","","feedback_test",""
"","","","","","psychophysics","374","1129521","0.0-16.1-0.1-0.30","922","","d","","","","","","","","","","","","","key","d","16.655789473684294","1280","716","d","true","img/C_28.png","朋友","prac_friend","","朋友"
"","","","","","html-keyboard-response","375","1129822","0.0-16.1-0.1-1.30","null","<span style='color:GreenYellow; font-size: 70px;'>正确! </span>","null","","","","","","","","","","","","","","","","","","","","","","","feedback_test",""
"","","","","","psychophysics","376","1131727","0.0-16.1-0.1-0.31","900","","f","","","","","","","","","","","","","key","f","16.66618584070676","1280","716","f","true","img/C_28.png","自我","prac_friend","","朋友"
"","","","","","html-keyboard-response","377","1132041","0.0-16.1-0.1-1.31","null","<span style='color:GreenYellow; font-size: 70px;'>正确! </span>","null","","","","","","","","","","","","","","","","","","","","","","","feedback_test",""
"","","","","","psychophysics","378","1133940","0.0-16.1-0.1-0.32","895","","k","","","","","","","","","","","","","key","k","16.66622123893853","1280","716","j","false","img/H_28.png","朋友","prac_friend","","生人"
"","","","","","html-keyboard-response","379","1134250","0.0-16.1-0.1-1.32","null","<span style='color:red; font-size: 70px;'>错误! </span>","null","","","","","","","","","","","","","","","","","","","","","","","feedback_test",""
"","","","","","psychophysics","380","1136119","0.0-16.1-0.1-0.33","866","","k","","","","","","","","","","","","","key","k","16.66596396396415","1280","716","k","true","img/H_28.png","生人","prac_friend","","生人"
"","","","","","html-keyboard-response","381","1136420","0.0-16.1-0.1-1.33","null","<span style='color:GreenYellow; font-size: 70px;'>正确! </span>","null","","","","","","","","","","","","","","","","","","","","","","","feedback_test",""
"","","","","","psychophysics","382","1138891","0.0-16.1-0.1-0.34","1459","","j","","","","","","","","","","","","","key","j","16.66600000000001","1280","716","j","true","img/S_28.png","生人","prac_friend","","自我"
"","","","","","html-keyboard-response","383","1139205","0.0-16.1-0.1-1.34","null","<span style='color:GreenYellow; font-size: 70px;'>正确! </span>","null","","","","","","","","","","","","","","","","","","","","","","","feedback_test",""
"","","","","","psychophysics","384","1141287","0.0-16.1-0.1-0.35","1072","","j","","","","","","","","","","","","","key","j","16.666499999999594","1280","716","j","true","img/S_28.png","朋友","prac_friend","","自我"
"","","","","","html-keyboard-response","385","1141603","0.0-16.1-0.1-1.35","null","<span style='color:GreenYellow; font-size: 70px;'>正确! </span>","null","","","","","","","","","","","","","","","","","","","","","","","feedback_test",""
"","","","","","psychophysics","386","1143543","0.0-16.1-0.1-0.36","927","","d","","","","","","","","","","","","","key","d","16.666243478261016","1280","716","d","true","img/C_28.png","朋友","prac_friend","","朋友"
"","","","","","html-keyboard-response","387","1143844","0.0-16.1-0.1-1.36","null","<span style='color:GreenYellow; font-size: 70px;'>正确! </span>","null","","","","","","","","","","","","","","","","","","","","","","","feedback_test",""
"","","","","","psychophysics","388","1146053","0.0-16.1-0.1-0.37","1204","","k","","","","","","","","","","","","","key","k","16.666621212120816","1280","716","k","true","img/S_28.png","自我","prac_friend","","自我"
"","","","","","html-keyboard-response","389","1146364","0.0-16.1-0.1-1.37","null","<span style='color:GreenYellow; font-size: 70px;'>正确! </span>","null","","","","","","","","","","","","","","","","","","","","","","","feedback_test",""
"","","","","","psychophysics","390","1148447","0.0-16.1-0.1-0.38","1081","","j","","","","","","","","","","","","","key","j","16.66094308942973","1280","716","d","false","img/C_28.png","朋友","prac_friend","","朋友"
"","","","","","html-keyboard-response","391","1148755","0.0-16.1-0.1-1.38","null","<span style='color:red; font-size: 70px;'>错误! </span>","null","","","","","","","","","","","","","","","","","","","","","","","feedback_test",""
"","","","","","psychophysics","392","1151005","0.0-16.1-0.1-0.39","1248","","j","","","","","","","","","","","","","key","j","16.666253731342785","1280","716","k","false","img/S_28.png","自我","prac_friend","","自我"
"","","","","","html-keyboard-response","393","1151307","0.0-16.1-0.1-1.39","null","<span style='color:red; font-size: 70px;'>错误! </span>","null","","","","","","","","","","","","","","","","","","","","","","","feedback_test",""
"","","","","","psychophysics","394","1153376","0.0-16.1-0.1-0.40","1061","","j","","","","","","","","","","","","","key","j","16.666227642276393","1280","716","j","true","img/H_28.png","自我","prac_friend","","生人"
"","","","","","html-keyboard-response","395","1153692","0.0-16.1-0.1-1.40","null","<span style='color:GreenYellow; font-size: 70px;'>正确! </span>","null","","","","","","","","","","","","","","","","","","","","","","","feedback_test",""
"","","","","","psychophysics","396","1155988","0.0-16.1-0.1-0.41","1291","","j","","","","","","","","","","","","","key","j","16.666416058393303","1280","716","f","false","img/C_28.png","自我","prac_friend","","朋友"
"","","","","","html-keyboard-response","397","1156292","0.0-16.1-0.1-1.41","null","<span style='color:red; font-size: 70px;'>错误! </span>","null","","","","","","","","","","","","","","","","","","","","","","","feedback_test",""
"","","","","","psychophysics","398","1158437","0.0-16.1-0.1-0.42","1139","","j","","","","","","","","","","","","","key","j","16.666281249999884","1280","716","j","true","img/H_28.png","朋友","prac_friend","","生人"
"","","","","","html-keyboard-response","399","1158740","0.0-16.1-0.1-1.42","null","<span style='color:GreenYellow; font-size: 70px;'>正确! </span>","null","","","","","","","","","","","","","","","","","","","","","","","feedback_test",""
"","","","","","psychophysics","400","1161075","0.0-16.1-0.1-0.43","1327","","j","","","","","","","","","","","","","key","j","16.666280575540494","1280","716","j","true","img/S_28.png","朋友","prac_friend","","自我"
"","","","","","html-keyboard-response","401","1161377","0.0-16.1-0.1-1.43","null","<span style='color:GreenYellow; font-size: 70px;'>正确! </span>","null","","","","","","","","","","","","","","","","","","","","","","","feedback_test",""
"","","","","","psychophysics","402","1163363","0.0-16.1-0.1-0.44","985","","k","","","","","","","","","","","","","key","k","16.666389830509136","1280","716","k","true","img/H_28.png","生人","prac_friend","","生人"
"","","","","","html-keyboard-response","403","1163672","0.0-16.1-0.1-1.44","null","<span style='color:GreenYellow; font-size: 70px;'>正确! </span>","null","","","","","","","","","","","","","","","","","","","","","","","feedback_test",""
"","","","","","psychophysics","404","1165728","0.0-16.1-0.1-0.45","1046","","f","","","","","","","","","","","","","key","f","16.666434426228975","1280","716","f","true","img/C_28.png","生人","prac_friend","","朋友"
"","","","","","html-keyboard-response","405","1166034","0.0-16.1-0.1-1.45","null","<span style='color:GreenYellow; font-size: 70px;'>正确! </span>","null","","","","","","","","","","","","","","","","","","","","","","","feedback_test",""
"","","","","","psychophysics","406","1168480","0.0-16.1-0.1-0.46","1432","","j","","","","","","","","","","","","","key","j","16.666234482758966","1280","716","j","true","img/S_28.png","生人","prac_friend","","自我"
"","","","","","html-keyboard-response","407","1168796","0.0-16.1-0.1-1.46","null","<span style='color:GreenYellow; font-size: 70px;'>正确! </span>","null","","","","","","","","","","","","","","","","","","","","","","","feedback_test",""
"","","","","","psychophysics","408","1170767","0.0-16.1-0.1-0.47","969","","k","","","","","","","","","","","","","key","k","16.656307692307198","1280","716","k","true","img/H_28.png","生人","prac_friend","","生人"
"","","","","","html-keyboard-response","409","1171079","0.0-16.1-0.1-1.47","null","<span style='color:GreenYellow; font-size: 70px;'>正确! </span>","null","","","","","","","","","","","","","","","","","","","","","","","feedback_test",""
"","","","","","html-keyboard-response","410","1172945","0.0-17.0","1865","[""<style>.context{color:white; font-size: 35px; line-height:40px}</style>               <div><p class='context'>您正确回答了79% 的试次。</p><p class='context'>您的平均反应时为1082毫秒。</p><p class='context'>恭喜您完成这一阶段的练习。按任意键进入<span style='color: yellow;'>重点关注图形为“生人”</span>的练习。</p></div><p class='footer' style='font-size:35px; line-height:30px;'>任务要求：\n               <p class='footer' style='font-size:35px; line-height:35px;'>对与“生人”对应的图形，如果 匹配 ，请按 <span style=\""color: lightgreen;\"">d键</span></p><p class='footer' style='font-size:35px'>如果 不匹配 ，请按<span style=\""color: lightgreen;\"">f键</p></span>\n               <p class='footer' style='font-size:35px; line-height:35px;'>对非“生人”对应的图形，如果 匹配 ，请按 <span style=\""color: lightgreen;\"">k键</span></p><p class='footer' style='font-size:35px'>如果 不匹配 ，请按<span style=\""color: lightgreen;\"">j键</p></span>\n               <p class='footer' style='font-size:22px; line-height:25px;'>请在实验过程中将您的<span style=\""color: lightgreen;\"">食指和中指</span>放在电脑键盘的相应键位上进行按键。</p></span>""]"," ","","","","","","","","","","","","","","","","","","","","","","","",""
"","","","","","psychophysics","411","1175448","0.0-18.0-0.0-0.0","null","","null","","","","","","","","","","","","","key","null","16.66614093959813","1280","716","f","false","img/H_28.png","朋友","prac_stranger","","生人"
"","","","","","html-keyboard-response","412","1175760","0.0-18.0-0.0-1.0","null","<span class='add_' style='color:yellow; font-size: 70px;'> 太慢! </span>","null","","","","","","","","","","","","","","","","","","","","","","","feedback_test",""
"","","","","","psychophysics","413","1178264","0.0-18.0-0.0-0.1","null","","null","","","","","","","","","","","","","key","null","16.66689261745024","1280","716","j","false","img/S_28.png","生人","prac_stranger","","自我"
"","","","","","html-keyboard-response","414","1178572","0.0-18.0-0.0-1.1","null","<span class='add_' style='color:yellow; font-size: 70px;'> 太慢! </span>","null","","","","","","","","","","","","","","","","","","","","","","","feedback_test",""
"","","","","","psychophysics","415","1180682","0.0-18.0-0.0-0.2","1107","","d","","","","","","","","","","","","","key","d","16.666455999998377","1280","716","d","true","img/H_28.png","生人","prac_stranger","","生人"
"","","","","","html-keyboard-response","416","1180985","0.0-18.0-0.0-1.2","null","<span style='color:GreenYellow; font-size: 70px;'>正确! </span>","null","","","","","","","","","","","","","","","","","","","","","","","feedback_test",""
"","","","","","psychophysics","417","1183191","0.0-18.0-0.0-0.3","1203","","k","","","","","","","","","","","","","key","k","16.665549618319986","1280","716","j","false","img/S_28.png","朋友","prac_stranger","","自我"
"","","","","","html-keyboard-response","418","1183502","0.0-18.0-0.0-1.3","null","<span style='color:red; font-size: 70px;'>错误! </span>","null","","","","","","","","","","","","","","","","","","","","","","","feedback_test",""
"","","","","","psychophysics","419","1186014","0.0-18.0-0.0-0.4","null","","null","","","","","","","","","","","","","key","null","16.666483221477172","1280","716","k","false","img/S_28.png","自我","prac_stranger","","自我"
"","","","","","html-keyboard-response","420","1186329","0.0-18.0-0.0-1.4","null","<span class='add_' style='color:yellow; font-size: 70px;'> 太慢! </span>","null","","","","","","","","","","","","","","","","","","","","","","","feedback_test",""
"","","","","","psychophysics","421","1188219","0.0-18.0-0.0-0.5","888","","d","","","","","","","","","","","","","key","d","16.65733035714116","1280","716","d","true","img/H_28.png","生人","prac_stranger","","生人"
"","","","","","html-keyboard-response","422","1188523","0.0-18.0-0.0-1.5","null","<span style='color:GreenYellow; font-size: 70px;'>正确! </span>","null","","","","","","","","","","","","","","","","","","","","","","","feedback_test",""
