"success","timeout","failed_images","failed_audio","failed_video","trial_type","trial_index","time_elapsed","internal_node_id","rt","stimulus","response","value","item_width_mm","item_height_mm","item_width_px","px2mm","view_dist_mm","item_width_deg","px2deg","scale_factor","win_width_deg","win_height_deg","view_history","response_type","key_press","avg_frame_time","center_x","center_y","correct_response","correct","Image","text","condition","screen_id","label"
"true","false","[]","[]","[]","preload","0","444","0.0-0.0","","","","","","","","","","","","","","","","","","","","","","","","","","",""
"","","","","","html-keyboard-response","1","21957","0.0-1.0","21513","
     <p>您好，欢迎参加本次实验。</p>
     <p>为充分保障您的权利，请确保您已经知晓并同意《参与实验同意书》以及《数据公开知情同意书》。</p>
     <p>如果您未见过上述内容，请咨询实验员。</p>
     <p>如果您选择继续实验，则表示您已经清楚两份知情同意书的内容并同意。</p>
     <p> <div style = ""color: green""><按任意键至下页></div> </p>
     ","shift","","","","","","","","","","","","","","","","","","","","","","","",""
"","","","","","html-keyboard-response","2","53405","0.0-2.0","31448","
     <p>本实验首先需要您填写一些基本个人信息。</p>
     <p> <div style = ""color: green""><按任意键至下页></div></p>
     "," ","","","","","","","","","","","","","","","","","","","","","","","",""
"","","","","","call-function","3","53405","0.0-3.0-0.0","","","","","","","","","","","","","","","","","","","","","","","","","","",""
"","","","","","survey-html-form","4","58102","0.0-3.0-1.0","4695","","{""Q0"":""58""}","","","","","","","","","","","","","","","","","","","","","","","",""
"","","","","","html-button-response","5","59038","0.0-3.0-2.0","935","<p style = 'color : white'>您的性别</p>","0","","","","","","","","","","","","","","","","","","","","","","","",""
"","","","","","survey-html-form","6","62909","0.0-3.0-3.0","3871","","{""Q0"":""2001""}","","","","","","","","","","","","","","","","","","","","","","","",""
"","","","","","survey-html-form","7","65271","0.0-3.0-4.0","2360","","{""Q0"":""5""}","","","","","","","","","","","","","","","","","","","","","","","",""
"","","","","","virtual-chinrest","8","237350","0.0-4.0","172078","","","","85.6","53.98","329.5114511059077","3.8472688345338417","743.39","6.590229022118155","50","1.1228744820800747","30.72","14.78","","","","","","","","","","","","",""
"true","","","","","fullscreen","9","240348","0.0-5.0","","","","","","","","","","","","","","","","","","","","","","","","","","",""
"","","","","","instructions","10","357837","0.0-6.0","117488","","","","","","","","","","","","","","[{""page_index"":0,""viewing_time"":4880},{""page_index"":1,""viewing_time"":4448},{""page_index"":2,""viewing_time"":2688},{""page_index"":1,""viewing_time"":9272},{""page_index"":2,""viewing_time"":90992},{""page_index"":3,""viewing_time"":3008},{""page_index"":4,""viewing_time"":2200}]","","","","","","","","","","","",""
"","","","","","instructions","11","387701","0.0-7.0","29863","","","","","","","","","","","","","","[{""page_index"":0,""viewing_time"":29863}]","","","","","","","","","","","",""
"","","","","","psychophysics","12","389901","0.0-8.0-0.0-0.0","1196","","j","","","","","","","","","","","","","key","j","16.659407692307678","768","428","d","false","img/S_28.png","生人","freeprac_self","",""
"","","","","","html-keyboard-response","13","390203","0.0-8.0-0.0-1.0","null","<span style='color:red; font-size: 70px;'>错误! </span>","null","","","","","","","","","","","","","","","","","","","","","","","feedback_test",""
"","","","","","psychophysics","14","392381","0.0-8.0-0.0-0.1","1177","","f","","","","","","","","","","","","","key","f","16.650062015503483","768","428","d","false","img/C_28.png","朋友","freeprac_self","",""
"","","","","","html-keyboard-response","15","392692","0.0-8.0-0.0-1.1","null","<span style='color:red; font-size: 70px;'>错误! </span>","null","","","","","","","","","","","","","","","","","","","","","","","feedback_test",""
"","","","","","psychophysics","16","394543","0.0-8.0-0.0-0.2","847","","k","","","","","","","","","","","","","key","k","16.658709090908946","768","428","f","false","img/S_28.png","自我","freeprac_self","",""
"","","","","","html-keyboard-response","17","394858","0.0-8.0-0.0-1.2","null","<span style='color:red; font-size: 70px;'>错误! </span>","null","","","","","","","","","","","","","","","","","","","","","","","feedback_test",""
"","","","","","psychophysics","18","397285","0.0-8.0-0.0-0.3","1423","","k","","","","","","","","","","","","","key","k","16.657468965517534","768","428","j","false","img/H_28.png","生人","freeprac_self","",""
"","","","","","html-keyboard-response","19","397596","0.0-8.0-0.0-1.3","null","<span style='color:red; font-size: 70px;'>错误! </span>","null","","","","","","","","","","","","","","","","","","","","","","","feedback_test",""
"","","","","","psychophysics","20","399397","0.0-8.0-0.0-0.4","795","","j","","","","","","","","","","","","","key","j","16.65847663551397","768","428","f","false","img/C_28.png","自我","freeprac_self","",""
"","","","","","html-keyboard-response","21","399705","0.0-8.0-0.0-1.4","null","<span style='color:red; font-size: 70px;'>错误! </span>","null","","","","","","","","","","","","","","","","","","","","","","","feedback_test",""
"","","","","","psychophysics","22","401478","0.0-8.0-0.0-0.5","763","","d","","","","","","","","","","","","","key","d","16.657866666666674","768","428","d","true","img/S_28.png","生人","freeprac_self","",""
"","","","","","html-keyboard-response","23","401788","0.0-8.0-0.0-1.5","null","<span style='color:GreenYellow; font-size: 70px;'>正确! </span>","null","","","","","","","","","","","","","","","","","","","","","","","feedback_test",""
"","","","","","psychophysics","24","403381","0.0-8.0-0.0-0.6","589","","f","","","","","","","","","","","","","key","f","16.65795789473678","768","428","d","false","img/C_28.png","朋友","freeprac_self","",""
"","","","","","html-keyboard-response","25","403686","0.0-8.0-0.0-1.6","null","<span style='color:red; font-size: 70px;'>错误! </span>","null","","","","","","","","","","","","","","","","","","","","","","","feedback_test",""
"","","","","","psychophysics","26","405525","0.0-8.0-0.0-0.7","837","","f","","","","","","","","","","","","","key","f","16.658146788990404","768","428","j","false","img/H_28.png","朋友","freeprac_self","",""
"","","","","","html-keyboard-response","27","405829","0.0-8.0-0.0-1.7","null","<span style='color:red; font-size: 70px;'>错误! </span>","null","","","","","","","","","","","","","","","","","","","","","","","feedback_test",""
"","","","","","psychophysics","28","407973","0.0-8.0-0.0-0.8","1137","","j","","","","","","","","","","","","","key","j","16.657732283464618","768","428","k","false","img/H_28.png","自我","freeprac_self","",""
"","","","","","html-keyboard-response","29","408285","0.0-8.0-0.0-1.8","null","<span style='color:red; font-size: 70px;'>错误! </span>","null","","","","","","","","","","","","","","","","","","","","","","","feedback_test",""
"","","","","","psychophysics","30","410437","0.0-8.0-0.0-0.9","1146","","f","","","","","","","","","","","","","key","f","16.658812500000295","768","428","f","true","img/C_28.png","生人","freeprac_self","",""
"","","","","","html-keyboard-response","31","410749","0.0-8.0-0.0-1.9","null","<span style='color:GreenYellow; font-size: 70px;'>正确! </span>","null","","","","","","","","","","","","","","","","","","","","","","","feedback_test",""
"","","","","","psychophysics","32","412509","0.0-8.0-0.0-0.10","749","","k","","","","","","","","","","","","","key","k","16.65779807692329","768","428","k","true","img/H_28.png","自我","freeprac_self","",""
"","","","","","html-keyboard-response","33","412813","0.0-8.0-0.0-1.10","null","<span style='color:GreenYellow; font-size: 70px;'>正确! </span>","null","","","","","","","","","","","","","","","","","","","","","","","feedback_test",""
"","","","","","psychophysics","34","414773","0.0-8.0-0.0-0.11","958","","f","","","","","","","","","","","","","key","f","16.657922413793255","768","428","f","true","img/S_28.png","朋友","freeprac_self","",""
"","","","","","html-keyboard-response","35","415082","0.0-8.0-0.0-1.11","null","<span style='color:GreenYellow; font-size: 70px;'>正确! </span>","null","","","","","","","","","","","","","","","","","","","","","","","feedback_test",""
"","","","","","html-keyboard-response","36","421742","0.0-8.0-1.0-0.0","6658","<style>.context{color:white; font-size: 35px; line-height:40px}</style>                              <div><p class='context'>您正确回答了33% 的试次。</p><p class='context'>您的平均反应时为904毫秒。</p>"," ","","","","","","","","","","","","","","","","","","","","","","","",""
"","","","","","instructions","37","441542","0.0-8.0-1.0-1.0","19798","","","","","","","","","","","","","","[{""page_index"":0,""viewing_time"":8877},{""page_index"":1,""viewing_time"":8544},{""page_index"":2,""viewing_time"":2376}]","","","","","","","","","","","",""
"","","","","","psychophysics","38","443302","0.0-8.1-0.1-0.12","758","","k","","","","","","","","","","","","","key","k","16.658269230768873","768","428","k","true","img/H_28.png","自我","freeprac_self","",""
"","","","","","html-keyboard-response","39","443608","0.0-8.1-0.1-1.12","null","<span style='color:GreenYellow; font-size: 70px;'>正确! </span>","null","","","","","","","","","","","","","","","","","","","","","","","feedback_test",""
"","","","","","psychophysics","40","445152","0.0-8.1-0.1-0.13","543","","k","","","","","","","","","","","","","key","k","16.658489130434845","768","428","j","false","img/H_28.png","生人","freeprac_self","",""
"","","","","","html-keyboard-response","41","445462","0.0-8.1-0.1-1.13","null","<span style='color:red; font-size: 70px;'>错误! </span>","null","","","","","","","","","","","","","","","","","","","","","","","feedback_test",""
"","","","","","psychophysics","42","447183","0.0-8.1-0.1-0.14","715","","j","","","","","","","","","","","","","key","j","16.65761764705873","768","428","j","true","img/H_28.png","朋友","freeprac_self","",""
"","","","","","html-keyboard-response","43","447491","0.0-8.1-0.1-1.14","null","<span style='color:GreenYellow; font-size: 70px;'>正确! </span>","null","","","","","","","","","","","","","","","","","","","","","","","feedback_test",""
"","","","","","psychophysics","44","449327","0.0-8.1-0.1-0.15","834","","j","","","","","","","","","","","","","key","j","16.658183486238784","768","428","f","false","img/S_28.png","朋友","freeprac_self","",""
"","","","","","html-keyboard-response","45","449636","0.0-8.1-0.1-1.15","null","<span style='color:red; font-size: 70px;'>错误! </span>","null","","","","","","","","","","","","","","","","","","","","","","","feedback_test",""
"","","","","","psychophysics","46","452046","0.0-8.1-0.1-0.16","1407","","f","","","","","","","","","","","","","key","f","16.658597222222145","768","428","f","true","img/C_28.png","自我","freeprac_self","",""
"","","","","","html-keyboard-response","47","452348","0.0-8.1-0.1-1.16","null","<span style='color:GreenYellow; font-size: 70px;'>正确! </span>","null","","","","","","","","","","","","","","","","","","","","","","","feedback_test",""
"","","","","","psychophysics","48","454869","0.0-8.1-0.1-0.17","1517","","f","","","","","","","","","","","","","key","f","16.658673333333184","768","428","d","false","img/C_28.png","朋友","freeprac_self","",""
"","","","","","html-keyboard-response","49","455185","0.0-8.1-0.1-1.17","null","<span style='color:red; font-size: 70px;'>错误! </span>","null","","","","","","","","","","","","","","","","","","","","","","","feedback_test",""
"","","","","","psychophysics","50","457765","0.0-8.1-0.1-0.18","1578","","f","","","","","","","","","","","","","key","f","16.65831168831172","768","428","d","false","img/S_28.png","生人","freeprac_self","",""
"","","","","","html-keyboard-response","51","458069","0.0-8.1-0.1-1.18","null","<span style='color:red; font-size: 70px;'>错误! </span>","null","","","","","","","","","","","","","","","","","","","","","","","feedback_test",""
"","","","","","psychophysics","52","460094","0.0-8.1-0.1-0.19","1024","","k","","","","","","","","","","","","","key","k","16.657899999999792","768","428","k","true","img/H_28.png","自我","freeprac_self","",""
"","","","","","html-keyboard-response","53","460401","0.0-8.1-0.1-1.19","null","<span style='color:GreenYellow; font-size: 70px;'>正确! </span>","null","","","","","","","","","","","","","","","","","","","","","","","feedback_test",""
"","","","","","psychophysics","54","463197","0.0-8.1-0.1-0.20","1790","","f","","","","","","","","","","","","","key","f","16.658150602409794","768","428","d","false","img/C_28.png","朋友","freeprac_self","",""
"","","","","","html-keyboard-response","55","463508","0.0-8.1-0.1-1.20","null","<span style='color:red; font-size: 70px;'>错误! </span>","null","","","","","","","","","","","","","","","","","","","","","","","feedback_test",""
"","","","","","psychophysics","56","466344","0.0-8.1-0.1-0.21","1827","","d","","","","","","","","","","","","","key","d","17.381801242235852","768","428","f","false","img/C_28.png","生人","freeprac_self","",""
"","","","","","html-keyboard-response","57","466645","0.0-8.1-0.1-1.21","null","<span style='color:red; font-size: 70px;'>错误! </span>","null","","","","","","","","","","","","","","","","","","","","","","","feedback_test",""
"","","","","","psychophysics","58","468909","0.0-8.1-0.1-0.22","1259","","f","","","","","","","","","","","","","key","f","16.657666666666476","768","428","d","false","img/S_28.png","生人","freeprac_self","",""
"","","","","","html-keyboard-response","59","469224","0.0-8.1-0.1-1.22","null","<span style='color:red; font-size: 70px;'>错误! </span>","null","","","","","","","","","","","","","","","","","","","","","","","feedback_test",""
"","","","","","psychophysics","60","472445","0.0-8.1-0.1-0.23","2215","","d","","","","","","","","","","","","","key","d","16.658114583333372","768","428","f","false","img/S_28.png","自我","freeprac_self","",""
"","","","","","html-keyboard-response","61","472749","0.0-8.1-0.1-1.23","null","<span style='color:red; font-size: 70px;'>错误! </span>","null","","","","","","","","","","","","","","","","","","","","","","","feedback_test",""
"","","","","","html-keyboard-response","62","481086","0.0-8.1-1.1-0.1","8335","<style>.context{color:white; font-size: 35px; line-height:40px}</style>                              <div><p class='context'>您正确回答了33% 的试次。</p><p class='context'>您的平均反应时为976毫秒。</p>"," ","","","","","","","","","","","","","","","","","","","","","","","",""
"","","","","","instructions","63","505502","0.0-8.1-1.1-1.1","24414","","","","","","","","","","","","","","[{""page_index"":0,""viewing_time"":1222},{""page_index"":1,""viewing_time"":21392},{""page_index"":2,""viewing_time"":1800}]","","","","","","","","","","","",""
"","","","","","psychophysics","64","507437","0.0-8.2-0.2-0.24","926","","d","","","","","","","","","","","","","key","d","16.659060869565355","768","428","d","true","img/C_28.png","朋友","freeprac_self","",""
"","","","","","html-keyboard-response","65","507741","0.0-8.2-0.2-1.24","null","<span style='color:GreenYellow; font-size: 70px;'>正确! </span>","null","","","","","","","","","","","","","","","","","","","","","","","feedback_test",""
"","","","","","psychophysics","66","509293","0.0-8.2-0.2-0.25","550","","f","","","","","","","","","","","","","key","f","16.65803225806499","768","428","j","false","img/H_28.png","生人","freeprac_self","",""
"","","","","","html-keyboard-response","67","509600","0.0-8.2-0.2-1.25","null","<span style='color:red; font-size: 70px;'>错误! </span>","null","","","","","","","","","","","","","","","","","","","","","","","feedback_test",""
"","","","","","psychophysics","68","512757","0.0-8.2-0.2-0.26","2151","","d","","","","","","","","","","","","","key","d","16.65838297872347","768","428","d","true","img/S_28.png","生人","freeprac_self","",""
"","","","","","html-keyboard-response","69","513059","0.0-8.2-0.2-1.26","null","<span style='color:GreenYellow; font-size: 70px;'>正确! </span>","null","","","","","","","","","","","","","","","","","","","","","","","feedback_test",""
"","","","","","psychophysics","70","516357","0.0-8.2-0.2-0.27","2297","","f","","","","","","","","","","","","","key","f","16.658045685279234","768","428","f","true","img/C_28.png","生人","freeprac_self","",""
"","","","","","html-keyboard-response","71","516668","0.0-8.2-0.2-1.27","null","<span style='color:GreenYellow; font-size: 70px;'>正确! </span>","null","","","","","","","","","","","","","","","","","","","","","","","feedback_test",""
"","","","","","psychophysics","72","519942","0.0-8.2-0.2-0.28","2269","","f","","","","","","","","","","","","","key","f","16.65832142857122","768","428","f","true","img/C_28.png","自我","freeprac_self","",""
"","","","","","html-keyboard-response","73","520251","0.0-8.2-0.2-1.28","null","<span style='color:GreenYellow; font-size: 70px;'>正确! </span>","null","","","","","","","","","","","","","","","","","","","","","","","feedback_test",""
"","","","","","psychophysics","74","524245","0.0-8.2-0.2-0.29","2992","","f","","","","","","","","","","","","","key","f","16.65762343096194","768","428","f","true","img/S_28.png","朋友","freeprac_self","",""
"","","","","","html-keyboard-response","75","524559","0.0-8.2-0.2-1.29","null","<span style='color:GreenYellow; font-size: 70px;'>正确! </span>","null","","","","","","","","","","","","","","","","","","","","","","","feedback_test",""
"","","","","","psychophysics","76","529309","0.0-8.2-0.2-0.30","3747","","f","","","","","","","","","","","","","key","f","17.140847826086784","768","428","d","false","img/C_28.png","朋友","freeprac_self","",""
"","","","","","html-keyboard-response","77","529610","0.0-8.2-0.2-1.30","null","<span style='color:red; font-size: 70px;'>错误! </span>","null","","","","","","","","","","","","","","","","","","","","","","","feedback_test",""
"","","","","","psychophysics","78","531781","0.0-8.2-0.2-0.31","1164","","j","","","","","","","","","","","","","key","j","16.658488372092627","768","428","k","false","img/H_28.png","自我","freeprac_self","",""
"","","","","","html-keyboard-response","79","532098","0.0-8.2-0.2-1.31","null","<span style='color:red; font-size: 70px;'>错误! </span>","null","","","","","","","","","","","","","","","","","","","","","","","feedback_test",""
"","","","","","psychophysics","80","533765","0.0-8.2-0.2-0.32","654","","k","","","","","","","","","","","","","key","k","16.65930303030252","768","428","k","true","img/H_28.png","自我","freeprac_self","",""
"","","","","","html-keyboard-response","81","534076","0.0-8.2-0.2-1.32","null","<span style='color:GreenYellow; font-size: 70px;'>正确! </span>","null","","","","","","","","","","","","","","","","","","","","","","","feedback_test",""
"","","","","","psychophysics","82","535725","0.0-8.2-0.2-0.33","645","","k","","","","","","","","","","","","","key","k","16.659244897958292","768","428","j","false","img/H_28.png","朋友","freeprac_self","",""
"","","","","","html-keyboard-response","83","536040","0.0-8.2-0.2-1.33","null","<span style='color:red; font-size: 70px;'>错误! </span>","null","","","","","","","","","","","","","","","","","","","","","","","feedback_test",""
"","","","","","psychophysics","84","539120","0.0-8.2-0.2-0.34","2077","","f","","","","","","","","","","","","","key","f","16.658956521739245","768","428","d","false","img/S_28.png","生人","freeprac_self","",""
"","","","","","html-keyboard-response","85","539431","0.0-8.2-0.2-1.34","null","<span style='color:red; font-size: 70px;'>错误! </span>","null","","","","","","","","","","","","","","","","","","","","","","","feedback_test",""
"","","","","","psychophysics","86","542607","0.0-8.2-0.2-0.35","2163","","f","","","","","","","","","","","","","key","f","16.658232804233204","768","428","f","true","img/S_28.png","自我","freeprac_self","",""
"","","","","","html-keyboard-response","87","542922","0.0-8.2-0.2-1.35","null","<span style='color:GreenYellow; font-size: 70px;'>正确! </span>","null","","","","","","","","","","","","","","","","","","","","","","","feedback_test",""
"","","","","","html-keyboard-response","88","549661","0.0-8.2-1.2-0.2","6738","<style>.context{color:white; font-size: 35px; line-height:40px}</style>                              <div><p class='context'>您正确回答了58% 的试次。</p><p class='context'>您的平均反应时为1922毫秒。</p>"," ","","","","","","","","","","","","","","","","","","","","","","","",""
"","","","","","instructions","89","576549","0.0-8.2-1.2-1.2","26887","","","","","","","","","","","","","","[{""page_index"":0,""viewing_time"":943},{""page_index"":1,""viewing_time"":22520},{""page_index"":2,""viewing_time"":3424}]","","","","","","","","","","","",""
"","","","","","psychophysics","90","580448","0.0-8.3-0.3-0.36","2890","","d","","","","","","","","","","","","","key","d","16.658145922746773","768","428","d","true","img/S_28.png","生人","freeprac_self","",""
"","","","","","html-keyboard-response","91","580754","0.0-8.3-0.3-1.36","null","<span style='color:GreenYellow; font-size: 70px;'>正确! </span>","null","","","","","","","","","","","","","","","","","","","","","","","feedback_test",""
"","","","","","psychophysics","92","582917","0.0-8.3-0.3-0.37","1161","","d","","","","","","","","","","","","","key","d","16.658480620155174","768","428","d","true","img/C_28.png","朋友","freeprac_self","",""
"","","","","","html-keyboard-response","93","583232","0.0-8.3-0.3-1.37","null","<span style='color:GreenYellow; font-size: 70px;'>正确! </span>","null","","","","","","","","","","","","","","","","","","","","","","","feedback_test",""
"","","","","","psychophysics","94","585453","0.0-8.3-0.3-0.38","1220","","f","","","","","","","","","","","","","key","f","16.65731818181865","768","428","f","true","img/S_28.png","朋友","freeprac_self","",""
"","","","","","html-keyboard-response","95","585762","0.0-8.3-0.3-1.38","null","<span style='color:GreenYellow; font-size: 70px;'>正确! </span>","null","","","","","","","","","","","","","","","","","","","","","","","feedback_test",""
"","","","","","psychophysics","96","588661","0.0-8.3-0.3-0.39","1896","","k","","","","","","","","","","","","","key","k","16.65745086705237","768","428","j","false","img/H_28.png","生人","freeprac_self","",""
"","","","","","html-keyboard-response","97","588977","0.0-8.3-0.3-1.39","null","<span style='color:red; font-size: 70px;'>错误! </span>","null","","","","","","","","","","","","","","","","","","","","","","","feedback_test",""
"","","","","","psychophysics","98","591861","0.0-8.3-0.3-0.40","1882","","j","","","","","","","","","","","","","key","j","16.657819767441968","768","428","k","false","img/H_28.png","自我","freeprac_self","",""
"","","","","","html-keyboard-response","99","592164","0.0-8.3-0.3-1.40","null","<span style='color:red; font-size: 70px;'>错误! </span>","null","","","","","","","","","","","","","","","","","","","","","","","feedback_test",""
"","","","","","psychophysics","100","594709","0.0-8.3-0.3-0.41","1543","","d","","","","","","","","","","","","","key","d","16.657815789473762","768","428","d","true","img/C_28.png","朋友","freeprac_self","",""
"","","","","","html-keyboard-response","101","595012","0.0-8.3-0.3-1.41","null","<span style='color:GreenYellow; font-size: 70px;'>正确! </span>","null","","","","","","","","","","","","","","","","","","","","","","","feedback_test",""
"","","","","","psychophysics","102","600472","0.0-8.3-0.3-0.42","4454","","f","","","","","","","","","","","","","key","f","16.65837920489308","768","428","k","false","img/H_28.png","自我","freeprac_self","",""
"","","","","","html-keyboard-response","103","600781","0.0-8.3-0.3-1.42","null","<span style='color:red; font-size: 70px;'>错误! </span>","null","","","","","","","","","","","","","","","","","","","","","","","feedback_test",""
"","","","","","psychophysics","104","605151","0.0-8.3-0.3-0.43","3365","","d","","","","","","","","","","","","","key","d","16.658226053639925","768","428","d","true","img/S_28.png","生人","freeprac_self","",""
"","","","","","html-keyboard-response","105","605466","0.0-8.3-0.3-1.43","null","<span style='color:GreenYellow; font-size: 70px;'>正确! </span>","null","","","","","","","","","","","","","","","","","","","","","","","feedback_test",""
"","","","","","psychophysics","106","608885","0.0-8.3-0.3-0.44","2415","","j","","","","","","","","","","","","","key","j","16.65813235294099","768","428","f","false","img/C_28.png","自我","freeprac_self","",""
"","","","","","html-keyboard-response","107","609200","0.0-8.3-0.3-1.44","null","<span style='color:red; font-size: 70px;'>错误! </span>","null","","","","","","","","","","","","","","","","","","","","","","","feedback_test",""
"","","","","","psychophysics","108","613117","0.0-8.3-0.3-0.45","2909","","j","","","","","","","","","","","","","key","j","16.658329059829057","768","428","f","false","img/S_28.png","自我","freeprac_self","",""
"","","","","","html-keyboard-response","109","613426","0.0-8.3-0.3-1.45","null","<span style='color:red; font-size: 70px;'>错误! </span>","null","","","","","","","","","","","","","","","","","","","","","","","feedback_test",""
"","","","","","psychophysics","110","617534","0.0-8.3-0.3-0.46","3104","","f","","","","","","","","","","","","","key","f","16.65798775510226","768","428","j","false","img/H_28.png","朋友","freeprac_self","",""
"","","","","","html-keyboard-response","111","617844","0.0-8.3-0.3-1.46","null","<span style='color:red; font-size: 70px;'>错误! </span>","null","","","","","","","","","","","","","","","","","","","","","","","feedback_test",""
"","","","","","psychophysics","112","624280","0.0-8.3-0.3-0.47","5426","","f","","","","","","","","","","","","","key","f","16.658212987012714","768","428","f","true","img/C_28.png","生人","freeprac_self","",""
"","","","","","html-keyboard-response","113","624586","0.0-8.3-0.3-1.47","null","<span style='color:GreenYellow; font-size: 70px;'>正确! </span>","null","","","","","","","","","","","","","","","","","","","","","","","feedback_test",""
"","","","","","html-keyboard-response","114","632757","0.0-8.3-1.3-0.3","8170","<style>.context{color:white; font-size: 35px; line-height:40px}</style>                              <div><p class='context'>您正确回答了50% 的试次。</p><p class='context'>您的平均反应时为2601毫秒。</p>"," ","","","","","","","","","","","","","","","","","","","","","","","",""
"","","","","","instructions","115","647806","0.0-8.3-1.3-1.3","15047","","","","","","","","","","","","","","[{""page_index"":0,""viewing_time"":950},{""page_index"":1,""viewing_time"":12576},{""page_index"":2,""viewing_time"":1521}]","","","","","","","","","","","",""
"","","","","","psychophysics","116","649965","0.0-8.4-0.4-0.48","1154","","d","","","","","","","","","","","","","key","d","16.65851562500029","768","428","d","true","img/C_28.png","朋友","freeprac_self","",""
"","","","","","html-keyboard-response","117","650280","0.0-8.4-0.4-1.48","null","<span style='color:GreenYellow; font-size: 70px;'>正确! </span>","null","","","","","","","","","","","","","","","","","","","","","","","feedback_test",""
"","","","","","psychophysics","118","652478","0.0-8.4-0.4-0.49","1191","","f","","","","","","","","","","","","","key","f","16.658053435114184","768","428","j","false","img/H_28.png","朋友","freeprac_self","",""
"","","","","","html-keyboard-response","119","652794","0.0-8.4-0.4-1.49","null","<span style='color:red; font-size: 70px;'>错误! </span>","null","","","","","","","","","","","","","","","","","","","","","","","feedback_test",""
"","","","","","psychophysics","120","654733","0.0-8.4-0.4-0.50","935","","d","","","","","","","","","","","","","key","d","16.658582608696356","768","428","d","true","img/C_28.png","朋友","freeprac_self","",""
"","","","","","html-keyboard-response","121","655041","0.0-8.4-0.4-1.50","null","<span style='color:GreenYellow; font-size: 70px;'>正确! </span>","null","","","","","","","","","","","","","","","","","","","","","","","feedback_test",""
"","","","","","psychophysics","122","658461","0.0-8.4-0.4-0.51","2418","","f","","","","","","","","","","","","","key","f","16.658308823529616","768","428","f","true","img/C_28.png","生人","freeprac_self","",""
"","","","","","html-keyboard-response","123","658768","0.0-8.4-0.4-1.51","null","<span style='color:GreenYellow; font-size: 70px;'>正确! </span>","null","","","","","","","","","","","","","","","","","","","","","","","feedback_test",""
"","","","","","psychophysics","124","664141","0.0-8.4-0.4-0.52","4360","","f","","","","","","","","","","","","","key","f","16.658080996884934","768","428","f","true","img/S_28.png","自我","freeprac_self","",""
"","","","","","html-keyboard-response","125","664447","0.0-8.4-0.4-1.52","null","<span style='color:GreenYellow; font-size: 70px;'>正确! </span>","null","","","","","","","","","","","","","","","","","","","","","","","feedback_test",""
"","","","","","psychophysics","126","667773","0.0-8.4-0.4-0.53","2322","","d","","","","","","","","","","","","","key","d","16.6581363636363","768","428","d","true","img/S_28.png","生人","freeprac_self","",""
"","","","","","html-keyboard-response","127","668087","0.0-8.4-0.4-1.53","null","<span style='color:GreenYellow; font-size: 70px;'>正确! </span>","null","","","","","","","","","","","","","","","","","","","","","","","feedback_test",""
"","","","","","psychophysics","128","670629","0.0-8.4-0.4-0.54","1538","","k","","","","","","","","","","","","","key","k","16.658328947368364","768","428","k","true","img/H_28.png","自我","freeprac_self","",""
"","","","","","html-keyboard-response","129","670943","0.0-8.4-0.4-1.54","null","<span style='color:GreenYellow; font-size: 70px;'>正确! </span>","null","","","","","","","","","","","","","","","","","","","","","","","feedback_test",""
"","","","","","psychophysics","130","673478","0.0-8.4-0.4-0.55","1519","","j","","","","","","","","","","","","","key","j","16.65860927152287","768","428","f","false","img/C_28.png","自我","freeprac_self","",""
"","","","","","html-keyboard-response","131","673785","0.0-8.4-0.4-1.55","null","<span style='color:red; font-size: 70px;'>错误! </span>","null","","","","","","","","","","","","","","","","","","","","","","","feedback_test",""
"","","","","","psychophysics","132","677401","0.0-8.4-0.4-0.56","2612","","f","","","","","","","","","","","","","key","f","16.657231481481208","768","428","j","false","img/H_28.png","生人","freeprac_self","",""
"","","","","","html-keyboard-response","133","677707","0.0-8.4-0.4-1.56","null","<span style='color:red; font-size: 70px;'>错误! </span>","null","","","","","","","","","","","","","","","","","","","","","","","feedback_test",""
"","","","","","psychophysics","134","680965","0.0-8.4-0.4-0.57","2252","","d","","","","","","","","","","","","","key","d","16.65808247422713","768","428","d","true","img/S_28.png","生人","freeprac_self","",""
"","","","","","html-keyboard-response","135","681280","0.0-8.4-0.4-1.57","null","<span style='color:GreenYellow; font-size: 70px;'>正确! </span>","null","","","","","","","","","","","","","","","","","","","","","","","feedback_test",""
"","","","","","psychophysics","136","683581","0.0-8.4-0.4-0.58","1300","","k","","","","","","","","","","","","","key","k","16.657948905109244","768","428","k","true","img/H_28.png","自我","freeprac_self","",""
"","","","","","html-keyboard-response","137","683884","0.0-8.4-0.4-1.58","null","<span style='color:GreenYellow; font-size: 70px;'>正确! </span>","null","","","","","","","","","","","","","","","","","","","","","","","feedback_test",""
"","","","","","psychophysics","138","686381","0.0-8.4-0.4-0.59","1494","","f","","","","","","","","","","","","","key","f","16.658442953020185","768","428","f","true","img/S_28.png","朋友","freeprac_self","",""
"","","","","","html-keyboard-response","139","686694","0.0-8.4-0.4-1.59","null","<span style='color:GreenYellow; font-size: 70px;'>正确! </span>","null","","","","","","","","","","","","","","","","","","","","","","","feedback_test",""
"","","","","","html-keyboard-response","140","698589","0.0-9.0","11894","[""<style>.context{color:white; font-size: 35px; line-height:40px}</style>              <div><p class='context'>您正确回答了75% 的试次。</p><p class='context'>您的平均反应时为1975毫秒。</p><p class='context'>恭喜您完成这一阶段的练习。按任意键进入<span style='color: yellow;'>重点关注图形为“朋友”</span>的练习。</p></div><p class='footer' style='font-size:35px; line-height:30px;'>任务要求：\n              <p class='footer' style='font-size:35px; line-height:35px;'>对于与“朋友”对应的图形：如果 匹配 ，请按 <span style=\""color: lightgreen;\"">k键</span></p><p class='footer' style='font-size:35px'>如果 不匹配 ，请按<span style=\""color: lightgreen;\"">j键</p></span>\n              <p class='footer' style='font-size:35px; line-height:35px;'>对于非“朋友”对应的图形：如果 匹配 ，请按 <span style=\""color: lightgreen;\"">d键</span></p><p class='footer' style='font-size:35px'>如果 不匹配 ，请按<span style=\""color: lightgreen;\"">f键</p></span>\n              <p class='footer' style='font-size:22px; line-height:25px;'>请在实验过程中将您的<span style=\""color: lightgreen;\"">食指和中指</span>放在电脑键盘的相应键位上进行按键。</p></span>""]"," ","","","","","","","","","","","","","","","","","","","","","","","",""
"","","","","","psychophysics","141","701414","0.0-10.0-0.0-0.0","1817","","f","","","","","","","","","","","","","key","f","16.65811242603562","768","428","d","false","img/S_28.png","生人","freeprac_friend","",""
"","","","","","html-keyboard-response","142","701730","0.0-10.0-0.0-1.0","null","<span style='color:red; font-size: 70px;'>错误! </span>","null","","","","","","","","","","","","","","","","","","","","","","","feedback_test",""
"","","","","","psychophysics","143","704925","0.0-10.0-0.0-0.1","2193","","k","","","","","","","","","","","","","key","k","16.657978947368132","768","428","k","true","img/C_28.png","朋友","freeprac_friend","",""
"","","","","","html-keyboard-response","144","705235","0.0-10.0-0.0-1.1","null","<span style='color:GreenYellow; font-size: 70px;'>正确! </span>","null","","","","","","","","","","","","","","","","","","","","","","","feedback_test",""
"","","","","","psychophysics","145","708201","0.0-10.0-0.0-0.2","1959","","d","","","","","","","","","","","","","key","d","16.657977401129614","768","428","d","true","img/H_28.png","自我","freeprac_friend","",""
"","","","","","html-keyboard-response","146","708511","0.0-10.0-0.0-1.2","null","<span style='color:GreenYellow; font-size: 70px;'>正确! </span>","null","","","","","","","","","","","","","","","","","","","","","","","feedback_test",""
"","","","","","psychophysics","147","712221","0.0-10.0-0.0-0.3","2697","","f","","","","","","","","","","","","","key","f","16.658162895927724","768","428","f","true","img/S_28.png","朋友","freeprac_friend","",""
"","","","","","html-keyboard-response","148","712529","0.0-10.0-0.0-1.3","null","<span style='color:GreenYellow; font-size: 70px;'>正确! </span>","null","","","","","","","","","","","","","","","","","","","","","","","feedback_test",""
"","","","","","psychophysics","149","716534","0.0-10.0-0.0-0.4","3003","","f","","","","","","","","","","","","","key","f","16.657966527196475","768","428","f","true","img/S_28.png","自我","freeprac_friend","",""
"","","","","","html-keyboard-response","150","716842","0.0-10.0-0.0-1.4","null","<span style='color:GreenYellow; font-size: 70px;'>正确! </span>","null","","","","","","","","","","","","","","","","","","","","","","","feedback_test",""
"","","","","","psychophysics","151","718965","0.0-10.0-0.0-0.5","1117","","k","","","","","","","","","","","","","key","k","16.657777777777813","768","428","k","true","img/C_28.png","朋友","freeprac_friend","",""
"","","","","","html-keyboard-response","152","719273","0.0-10.0-0.0-1.5","null","<span style='color:GreenYellow; font-size: 70px;'>正确! </span>","null","","","","","","","","","","","","","","","","","","","","","","","feedback_test",""
"","","","","","psychophysics","153","722093","0.0-10.0-0.0-0.6","1808","","j","","","","","","","","","","","","","key","j","16.65854166666672","768","428","j","true","img/C_28.png","自我","freeprac_friend","",""
"","","","","","html-keyboard-response","154","722406","0.0-10.0-0.0-1.6","null","<span style='color:GreenYellow; font-size: 70px;'>正确! </span>","null","","","","","","","","","","","","","","","","","","","","","","","feedback_test",""
"","","","","","psychophysics","155","725597","0.0-10.0-0.0-0.7","2180","","f","","","","","","","","","","","","","key","f","16.658347368421108","768","428","f","true","img/H_28.png","生人","freeprac_friend","",""
"","","","","","html-keyboard-response","156","725902","0.0-10.0-0.0-1.7","null","<span style='color:GreenYellow; font-size: 70px;'>正确! </span>","null","","","","","","","","","","","","","","","","","","","","","","","feedback_test",""
"","","","","","psychophysics","157","728773","0.0-10.0-0.0-0.8","1869","","j","","","","","","","","","","","","","key","j","16.658029239766343","768","428","j","true","img/C_28.png","生人","freeprac_friend","",""
"","","","","","html-keyboard-response","158","729086","0.0-10.0-0.0-1.8","null","<span style='color:GreenYellow; font-size: 70px;'>正确! </span>","null","","","","","","","","","","","","","","","","","","","","","","","feedback_test",""
"","","","","","psychophysics","159","731551","0.0-10.0-0.0-0.9","1454","","f","","","","","","","","","","","","","key","f","16.657823129252176","768","428","d","false","img/H_28.png","自我","freeprac_friend","",""
"","","","","","html-keyboard-response","160","731866","0.0-10.0-0.0-1.9","null","<span style='color:red; font-size: 70px;'>错误! </span>","null","","","","","","","","","","","","","","","","","","","","","","","feedback_test",""
"","","","","","psychophysics","161","735877","0.0-10.0-0.0-0.10","3007","","d","","","","","","","","","","","","","key","d","16.65812500000029","768","428","d","true","img/S_28.png","生人","freeprac_friend","",""
"","","","","","html-keyboard-response","162","736192","0.0-10.0-0.0-1.10","null","<span style='color:GreenYellow; font-size: 70px;'>正确! </span>","null","","","","","","","","","","","","","","","","","","","","","","","feedback_test",""
"","","","","","psychophysics","163","739925","0.0-10.0-0.0-0.11","2732","","f","","","","","","","","","","","","","key","f","16.656076233183565","768","428","f","true","img/H_28.png","朋友","freeprac_friend","",""
"","","","","","html-keyboard-response","164","740236","0.0-10.0-0.0-1.11","null","<span style='color:GreenYellow; font-size: 70px;'>正确! </span>","null","","","","","","","","","","","","","","","","","","","","","","","feedback_test",""
"","","","","","html-keyboard-response","165","746846","0.0-11.0","6609","[""<style>.context{color:white; font-size: 35px; line-height:40px}</style>                  <div><p class='context'>您正确回答了83% 的试次。</p><p class='context'>您的平均反应时为2257毫秒。</p><p class='context'>恭喜您完成这一阶段的练习。按任意键进入<span style='color: yellow;'>重点关注图形为“生人”</span>的练习。</p></div><p class='footer' style='font-size:35px; line-height:30px;'>任务要求：\n                  <p class='footer' style='font-size:35px; line-height:35px;'>对与“生人”对应的图形，如果 匹配 ，请按 <span style=\""color: lightgreen;\"">k键</span></p><p class='footer' style='font-size:35px'>如果 不匹配 ，请按<span style=\""color: lightgreen;\"">j键</p></span>\n                  <p class='footer' style='font-size:35px; line-height:35px;'>对非“生人”对应的图形，如果 匹配 ，请按 <span style=\""color: lightgreen;\"">d键</span></p><p class='footer' style='font-size:35px'>如果 不匹配 ，请按<span style=\""color: lightgreen;\"">f键</p></span>\n                  <p class='footer' style='font-size:22px; line-height:25px;'>请在实验过程中将您的<span style=\""color: lightgreen;\"">食指和中指</span>放在电脑键盘的相应键位上进行按键。</p></span>""]"," ","","","","","","","","","","","","","","","","","","","","","","","",""
"","","","","","psychophysics","166","750349","0.0-12.0-0.0-0.0","2493","","f","","","","","","","","","","","","","key","f","16.657641148325567","768","428","f","true","img/H_28.png","生人","freeprac_stranger","",""
"","","","","","html-keyboard-response","167","750657","0.0-12.0-0.0-1.0","null","<span style='color:GreenYellow; font-size: 70px;'>正确! </span>","null","","","","","","","","","","","","","","","","","","","","","","","feedback_test",""
"","","","","","psychophysics","168","752974","0.0-12.0-0.0-0.1","1305","","f","","","","","","","","","","","","","key","f","16.65743478260887","768","428","j","false","img/S_28.png","朋友","freeprac_stranger","",""
"","","","","","html-keyboard-response","169","753277","0.0-12.0-0.0-1.1","null","<span style='color:red; font-size: 70px;'>错误! </span>","null","","","","","","","","","","","","","","","","","","","","","","","feedback_test",""
"","","","","","psychophysics","170","756552","0.0-12.0-0.0-0.2","2274","","f","","","","","","","","","","","","","key","f","16.657336734694415","768","428","d","false","img/H_28.png","自我","freeprac_stranger","",""
"","","","","","html-keyboard-response","171","756863","0.0-12.0-0.0-1.2","null","<span style='color:red; font-size: 70px;'>错误! </span>","null","","","","","","","","","","","","","","","","","","","","","","","feedback_test",""
"","","","","","psychophysics","172","758597","0.0-12.0-0.0-0.3","731","","d","","","","","","","","","","","","","key","d","16.658475728155096","768","428","d","true","img/H_28.png","自我","freeprac_stranger","",""
"","","","","","html-keyboard-response","173","758912","0.0-12.0-0.0-1.3","null","<span style='color:GreenYellow; font-size: 70px;'>正确! </span>","null","","","","","","","","","","","","","","","","","","","","","","","feedback_test",""
"","","","","","psychophysics","174","761677","0.0-12.0-0.0-0.4","1762","","f","","","","","","","","","","","","","key","f","16.657551515151773","768","428","f","true","img/H_28.png","朋友","freeprac_stranger","",""
"","","","","","html-keyboard-response","175","761981","0.0-12.0-0.0-1.4","null","<span style='color:GreenYellow; font-size: 70px;'>正确! </span>","null","","","","","","","","","","","","","","","","","","","","","","","feedback_test",""
"","","","","","psychophysics","176","764120","0.0-12.0-0.0-0.5","1132","","k","","","","","","","","","","","","","key","k","16.65862204724424","768","428","k","true","img/S_28.png","生人","freeprac_stranger","",""
"","","","","","html-keyboard-response","177","764429","0.0-12.0-0.0-1.5","null","<span style='color:GreenYellow; font-size: 70px;'>正确! </span>","null","","","","","","","","","","","","","","","","","","","","","","","feedback_test",""
"","","","","","psychophysics","178","767325","0.0-12.0-0.0-0.6","1889","","d","","","","","","","","","","","","","key","d","16.65863953488351","768","428","d","true","img/C_28.png","朋友","freeprac_stranger","",""
"","","","","","html-keyboard-response","179","767638","0.0-12.0-0.0-1.6","null","<span style='color:GreenYellow; font-size: 70px;'>正确! </span>","null","","","","","","","","","","","","","","","","","","","","","","","feedback_test",""
"","","","","","psychophysics","180","769284","0.0-12.0-0.0-0.7","642","","d","","","","","","","","","","","","","key","d","16.65800000000056","768","428","d","true","img/C_28.png","朋友","freeprac_stranger","",""
"","","","","","html-keyboard-response","181","769599","0.0-12.0-0.0-1.7","null","<span style='color:GreenYellow; font-size: 70px;'>正确! </span>","null","","","","","","","","","","","","","","","","","","","","","","","feedback_test",""
"","","","","","psychophysics","182","772414","0.0-12.0-0.0-0.8","1805","","f","","","","","","","","","","","","","key","f","16.658119047619124","768","428","f","true","img/C_28.png","生人","freeprac_stranger","",""
"","","","","","html-keyboard-response","183","772730","0.0-12.0-0.0-1.8","null","<span style='color:GreenYellow; font-size: 70px;'>正确! </span>","null","","","","","","","","","","","","","","","","","","","","","","","feedback_test",""
"","","","","","psychophysics","184","774924","0.0-12.0-0.0-0.9","1191","","k","","","","","","","","","","","","","key","k","16.658801526717223","768","428","k","true","img/S_28.png","生人","freeprac_stranger","",""
"","","","","","html-keyboard-response","185","775235","0.0-12.0-0.0-1.9","null","<span style='color:GreenYellow; font-size: 70px;'>正确! </span>","null","","","","","","","","","","","","","","","","","","","","","","","feedback_test",""
"","","","","","psychophysics","186","777757","0.0-12.0-0.0-0.10","1516","","j","","","","","","","","","","","","","key","j","16.65798013245021","768","428","j","true","img/S_28.png","自我","freeprac_stranger","",""
"","","","","","html-keyboard-response","187","778064","0.0-12.0-0.0-1.10","null","<span style='color:GreenYellow; font-size: 70px;'>正确! </span>","null","","","","","","","","","","","","","","","","","","","","","","","feedback_test",""
"","","","","","psychophysics","188","780911","0.0-12.0-0.0-0.11","1844","","f","","","","","","","","","","","","","key","f","16.65799999999992","768","428","f","true","img/C_28.png","自我","freeprac_stranger","",""
"","","","","","html-keyboard-response","189","781216","0.0-12.0-0.0-1.11","null","<span style='color:GreenYellow; font-size: 70px;'>正确! </span>","null","","","","","","","","","","","","","","","","","","","","","","","feedback_test",""
"","","","","","instructions","190","793110","0.0-13.0","11892","","","","","","","","","","","","","","[{""page_index"":0,""viewing_time"":11892}]","","","","","","","","","","","",""
"","","","","","psychophysics","191","794997","0.0-14.0-0.0-0.0","883","","k","","","","","","","","","","","","","key","k","16.658637168141397","768","428","f","false","img/S_28.png","自我","prac_self","","生人"
"","","","","","html-keyboard-response","192","795306","0.0-14.0-0.0-1.0","null","<span style='color:red; font-size: 70px;'>错误! </span>","null","","","","","","","","","","","","","","","","","","","","","","","feedback_test",""
"","","","","","psychophysics","193","797398","0.0-14.0-0.0-0.1","1091","","k","","","","","","","","","","","","","key","k","16.656103999999353","768","428","k","true","img/H_28.png","自我","prac_self","","自我"
"","","","","","html-keyboard-response","194","797706","0.0-14.0-0.0-1.1","null","<span style='color:GreenYellow; font-size: 70px;'>正确! </span>","null","","","","","","","","","","","","","","","","","","","","","","","feedback_test",""
"","","","","","psychophysics","195","800211","0.0-14.0-0.0-0.2","null","","null","","","","","","","","","","","","","key","null","16.658281879194842","768","428","d","false","img/C_28.png","朋友","prac_self","","朋友"
"","","","","","html-keyboard-response","196","800517","0.0-14.0-0.0-1.2","null","<span class='add_' style='color:yellow; font-size: 70px;'> 太慢! </span>","null","","","","","","","","","","","","","","","","","","","","","","","feedback_test",""
"","","","","","psychophysics","197","802501","0.0-14.0-0.0-0.3","974","","f","","","","","","","","","","","","","key","f","16.658745762711526","768","428","j","false","img/H_28.png","生人","prac_self","","自我"
"","","","","","html-keyboard-response","198","802812","0.0-14.0-0.0-1.3","null","<span style='color:red; font-size: 70px;'>错误! </span>","null","","","","","","","","","","","","","","","","","","","","","","","feedback_test",""
"","","","","","psychophysics","199","804815","0.0-14.0-0.0-0.4","997","","d","","","","","","","","","","","","","key","d","16.65780672268891","768","428","d","true","img/C_28.png","朋友","prac_self","","朋友"
"","","","","","html-keyboard-response","200","805125","0.0-14.0-0.0-1.4","null","<span style='color:GreenYellow; font-size: 70px;'>正确! </span>","null","","","","","","","","","","","","","","","","","","","","","","","feedback_test",""
"","","","","","psychophysics","201","807032","0.0-14.0-0.0-0.5","902","","k","","","","","","","","","","","","","key","k","16.65958407079694","768","428","k","true","img/H_28.png","自我","prac_self","","自我"
"","","","","","html-keyboard-response","202","807338","0.0-14.0-0.0-1.5","null","<span style='color:GreenYellow; font-size: 70px;'>正确! </span>","null","","","","","","","","","","","","","","","","","","","","","","","feedback_test",""
"","","","","","psychophysics","203","809436","0.0-14.0-0.0-0.6","1097","","f","","","","","","","","","","","","","key","f","16.65816800000053","768","428","j","false","img/H_28.png","朋友","prac_self","","自我"
"","","","","","html-keyboard-response","204","809748","0.0-14.0-0.0-1.6","null","<span style='color:red; font-size: 70px;'>错误! </span>","null","","","","","","","","","","","","","","","","","","","","","","","feedback_test",""
"","","","","","psychophysics","205","811926","0.0-14.0-0.0-0.7","1172","","f","","","","","","","","","","","","","key","f","16.65858461538491","768","428","f","true","img/C_28.png","自我","prac_self","","朋友"
"","","","","","html-keyboard-response","206","812234","0.0-14.0-0.0-1.7","null","<span style='color:GreenYellow; font-size: 70px;'>正确! </span>","null","","","","","","","","","","","","","","","","","","","","","","","feedback_test",""
"","","","","","psychophysics","207","814736","0.0-14.0-0.0-0.8","null","","null","","","","","","","","","","","","","key","null","16.658382550335094","768","428","f","false","img/S_28.png","朋友","prac_self","","生人"
"","","","","","html-keyboard-response","208","815046","0.0-14.0-0.0-1.8","null","<span class='add_' style='color:yellow; font-size: 70px;'> 太慢! </span>","null","","","","","","","","","","","","","","","","","","","","","","","feedback_test",""
"","","","","","psychophysics","209","816863","0.0-14.0-0.0-0.9","810","","f","","","","","","","","","","","","","key","f","16.657462962963447","768","428","d","false","img/S_28.png","生人","prac_self","","生人"
"","","","","","html-keyboard-response","210","817175","0.0-14.0-0.0-1.9","null","<span style='color:red; font-size: 70px;'>错误! </span>","null","","","","","","","","","","","","","","","","","","","","","","","feedback_test",""
"","","","","","psychophysics","211","819054","0.0-14.0-0.0-0.10","869","","d","","","","","","","","","","","","","key","d","16.65831249999922","768","428","d","true","img/S_28.png","生人","prac_self","","生人"
"","","","","","html-keyboard-response","212","819362","0.0-14.0-0.0-1.10","null","<span style='color:GreenYellow; font-size: 70px;'>正确! </span>","null","","","","","","","","","","","","","","","","","","","","","","","feedback_test",""
"","","","","","psychophysics","213","821164","0.0-14.0-0.0-0.11","799","","f","","","","","","","","","","","","","key","f","16.65771962616758","768","428","f","true","img/C_28.png","生人","prac_self","","朋友"
"","","","","","html-keyboard-response","214","821467","0.0-14.0-0.0-1.11","null","<span style='color:GreenYellow; font-size: 70px;'>正确! </span>","null","","","","","","","","","","","","","","","","","","","","","","","feedback_test",""
"","","","","","psychophysics","215","823903","0.0-14.0-0.0-0.12","1431","","f","","","","","","","","","","","","","key","f","16.65806896551753","768","428","f","true","img/S_28.png","自我","prac_self","","生人"
"","","","","","html-keyboard-response","216","824220","0.0-14.0-0.0-1.12","null","<span style='color:GreenYellow; font-size: 70px;'>正确! </span>","null","","","","","","","","","","","","","","","","","","","","","","","feedback_test",""
"","","","","","psychophysics","217","825733","0.0-14.0-0.0-0.13","502","","f","","","","","","","","","","","","","key","f","16.66015555555544","768","428","d","false","img/S_28.png","生人","prac_self","","生人"
"","","","","","html-keyboard-response","218","826041","0.0-14.0-0.0-1.13","null","<span style='color:red; font-size: 70px;'>错误! </span>","null","","","","","","","","","","","","","","","","","","","","","","","feedback_test",""
"","","","","","psychophysics","219","827943","0.0-14.0-0.0-0.14","900","","k","","","","","","","","","","","","","key","k","16.657212389379623","768","428","k","true","img/H_28.png","自我","prac_self","","自我"
"","","","","","html-keyboard-response","220","828256","0.0-14.0-0.0-1.14","null","<span style='color:GreenYellow; font-size: 70px;'>正确! </span>","null","","","","","","","","","","","","","","","","","","","","","","","feedback_test",""
"","","","","","psychophysics","221","830750","0.0-14.0-0.0-0.15","1489","","d","","","","","","","","","","","","","key","d","16.657523489933016","768","428","d","true","img/C_28.png","朋友","prac_self","","朋友"
"","","","","","html-keyboard-response","222","831054","0.0-14.0-0.0-1.15","null","<span style='color:GreenYellow; font-size: 70px;'>正确! </span>","null","","","","","","","","","","","","","","","","","","","","","","","feedback_test",""
"","","","","","psychophysics","223","832925","0.0-14.0-0.0-0.16","864","","f","","","","","","","","","","","","","key","f","16.658648648648523","768","428","f","true","img/C_28.png","生人","prac_self","","朋友"
"","","","","","html-keyboard-response","224","833233","0.0-14.0-0.0-1.16","null","<span style='color:GreenYellow; font-size: 70px;'>正确! </span>","null","","","","","","","","","","","","","","","","","","","","","","","feedback_test",""
"","","","","","psychophysics","225","835735","0.0-14.0-0.0-0.17","1497","","f","","","","","","","","","","","","","key","f","16.65851677852314","768","428","f","true","img/C_28.png","自我","prac_self","","朋友"
"","","","","","html-keyboard-response","226","836037","0.0-14.0-0.0-1.17","null","<span style='color:GreenYellow; font-size: 70px;'>正确! </span>","null","","","","","","","","","","","","","","","","","","","","","","","feedback_test",""
"","","","","","psychophysics","227","837877","0.0-14.0-0.0-0.18","834","","f","","","","","","","","","","","","","key","f","16.65820000000002","768","428","d","false","img/S_28.png","生人","prac_self","","生人"
"","","","","","html-keyboard-response","228","838181","0.0-14.0-0.0-1.18","null","<span style='color:red; font-size: 70px;'>错误! </span>","null","","","","","","","","","","","","","","","","","","","","","","","feedback_test",""
"","","","","","psychophysics","229","840453","0.0-14.0-0.0-0.19","1267","","f","","","","","","","","","","","","","key","f","16.65813333333332","768","428","f","true","img/S_28.png","朋友","prac_self","","生人"
"","","","","","html-keyboard-response","230","840763","0.0-14.0-0.0-1.19","null","<span style='color:GreenYellow; font-size: 70px;'>正确! </span>","null","","","","","","","","","","","","","","","","","","","","","","","feedback_test",""
"","","","","","psychophysics","231","842413","0.0-14.0-0.0-0.20","641","","k","","","","","","","","","","","","","key","k","16.65829591836652","768","428","k","true","img/H_28.png","自我","prac_self","","自我"
"","","","","","html-keyboard-response","232","842716","0.0-14.0-0.0-1.20","null","<span style='color:GreenYellow; font-size: 70px;'>正确! </span>","null","","","","","","","","","","","","","","","","","","","","","","","feedback_test",""
"","","","","","psychophysics","233","844853","0.0-14.0-0.0-0.21","1135","","j","","","","","","","","","","","","","key","j","16.65682677165367","768","428","j","true","img/H_28.png","生人","prac_self","","自我"
"","","","","","html-keyboard-response","234","845167","0.0-14.0-0.0-1.21","null","<span style='color:GreenYellow; font-size: 70px;'>正确! </span>","null","","","","","","","","","","","","","","","","","","","","","","","feedback_test",""
"","","","","","psychophysics","235","847669","0.0-14.0-0.0-0.22","null","","null","","","","","","","","","","","","","key","null","16.65854362416122","768","428","j","false","img/H_28.png","朋友","prac_self","","自我"
"","","","","","html-keyboard-response","236","847981","0.0-14.0-0.0-1.22","null","<span class='add_' style='color:yellow; font-size: 70px;'> 太慢! </span>","null","","","","","","","","","","","","","","","","","","","","","","","feedback_test",""
"","","","","","psychophysics","237","849943","0.0-14.0-0.0-0.23","960","","f","","","","","","","","","","","","","key","f","16.65779487179437","768","428","d","false","img/C_28.png","朋友","prac_self","","朋友"
"","","","","","html-keyboard-response","238","850247","0.0-14.0-0.0-1.23","null","<span style='color:red; font-size: 70px;'>错误! </span>","null","","","","","","","","","","","","","","","","","","","","","","","feedback_test",""
"","","","","","html-keyboard-response","239","853581","0.0-14.0-1.0-0.0","3332","<style>.context{color:white; font-size: 35px; line-height:40px}</style>                              <div><p class='context'>您正确回答了58% 的试次。</p><p class='context'>您的平均反应时为1075毫秒。</p>"," ","","","","","","","","","","","","","","","","","","","","","","","",""
"","","","","","instructions","240","858781","0.0-14.0-1.0-1.0","5198","","","","","","","","","","","","","","[{""page_index"":0,""viewing_time"":1583},{""page_index"":1,""viewing_time"":2079},{""page_index"":2,""viewing_time"":1536}]","","","","","","","","","","","",""
"","","","","","psychophysics","241","860943","0.0-14.1-0.1-0.24","1156","","j","","","","","","","","","","","","","key","j","16.65888281249954","768","428","f","false","img/S_28.png","自我","prac_self","","生人"
"","","","","","html-keyboard-response","242","861246","0.0-14.1-0.1-1.24","null","<span style='color:red; font-size: 70px;'>错误! </span>","null","","","","","","","","","","","","","","","","","","","","","","","feedback_test",""
"","","","","","psychophysics","243","863237","0.0-14.1-0.1-0.25","989","","j","","","","","","","","","","","","","key","j","16.659313559322026","768","428","j","true","img/H_28.png","生人","prac_self","","自我"
"","","","","","html-keyboard-response","244","863550","0.0-14.1-0.1-1.25","null","<span style='color:GreenYellow; font-size: 70px;'>正确! </span>","null","","","","","","","","","","","","","","","","","","","","","","","feedback_test",""
"","","","","","psychophysics","245","865525","0.0-14.1-0.1-0.26","969","","f","","","","","","","","","","","","","key","f","16.658675213674737","768","428","d","false","img/S_28.png","生人","prac_self","","生人"
"","","","","","html-keyboard-response","246","865836","0.0-14.1-0.1-1.26","null","<span style='color:red; font-size: 70px;'>错误! </span>","null","","","","","","","","","","","","","","","","","","","","","","","feedback_test",""
"","","","","","psychophysics","247","867661","0.0-14.1-0.1-0.27","818","","f","","","","","","","","","","","","","key","f","16.65855963302695","768","428","f","true","img/S_28.png","朋友","prac_self","","生人"
"","","","","","html-keyboard-response","248","867977","0.0-14.1-0.1-1.27","null","<span style='color:GreenYellow; font-size: 70px;'>正确! </span>","null","","","","","","","","","","","","","","","","","","","","","","","feedback_test",""
"","","","","","psychophysics","249","869885","0.0-14.1-0.1-0.28","903","","k","","","","","","","","","","","","","key","k","16.659566371681052","768","428","k","true","img/H_28.png","自我","prac_self","","自我"
"","","","","","html-keyboard-response","250","870189","0.0-14.1-0.1-1.28","null","<span style='color:GreenYellow; font-size: 70px;'>正确! </span>","null","","","","","","","","","","","","","","","","","","","","","","","feedback_test",""
"","","","","","psychophysics","251","872695","0.0-14.1-0.1-0.29","1503","","f","","","","","","","","","","","","","key","f","16.65897999999967","768","428","f","true","img/C_28.png","自我","prac_self","","朋友"
"","","","","","html-keyboard-response","252","872998","0.0-14.1-0.1-1.29","null","<span class='add_' style='color:yellow; font-size: 70px;'> 太慢! </span>","null","","","","","","","","","","","","","","","","","","","","","","","feedback_test",""
"","","","","","psychophysics","253","875111","0.0-14.1-0.1-0.30","1108","","d","","","","","","","","","","","","","key","d","16.65885714285763","768","428","d","true","img/C_28.png","朋友","prac_self","","朋友"
"","","","","","html-keyboard-response","254","875423","0.0-14.1-0.1-1.30","null","<span style='color:GreenYellow; font-size: 70px;'>正确! </span>","null","","","","","","","","","","","","","","","","","","","","","","","feedback_test",""
"","","","","","psychophysics","255","877253","0.0-14.1-0.1-0.31","828","","k","","","","","","","","","","","","","key","k","16.657546296296427","768","428","k","true","img/H_28.png","自我","prac_self","","自我"
"","","","","","html-keyboard-response","256","877562","0.0-14.1-0.1-1.31","null","<span style='color:GreenYellow; font-size: 70px;'>正确! </span>","null","","","","","","","","","","","","","","","","","","","","","","","feedback_test",""
"","","","","","psychophysics","257","879765","0.0-14.1-0.1-0.32","1201","","d","","","","","","","","","","","","","key","d","16.658580152671572","768","428","d","true","img/C_28.png","朋友","prac_self","","朋友"
"","","","","","html-keyboard-response","258","880067","0.0-14.1-0.1-1.32","null","<span style='color:GreenYellow; font-size: 70px;'>正确! </span>","null","","","","","","","","","","","","","","","","","","","","","","","feedback_test",""
"","","","","","psychophysics","259","881933","0.0-14.1-0.1-0.33","864","","f","","","","","","","","","","","","","key","f","16.657351351351487","768","428","f","true","img/C_28.png","生人","prac_self","","朋友"
"","","","","","html-keyboard-response","260","882240","0.0-14.1-0.1-1.33","null","<span style='color:GreenYellow; font-size: 70px;'>正确! </span>","null","","","","","","","","","","","","","","","","","","","","","","","feedback_test",""
"","","","","","psychophysics","261","884558","0.0-14.1-0.1-0.34","1316","","j","","","","","","","","","","","","","key","j","16.65808695652168","768","428","j","true","img/H_28.png","朋友","prac_self","","自我"
"","","","","","html-keyboard-response","262","884868","0.0-14.1-0.1-1.34","null","<span style='color:GreenYellow; font-size: 70px;'>正确! </span>","null","","","","","","","","","","","","","","","","","","","","","","","feedback_test",""
"","","","","","psychophysics","263","886917","0.0-14.1-0.1-0.35","1043","","d","","","","","","","","","","","","","key","d","16.658032786885475","768","428","d","true","img/S_28.png","生人","prac_self","","生人"
"","","","","","html-keyboard-response","264","887233","0.0-14.1-0.1-1.35","null","<span style='color:GreenYellow; font-size: 70px;'>正确! </span>","null","","","","","","","","","","","","","","","","","","","","","","","feedback_test",""
"","","","","","psychophysics","265","889062","0.0-14.1-0.1-0.36","822","","k","","","","","","","","","","","","","key","k","16.657583333333065","768","428","k","true","img/H_28.png","自我","prac_self","","自我"
"","","","","","html-keyboard-response","266","889368","0.0-14.1-0.1-1.36","null","<span style='color:GreenYellow; font-size: 70px;'>正确! </span>","null","","","","","","","","","","","","","","","","","","","","","","","feedback_test",""
"","","","","","psychophysics","267","891294","0.0-14.1-0.1-0.37","913","","k","","","","","","","","","","","","","key","k","16.65821929824571","768","428","k","true","img/H_28.png","自我","prac_self","","自我"
"","","","","","html-keyboard-response","268","891604","0.0-14.1-0.1-1.37","null","<span style='color:GreenYellow; font-size: 70px;'>正确! </span>","null","","","","","","","","","","","","","","","","","","","","","","","feedback_test",""
"","","","","","psychophysics","269","894105","0.0-14.1-0.1-0.38","null","","null","","","","","","","","","","","","","key","null","16.659020134227525","768","428","f","false","img/C_28.png","自我","prac_self","","朋友"
"","","","","","html-keyboard-response","270","894421","0.0-14.1-0.1-1.38","null","<span class='add_' style='color:yellow; font-size: 70px;'> 太慢! </span>","null","","","","","","","","","","","","","","","","","","","","","","","feedback_test",""
"","","","","","psychophysics","271","896831","0.0-14.1-0.1-0.39","1401","","j","","","","","","","","","","","","","key","j","16.658173611111124","768","428","j","true","img/H_28.png","生人","prac_self","","自我"
"","","","","","html-keyboard-response","272","897140","0.0-14.1-0.1-1.39","null","<span style='color:GreenYellow; font-size: 70px;'>正确! </span>","null","","","","","","","","","","","","","","","","","","","","","","","feedback_test",""
"","","","","","psychophysics","273","898879","0.0-14.1-0.1-0.40","733","","k","","","","","","","","","","","","","key","k","16.658019230769312","768","428","f","false","img/S_28.png","自我","prac_self","","生人"
"","","","","","html-keyboard-response","274","899183","0.0-14.1-0.1-1.40","null","<span style='color:red; font-size: 70px;'>错误! </span>","null","","","","","","","","","","","","","","","","","","","","","","","feedback_test",""
"","","","","","psychophysics","275","901356","0.0-14.1-0.1-0.41","1170","","f","","","","","","","","","","","","","key","f","16.657387596899788","768","428","f","true","img/C_28.png","生人","prac_self","","朋友"
"","","","","","html-keyboard-response","276","901660","0.0-14.1-0.1-1.41","null","<span style='color:GreenYellow; font-size: 70px;'>正确! </span>","null","","","","","","","","","","","","","","","","","","","","","","","feedback_test",""
"","","","","","psychophysics","277","904020","0.0-14.1-0.1-0.42","1357","","j","","","","","","","","","","","","","key","j","16.65786428571446","768","428","j","true","img/H_28.png","朋友","prac_self","","自我"
"","","","","","html-keyboard-response","278","904322","0.0-14.1-0.1-1.42","null","<span style='color:GreenYellow; font-size: 70px;'>正确! </span>","null","","","","","","","","","","","","","","","","","","","","","","","feedback_test",""
"","","","","","psychophysics","279","906516","0.0-14.1-0.1-0.43","1193","","d","","","","","","","","","","","","","key","d","16.64889230769253","768","428","d","true","img/C_28.png","朋友","prac_self","","朋友"
"","","","","","html-keyboard-response","280","906818","0.0-14.1-0.1-1.43","null","<span style='color:GreenYellow; font-size: 70px;'>正确! </span>","null","","","","","","","","","","","","","","","","","","","","","","","feedback_test",""
"","","","","","psychophysics","281","908980","0.0-14.1-0.1-0.44","1157","","j","","","","","","","","","","","","","key","j","16.65863565891501","768","428","d","false","img/S_28.png","生人","prac_self","","生人"
"","","","","","html-keyboard-response","282","909295","0.0-14.1-0.1-1.44","null","<span style='color:red; font-size: 70px;'>错误! </span>","null","","","","","","","","","","","","","","","","","","","","","","","feedback_test",""
"","","","","","psychophysics","283","911799","0.0-14.1-0.1-0.45","null","","null","","","","","","","","","","","","","key","null","16.65851677852392","768","428","d","false","img/S_28.png","生人","prac_self","","生人"
"","","","","","html-keyboard-response","284","912109","0.0-14.1-0.1-1.45","null","<span class='add_' style='color:yellow; font-size: 70px;'> 太慢! </span>","null","","","","","","","","","","","","","","","","","","","","","","","feedback_test",""
"","","","","","psychophysics","285","914128","0.0-14.1-0.1-0.46","1015","","f","","","","","","","","","","","","","key","f","16.659216666666907","768","428","f","true","img/S_28.png","朋友","prac_self","","生人"
"","","","","","html-keyboard-response","286","914436","0.0-14.1-0.1-1.46","null","<span style='color:GreenYellow; font-size: 70px;'>正确! </span>","null","","","","","","","","","","","","","","","","","","","","","","","feedback_test",""
"","","","","","psychophysics","287","916428","0.0-14.1-0.1-0.47","986","","d","","","","","","","","","","","","","key","d","16.658101694914908","768","428","d","true","img/C_28.png","朋友","prac_self","","朋友"
"","","","","","html-keyboard-response","288","916738","0.0-14.1-0.1-1.47","null","<span style='color:GreenYellow; font-size: 70px;'>正确! </span>","null","","","","","","","","","","","","","","","","","","","","","","","feedback_test",""
"","","","","","html-keyboard-response","289","920764","0.0-15.0","4025","[""<style>.context{color:white; font-size: 35px; line-height:40px}</style>              <div><p class='context'>您正确回答了75% 的试次。</p><p class='context'>您的平均反应时为1079毫秒。</p><p class='context'>恭喜您完成这一阶段的练习。按任意键进入<span style='color: yellow;'>重点关注图形为“朋友”</span>的练习。</p></div><p class='footer' style='font-size:35px; line-height:30px;'>任务要求：\n              <p class='footer' style='font-size:35px; line-height:35px;'>对于与“朋友”对应的图形：如果 匹配 ，请按 <span style=\""color: lightgreen;\"">k键</span></p><p class='footer' style='font-size:35px'>如果 不匹配 ，请按<span style=\""color: lightgreen;\"">j键</p></span>\n              <p class='footer' style='font-size:35px; line-height:35px;'>对于非“朋友”对应的图形：如果 匹配 ，请按 <span style=\""color: lightgreen;\"">d键</span></p><p class='footer' style='font-size:35px'>如果 不匹配 ，请按<span style=\""color: lightgreen;\"">f键</p></span>\n              <p class='footer' style='font-size:22px; line-height:25px;'>请在实验过程中将您的<span style=\""color: lightgreen;\"">食指和中指</span>放在电脑键盘的相应键位上进行按键。</p></span>""]"," ","","","","","","","","","","","","","","","","","","","","","","","",""
"","","","","","psychophysics","290","922613","0.0-16.0-0.0-0.0","834","","k","","","","","","","","","","","","","key","k","16.651788990825004","768","428","k","true","img/C_28.png","朋友","prac_friend","","朋友"
"","","","","","html-keyboard-response","291","922932","0.0-16.0-0.0-1.0","null","<span style='color:GreenYellow; font-size: 70px;'>正确! </span>","null","","","","","","","","","","","","","","","","","","","","","","","feedback_test",""
"","","","","","psychophysics","292","925221","0.0-16.0-0.0-0.1","1276","","d","","","","","","","","","","","","","key","d","16.65786764705862","768","428","d","true","img/S_28.png","生人","prac_friend","","生人"
"","","","","","html-keyboard-response","293","925526","0.0-16.0-0.0-1.1","null","<span style='color:GreenYellow; font-size: 70px;'>正确! </span>","null","","","","","","","","","","","","","","","","","","","","","","","feedback_test",""
"","","","","","psychophysics","294","927956","0.0-16.0-0.0-0.2","1426","","f","","","","","","","","","","","","","key","f","16.658448275861907","768","428","j","false","img/C_28.png","生人","prac_friend","","朋友"
"","","","","","html-keyboard-response","295","928270","0.0-16.0-0.0-1.2","null","<span style='color:red; font-size: 70px;'>错误! </span>","null","","","","","","","","","","","","","","","","","","","","","","","feedback_test",""
"","","","","","psychophysics","296","930492","0.0-16.0-0.0-0.3","1220","","d","","","","","","","","","","","","","key","d","16.658689393939724","768","428","f","false","img/S_28.png","自我","prac_friend","","生人"
"","","","","","html-keyboard-response","297","930802","0.0-16.0-0.0-1.3","null","<span style='color:red; font-size: 70px;'>错误! </span>","null","","","","","","","","","","","","","","","","","","","","","","","feedback_test",""
"","","","","","psychophysics","298","932772","0.0-16.0-0.0-0.4","967","","k","","","","","","","","","","","","","key","k","16.65830769230767","768","428","k","true","img/C_28.png","朋友","prac_friend","","朋友"
"","","","","","html-keyboard-response","299","933087","0.0-16.0-0.0-1.4","null","<span style='color:GreenYellow; font-size: 70px;'>正确! </span>","null","","","","","","","","","","","","","","","","","","","","","","","feedback_test",""
"","","","","","psychophysics","300","935452","0.0-16.0-0.0-0.5","1359","","d","","","","","","","","","","","","","key","d","16.657106382978736","768","428","d","true","img/H_28.png","自我","prac_friend","","自我"
"","","","","","html-keyboard-response","301","935761","0.0-16.0-0.0-1.5","null","<span style='color:GreenYellow; font-size: 70px;'>正确! </span>","null","","","","","","","","","","","","","","","","","","","","","","","feedback_test",""
"","","","","","psychophysics","302","937581","0.0-16.0-0.0-0.6","817","","f","","","","","","","","","","","","","key","f","16.65835185185144","768","428","j","false","img/C_28.png","自我","prac_friend","","朋友"
"","","","","","html-keyboard-response","303","937894","0.0-16.0-0.0-1.6","null","<span style='color:red; font-size: 70px;'>错误! </span>","null","","","","","","","","","","","","","","","","","","","","","","","feedback_test",""
"","","","","","psychophysics","304","940100","0.0-16.0-0.0-0.7","1195","","d","","","","","","","","","","","","","key","d","16.65887786259516","768","428","d","true","img/H_28.png","自我","prac_friend","","自我"
"","","","","","html-keyboard-response","305","940410","0.0-16.0-0.0-1.7","null","<span style='color:GreenYellow; font-size: 70px;'>正确! </span>","null","","","","","","","","","","","","","","","","","","","","","","","feedback_test",""
"","","","","","psychophysics","306","942516","0.0-16.0-0.0-0.8","1095","","f","","","","","","","","","","","","","key","f","16.659391999999993","768","428","f","true","img/H_28.png","生人","prac_friend","","自我"
"","","","","","html-keyboard-response","307","942818","0.0-16.0-0.0-1.8","null","<span style='color:GreenYellow; font-size: 70px;'>正确! </span>","null","","","","","","","","","","","","","","","","","","","","","","","feedback_test",""
"","","","","","psychophysics","308","945276","0.0-16.0-0.0-0.9","1457","","f","","","","","","","","","","","","","key","f","16.65762585033995","768","428","f","true","img/H_28.png","朋友","prac_friend","","自我"
"","","","","","html-keyboard-response","309","945588","0.0-16.0-0.0-1.9","null","<span style='color:GreenYellow; font-size: 70px;'>正确! </span>","null","","","","","","","","","","","","","","","","","","","","","","","feedback_test",""
"","","","","","psychophysics","310","947479","0.0-16.0-0.0-0.10","880","","d","","","","","","","","","","","","","key","d","16.659598214285715","768","428","d","true","img/S_28.png","生人","prac_friend","","生人"
"","","","","","html-keyboard-response","311","947792","0.0-16.0-0.0-1.10","null","<span style='color:GreenYellow; font-size: 70px;'>正确! </span>","null","","","","","","","","","","","","","","","","","","","","","","","feedback_test",""
"","","","","","psychophysics","312","949861","0.0-16.0-0.0-0.11","1060","","f","","","","","","","","","","","","","key","f","16.658048780487352","768","428","f","true","img/S_28.png","朋友","prac_friend","","生人"
"","","","","","html-keyboard-response","313","950177","0.0-16.0-0.0-1.11","null","<span style='color:GreenYellow; font-size: 70px;'>正确! </span>","null","","","","","","","","","","","","","","","","","","","","","","","feedback_test",""
"","","","","","psychophysics","314","951980","0.0-16.0-0.0-0.12","796","","k","","","","","","","","","","","","","key","k","16.658205607476226","768","428","k","true","img/C_28.png","朋友","prac_friend","","朋友"
"","","","","","html-keyboard-response","315","952290","0.0-16.0-0.0-1.12","null","<span style='color:GreenYellow; font-size: 70px;'>正确! </span>","null","","","","","","","","","","","","","","","","","","","","","","","feedback_test",""
"","","","","","psychophysics","316","954302","0.0-16.0-0.0-0.13","1004","","d","","","","","","","","","","","","","key","d","16.658066666666613","768","428","d","true","img/H_28.png","自我","prac_friend","","自我"
"","","","","","html-keyboard-response","317","954610","0.0-16.0-0.0-1.13","null","<span style='color:GreenYellow; font-size: 70px;'>正确! </span>","null","","","","","","","","","","","","","","","","","","","","","","","feedback_test",""
"","","","","","psychophysics","318","956471","0.0-16.0-0.0-0.14","858","","k","","","","","","","","","","","","","key","k","16.657873873873655","768","428","k","true","img/C_28.png","朋友","prac_friend","","朋友"
"","","","","","html-keyboard-response","319","956787","0.0-16.0-0.0-1.14","null","<span style='color:GreenYellow; font-size: 70px;'>正确! </span>","null","","","","","","","","","","","","","","","","","","","","","","","feedback_test",""
"","","","","","psychophysics","320","959173","0.0-16.0-0.0-0.15","1380","","f","","","","","","","","","","","","","key","f","16.658133802816607","768","428","f","true","img/S_28.png","自我","prac_friend","","生人"
"","","","","","html-keyboard-response","321","959485","0.0-16.0-0.0-1.15","null","<span style='color:GreenYellow; font-size: 70px;'>正确! </span>","null","","","","","","","","","","","","","","","","","","","","","","","feedback_test",""
"","","","","","psychophysics","322","961421","0.0-16.0-0.0-0.16","926","","j","","","","","","","","","","","","","key","j","16.6582695652174","768","428","d","false","img/S_28.png","生人","prac_friend","","生人"
"","","","","","html-keyboard-response","323","961730","0.0-16.0-0.0-1.16","null","<span style='color:red; font-size: 70px;'>错误! </span>","null","","","","","","","","","","","","","","","","","","","","","","","feedback_test",""
"","","","","","psychophysics","324","963941","0.0-16.0-0.0-0.17","1208","","f","","","","","","","","","","","","","key","f","16.658137404580266","768","428","f","true","img/S_28.png","朋友","prac_friend","","生人"
"","","","","","html-keyboard-response","325","964245","0.0-16.0-0.0-1.17","null","<span style='color:GreenYellow; font-size: 70px;'>正确! </span>","null","","","","","","","","","","","","","","","","","","","","","","","feedback_test",""
"","","","","","psychophysics","326","966398","0.0-16.0-0.0-0.18","1149","","d","","","","","","","","","","","","","key","d","16.65778124999997","768","428","d","true","img/S_28.png","生人","prac_friend","","生人"
"","","","","","html-keyboard-response","327","966702","0.0-16.0-0.0-1.18","null","<span style='color:GreenYellow; font-size: 70px;'>正确! </span>","null","","","","","","","","","","","","","","","","","","","","","","","feedback_test",""
"","","","","","psychophysics","328","969031","0.0-16.0-0.0-0.19","1324","","f","","","","","","","","","","","","","key","f","16.658474820143404","768","428","f","true","img/H_28.png","生人","prac_friend","","自我"
"","","","","","html-keyboard-response","329","969337","0.0-16.0-0.0-1.19","null","<span style='color:GreenYellow; font-size: 70px;'>正确! </span>","null","","","","","","","","","","","","","","","","","","","","","","","feedback_test",""
"","","","","","psychophysics","330","971278","0.0-16.0-0.0-0.20","937","","d","","","","","","","","","","","","","key","d","16.657422413793594","768","428","d","true","img/H_28.png","自我","prac_friend","","自我"
"","","","","","html-keyboard-response","331","971587","0.0-16.0-0.0-1.20","null","<span style='color:GreenYellow; font-size: 70px;'>正确! </span>","null","","","","","","","","","","","","","","","","","","","","","","","feedback_test",""
"","","","","","psychophysics","332","973725","0.0-16.0-0.0-0.21","1136","","j","","","","","","","","","","","","","key","j","16.657882812500247","768","428","j","true","img/C_28.png","自我","prac_friend","","朋友"
"","","","","","html-keyboard-response","333","974029","0.0-16.0-0.0-1.21","null","<span style='color:GreenYellow; font-size: 70px;'>正确! </span>","null","","","","","","","","","","","","","","","","","","","","","","","feedback_test",""
"","","","","","psychophysics","334","975781","0.0-16.0-0.0-0.22","744","","j","","","","","","","","","","","","","key","j","16.658153846153603","768","428","j","true","img/C_28.png","生人","prac_friend","","朋友"
"","","","","","html-keyboard-response","335","976082","0.0-16.0-0.0-1.22","null","<span style='color:GreenYellow; font-size: 70px;'>正确! </span>","null","","","","","","","","","","","","","","","","","","","","","","","feedback_test",""
"","","","","","psychophysics","336","978213","0.0-16.0-0.0-0.23","1128","","f","","","","","","","","","","","","","key","f","16.656047244094253","768","428","f","true","img/H_28.png","朋友","prac_friend","","自我"
"","","","","","html-keyboard-response","337","978525","0.0-16.0-0.0-1.23","null","<span style='color:GreenYellow; font-size: 70px;'>正确! </span>","null","","","","","","","","","","","","","","","","","","","","","","","feedback_test",""
"","","","","","html-keyboard-response","338","982788","0.0-17.0","4261","[""<style>.context{color:white; font-size: 35px; line-height:40px}</style>                  <div><p class='context'>您正确回答了83% 的试次。</p><p class='context'>您的平均反应时为1089毫秒。</p><p class='context'>恭喜您完成这一阶段的练习。按任意键进入<span style='color: yellow;'>重点关注图形为“生人”</span>的练习。</p></div><p class='footer' style='font-size:35px; line-height:30px;'>任务要求：\n                  <p class='footer' style='font-size:35px; line-height:35px;'>对与“生人”对应的图形，如果 匹配 ，请按 <span style=\""color: lightgreen;\"">k键</span></p><p class='footer' style='font-size:35px'>如果 不匹配 ，请按<span style=\""color: lightgreen;\"">j键</p></span>\n                  <p class='footer' style='font-size:35px; line-height:35px;'>对非“生人”对应的图形，如果 匹配 ，请按 <span style=\""color: lightgreen;\"">d键</span></p><p class='footer' style='font-size:35px'>如果 不匹配 ，请按<span style=\""color: lightgreen;\"">f键</p></span>\n                  <p class='footer' style='font-size:22px; line-height:25px;'>请在实验过程中将您的<span style=\""color: lightgreen;\"">食指和中指</span>放在电脑键盘的相应键位上进行按键。</p></span>""]"," ","","","","","","","","","","","","","","","","","","","","","","","",""
"","","","","","psychophysics","339","985133","0.0-18.0-0.0-0.0","1339","","f","","","","","","","","","","","","","key","f","16.65854285714283","768","428","d","false","img/C_28.png","朋友","prac_stranger","","朋友"
"","","","","","html-keyboard-response","340","985436","0.0-18.0-0.0-1.0","null","<span style='color:red; font-size: 70px;'>错误! </span>","null","","","","","","","","","","","","","","","","","","","","","","","feedback_test",""
"","","","","","psychophysics","341","987557","0.0-18.0-0.0-0.1","1108","","k","","","","","","","","","","","","","key","k","16.65822222222212","768","428","k","true","img/S_28.png","生人","prac_stranger","","生人"
"","","","","","html-keyboard-response","342","987859","0.0-18.0-0.0-1.1","null","<span style='color:GreenYellow; font-size: 70px;'>正确! </span>","null","","","","","","","","","","","","","","","","","","","","","","","feedback_test",""
"","","","","","psychophysics","343","989805","0.0-18.0-0.0-0.2","941","","j","","","","","","","","","","","","","key","j","16.65849137930942","768","428","j","true","img/S_28.png","朋友","prac_stranger","","生人"
"","","","","","html-keyboard-response","344","990112","0.0-18.0-0.0-1.2","null","<span style='color:GreenYellow; font-size: 70px;'>正确! </span>","null","","","","","","","","","","","","","","","","","","","","","","","feedback_test",""
"","","","","","psychophysics","345","992140","0.0-18.0-0.0-0.3","1027","","d","","","","","","","","","","","","","key","d","16.65851239669464","768","428","d","true","img/C_28.png","朋友","prac_stranger","","朋友"
"","","","","","html-keyboard-response","346","992447","0.0-18.0-0.0-1.3","null","<span style='color:GreenYellow; font-size: 70px;'>正确! </span>","null","","","","","","","","","","","","","","","","","","","","","","","feedback_test",""
"","","","","","psychophysics","347","994525","0.0-18.0-0.0-0.4","1073","","k","","","","","","","","","","","","","key","k","16.658073170731466","768","428","f","false","img/H_28.png","朋友","prac_stranger","","自我"
"","","","","","html-keyboard-response","348","994826","0.0-18.0-0.0-1.4","null","<span style='color:red; font-size: 70px;'>错误! </span>","null","","","","","","","","","","","","","","","","","","","","","","","feedback_test",""
"","","","","","psychophysics","349","996741","0.0-18.0-0.0-0.5","914","","d","","","","","","","","","","","","","key","d","16.65340707964569","768","428","d","true","img/H_28.png","自我","prac_stranger","","自我"
"","","","","","html-keyboard-response","350","997048","0.0-18.0-0.0-1.5","null","<span style='color:GreenYellow; font-size: 70px;'>正确! </span>","null","","","","","","","","","","","","","","","","","","","","","","","feedback_test",""
"","","","","","psychophysics","351","998789","0.0-18.0-0.0-0.6","737","","d","","","","","","","","","","","","","key","d","16.65826213592211","768","428","j","false","img/S_28.png","自我","prac_stranger","","生人"
"","","","","","html-keyboard-response","352","999100","0.0-18.0-0.0-1.6","null","<span style='color:red; font-size: 70px;'>错误! </span>","null","","","","","","","","","","","","","","","","","","","","","","","feedback_test",""
"","","","","","psychophysics","353","1001421","0.0-18.0-0.0-0.7","1314","","d","","","","","","","","","","","","","key","d","16.658543478260558","768","428","k","false","img/S_28.png","生人","prac_stranger","","生人"
"","","","","","html-keyboard-response","354","1001737","0.0-18.0-0.0-1.7","null","<span style='color:red; font-size: 70px;'>错误! </span>","null","","","","","","","","","","","","","","","","","","","","","","","feedback_test",""
"","","","","","psychophysics","355","1004241","0.0-18.0-0.0-0.8","null","","null","","","","","","","","","","","","","key","null","16.658379999999887","768","428","f","false","img/H_28.png","生人","prac_stranger","","自我"
"","","","","","html-keyboard-response","356","1004543","0.0-18.0-0.0-1.8","null","<span class='add_' style='color:yellow; font-size: 70px;'> 太慢! </span>","null","","","","","","","","","","","","","","","","","","","","","","","feedback_test",""
"","","","","","psychophysics","357","1006670","0.0-18.0-0.0-0.9","1122","","f","","","","","","","","","","","","","key","f","16.658793650793896","768","428","f","true","img/C_28.png","自我","prac_stranger","","朋友"
"","","","","","html-keyboard-response","358","1006985","0.0-18.0-0.0-1.9","null","<span style='color:GreenYellow; font-size: 70px;'>正确! </span>","null","","","","","","","","","","","","","","","","","","","","","","","feedback_test",""
"","","","","","psychophysics","359","1009134","0.0-18.0-0.0-0.10","1146","","f","","","","","","","","","","","","","key","f","16.659007812500022","768","428","f","true","img/C_28.png","生人","prac_stranger","","朋友"
"","","","","","html-keyboard-response","360","1009438","0.0-18.0-0.0-1.10","null","<span style='color:GreenYellow; font-size: 70px;'>正确! </span>","null","","","","","","","","","","","","","","","","","","","","","","","feedback_test",""
"","","","","","psychophysics","361","1011277","0.0-18.0-0.0-0.11","823","","d","","","","","","","","","","","","","key","d","16.658201834861906","768","428","d","true","img/H_28.png","自我","prac_stranger","","自我"
"","","","","","html-keyboard-response","362","1011587","0.0-18.0-0.0-1.11","null","<span style='color:GreenYellow; font-size: 70px;'>正确! </span>","null","","","","","","","","","","","","","","","","","","","","","","","feedback_test",""
"","","","","","psychophysics","363","1014101","0.0-18.0-0.0-0.12","null","","null","","","","","","","","","","","","","key","null","16.658060402684413","768","428","j","false","img/S_28.png","朋友","prac_stranger","","生人"
"","","","","","html-keyboard-response","364","1014410","0.0-18.0-0.0-1.12","null","<span class='add_' style='color:yellow; font-size: 70px;'> 太慢! </span>","null","","","","","","","","","","","","","","","","","","","","","","","feedback_test",""
"","","","","","psychophysics","365","1016629","0.0-18.0-0.0-0.13","1211","","d","","","","","","","","","","","","","key","d","16.65783333333269","768","428","d","true","img/H_28.png","自我","prac_stranger","","自我"
"","","","","","html-keyboard-response","366","1016942","0.0-18.0-0.0-1.13","null","<span style='color:GreenYellow; font-size: 70px;'>正确! </span>","null","","","","","","","","","","","","","","","","","","","","","","","feedback_test",""
"","","","","","psychophysics","367","1018997","0.0-18.0-0.0-0.14","1048","","j","","","","","","","","","","","","","key","j","16.657688524590263","768","428","k","false","img/S_28.png","生人","prac_stranger","","生人"
"","","","","","html-keyboard-response","368","1019299","0.0-18.0-0.0-1.14","null","<span style='color:red; font-size: 70px;'>错误! </span>","null","","","","","","","","","","","","","","","","","","","","","","","feedback_test",""
"","","","","","psychophysics","369","1021462","0.0-18.0-0.0-0.15","1157","","f","","","","","","","","","","","","","key","f","16.658124999999927","768","428","f","true","img/C_28.png","自我","prac_stranger","","朋友"
"","","","","","html-keyboard-response","370","1021778","0.0-18.0-0.0-1.15","null","<span style='color:GreenYellow; font-size: 70px;'>正确! </span>","null","","","","","","","","","","","","","","","","","","","","","","","feedback_test",""
"","","","","","psychophysics","371","1023518","0.0-18.0-0.0-0.16","738","","f","","","","","","","","","","","","","key","f","16.659682692308426","768","428","j","false","img/S_28.png","自我","prac_stranger","","生人"
"","","","","","html-keyboard-response","372","1023832","0.0-18.0-0.0-1.16","null","<span style='color:red; font-size: 70px;'>错误! </span>","null","","","","","","","","","","","","","","","","","","","","","","","feedback_test",""
"","","","","","psychophysics","373","1025973","0.0-18.0-0.0-0.17","1127","","f","","","","","","","","","","","","","key","f","16.65847244094434","768","428","f","true","img/H_28.png","朋友","prac_stranger","","自我"
"","","","","","html-keyboard-response","374","1026284","0.0-18.0-0.0-1.17","null","<span style='color:GreenYellow; font-size: 70px;'>正确! </span>","null","","","","","","","","","","","","","","","","","","","","","","","feedback_test",""
"","","","","","psychophysics","375","1028245","0.0-18.0-0.0-0.18","959","","k","","","","","","","","","","","","","key","k","16.65798290598238","768","428","k","true","img/S_28.png","生人","prac_stranger","","生人"
"","","","","","html-keyboard-response","376","1028549","0.0-18.0-0.0-1.18","null","<span style='color:GreenYellow; font-size: 70px;'>正确! </span>","null","","","","","","","","","","","","","","","","","","","","","","","feedback_test",""
"","","","","","psychophysics","377","1030400","0.0-18.0-0.0-0.19","840","","d","","","","","","","","","","","","","key","d","16.658300000000533","768","428","d","true","img/H_28.png","自我","prac_stranger","","自我"
"","","","","","html-keyboard-response","378","1030703","0.0-18.0-0.0-1.19","null","<span style='color:GreenYellow; font-size: 70px;'>正确! </span>","null","","","","","","","","","","","","","","","","","","","","","","","feedback_test",""
"","","","","","psychophysics","379","1032637","0.0-18.0-0.0-0.20","932","","j","","","","","","","","","","","","","key","j","16.658582608695344","768","428","f","false","img/H_28.png","生人","prac_stranger","","自我"
"","","","","","html-keyboard-response","380","1032939","0.0-18.0-0.0-1.20","null","<span style='color:red; font-size: 70px;'>错误! </span>","null","","","","","","","","","","","","","","","","","","","","","","","feedback_test",""
"","","","","","psychophysics","381","1034726","0.0-18.0-0.0-0.21","784","","f","","","","","","","","","","","","","key","f","16.659598130840486","768","428","f","true","img/C_28.png","生人","prac_stranger","","朋友"
"","","","","","html-keyboard-response","382","1035038","0.0-18.0-0.0-1.21","null","<span style='color:GreenYellow; font-size: 70px;'>正确! </span>","null","","","","","","","","","","","","","","","","","","","","","","","feedback_test",""
"","","","","","psychophysics","383","1037199","0.0-18.0-0.0-0.22","1160","","d","","","","","","","","","","","","","key","d","16.658891472868014","768","428","d","true","img/C_28.png","朋友","prac_stranger","","朋友"
"","","","","","html-keyboard-response","384","1037507","0.0-18.0-0.0-1.22","null","<span style='color:GreenYellow; font-size: 70px;'>正确! </span>","null","","","","","","","","","","","","","","","","","","","","","","","feedback_test",""
"","","","","","psychophysics","385","1039278","0.0-18.0-0.0-0.23","768","","d","","","","","","","","","","","","","key","d","16.657790476190193","768","428","d","true","img/C_28.png","朋友","prac_stranger","","朋友"
"","","","","","html-keyboard-response","386","1039594","0.0-18.0-0.0-1.23","null","<span style='color:GreenYellow; font-size: 70px;'>正确! </span>","null","","","","","","","","","","","","","","","","","","","","","","","feedback_test",""
"","","","","","html-keyboard-response","387","1040710","0.0-18.0-1.0-0.0","1115","<style>.context{color:white; font-size: 35px; line-height:40px}</style>                              <div><p class='context'>您正确回答了63% 的试次。</p><p class='context'>您的平均反应时为1006毫秒。</p>"," ","","","","","","","","","","","","","","","","","","","","","","","",""
"","","","","","instructions","388","1049230","0.0-18.0-1.0-1.0","8518","","","","","","","","","","","","","","[{""page_index"":0,""viewing_time"":3973},{""page_index"":1,""viewing_time"":2544},{""page_index"":2,""viewing_time"":2001}]","","","","","","","","","","","",""
"","","","","","psychophysics","389","1051733","0.0-18.1-0.1-0.24","null","","null","","","","","","","","","","","","","key","null","16.657610738254622","768","428","f","false","img/C_28.png","生人","prac_stranger","","朋友"
"","","","","","html-keyboard-response","390","1052048","0.0-18.1-0.1-1.24","null","<span class='add_' style='color:yellow; font-size: 70px;'> 太慢! </span>","null","","","","","","","","","","","","","","","","","","","","","","","feedback_test",""
"","","","","","psychophysics","391","1053925","0.0-18.1-0.1-0.25","873","","f","","","","","","","","","","","","","key","f","16.65809009009175","768","428","j","false","img/S_28.png","自我","prac_stranger","","生人"
"","","","","","html-keyboard-response","392","1054237","0.0-18.1-0.1-1.25","null","<span style='color:red; font-size: 70px;'>错误! </span>","null","","","","","","","","","","","","","","","","","","","","","","","feedback_test",""
"","","","","","psychophysics","393","1056118","0.0-18.1-0.1-0.26","875","","d","","","","","","","","","","","","","key","d","16.658473214286328","768","428","d","true","img/C_28.png","朋友","prac_stranger","","朋友"
"","","","","","html-keyboard-response","394","1056430","0.0-18.1-0.1-1.26","null","<span style='color:GreenYellow; font-size: 70px;'>正确! </span>","null","","","","","","","","","","","","","","","","","","","","","","","feedback_test",""
"","","","","","psychophysics","395","1058637","0.0-18.1-0.1-0.27","1200","","k","","","","","","","","","","","","","key","k","16.65848854961912","768","428","k","true","img/S_28.png","生人","prac_stranger","","生人"
"","","","","","html-keyboard-response","396","1058941","0.0-18.1-0.1-1.27","null","<span style='color:GreenYellow; font-size: 70px;'>正确! </span>","null","","","","","","","","","","","","","","","","","","","","","","","feedback_test",""
"","","","","","psychophysics","397","1060797","0.0-18.1-0.1-0.28","852","","d","","","","","","","","","","","","","key","d","16.658360360360177","768","428","d","true","img/C_28.png","朋友","prac_stranger","","朋友"
"","","","","","html-keyboard-response","398","1061112","0.0-18.1-0.1-1.28","null","<span style='color:GreenYellow; font-size: 70px;'>正确! </span>","null","","","","","","","","","","","","","","","","","","","","","","","feedback_test",""
"","","","","","psychophysics","399","1063016","0.0-18.1-0.1-0.29","897","","d","","","","","","","","","","","","","key","d","16.65834513274269","768","428","d","true","img/H_28.png","自我","prac_stranger","","自我"
"","","","","","html-keyboard-response","400","1063323","0.0-18.1-0.1-1.29","null","<span style='color:GreenYellow; font-size: 70px;'>正确! </span>","null","","","","","","","","","","","","","","","","","","","","","","","feedback_test",""
"","","","","","psychophysics","401","1065735","0.0-18.1-0.1-0.30","1410","","d","","","","","","","","","","","","","key","d","16.65805555555562","768","428","f","false","img/H_28.png","朋友","prac_stranger","","自我"
"","","","","","html-keyboard-response","402","1066044","0.0-18.1-0.1-1.30","null","<span style='color:red; font-size: 70px;'>错误! </span>","null","","","","","","","","","","","","","","","","","","","","","","","feedback_test",""
"","","","","","psychophysics","403","1068294","0.0-18.1-0.1-0.31","1245","","f","","","","","","","","","","","","","key","f","16.658365671641068","768","428","j","false","img/S_28.png","朋友","prac_stranger","","生人"
"","","","","","html-keyboard-response","404","1068598","0.0-18.1-0.1-1.31","null","<span style='color:red; font-size: 70px;'>错误! </span>","null","","","","","","","","","","","","","","","","","","","","","","","feedback_test",""
"","","","","","psychophysics","405","1071105","0.0-18.1-0.1-0.32","null","","null","","","","","","","","","","","","","key","null","16.65795973154416","768","428","f","false","img/H_28.png","生人","prac_stranger","","自我"
"","","","","","html-keyboard-response","406","1071420","0.0-18.1-0.1-1.32","null","<span class='add_' style='color:yellow; font-size: 70px;'> 太慢! </span>","null","","","","","","","","","","","","","","","","","","","","","","","feedback_test",""
"","","","","","psychophysics","407","1073278","0.0-18.1-0.1-0.33","857","","k","","","","","","","","","","","","","key","k","16.658513513513263","768","428","k","true","img/S_28.png","生人","prac_stranger","","生人"
"","","","","","html-keyboard-response","408","1073587","0.0-18.1-0.1-1.33","null","<span style='color:GreenYellow; font-size: 70px;'>正确! </span>","null","","","","","","","","","","","","","","","","","","","","","","","feedback_test",""
"","","","","","psychophysics","409","1075495","0.0-18.1-0.1-0.34","904","","f","","","","","","","","","","","","","key","f","16.6537876106197","768","428","d","false","img/H_28.png","自我","prac_stranger","","自我"
"","","","","","html-keyboard-response","410","1075796","0.0-18.1-0.1-1.34","null","<span style='color:red; font-size: 70px;'>错误! </span>","null","","","","","","","","","","","","","","","","","","","","","","","feedback_test",""
"","","","","","psychophysics","411","1077694","0.0-18.1-0.1-0.35","897","","d","","","","","","","","","","","","","key","d","16.658628318584483","768","428","f","false","img/C_28.png","自我","prac_stranger","","朋友"
"","","","","","html-keyboard-response","412","1078001","0.0-18.1-0.1-1.35","null","<span style='color:red; font-size: 70px;'>错误! </span>","null","","","","","","","","","","","","","","","","","","","","","","","feedback_test",""
"","","","","","psychophysics","413","1079917","0.0-18.1-0.1-0.36","902","","f","","","","","","","","","","","","","key","f","16.655938053095664","768","428","j","false","img/S_28.png","朋友","prac_stranger","","生人"
"","","","","","html-keyboard-response","414","1080231","0.0-18.1-0.1-1.36","null","<span style='color:red; font-size: 70px;'>错误! </span>","null","","","","","","","","","","","","","","","","","","","","","","","feedback_test",""
"","","","","","psychophysics","415","1082693","0.0-18.1-0.1-0.37","1459","","f","","","","","","","","","","","","","key","f","16.658156462585502","768","428","f","true","img/H_28.png","生人","prac_stranger","","自我"
"","","","","","html-keyboard-response","416","1083007","0.0-18.1-0.1-1.37","null","<span style='color:GreenYellow; font-size: 70px;'>正确! </span>","null","","","","","","","","","","","","","","","","","","","","","","","feedback_test",""
"","","","","","psychophysics","417","1084925","0.0-18.1-0.1-0.38","909","","f","","","","","","","","","","","","","key","f","16.65879824561304","768","428","f","true","img/C_28.png","生人","prac_stranger","","朋友"
"","","","","","html-keyboard-response","418","1085231","0.0-18.1-0.1-1.38","null","<span style='color:GreenYellow; font-size: 70px;'>正确! </span>","null","","","","","","","","","","","","","","","","","","","","","","","feedback_test",""
"","","","","","psychophysics","419","1087055","0.0-18.1-0.1-0.39","823","","d","","","","","","","","","","","","","key","d","16.658157407407458","768","428","d","true","img/H_28.png","自我","prac_stranger","","自我"
"","","","","","html-keyboard-response","420","1087364","0.0-18.1-0.1-1.39","null","<span style='color:GreenYellow; font-size: 70px;'>正确! </span>","null","","","","","","","","","","","","","","","","","","","","","","","feedback_test",""
"","","","","","psychophysics","421","1089125","0.0-18.1-0.1-0.40","755","","k","","","","","","","","","","","","","key","k","16.659269230769358","768","428","d","false","img/C_28.png","朋友","prac_stranger","","朋友"
"","","","","","html-keyboard-response","422","1089433","0.0-18.1-0.1-1.40","null","<span style='color:red; font-size: 70px;'>错误! </span>","null","","","","","","","","","","","","","","","","","","","","","","","feedback_test",""
"","","","","","psychophysics","423","1091583","0.0-18.1-0.1-0.41","1137","","k","","","","","","","","","","","","","key","k","16.658421874999476","768","428","k","true","img/S_28.png","生人","prac_stranger","","生人"
"","","","","","html-keyboard-response","424","1091898","0.0-18.1-0.1-1.41","null","<span style='color:GreenYellow; font-size: 70px;'>正确! </span>","null","","","","","","","","","","","","","","","","","","","","","","","feedback_test",""
