"success","timeout","failed_images","failed_audio","failed_video","trial_type","trial_index","time_elapsed","internal_node_id","rt","stimulus","response","value","item_width_mm","item_height_mm","item_width_px","px2mm","view_dist_mm","item_width_deg","px2deg","scale_factor","win_width_deg","win_height_deg","view_history","response_type","key_press","avg_frame_time","center_x","center_y","correct_response","correct","Image","text","condition","screen_id","label"
"true","false","[]","[]","[]","preload","0","40","0.0-0.0","","","","","","","","","","","","","","","","","","","","","","","","","","",""
"","","","","","html-keyboard-response","1","5542","0.0-1.0","5497","
     <p>您好，欢迎参加本次实验。</p>
     <p>为充分保障您的权利，请确保您已经知晓并同意《参与实验同意书》以及《数据公开知情同意书》。</p>
     <p>如果您未见过上述内容，请咨询实验员。</p>
     <p>如果您选择继续实验，则表示您已经清楚两份知情同意书的内容并同意。</p>
     <p> <div style = ""color: green""><按任意键至下页></div> </p>
     "," ","","","","","","","","","","","","","","","","","","","","","","","",""
"","","","","","html-keyboard-response","2","6307","0.0-2.0","764","
     <p>本实验首先需要您填写一些基本个人信息。</p>
     <p> <div style = ""color: green""><按任意键至下页></div></p>
     "," ","","","","","","","","","","","","","","","","","","","","","","","",""
"","","","","","call-function","3","6308","0.0-3.0-0.0","","","","","","","","","","","","","","","","","","","","","","","","","","",""
"","","","","","survey-html-form","4","11143","0.0-3.0-1.0","4833","","{""Q0"":""59""}","","","","","","","","","","","","","","","","","","","","","","","",""
"","","","","","html-button-response","5","12081","0.0-3.0-2.0","935","<p style = 'color : white'>您的性别</p>","1","","","","","","","","","","","","","","","","","","","","","","","",""
"","","","","","survey-html-form","6","15128","0.0-3.0-3.0","3046","","{""Q0"":""2000""}","","","","","","","","","","","","","","","","","","","","","","","",""
"","","","","","survey-html-form","7","16961","0.0-3.0-4.0","1832","","{""Q0"":""6""}","","","","","","","","","","","","","","","","","","","","","","","",""
"","","","","","virtual-chinrest","8","56848","0.0-4.0","39885","","","","85.6","53.98","506.1725519351876","5.920969048871484","483.21","10.12345103870375","50","0.6400979246331917","29.64","15.08","","","","","","","","","","","","",""
"true","","","","","fullscreen","9","59163","0.0-5.0","","","","","","","","","","","","","","","","","","","","","","","","","","",""
"","","","","","instructions","10","82329","0.0-6.0","23164","","","","","","","","","","","","","","[{""page_index"":0,""viewing_time"":1245},{""page_index"":1,""viewing_time"":5974},{""page_index"":2,""viewing_time"":13753},{""page_index"":3,""viewing_time"":1216},{""page_index"":4,""viewing_time"":976}]","","","","","","","","","","","",""
"","","","","","instructions","11","93416","0.0-7.0","11087","","","","","","","","","","","","","","[{""page_index"":0,""viewing_time"":11086}]","","","","","","","","","","","",""
"","","","","","psychophysics","12","96559","0.0-8.0-0.0-0.0","2137","","d","","","","","","","","","","","","","key","d","16.659212765957452","768","428","d","true","img/S_28.png","生人","freeprac_self","",""
"","","","","","html-keyboard-response","13","96864","0.0-8.0-0.0-1.0","null","<span style='color:GreenYellow; font-size: 70px;'>正确! </span>","null","","","","","","","","","","","","","","","","","","","","","","","feedback_test",""
"","","","","","psychophysics","14","98757","0.0-8.0-0.0-0.1","888","","j","","","","","","","","","","","","","key","j","16.65776991150437","768","428","j","true","img/H_28.png","自我","freeprac_self","",""
"","","","","","html-keyboard-response","15","99066","0.0-8.0-0.0-1.1","null","<span style='color:GreenYellow; font-size: 70px;'>正确! </span>","null","","","","","","","","","","","","","","","","","","","","","","","feedback_test",""
"","","","","","psychophysics","16","102279","0.0-8.0-0.0-0.2","2211","","d","","","","","","","","","","","","","key","d","16.659479166666642","768","428","f","false","img/S_28.png","朋友","freeprac_self","",""
"","","","","","html-keyboard-response","17","102590","0.0-8.0-0.0-1.2","null","<span style='color:red; font-size: 70px;'>错误! </span>","null","","","","","","","","","","","","","","","","","","","","","","","feedback_test",""
"","","","","","psychophysics","18","105396","0.0-8.0-0.0-0.3","1802","","f","","","","","","","","","","","","","key","f","16.657562874251465","768","428","d","false","img/C_28.png","朋友","freeprac_self","",""
"","","","","","html-keyboard-response","19","105711","0.0-8.0-0.0-1.3","null","<span style='color:red; font-size: 70px;'>错误! </span>","null","","","","","","","","","","","","","","","","","","","","","","","feedback_test",""
"","","","","","psychophysics","20","109205","0.0-8.0-0.0-0.4","2491","","d","","","","","","","","","","","","","key","d","16.659411483253635","768","428","f","false","img/C_28.png","生人","freeprac_self","",""
"","","","","","html-keyboard-response","21","109509","0.0-8.0-0.0-1.4","null","<span style='color:red; font-size: 70px;'>错误! </span>","null","","","","","","","","","","","","","","","","","","","","","","","feedback_test",""
"","","","","","psychophysics","22","112540","0.0-8.0-0.0-0.5","2015","","k","","","","","","","","","","","","","key","k","16.658828729281804","768","428","k","true","img/H_28.png","朋友","freeprac_self","",""
"","","","","","html-keyboard-response","23","112845","0.0-8.0-0.0-1.5","null","<span style='color:GreenYellow; font-size: 70px;'>正确! </span>","null","","","","","","","","","","","","","","","","","","","","","","","feedback_test",""
"","","","","","psychophysics","24","116365","0.0-8.0-0.0-0.6","2507","","f","","","","","","","","","","","","","key","f","16.65931904761902","768","428","d","false","img/C_28.png","自我","freeprac_self","",""
"","","","","","html-keyboard-response","25","116679","0.0-8.0-0.0-1.6","null","<span style='color:red; font-size: 70px;'>错误! </span>","null","","","","","","","","","","","","","","","","","","","","","","","feedback_test",""
"","","","","","psychophysics","26","120137","0.0-8.0-0.0-0.7","2436","","d","","","","","","","","","","","","","key","d","16.65736407766991","768","428","f","false","img/S_28.png","朋友","freeprac_self","",""
"","","","","","html-keyboard-response","27","120450","0.0-8.0-0.0-1.7","null","<span style='color:red; font-size: 70px;'>错误! </span>","null","","","","","","","","","","","","","","","","","","","","","","","feedback_test",""
"","","","","","psychophysics","28","122738","0.0-8.0-0.0-0.8","1282","","j","","","","","","","","","","","","","key","j","16.656499999999998","768","428","k","false","img/H_28.png","生人","freeprac_self","",""
"","","","","","html-keyboard-response","29","123041","0.0-8.0-0.0-1.8","null","<span style='color:red; font-size: 70px;'>错误! </span>","null","","","","","","","","","","","","","","","","","","","","","","","feedback_test",""
"","","","","","psychophysics","30","125104","0.0-8.0-0.0-0.9","1059","","j","","","","","","","","","","","","","key","j","16.659852459016456","768","428","j","true","img/H_28.png","自我","freeprac_self","",""
"","","","","","html-keyboard-response","31","125412","0.0-8.0-0.0-1.9","null","<span style='color:GreenYellow; font-size: 70px;'>正确! </span>","null","","","","","","","","","","","","","","","","","","","","","","","feedback_test",""
"","","","","","psychophysics","32","127433","0.0-8.0-0.0-0.10","1011","","k","","","","","","","","","","","","","key","k","16.657916666666644","768","428","d","false","img/S_28.png","自我","freeprac_self","",""
"","","","","","html-keyboard-response","33","127735","0.0-8.0-0.0-1.10","null","<span style='color:red; font-size: 70px;'>错误! </span>","null","","","","","","","","","","","","","","","","","","","","","","","feedback_test",""
"","","","","","psychophysics","34","131573","0.0-8.0-0.0-0.11","2837","","d","","","","","","","","","","","","","key","d","16.653475982532786","768","428","f","false","img/C_28.png","生人","freeprac_self","",""
"","","","","","html-keyboard-response","35","131886","0.0-8.0-0.0-1.11","null","<span style='color:red; font-size: 70px;'>错误! </span>","null","","","","","","","","","","","","","","","","","","","","","","","feedback_test",""
"","","","","","html-keyboard-response","36","165928","0.0-8.0-1.0-0.0","34038","<style>.context{color:white; font-size: 35px; line-height:40px}</style>                              <div><p class='context'>您正确回答了33% 的试次。</p><p class='context'>您的平均反应时为1525毫秒。</p>"," ","","","","","","","","","","","","","","","","","","","","","","","",""
"","","","","","instructions","37","190114","0.0-8.0-1.0-1.0","24183","","","","","","","","","","","","","","[{""page_index"":0,""viewing_time"":2025},{""page_index"":1,""viewing_time"":18854},{""page_index"":2,""viewing_time"":3304}]","","","","","","","","","","","",""
"","","","","","psychophysics","38","194921","0.0-8.1-0.1-0.12","3803","","f","","","","","","","","","","","","","key","f","16.657559027777804","768","428","d","false","img/S_28.png","自我","freeprac_self","",""
"","","","","","html-keyboard-response","39","195223","0.0-8.1-0.1-1.12","null","<span style='color:red; font-size: 70px;'>错误! </span>","null","","","","","","","","","","","","","","","","","","","","","","","feedback_test",""
"","","","","","psychophysics","40","199253","0.0-8.1-0.1-0.13","3028","","k","","","","","","","","","","","","","key","k","16.655966804979208","768","428","k","true","img/H_28.png","朋友","freeprac_self","",""
"","","","","","html-keyboard-response","41","199562","0.0-8.1-0.1-1.13","null","<span style='color:GreenYellow; font-size: 70px;'>正确! </span>","null","","","","","","","","","","","","","","","","","","","","","","","feedback_test",""
"","","","","","psychophysics","42","205691","0.0-8.1-0.1-0.14","5101","","f","","","","","","","","","","","","","key","f","16.655639344262315","768","428","d","false","img/C_28.png","自我","freeprac_self","",""
"","","","","","html-keyboard-response","43","205994","0.0-8.1-0.1-1.14","null","<span style='color:red; font-size: 70px;'>错误! </span>","null","","","","","","","","","","","","","","","","","","","","","","","feedback_test",""
"","","","","","psychophysics","44","208507","0.0-8.1-0.1-0.15","1498","","k","","","","","","","","","","","","","key","k","16.655395973154427","768","428","k","true","img/H_28.png","生人","freeprac_self","",""
"","","","","","html-keyboard-response","45","208823","0.0-8.1-0.1-1.15","null","<span style='color:GreenYellow; font-size: 70px;'>正确! </span>","null","","","","","","","","","","","","","","","","","","","","","","","feedback_test",""
"","","","","","psychophysics","46","212025","0.0-8.1-0.1-0.16","2201","","f","","","","","","","","","","","","","key","f","16.653221052631547","768","428","f","true","img/S_28.png","朋友","freeprac_self","",""
"","","","","","html-keyboard-response","47","212332","0.0-8.1-0.1-1.16","null","<span style='color:GreenYellow; font-size: 70px;'>正确! </span>","null","","","","","","","","","","","","","","","","","","","","","","","feedback_test",""
"","","","","","psychophysics","48","214846","0.0-8.1-0.1-0.17","1512","","j","","","","","","","","","","","","","key","j","16.657706666666588","768","428","j","true","img/H_28.png","自我","freeprac_self","",""
"","","","","","html-keyboard-response","49","215158","0.0-8.1-0.1-1.17","null","<span style='color:GreenYellow; font-size: 70px;'>正确! </span>","null","","","","","","","","","","","","","","","","","","","","","","","feedback_test",""
"","","","","","psychophysics","50","219040","0.0-8.1-0.1-0.18","2877","","d","","","","","","","","","","","","","key","d","16.657426724138","768","428","d","true","img/S_28.png","生人","freeprac_self","",""
"","","","","","html-keyboard-response","51","219355","0.0-8.1-0.1-1.18","null","<span style='color:GreenYellow; font-size: 70px;'>正确! </span>","null","","","","","","","","","","","","","","","","","","","","","","","feedback_test",""
"","","","","","psychophysics","52","221572","0.0-8.1-0.1-0.19","1204","","j","","","","","","","","","","","","","key","j","16.657492424242566","768","428","j","true","img/H_28.png","自我","freeprac_self","",""
"","","","","","html-keyboard-response","53","221884","0.0-8.1-0.1-1.19","null","<span style='color:GreenYellow; font-size: 70px;'>正确! </span>","null","","","","","","","","","","","","","","","","","","","","","","","feedback_test",""
"","","","","","psychophysics","54","225057","0.0-8.1-0.1-0.20","2161","","f","","","","","","","","","","","","","key","f","16.6573174603175","768","428","f","true","img/C_28.png","生人","freeprac_self","",""
"","","","","","html-keyboard-response","55","225365","0.0-8.1-0.1-1.20","null","<span style='color:GreenYellow; font-size: 70px;'>正确! </span>","null","","","","","","","","","","","","","","","","","","","","","","","feedback_test",""
"","","","","","psychophysics","56","229002","0.0-8.1-0.1-0.21","2619","","f","","","","","","","","","","","","","key","f","16.657640552995318","768","428","f","true","img/S_28.png","朋友","freeprac_self","",""
"","","","","","html-keyboard-response","57","229319","0.0-8.1-0.1-1.21","null","<span style='color:GreenYellow; font-size: 70px;'>正确! </span>","null","","","","","","","","","","","","","","","","","","","","","","","feedback_test",""
"","","","","","psychophysics","58","232825","0.0-8.1-0.1-0.22","2480","","f","","","","","","","","","","","","","key","f","16.65603349282299","768","428","f","true","img/C_28.png","生人","freeprac_self","",""
"","","","","","html-keyboard-response","59","233132","0.0-8.1-0.1-1.22","null","<span style='color:GreenYellow; font-size: 70px;'>正确! </span>","null","","","","","","","","","","","","","","","","","","","","","","","feedback_test",""
"","","","","","psychophysics","60","236639","0.0-8.1-0.1-0.23","2496","","d","","","","","","","","","","","","","key","d","16.659253588516815","768","428","d","true","img/C_28.png","朋友","freeprac_self","",""
"","","","","","html-keyboard-response","61","236943","0.0-8.1-0.1-1.23","null","<span style='color:GreenYellow; font-size: 70px;'>正确! </span>","null","","","","","","","","","","","","","","","","","","","","","","","feedback_test",""
"","","","","","html-keyboard-response","62","275754","0.0-9.0","38810","[""<style>.context{color:white; font-size: 35px; line-height:40px}</style>              <div><p class='context'>您正确回答了83% 的试次。</p><p class='context'>您的平均反应时为2208毫秒。</p><p class='context'>恭喜您完成这一阶段的练习。按任意键进入<span style='color: yellow;'>重点关注图形为“朋友”</span>的练习。</p></div><p class='footer' style='font-size:35px; line-height:30px;'>任务要求：\n              <p class='footer' style='font-size:35px; line-height:35px;'>对于与“朋友”对应的图形：如果 匹配 ，请按 <span style=\""color: lightgreen;\"">j键</span></p><p class='footer' style='font-size:35px'>如果 不匹配 ，请按<span style=\""color: lightgreen;\"">k键</p></span>\n              <p class='footer' style='font-size:35px; line-height:35px;'>对于非“朋友”对应的图形：如果 匹配 ，请按 <span style=\""color: lightgreen;\"">f键</span></p><p class='footer' style='font-size:35px'>如果 不匹配 ，请按<span style=\""color: lightgreen;\"">d键</p></span>\n              <p class='footer' style='font-size:22px; line-height:25px;'>请在实验过程中将您的<span style=\""color: lightgreen;\"">食指和中指</span>放在电脑键盘的相应键位上进行按键。</p></span>""]"," ","","","","","","","","","","","","","","","","","","","","","","","",""
"","","","","","psychophysics","63","280239","0.0-10.0-0.0-0.0","3469","","d","","","","","","","","","","","","","key","d","16.658865671641795","768","428","d","true","img/C_28.png","朋友","freeprac_friend","",""
"","","","","","html-keyboard-response","64","280554","0.0-10.0-0.0-1.0","null","<span style='color:GreenYellow; font-size: 70px;'>正确! </span>","null","","","","","","","","","","","","","","","","","","","","","","","feedback_test",""
"","","","","","psychophysics","65","284935","0.0-10.0-0.0-0.1","3349","","j","","","","","","","","","","","","","key","j","16.65847709923667","768","428","j","true","img/S_28.png","朋友","freeprac_friend","",""
"","","","","","html-keyboard-response","66","285244","0.0-10.0-0.0-1.1","null","<span style='color:GreenYellow; font-size: 70px;'>正确! </span>","null","","","","","","","","","","","","","","","","","","","","","","","feedback_test",""
"","","","","","psychophysics","67","290004","0.0-10.0-0.0-0.2","3756","","d","","","","","","","","","","","","","key","d","16.65847017543856","768","428","d","true","img/C_28.png","自我","freeprac_friend","",""
"","","","","","html-keyboard-response","68","290317","0.0-10.0-0.0-1.2","null","<span style='color:GreenYellow; font-size: 70px;'>正确! </span>","null","","","","","","","","","","","","","","","","","","","","","","","feedback_test",""
"","","","","","psychophysics","69","293498","0.0-10.0-0.0-0.3","2169","","f","","","","","","","","","","","","","key","f","16.657052631578775","768","428","f","true","img/H_28.png","自我","freeprac_friend","",""
"","","","","","html-keyboard-response","70","293814","0.0-10.0-0.0-1.3","null","<span style='color:GreenYellow; font-size: 70px;'>正确! </span>","null","","","","","","","","","","","","","","","","","","","","","","","feedback_test",""
"","","","","","psychophysics","71","297313","0.0-10.0-0.0-0.4","2487","","j","","","","","","","","","","","","","key","j","16.65671291866041","768","428","j","true","img/S_28.png","朋友","freeprac_friend","",""
"","","","","","html-keyboard-response","72","297626","0.0-10.0-0.0-1.4","null","<span style='color:GreenYellow; font-size: 70px;'>正确! </span>","null","","","","","","","","","","","","","","","","","","","","","","","feedback_test",""
"","","","","","psychophysics","73","300012","0.0-10.0-0.0-0.5","1384","","k","","","","","","","","","","","","","key","k","16.657584507042102","768","428","k","true","img/S_28.png","生人","freeprac_friend","",""
"","","","","","html-keyboard-response","74","300322","0.0-10.0-0.0-1.5","null","<span style='color:GreenYellow; font-size: 70px;'>正确! </span>","null","","","","","","","","","","","","","","","","","","","","","","","feedback_test",""
"","","","","","psychophysics","75","304194","0.0-10.0-0.0-0.6","2870","","d","","","","","","","","","","","","","key","d","16.657268398268513","768","428","d","true","img/H_28.png","朋友","freeprac_friend","",""
"","","","","","html-keyboard-response","76","304502","0.0-10.0-0.0-1.6","null","<span style='color:GreenYellow; font-size: 70px;'>正确! </span>","null","","","","","","","","","","","","","","","","","","","","","","","feedback_test",""
"","","","","","psychophysics","77","307913","0.0-10.0-0.0-0.7","2410","","f","","","","","","","","","","","","","key","f","16.65851470588235","768","428","f","true","img/C_28.png","生人","freeprac_friend","",""
"","","","","","html-keyboard-response","78","308230","0.0-10.0-0.0-1.7","null","<span style='color:GreenYellow; font-size: 70px;'>正确! </span>","null","","","","","","","","","","","","","","","","","","","","","","","feedback_test",""
"","","","","","psychophysics","79","311692","0.0-10.0-0.0-0.8","2441","","k","","","","","","","","","","","","","key","k","16.657458937197983","768","428","k","true","img/S_28.png","自我","freeprac_friend","",""
"","","","","","html-keyboard-response","80","312003","0.0-10.0-0.0-1.8","null","<span style='color:GreenYellow; font-size: 70px;'>正确! </span>","null","","","","","","","","","","","","","","","","","","","","","","","feedback_test",""
"","","","","","psychophysics","81","316153","0.0-10.0-0.0-0.9","3137","","f","","","","","","","","","","","","","key","f","16.656096774193546","768","428","f","true","img/C_28.png","生人","freeprac_friend","",""
"","","","","","html-keyboard-response","82","316467","0.0-10.0-0.0-1.9","null","<span style='color:GreenYellow; font-size: 70px;'>正确! </span>","null","","","","","","","","","","","","","","","","","","","","","","","feedback_test",""
"","","","","","psychophysics","83","318875","0.0-10.0-0.0-0.10","1379","","k","","","","","","","","","","","","","key","k","16.658650349650184","768","428","f","false","img/H_28.png","自我","freeprac_friend","",""
"","","","","","html-keyboard-response","84","319186","0.0-10.0-0.0-1.10","null","<span style='color:red; font-size: 70px;'>错误! </span>","null","","","","","","","","","","","","","","","","","","","","","","","feedback_test",""
"","","","","","psychophysics","85","323583","0.0-10.0-0.0-0.11","3387","","d","","","","","","","","","","","","","key","d","16.65608745247162","768","428","d","true","img/H_28.png","生人","freeprac_friend","",""
"","","","","","html-keyboard-response","86","323894","0.0-10.0-0.0-1.11","null","<span style='color:GreenYellow; font-size: 70px;'>正确! </span>","null","","","","","","","","","","","","","","","","","","","","","","","feedback_test",""
"","","","","","html-keyboard-response","87","354868","0.0-11.0","30973","[""<style>.context{color:white; font-size: 35px; line-height:40px}</style>                  <div><p class='context'>您正确回答了92% 的试次。</p><p class='context'>您的平均反应时为2805毫秒。</p><p class='context'>恭喜您完成这一阶段的练习。按任意键进入<span style='color: yellow;'>重点关注图形为“生人”</span>的练习。</p></div><p class='footer' style='font-size:35px; line-height:30px;'>任务要求：\n                  <p class='footer' style='font-size:35px; line-height:35px;'>对与“生人”对应的图形，如果 匹配 ，请按 <span style=\""color: lightgreen;\"">j键</span></p><p class='footer' style='font-size:35px'>如果 不匹配 ，请按<span style=\""color: lightgreen;\"">k键</p></span>\n                  <p class='footer' style='font-size:35px; line-height:35px;'>对非“生人”对应的图形，如果 匹配 ，请按 <span style=\""color: lightgreen;\"">f键</span></p><p class='footer' style='font-size:35px'>如果 不匹配 ，请按<span style=\""color: lightgreen;\"">d键</p></span>\n                  <p class='footer' style='font-size:22px; line-height:25px;'>请在实验过程中将您的<span style=\""color: lightgreen;\"">食指和中指</span>放在电脑键盘的相应键位上进行按键。</p></span>""]"," ","","","","","","","","","","","","","","","","","","","","","","","",""
"","","","","","psychophysics","88","359894","0.0-12.0-0.0-0.0","4018","","d","","","","","","","","","","","","","key","d","16.65751495016615","768","428","d","true","img/S_28.png","生人","freeprac_stranger","",""
"","","","","","html-keyboard-response","89","360199","0.0-12.0-0.0-1.0","null","<span style='color:GreenYellow; font-size: 70px;'>正确! </span>","null","","","","","","","","","","","","","","","","","","","","","","","feedback_test",""
"","","","","","psychophysics","90","365077","0.0-12.0-0.0-0.1","3877","","d","","","","","","","","","","","","","key","d","16.656527397260295","768","428","d","true","img/H_28.png","朋友","freeprac_stranger","",""
"","","","","","html-keyboard-response","91","365384","0.0-12.0-0.0-1.1","null","<span style='color:GreenYellow; font-size: 70px;'>正确! </span>","null","","","","","","","","","","","","","","","","","","","","","","","feedback_test",""
"","","","","","psychophysics","92","368324","0.0-12.0-0.0-0.2","1935","","j","","","","","","","","","","","","","key","j","16.659778409091153","768","428","j","true","img/C_28.png","生人","freeprac_stranger","",""
"","","","","","html-keyboard-response","93","368634","0.0-12.0-0.0-1.2","null","<span style='color:GreenYellow; font-size: 70px;'>正确! </span>","null","","","","","","","","","","","","","","","","","","","","","","","feedback_test",""
"","","","","","psychophysics","94","371022","0.0-12.0-0.0-0.3","1384","","k","","","","","","","","","","","","","key","k","16.65968309859147","768","428","k","true","img/C_28.png","自我","freeprac_stranger","",""
"","","","","","html-keyboard-response","95","371328","0.0-12.0-0.0-1.3","null","<span style='color:GreenYellow; font-size: 70px;'>正确! </span>","null","","","","","","","","","","","","","","","","","","","","","","","feedback_test",""
"","","","","","psychophysics","96","376091","0.0-12.0-0.0-0.4","3761","","d","","","","","","","","","","","","","key","d","16.656708771929864","768","428","d","true","img/S_28.png","自我","freeprac_stranger","",""
"","","","","","html-keyboard-response","97","376405","0.0-12.0-0.0-1.4","null","<span style='color:GreenYellow; font-size: 70px;'>正确! </span>","null","","","","","","","","","","","","","","","","","","","","","","","feedback_test",""
"","","","","","psychophysics","98","379666","0.0-12.0-0.0-0.5","2253","","k","","","","","","","","","","","","","key","k","16.65524102564101","768","428","k","true","img/C_28.png","朋友","freeprac_stranger","",""
"","","","","","html-keyboard-response","99","379971","0.0-12.0-0.0-1.5","null","<span style='color:GreenYellow; font-size: 70px;'>正确! </span>","null","","","","","","","","","","","","","","","","","","","","","","","feedback_test",""
"","","","","","psychophysics","100","384331","0.0-12.0-0.0-0.6","3353","","d","","","","","","","","","","","","","key","d","16.656854406130094","768","428","d","true","img/H_28.png","生人","freeprac_stranger","",""
"","","","","","html-keyboard-response","101","384638","0.0-12.0-0.0-1.6","null","<span style='color:GreenYellow; font-size: 70px;'>正确! </span>","null","","","","","","","","","","","","","","","","","","","","","","","feedback_test",""
"","","","","","psychophysics","102","391233","0.0-12.0-0.0-0.7","5590","","d","","","","","","","","","","","","","key","d","16.6572810126582","768","428","f","false","img/S_28.png","朋友","freeprac_stranger","",""
"","","","","","html-keyboard-response","103","391541","0.0-12.0-0.0-1.7","null","<span style='color:red; font-size: 70px;'>错误! </span>","null","","","","","","","","","","","","","","","","","","","","","","","feedback_test",""
"","","","","","psychophysics","104","394966","0.0-12.0-0.0-0.8","2416","","f","","","","","","","","","","","","","key","f","16.657519607843234","768","428","f","true","img/H_28.png","自我","freeprac_stranger","",""
"","","","","","html-keyboard-response","105","395271","0.0-12.0-0.0-1.8","null","<span style='color:GreenYellow; font-size: 70px;'>正确! </span>","null","","","","","","","","","","","","","","","","","","","","","","","feedback_test",""
"","","","","","psychophysics","106","401410","0.0-12.0-0.0-0.9","5125","","d","","","","","","","","","","","","","key","d","16.65756675749316","768","428","f","false","img/S_28.png","朋友","freeprac_stranger","",""
"","","","","","html-keyboard-response","107","401720","0.0-12.0-0.0-1.9","null","<span style='color:red; font-size: 70px;'>错误! </span>","null","","","","","","","","","","","","","","","","","","","","","","","feedback_test",""
"","","","","","psychophysics","108","404445","0.0-12.0-0.0-0.10","1713","","j","","","","","","","","","","","","","key","j","16.655623456789826","768","428","j","true","img/C_28.png","生人","freeprac_stranger","",""
"","","","","","html-keyboard-response","109","404759","0.0-12.0-0.0-1.10","null","<span style='color:GreenYellow; font-size: 70px;'>正确! </span>","null","","","","","","","","","","","","","","","","","","","","","","","feedback_test",""
"","","","","","psychophysics","110","407755","0.0-12.0-0.0-0.11","1991","","f","","","","","","","","","","","","","key","f","16.657703910614806","768","428","f","true","img/H_28.png","自我","freeprac_stranger","",""
"","","","","","html-keyboard-response","111","408065","0.0-12.0-0.0-1.11","null","<span style='color:GreenYellow; font-size: 70px;'>正确! </span>","null","","","","","","","","","","","","","","","","","","","","","","","feedback_test",""
"","","","","","instructions","112","493226","0.0-13.0","85160","","","","","","","","","","","","","","[{""page_index"":0,""viewing_time"":85160}]","","","","","","","","","","","",""
"","","","","","psychophysics","113","495760","0.0-14.0-0.0-0.0","null","","null","","","","","","","","","","","","","key","null","16.657549668874033","768","428","k","false","img/H_28.png","生人","prac_self","","自我"
"","","","","","html-keyboard-response","114","496087","0.0-14.0-0.0-1.0","null","<span class='add_' style='color:yellow; font-size: 70px;'> 太慢! </span>","null","","","","","","","","","","","","","","","","","","","","","","","feedback_test",""
"","","","","","psychophysics","115","498419","0.0-14.0-0.0-0.1","1307","","d","","","","","","","","","","","","","key","d","16.657647482014394","768","428","f","false","img/C_28.png","生人","prac_self","","生人"
"","","","","","html-keyboard-response","116","498735","0.0-14.0-0.0-1.1","null","<span style='color:red; font-size: 70px;'>错误! </span>","null","","","","","","","","","","","","","","","","","","","","","","","feedback_test",""
"","","","","","psychophysics","117","501244","0.0-14.0-0.0-0.2","null","","null","","","","","","","","","","","","","key","null","16.66004697986544","768","428","d","false","img/C_28.png","朋友","prac_self","","生人"
"","","","","","html-keyboard-response","118","501548","0.0-14.0-0.0-1.2","null","<span class='add_' style='color:yellow; font-size: 70px;'> 太慢! </span>","null","","","","","","","","","","","","","","","","","","","","","","","feedback_test",""
"","","","","","psychophysics","119","504075","0.0-14.0-0.0-0.3","null","","null","","","","","","","","","","","","","key","null","16.659873333333525","768","428","k","false","img/H_28.png","朋友","prac_self","","自我"
"","","","","","html-keyboard-response","120","504377","0.0-14.0-0.0-1.3","null","<span class='add_' style='color:yellow; font-size: 70px;'> 太慢! </span>","null","","","","","","","","","","","","","","","","","","","","","","","feedback_test",""
"","","","","","psychophysics","121","506625","0.0-14.0-0.0-0.4","1238","","f","","","","","","","","","","","","","key","f","16.654798507462377","768","428","f","true","img/S_28.png","朋友","prac_self","","朋友"
"","","","","","html-keyboard-response","122","506941","0.0-14.0-0.0-1.4","null","<span style='color:GreenYellow; font-size: 70px;'>正确! </span>","null","","","","","","","","","","","","","","","","","","","","","","","feedback_test",""
"","","","","","psychophysics","123","508946","0.0-14.0-0.0-0.5","1003","","j","","","","","","","","","","","","","key","j","16.656512605042018","768","428","j","true","img/H_28.png","自我","prac_self","","自我"
"","","","","","html-keyboard-response","124","509263","0.0-14.0-0.0-1.5","null","<span style='color:GreenYellow; font-size: 70px;'>正确! </span>","null","","","","","","","","","","","","","","","","","","","","","","","feedback_test",""
"","","","","","psychophysics","125","511118","0.0-14.0-0.0-0.6","843","","j","","","","","","","","","","","","","key","j","16.65389090909104","768","428","j","true","img/H_28.png","自我","prac_self","","自我"
"","","","","","html-keyboard-response","126","511428","0.0-14.0-0.0-1.6","null","<span style='color:GreenYellow; font-size: 70px;'>正确! </span>","null","","","","","","","","","","","","","","","","","","","","","","","feedback_test",""
"","","","","","psychophysics","127","513940","0.0-14.0-0.0-0.7","null","","null","","","","","","","","","","","","","key","null","16.657653333333243","768","428","d","false","img/S_28.png","生人","prac_self","","朋友"
"","","","","","html-keyboard-response","128","514257","0.0-14.0-0.0-1.7","null","<span class='add_' style='color:yellow; font-size: 70px;'> 太慢! </span>","null","","","","","","","","","","","","","","","","","","","","","","","feedback_test",""
"","","","","","psychophysics","129","515975","0.0-14.0-0.0-0.8","705","","d","","","","","","","","","","","","","key","d","16.657401960784245","768","428","f","false","img/C_28.png","生人","prac_self","","生人"
"","","","","","html-keyboard-response","130","516316","0.0-14.0-0.0-1.8","null","<span style='color:red; font-size: 70px;'>错误! </span>","null","","","","","","","","","","","","","","","","","","","","","","","feedback_test",""
"","","","","","psychophysics","131","518825","0.0-14.0-0.0-0.9","null","","null","","","","","","","","","","","","","key","null","16.659733333333474","768","428","f","false","img/S_28.png","朋友","prac_self","","朋友"
"","","","","","html-keyboard-response","132","519138","0.0-14.0-0.0-1.9","null","<span class='add_' style='color:yellow; font-size: 70px;'> 太慢! </span>","null","","","","","","","","","","","","","","","","","","","","","","","feedback_test",""
"","","","","","psychophysics","133","521490","0.0-14.0-0.0-0.10","1341","","d","","","","","","","","","","","","","key","d","16.659942857142806","768","428","d","true","img/S_28.png","自我","prac_self","","朋友"
"","","","","","html-keyboard-response","134","521806","0.0-14.0-0.0-1.10","null","<span style='color:GreenYellow; font-size: 70px;'>正确! </span>","null","","","","","","","","","","","","","","","","","","","","","","","feedback_test",""
"","","","","","psychophysics","135","523676","0.0-14.0-0.0-0.11","861","","f","","","","","","","","","","","","","key","f","16.654621621621626","768","428","d","false","img/C_28.png","自我","prac_self","","生人"
"","","","","","html-keyboard-response","136","523990","0.0-14.0-0.0-1.11","null","<span style='color:red; font-size: 70px;'>错误! </span>","null","","","","","","","","","","","","","","","","","","","","","","","feedback_test",""
"","","","","","psychophysics","137","526513","0.0-14.0-0.0-0.12","null","","null","","","","","","","","","","","","","key","null","16.65742000000008","768","428","d","false","img/S_28.png","自我","prac_self","","朋友"
"","","","","","html-keyboard-response","138","526821","0.0-14.0-0.0-1.12","null","<span class='add_' style='color:yellow; font-size: 70px;'> 太慢! </span>","null","","","","","","","","","","","","","","","","","","","","","","","feedback_test",""
"","","","","","psychophysics","139","528716","0.0-14.0-0.0-0.13","887","","k","","","","","","","","","","","","","key","k","16.66112389380578","768","428","k","true","img/H_28.png","生人","prac_self","","自我"
"","","","","","html-keyboard-response","140","529030","0.0-14.0-0.0-1.13","null","<span style='color:GreenYellow; font-size: 70px;'>正确! </span>","null","","","","","","","","","","","","","","","","","","","","","","","feedback_test",""
"","","","","","psychophysics","141","531310","0.0-14.0-0.0-0.14","1269","","d","","","","","","","","","","","","","key","d","16.65708888888842","768","428","f","false","img/C_28.png","生人","prac_self","","生人"
"","","","","","html-keyboard-response","142","531616","0.0-14.0-0.0-1.14","null","<span style='color:red; font-size: 70px;'>错误! </span>","null","","","","","","","","","","","","","","","","","","","","","","","feedback_test",""
"","","","","","psychophysics","143","534125","0.0-14.0-0.0-0.15","null","","null","","","","","","","","","","","","","key","null","16.656664429530156","768","428","j","false","img/H_28.png","自我","prac_self","","自我"
"","","","","","html-keyboard-response","144","534427","0.0-14.0-0.0-1.15","null","<span class='add_' style='color:yellow; font-size: 70px;'> 太慢! </span>","null","","","","","","","","","","","","","","","","","","","","","","","feedback_test",""
"","","","","","psychophysics","145","536339","0.0-14.0-0.0-0.16","898","","f","","","","","","","","","","","","","key","f","16.65572566371741","768","428","d","false","img/S_28.png","生人","prac_self","","朋友"
"","","","","","html-keyboard-response","146","536654","0.0-14.0-0.0-1.16","null","<span style='color:red; font-size: 70px;'>错误! </span>","null","","","","","","","","","","","","","","","","","","","","","","","feedback_test",""
"","","","","","psychophysics","147","539173","0.0-14.0-0.0-0.17","null","","null","","","","","","","","","","","","","key","null","16.659873333333525","768","428","f","false","img/S_28.png","朋友","prac_self","","朋友"
"","","","","","html-keyboard-response","148","539505","0.0-14.0-0.0-1.17","null","<span class='add_' style='color:yellow; font-size: 70px;'> 太慢! </span>","null","","","","","","","","","","","","","","","","","","","","","","","feedback_test",""
"","","","","","psychophysics","149","542022","0.0-14.0-0.0-0.18","null","","null","","","","","","","","","","","","","key","null","16.656093333333263","768","428","d","false","img/C_28.png","朋友","prac_self","","生人"
"","","","","","html-keyboard-response","150","542349","0.0-14.0-0.0-1.18","null","<span class='add_' style='color:yellow; font-size: 70px;'> 太慢! </span>","null","","","","","","","","","","","","","","","","","","","","","","","feedback_test",""
"","","","","","psychophysics","151","544518","0.0-14.0-0.0-0.19","1151","","f","","","","","","","","","","","","","key","f","16.660062015504224","768","428","f","true","img/C_28.png","生人","prac_self","","生人"
"","","","","","html-keyboard-response","152","544832","0.0-14.0-0.0-1.19","null","<span style='color:GreenYellow; font-size: 70px;'>正确! </span>","null","","","","","","","","","","","","","","","","","","","","","","","feedback_test",""
"","","","","","psychophysics","153","546688","0.0-14.0-0.0-0.20","852","","k","","","","","","","","","","","","","key","k","16.66067567567534","768","428","k","true","img/H_28.png","朋友","prac_self","","自我"
"","","","","","html-keyboard-response","154","546997","0.0-14.0-0.0-1.20","null","<span style='color:GreenYellow; font-size: 70px;'>正确! </span>","null","","","","","","","","","","","","","","","","","","","","","","","feedback_test",""
"","","","","","psychophysics","155","548859","0.0-14.0-0.0-0.21","856","","d","","","","","","","","","","","","","key","d","16.655603603603577","768","428","d","true","img/C_28.png","自我","prac_self","","生人"
"","","","","","html-keyboard-response","156","549175","0.0-14.0-0.0-1.21","null","<span style='color:GreenYellow; font-size: 70px;'>正确! </span>","null","","","","","","","","","","","","","","","","","","","","","","","feedback_test",""
"","","","","","psychophysics","157","551082","0.0-14.0-0.0-0.22","877","","f","","","","","","","","","","","","","key","f","16.65775221238939","768","428","f","true","img/S_28.png","朋友","prac_self","","朋友"
"","","","","","html-keyboard-response","158","551396","0.0-14.0-0.0-1.22","null","<span style='color:GreenYellow; font-size: 70px;'>正确! </span>","null","","","","","","","","","","","","","","","","","","","","","","","feedback_test",""
"","","","","","psychophysics","159","553088","0.0-14.0-0.0-0.23","690","","j","","","","","","","","","","","","","key","j","16.657663366336624","768","428","j","true","img/H_28.png","自我","prac_self","","自我"
"","","","","","html-keyboard-response","160","553397","0.0-14.0-0.0-1.23","null","<span style='color:GreenYellow; font-size: 70px;'>正确! </span>","null","","","","","","","","","","","","","","","","","","","","","","","feedback_test",""
"","","","","","html-keyboard-response","161","561851","0.0-14.0-1.0-0.0","8453","<style>.context{color:white; font-size: 35px; line-height:40px}</style>                              <div><p class='context'>您正确回答了42% 的试次。</p><p class='context'>您的平均反应时为974毫秒。</p>"," ","","","","","","","","","","","","","","","","","","","","","","","",""
"","","","","","instructions","162","577322","0.0-14.0-1.0-1.0","15468","","","","","","","","","","","","","","[{""page_index"":0,""viewing_time"":1721},{""page_index"":1,""viewing_time"":11203},{""page_index"":2,""viewing_time"":2543}]","","","","","","","","","","","",""
"","","","","","psychophysics","163","579339","0.0-14.1-0.1-0.24","1006","","f","","","","","","","","","","","","","key","f","16.654166666666665","768","428","d","false","img/S_28.png","生人","prac_self","","朋友"
"","","","","","html-keyboard-response","164","579679","0.0-14.1-0.1-1.24","null","<span style='color:red; font-size: 70px;'>错误! </span>","null","","","","","","","","","","","","","","","","","","","","","","","feedback_test",""
"","","","","","psychophysics","165","581315","0.0-14.1-0.1-0.25","620","","j","","","","","","","","","","","","","key","j","16.65736082474192","768","428","j","true","img/H_28.png","自我","prac_self","","自我"
"","","","","","html-keyboard-response","166","581617","0.0-14.1-0.1-1.25","null","<span style='color:GreenYellow; font-size: 70px;'>正确! </span>","null","","","","","","","","","","","","","","","","","","","","","","","feedback_test",""
"","","","","","psychophysics","167","583944","0.0-14.1-0.1-0.26","1325","","d","","","","","","","","","","","","","key","d","16.65748550724643","768","428","d","true","img/S_28.png","自我","prac_self","","朋友"
"","","","","","html-keyboard-response","168","584257","0.0-14.1-0.1-1.26","null","<span style='color:GreenYellow; font-size: 70px;'>正确! </span>","null","","","","","","","","","","","","","","","","","","","","","","","feedback_test",""
"","","","","","psychophysics","169","586237","0.0-14.1-0.1-0.27","974","","f","","","","","","","","","","","","","key","f","16.65670338983083","768","428","f","true","img/S_28.png","朋友","prac_self","","朋友"
"","","","","","html-keyboard-response","170","586539","0.0-14.1-0.1-1.27","null","<span style='color:GreenYellow; font-size: 70px;'>正确! </span>","null","","","","","","","","","","","","","","","","","","","","","","","feedback_test",""
"","","","","","psychophysics","171","588305","0.0-14.1-0.1-0.28","759","","f","","","","","","","","","","","","","key","f","16.65831428571449","768","428","f","true","img/C_28.png","生人","prac_self","","生人"
"","","","","","html-keyboard-response","172","588610","0.0-14.1-0.1-1.28","null","<span style='color:GreenYellow; font-size: 70px;'>正确! </span>","null","","","","","","","","","","","","","","","","","","","","","","","feedback_test",""
"","","","","","psychophysics","173","590634","0.0-14.1-0.1-0.29","1023","","k","","","","","","","","","","","","","key","k","16.646941666665953","768","428","k","true","img/H_28.png","朋友","prac_self","","自我"
"","","","","","html-keyboard-response","174","590946","0.0-14.1-0.1-1.29","null","<span style='color:GreenYellow; font-size: 70px;'>正确! </span>","null","","","","","","","","","","","","","","","","","","","","","","","feedback_test",""
"","","","","","psychophysics","175","593214","0.0-14.1-0.1-0.30","1238","","d","","","","","","","","","","","","","key","d","16.65731111111085","768","428","d","true","img/C_28.png","自我","prac_self","","生人"
"","","","","","html-keyboard-response","176","593519","0.0-14.1-0.1-1.30","null","<span style='color:GreenYellow; font-size: 70px;'>正确! </span>","null","","","","","","","","","","","","","","","","","","","","","","","feedback_test",""
"","","","","","psychophysics","177","595648","0.0-14.1-0.1-0.31","1123","","d","","","","","","","","","","","","","key","d","16.657314960630316","768","428","k","false","img/H_28.png","生人","prac_self","","自我"
"","","","","","html-keyboard-response","178","595951","0.0-14.1-0.1-1.31","null","<span style='color:red; font-size: 70px;'>错误! </span>","null","","","","","","","","","","","","","","","","","","","","","","","feedback_test",""
"","","","","","psychophysics","179","598328","0.0-14.1-0.1-0.32","1371","","d","","","","","","","","","","","","","key","d","16.657154929577406","768","428","d","true","img/C_28.png","朋友","prac_self","","生人"
"","","","","","html-keyboard-response","180","598636","0.0-14.1-0.1-1.32","null","<span style='color:GreenYellow; font-size: 70px;'>正确! </span>","null","","","","","","","","","","","","","","","","","","","","","","","feedback_test",""
"","","","","","psychophysics","181","600372","0.0-14.1-0.1-0.33","733","","j","","","","","","","","","","","","","key","j","16.65725242718489","768","428","j","true","img/H_28.png","自我","prac_self","","自我"
"","","","","","html-keyboard-response","182","600681","0.0-14.1-0.1-1.33","null","<span style='color:GreenYellow; font-size: 70px;'>正确! </span>","null","","","","","","","","","","","","","","","","","","","","","","","feedback_test",""
"","","","","","psychophysics","183","602892","0.0-14.1-0.1-0.34","1204","","d","","","","","","","","","","","","","key","d","16.66028030303035","768","428","f","false","img/C_28.png","生人","prac_self","","生人"
"","","","","","html-keyboard-response","184","603194","0.0-14.1-0.1-1.34","null","<span style='color:red; font-size: 70px;'>错误! </span>","null","","","","","","","","","","","","","","","","","","","","","","","feedback_test",""
"","","","","","psychophysics","185","605719","0.0-14.1-0.1-0.35","null","","null","","","","","","","","","","","","","key","null","16.657466666666636","768","428","f","false","img/S_28.png","朋友","prac_self","","朋友"
"","","","","","html-keyboard-response","186","606032","0.0-14.1-0.1-1.35","null","<span class='add_' style='color:yellow; font-size: 70px;'> 太慢! </span>","null","","","","","","","","","","","","","","","","","","","","","","","feedback_test",""
"","","","","","psychophysics","187","608122","0.0-14.1-0.1-0.36","1086","","d","","","","","","","","","","","","","key","d","16.660320000000297","768","428","d","true","img/S_28.png","生人","prac_self","","朋友"
"","","","","","html-keyboard-response","188","608426","0.0-14.1-0.1-1.36","null","<span style='color:GreenYellow; font-size: 70px;'>正确! </span>","null","","","","","","","","","","","","","","","","","","","","","","","feedback_test",""
"","","","","","psychophysics","189","610841","0.0-14.1-0.1-0.37","1409","","d","","","","","","","","","","","","","key","d","16.657611111111084","768","428","d","true","img/C_28.png","自我","prac_self","","生人"
"","","","","","html-keyboard-response","190","611150","0.0-14.1-0.1-1.37","null","<span style='color:GreenYellow; font-size: 70px;'>正确! </span>","null","","","","","","","","","","","","","","","","","","","","","","","feedback_test",""
"","","","","","psychophysics","191","613256","0.0-14.1-0.1-0.38","1093","","f","","","","","","","","","","","","","key","f","16.65431199999992","768","428","f","true","img/S_28.png","朋友","prac_self","","朋友"
"","","","","","html-keyboard-response","192","613568","0.0-14.1-0.1-1.38","null","<span style='color:GreenYellow; font-size: 70px;'>正确! </span>","null","","","","","","","","","","","","","","","","","","","","","","","feedback_test",""
"","","","","","psychophysics","193","615972","0.0-14.1-0.1-0.39","1390","","f","","","","","","","","","","","","","key","f","16.660083916084677","768","428","f","true","img/C_28.png","生人","prac_self","","生人"
"","","","","","html-keyboard-response","194","616284","0.0-14.1-0.1-1.39","null","<span style='color:GreenYellow; font-size: 70px;'>正确! </span>","null","","","","","","","","","","","","","","","","","","","","","","","feedback_test",""
"","","","","","psychophysics","195","617974","0.0-14.1-0.1-0.40","678","","j","","","","","","","","","","","","","key","j","16.653690000000644","768","428","j","true","img/H_28.png","自我","prac_self","","自我"
"","","","","","html-keyboard-response","196","618282","0.0-14.1-0.1-1.40","null","<span style='color:GreenYellow; font-size: 70px;'>正确! </span>","null","","","","","","","","","","","","","","","","","","","","","","","feedback_test",""
"","","","","","psychophysics","197","619886","0.0-14.1-0.1-0.41","591","","j","","","","","","","","","","","","","key","j","16.657168421052447","768","428","j","true","img/H_28.png","自我","prac_self","","自我"
"","","","","","html-keyboard-response","198","620201","0.0-14.1-0.1-1.41","null","<span style='color:GreenYellow; font-size: 70px;'>正确! </span>","null","","","","","","","","","","","","","","","","","","","","","","","feedback_test",""
"","","","","","psychophysics","199","622331","0.0-14.1-0.1-0.42","1113","","k","","","","","","","","","","","","","key","k","16.65970866141775","768","428","d","false","img/S_28.png","自我","prac_self","","朋友"
"","","","","","html-keyboard-response","200","622642","0.0-14.1-0.1-1.42","null","<span style='color:red; font-size: 70px;'>错误! </span>","null","","","","","","","","","","","","","","","","","","","","","","","feedback_test",""
"","","","","","psychophysics","201","624852","0.0-14.1-0.1-0.43","1199","","f","","","","","","","","","","","","","key","f","16.657190839694245","768","428","f","true","img/S_28.png","朋友","prac_self","","朋友"
"","","","","","html-keyboard-response","202","625167","0.0-14.1-0.1-1.43","null","<span style='color:GreenYellow; font-size: 70px;'>正确! </span>","null","","","","","","","","","","","","","","","","","","","","","","","feedback_test",""
"","","","","","psychophysics","203","627221","0.0-14.1-0.1-0.44","1048","","k","","","","","","","","","","","","","key","k","16.66012295081994","768","428","k","true","img/H_28.png","生人","prac_self","","自我"
"","","","","","html-keyboard-response","204","627524","0.0-14.1-0.1-1.44","null","<span style='color:GreenYellow; font-size: 70px;'>正确! </span>","null","","","","","","","","","","","","","","","","","","","","","","","feedback_test",""
"","","","","","psychophysics","205","629798","0.0-14.1-0.1-0.45","1272","","d","","","","","","","","","","","","","key","d","16.65697037037031","768","428","d","true","img/C_28.png","朋友","prac_self","","生人"
"","","","","","html-keyboard-response","206","630108","0.0-14.1-0.1-1.45","null","<span style='color:GreenYellow; font-size: 70px;'>正确! </span>","null","","","","","","","","","","","","","","","","","","","","","","","feedback_test",""
"","","","","","psychophysics","207","631933","0.0-14.1-0.1-0.46","812","","f","","","","","","","","","","","","","key","f","16.657537037037805","768","428","f","true","img/C_28.png","生人","prac_self","","生人"
"","","","","","html-keyboard-response","208","632246","0.0-14.1-0.1-1.46","null","<span style='color:GreenYellow; font-size: 70px;'>正确! </span>","null","","","","","","","","","","","","","","","","","","","","","","","feedback_test",""
"","","","","","psychophysics","209","634142","0.0-14.1-0.1-0.47","855","","k","","","","","","","","","","","","","key","k","16.657646017699232","768","428","k","true","img/H_28.png","朋友","prac_self","","自我"
"","","","","","html-keyboard-response","210","634459","0.0-14.1-0.1-1.47","null","<span style='color:GreenYellow; font-size: 70px;'>正确! </span>","null","","","","","","","","","","","","","","","","","","","","","","","feedback_test",""
"","","","","","html-keyboard-response","211","660593","0.0-15.0","26131","[""<style>.context{color:white; font-size: 35px; line-height:40px}</style>              <div><p class='context'>您正确回答了79% 的试次。</p><p class='context'>您的平均反应时为1025毫秒。</p><p class='context'>恭喜您完成这一阶段的练习。按任意键进入<span style='color: yellow;'>重点关注图形为“朋友”</span>的练习。</p></div><p class='footer' style='font-size:35px; line-height:30px;'>任务要求：\n              <p class='footer' style='font-size:35px; line-height:35px;'>对于与“朋友”对应的图形：如果 匹配 ，请按 <span style=\""color: lightgreen;\"">j键</span></p><p class='footer' style='font-size:35px'>如果 不匹配 ，请按<span style=\""color: lightgreen;\"">k键</p></span>\n              <p class='footer' style='font-size:35px; line-height:35px;'>对于非“朋友”对应的图形：如果 匹配 ，请按 <span style=\""color: lightgreen;\"">f键</span></p><p class='footer' style='font-size:35px'>如果 不匹配 ，请按<span style=\""color: lightgreen;\"">d键</p></span>\n              <p class='footer' style='font-size:22px; line-height:25px;'>请在实验过程中将您的<span style=\""color: lightgreen;\"">食指和中指</span>放在电脑键盘的相应键位上进行按键。</p></span>""]"," ","","","","","","","","","","","","","","","","","","","","","","","",""
"","","","","","psychophysics","212","662698","0.0-16.0-0.0-0.0","1099","","f","","","","","","","","","","","","","key","f","16.65768000000063","768","428","d","false","img/C_28.png","自我","prac_friend","","生人"
"","","","","","html-keyboard-response","213","663011","0.0-16.0-0.0-1.0","null","<span style='color:red; font-size: 70px;'>错误! </span>","null","","","","","","","","","","","","","","","","","","","","","","","feedback_test",""
"","","","","","psychophysics","214","665518","0.0-16.0-0.0-0.1","null","","null","","","","","","","","","","","","","key","null","16.654939597315504","768","428","d","false","img/H_28.png","生人","prac_friend","","自我"
"","","","","","html-keyboard-response","215","665821","0.0-16.0-0.0-1.1","null","<span class='add_' style='color:yellow; font-size: 70px;'> 太慢! </span>","null","","","","","","","","","","","","","","","","","","","","","","","feedback_test",""
"","","","","","psychophysics","216","667847","0.0-16.0-0.0-0.2","1013","","k","","","","","","","","","","","","","key","k","16.65719166666677","768","428","k","true","img/S_28.png","自我","prac_friend","","朋友"
"","","","","","html-keyboard-response","217","668163","0.0-16.0-0.0-1.2","null","<span style='color:GreenYellow; font-size: 70px;'>正确! </span>","null","","","","","","","","","","","","","","","","","","","","","","","feedback_test",""
"","","","","","psychophysics","218","670027","0.0-16.0-0.0-0.3","861","","k","","","","","","","","","","","","","key","k","16.6607027027026","768","428","k","true","img/S_28.png","生人","prac_friend","","朋友"
"","","","","","html-keyboard-response","219","670328","0.0-16.0-0.0-1.3","null","<span style='color:GreenYellow; font-size: 70px;'>正确! </span>","null","","","","","","","","","","","","","","","","","","","","","","","feedback_test",""
"","","","","","psychophysics","220","672234","0.0-16.0-0.0-0.4","889","","j","","","","","","","","","","","","","key","j","16.65771929824545","768","428","j","true","img/S_28.png","朋友","prac_friend","","朋友"
"","","","","","html-keyboard-response","221","672551","0.0-16.0-0.0-1.4","null","<span style='color:GreenYellow; font-size: 70px;'>正确! </span>","null","","","","","","","","","","","","","","","","","","","","","","","feedback_test",""
"","","","","","psychophysics","222","674721","0.0-16.0-0.0-0.5","1159","","d","","","","","","","","","","","","","key","d","16.65772868217106","768","428","d","true","img/C_28.png","朋友","prac_friend","","生人"
"","","","","","html-keyboard-response","223","675033","0.0-16.0-0.0-1.5","null","<span style='color:GreenYellow; font-size: 70px;'>正确! </span>","null","","","","","","","","","","","","","","","","","","","","","","","feedback_test",""
"","","","","","psychophysics","224","677331","0.0-16.0-0.0-0.6","1285","","f","","","","","","","","","","","","","key","f","16.656941605839762","768","428","f","true","img/C_28.png","生人","prac_friend","","生人"
"","","","","","html-keyboard-response","225","677643","0.0-16.0-0.0-1.6","null","<span style='color:GreenYellow; font-size: 70px;'>正确! </span>","null","","","","","","","","","","","","","","","","","","","","","","","feedback_test",""
"","","","","","psychophysics","226","679974","0.0-16.0-0.0-0.7","1330","","d","","","","","","","","","","","","","key","d","16.65738129496437","768","428","f","false","img/H_28.png","自我","prac_friend","","自我"
"","","","","","html-keyboard-response","227","680280","0.0-16.0-0.0-1.7","null","<span style='color:red; font-size: 70px;'>错误! </span>","null","","","","","","","","","","","","","","","","","","","","","","","feedback_test",""
"","","","","","psychophysics","228","682516","0.0-16.0-0.0-0.8","1233","","f","","","","","","","","","","","","","key","f","16.65760902255595","768","428","f","true","img/C_28.png","生人","prac_friend","","生人"
"","","","","","html-keyboard-response","229","682831","0.0-16.0-0.0-1.8","null","<span style='color:GreenYellow; font-size: 70px;'>正确! </span>","null","","","","","","","","","","","","","","","","","","","","","","","feedback_test",""
"","","","","","psychophysics","230","685210","0.0-16.0-0.0-0.9","1367","","f","","","","","","","","","","","","","key","f","16.65752112676068","768","428","f","true","img/H_28.png","自我","prac_friend","","自我"
"","","","","","html-keyboard-response","231","685513","0.0-16.0-0.0-1.9","null","<span style='color:GreenYellow; font-size: 70px;'>正确! </span>","null","","","","","","","","","","","","","","","","","","","","","","","feedback_test",""
"","","","","","psychophysics","232","687466","0.0-16.0-0.0-0.10","948","","j","","","","","","","","","","","","","key","j","16.65575000000034","768","428","j","true","img/S_28.png","朋友","prac_friend","","朋友"
"","","","","","html-keyboard-response","233","687771","0.0-16.0-0.0-1.10","null","<span style='color:GreenYellow; font-size: 70px;'>正确! </span>","null","","","","","","","","","","","","","","","","","","","","","","","feedback_test",""
"","","","","","psychophysics","234","689597","0.0-16.0-0.0-0.11","825","","k","","","","","","","","","","","","","key","k","16.659678899082824","768","428","d","false","img/H_28.png","朋友","prac_friend","","自我"
"","","","","","html-keyboard-response","235","689910","0.0-16.0-0.0-1.11","null","<span style='color:red; font-size: 70px;'>错误! </span>","null","","","","","","","","","","","","","","","","","","","","","","","feedback_test",""
"","","","","","psychophysics","236","691926","0.0-16.0-0.0-0.12","1003","","k","","","","","","","","","","","","","key","k","16.66405833333362","768","428","k","true","img/S_28.png","自我","prac_friend","","朋友"
"","","","","","html-keyboard-response","237","692235","0.0-16.0-0.0-1.12","null","<span style='color:GreenYellow; font-size: 70px;'>正确! </span>","null","","","","","","","","","","","","","","","","","","","","","","","feedback_test",""
"","","","","","psychophysics","238","694116","0.0-16.0-0.0-0.13","869","","j","","","","","","","","","","","","","key","j","16.65566666666649","768","428","j","true","img/S_28.png","朋友","prac_friend","","朋友"
"","","","","","html-keyboard-response","239","694422","0.0-16.0-0.0-1.13","null","<span style='color:GreenYellow; font-size: 70px;'>正确! </span>","null","","","","","","","","","","","","","","","","","","","","","","","feedback_test",""
"","","","","","psychophysics","240","696934","0.0-16.0-0.0-0.14","null","","null","","","","","","","","","","","","","key","null","16.659852348993088","768","428","d","false","img/H_28.png","朋友","prac_friend","","自我"
"","","","","","html-keyboard-response","241","697247","0.0-16.0-0.0-1.14","null","<span class='add_' style='color:yellow; font-size: 70px;'> 太慢! </span>","null","","","","","","","","","","","","","","","","","","","","","","","feedback_test",""
"","","","","","psychophysics","242","699406","0.0-16.0-0.0-0.15","1156","","f","","","","","","","","","","","","","key","f","16.660620155038544","768","428","f","true","img/C_28.png","生人","prac_friend","","生人"
"","","","","","html-keyboard-response","243","699715","0.0-16.0-0.0-1.15","null","<span style='color:GreenYellow; font-size: 70px;'>正确! </span>","null","","","","","","","","","","","","","","","","","","","","","","","feedback_test",""
"","","","","","psychophysics","244","701917","0.0-16.0-0.0-0.16","1202","","k","","","","","","","","","","","","","key","k","16.65697709923674","768","428","k","true","img/S_28.png","生人","prac_friend","","朋友"
"","","","","","html-keyboard-response","245","702228","0.0-16.0-0.0-1.16","null","<span style='color:GreenYellow; font-size: 70px;'>正确! </span>","null","","","","","","","","","","","","","","","","","","","","","","","feedback_test",""
"","","","","","psychophysics","246","704290","0.0-16.0-0.0-0.17","1057","","d","","","","","","","","","","","","","key","d","16.65795121951184","768","428","d","true","img/C_28.png","自我","prac_friend","","生人"
"","","","","","html-keyboard-response","247","704616","0.0-16.0-0.0-1.17","null","<span style='color:GreenYellow; font-size: 70px;'>正确! </span>","null","","","","","","","","","","","","","","","","","","","","","","","feedback_test",""
"","","","","","psychophysics","248","706786","0.0-16.0-0.0-0.18","1140","","f","","","","","","","","","","","","","key","f","16.65521705426301","768","428","d","false","img/H_28.png","生人","prac_friend","","自我"
"","","","","","html-keyboard-response","249","707094","0.0-16.0-0.0-1.18","null","<span style='color:red; font-size: 70px;'>错误! </span>","null","","","","","","","","","","","","","","","","","","","","","","","feedback_test",""
"","","","","","psychophysics","250","709248","0.0-16.0-0.0-0.19","1154","","d","","","","","","","","","","","","","key","d","16.646132812499673","768","428","f","false","img/H_28.png","自我","prac_friend","","自我"
"","","","","","html-keyboard-response","251","709562","0.0-16.0-0.0-1.19","null","<span style='color:red; font-size: 70px;'>错误! </span>","null","","","","","","","","","","","","","","","","","","","","","","","feedback_test",""
"","","","","","psychophysics","252","711430","0.0-16.0-0.0-0.20","854","","j","","","","","","","","","","","","","key","j","16.660387387386994","768","428","j","true","img/S_28.png","朋友","prac_friend","","朋友"
"","","","","","html-keyboard-response","253","711736","0.0-16.0-0.0-1.20","null","<span style='color:GreenYellow; font-size: 70px;'>正确! </span>","null","","","","","","","","","","","","","","","","","","","","","","","feedback_test",""
"","","","","","psychophysics","254","713696","0.0-16.0-0.0-0.21","946","","f","","","","","","","","","","","","","key","f","16.660307692307143","768","428","f","true","img/C_28.png","生人","prac_friend","","生人"
"","","","","","html-keyboard-response","255","714001","0.0-16.0-0.0-1.21","null","<span style='color:GreenYellow; font-size: 70px;'>正确! </span>","null","","","","","","","","","","","","","","","","","","","","","","","feedback_test",""
"","","","","","psychophysics","256","716102","0.0-16.0-0.0-0.22","1095","","d","","","","","","","","","","","","","key","d","16.653959999999962","768","428","f","false","img/H_28.png","自我","prac_friend","","自我"
"","","","","","html-keyboard-response","257","716404","0.0-16.0-0.0-1.22","null","<span style='color:red; font-size: 70px;'>错误! </span>","null","","","","","","","","","","","","","","","","","","","","","","","feedback_test",""
"","","","","","psychophysics","258","718485","0.0-16.0-0.0-0.23","1079","","f","","","","","","","","","","","","","key","f","16.65776612903198","768","428","d","false","img/C_28.png","朋友","prac_friend","","生人"
"","","","","","html-keyboard-response","259","718820","0.0-16.0-0.0-1.23","null","<span style='color:red; font-size: 70px;'>错误! </span>","null","","","","","","","","","","","","","","","","","","","","","","","feedback_test",""
"","","","","","html-keyboard-response","260","720929","0.0-16.0-1.0-0.0","2107","<style>.context{color:white; font-size: 35px; line-height:40px}</style>                              <div><p class='context'>您正确回答了63% 的试次。</p><p class='context'>您的平均反应时为1056毫秒。</p>"," ","","","","","","","","","","","","","","","","","","","","","","","",""
"","","","","","instructions","261","768878","0.0-16.0-1.0-1.0","47946","","","","","","","","","","","","","","[{""page_index"":0,""viewing_time"":1757},{""page_index"":1,""viewing_time"":43902},{""page_index"":2,""viewing_time"":2287}]","","","","","","","","","","","",""
"","","","","","psychophysics","262","770988","0.0-16.1-0.1-0.24","1099","","d","","","","","","","","","","","","","key","d","16.660079999999144","768","428","f","false","img/C_28.png","生人","prac_friend","","生人"
"","","","","","html-keyboard-response","263","771321","0.0-16.1-0.1-1.24","null","<span style='color:red; font-size: 70px;'>错误! </span>","null","","","","","","","","","","","","","","","","","","","","","","","feedback_test",""
"","","","","","psychophysics","264","773666","0.0-16.1-0.1-0.25","1341","","d","","","","","","","","","","","","","key","d","16.6594999999997","768","428","f","false","img/H_28.png","自我","prac_friend","","自我"
"","","","","","html-keyboard-response","265","773979","0.0-16.1-0.1-1.25","null","<span style='color:red; font-size: 70px;'>错误! </span>","null","","","","","","","","","","","","","","","","","","","","","","","feedback_test",""
"","","","","","psychophysics","266","776472","0.0-16.1-0.1-0.26","1482","","d","","","","","","","","","","","","","key","d","16.657466216216562","768","428","d","true","img/C_28.png","朋友","prac_friend","","生人"
"","","","","","html-keyboard-response","267","776787","0.0-16.1-0.1-1.26","null","<span style='color:GreenYellow; font-size: 70px;'>正确! </span>","null","","","","","","","","","","","","","","","","","","","","","","","feedback_test",""
"","","","","","psychophysics","268","778747","0.0-16.1-0.1-0.27","959","","k","","","","","","","","","","","","","key","k","16.659085470085575","768","428","k","true","img/S_28.png","生人","prac_friend","","朋友"
"","","","","","html-keyboard-response","269","779051","0.0-16.1-0.1-1.27","null","<span style='color:GreenYellow; font-size: 70px;'>正确! </span>","null","","","","","","","","","","","","","","","","","","","","","","","feedback_test",""
"","","","","","psychophysics","270","781326","0.0-16.1-0.1-0.28","1273","","d","","","","","","","","","","","","","key","d","16.675514705882318","768","428","d","true","img/H_28.png","生人","prac_friend","","自我"
"","","","","","html-keyboard-response","271","781643","0.0-16.1-0.1-1.28","null","<span style='color:GreenYellow; font-size: 70px;'>正确! </span>","null","","","","","","","","","","","","","","","","","","","","","","","feedback_test",""
"","","","","","psychophysics","272","783595","0.0-16.1-0.1-0.29","942","","f","","","","","","","","","","","","","key","f","16.66079310344829","768","428","f","true","img/C_28.png","生人","prac_friend","","生人"
"","","","","","html-keyboard-response","273","783921","0.0-16.1-0.1-1.29","null","<span style='color:GreenYellow; font-size: 70px;'>正确! </span>","null","","","","","","","","","","","","","","","","","","","","","","","feedback_test",""
"","","","","","psychophysics","274","785761","0.0-16.1-0.1-0.30","826","","j","","","","","","","","","","","","","key","j","16.655770642202295","768","428","j","true","img/S_28.png","朋友","prac_friend","","朋友"
"","","","","","html-keyboard-response","275","786064","0.0-16.1-0.1-1.30","null","<span style='color:GreenYellow; font-size: 70px;'>正确! </span>","null","","","","","","","","","","","","","","","","","","","","","","","feedback_test",""
"","","","","","psychophysics","276","787910","0.0-16.1-0.1-0.31","843","","j","","","","","","","","","","","","","key","j","16.657736363636584","768","428","j","true","img/S_28.png","朋友","prac_friend","","朋友"
"","","","","","html-keyboard-response","277","788225","0.0-16.1-0.1-1.31","null","<span style='color:GreenYellow; font-size: 70px;'>正确! </span>","null","","","","","","","","","","","","","","","","","","","","","","","feedback_test",""
"","","","","","psychophysics","278","790522","0.0-16.1-0.1-0.32","1289","","f","","","","","","","","","","","","","key","f","16.65773722627727","768","428","d","false","img/C_28.png","自我","prac_friend","","生人"
"","","","","","html-keyboard-response","279","790845","0.0-16.1-0.1-1.32","null","<span style='color:red; font-size: 70px;'>错误! </span>","null","","","","","","","","","","","","","","","","","","","","","","","feedback_test",""
"","","","","","psychophysics","280","793277","0.0-16.1-0.1-0.33","1416","","d","","","","","","","","","","","","","key","d","16.659565517241298","768","428","d","true","img/H_28.png","朋友","prac_friend","","自我"
"","","","","","html-keyboard-response","281","793590","0.0-16.1-0.1-1.33","null","<span style='color:GreenYellow; font-size: 70px;'>正确! </span>","null","","","","","","","","","","","","","","","","","","","","","","","feedback_test",""
"","","","","","psychophysics","282","795515","0.0-16.1-0.1-0.34","918","","k","","","","","","","","","","","","","key","k","16.65893913043521","768","428","k","true","img/S_28.png","自我","prac_friend","","朋友"
"","","","","","html-keyboard-response","283","795825","0.0-16.1-0.1-1.34","null","<span style='color:GreenYellow; font-size: 70px;'>正确! </span>","null","","","","","","","","","","","","","","","","","","","","","","","feedback_test",""
"","","","","","psychophysics","284","797904","0.0-16.1-0.1-0.35","1076","","f","","","","","","","","","","","","","key","f","16.65732258064541","768","428","f","true","img/H_28.png","自我","prac_friend","","自我"
"","","","","","html-keyboard-response","285","798214","0.0-16.1-0.1-1.35","null","<span style='color:GreenYellow; font-size: 70px;'>正确! </span>","null","","","","","","","","","","","","","","","","","","","","","","","feedback_test",""
"","","","","","psychophysics","286","800173","0.0-16.1-0.1-0.36","929","","f","","","","","","","","","","","","","key","f","16.657603448275918","768","428","f","true","img/C_28.png","生人","prac_friend","","生人"
"","","","","","html-keyboard-response","287","800480","0.0-16.1-0.1-1.36","null","<span style='color:GreenYellow; font-size: 70px;'>正确! </span>","null","","","","","","","","","","","","","","","","","","","","","","","feedback_test",""
"","","","","","psychophysics","288","802596","0.0-16.1-0.1-0.37","1105","","d","","","","","","","","","","","","","key","d","16.659761904761943","768","428","d","true","img/C_28.png","朋友","prac_friend","","生人"
"","","","","","html-keyboard-response","289","802906","0.0-16.1-0.1-1.37","null","<span style='color:GreenYellow; font-size: 70px;'>正确! </span>","null","","","","","","","","","","","","","","","","","","","","","","","feedback_test",""
"","","","","","psychophysics","290","805347","0.0-16.1-0.1-0.38","1439","","f","","","","","","","","","","","","","key","f","16.657732876712195","768","428","f","true","img/H_28.png","自我","prac_friend","","自我"
"","","","","","html-keyboard-response","291","805651","0.0-16.1-0.1-1.38","null","<span style='color:GreenYellow; font-size: 70px;'>正确! </span>","null","","","","","","","","","","","","","","","","","","","","","","","feedback_test",""
"","","","","","psychophysics","292","807833","0.0-16.1-0.1-0.39","1176","","k","","","","","","","","","","","","","key","k","16.65696923076981","768","428","k","true","img/S_28.png","生人","prac_friend","","朋友"
"","","","","","html-keyboard-response","293","808149","0.0-16.1-0.1-1.39","null","<span style='color:GreenYellow; font-size: 70px;'>正确! </span>","null","","","","","","","","","","","","","","","","","","","","","","","feedback_test",""
"","","","","","psychophysics","294","810174","0.0-16.1-0.1-0.40","1019","","d","","","","","","","","","","","","","key","d","16.654628099173244","768","428","d","true","img/H_28.png","朋友","prac_friend","","自我"
"","","","","","html-keyboard-response","295","810492","0.0-16.1-0.1-1.40","null","<span style='color:GreenYellow; font-size: 70px;'>正确! </span>","null","","","","","","","","","","","","","","","","","","","","","","","feedback_test",""
"","","","","","psychophysics","296","812626","0.0-16.1-0.1-0.41","1120","","f","","","","","","","","","","","","","key","f","16.657110236220312","768","428","f","true","img/C_28.png","生人","prac_friend","","生人"
"","","","","","html-keyboard-response","297","812934","0.0-16.1-0.1-1.41","null","<span style='color:GreenYellow; font-size: 70px;'>正确! </span>","null","","","","","","","","","","","","","","","","","","","","","","","feedback_test",""
"","","","","","psychophysics","298","815166","0.0-16.1-0.1-0.42","1230","","k","","","","","","","","","","","","","key","k","16.660127819549025","768","428","k","true","img/S_28.png","自我","prac_friend","","朋友"
"","","","","","html-keyboard-response","299","815474","0.0-16.1-0.1-1.42","null","<span style='color:GreenYellow; font-size: 70px;'>正确! </span>","null","","","","","","","","","","","","","","","","","","","","","","","feedback_test",""
"","","","","","psychophysics","300","817654","0.0-16.1-0.1-0.43","1177","","f","","","","","","","","","","","","","key","f","16.657746153846023","768","428","f","true","img/H_28.png","自我","prac_friend","","自我"
"","","","","","html-keyboard-response","301","817960","0.0-16.1-0.1-1.43","null","<span style='color:GreenYellow; font-size: 70px;'>正确! </span>","null","","","","","","","","","","","","","","","","","","","","","","","feedback_test",""
"","","","","","psychophysics","302","819855","0.0-16.1-0.1-0.44","889","","j","","","","","","","","","","","","","key","j","16.66078761061942","768","428","j","true","img/S_28.png","朋友","prac_friend","","朋友"
"","","","","","html-keyboard-response","303","820168","0.0-16.1-0.1-1.44","null","<span style='color:GreenYellow; font-size: 70px;'>正确! </span>","null","","","","","","","","","","","","","","","","","","","","","","","feedback_test",""
"","","","","","psychophysics","304","822313","0.0-16.1-0.1-0.45","1132","","f","","","","","","","","","","","","","key","f","16.657992125983814","768","428","d","false","img/H_28.png","生人","prac_friend","","自我"
"","","","","","html-keyboard-response","305","822616","0.0-16.1-0.1-1.45","null","<span style='color:red; font-size: 70px;'>错误! </span>","null","","","","","","","","","","","","","","","","","","","","","","","feedback_test",""
"","","","","","psychophysics","306","824627","0.0-16.1-0.1-0.46","997","","f","","","","","","","","","","","","","key","f","16.65792436974745","768","428","d","false","img/C_28.png","自我","prac_friend","","生人"
"","","","","","html-keyboard-response","307","824937","0.0-16.1-0.1-1.46","null","<span style='color:red; font-size: 70px;'>错误! </span>","null","","","","","","","","","","","","","","","","","","","","","","","feedback_test",""
"","","","","","psychophysics","308","826784","0.0-16.1-0.1-0.47","838","","j","","","","","","","","","","","","","key","j","16.657445454545616","768","428","j","true","img/S_28.png","朋友","prac_friend","","朋友"
"","","","","","html-keyboard-response","309","827088","0.0-16.1-0.1-1.47","null","<span style='color:GreenYellow; font-size: 70px;'>正确! </span>","null","","","","","","","","","","","","","","","","","","","","","","","feedback_test",""
"","","","","","html-keyboard-response","310","896995","0.0-17.0","69904","[""<style>.context{color:white; font-size: 35px; line-height:40px}</style>                  <div><p class='context'>您正确回答了79% 的试次。</p><p class='context'>您的平均反应时为1087毫秒。</p><p class='context'>恭喜您完成这一阶段的练习。按任意键进入<span style='color: yellow;'>重点关注图形为“生人”</span>的练习。</p></div><p class='footer' style='font-size:35px; line-height:30px;'>任务要求：\n                  <p class='footer' style='font-size:35px; line-height:35px;'>对与“生人”对应的图形，如果 匹配 ，请按 <span style=\""color: lightgreen;\"">j键</span></p><p class='footer' style='font-size:35px'>如果 不匹配 ，请按<span style=\""color: lightgreen;\"">k键</p></span>\n                  <p class='footer' style='font-size:35px; line-height:35px;'>对非“生人”对应的图形，如果 匹配 ，请按 <span style=\""color: lightgreen;\"">f键</span></p><p class='footer' style='font-size:35px'>如果 不匹配 ，请按<span style=\""color: lightgreen;\"">d键</p></span>\n                  <p class='footer' style='font-size:22px; line-height:25px;'>请在实验过程中将您的<span style=\""color: lightgreen;\"">食指和中指</span>放在电脑键盘的相应键位上进行按键。</p></span>""]"," ","","","","","","","","","","","","","","","","","","","","","","","",""
"","","","","","psychophysics","311","899494","0.0-18.0-0.0-0.0","1488","","f","","","","","","","","","","","","","key","f","16.6599798657722","768","428","f","true","img/S_28.png","朋友","prac_stranger","","朋友"
"","","","","","html-keyboard-response","312","899795","0.0-18.0-0.0-1.0","null","<span style='color:GreenYellow; font-size: 70px;'>正确! </span>","null","","","","","","","","","","","","","","","","","","","","","","","feedback_test",""
"","","","","","psychophysics","313","901838","0.0-18.0-0.0-0.1","1040","","f","","","","","","","","","","","","","key","f","16.656090163933992","768","428","f","true","img/S_28.png","朋友","prac_stranger","","朋友"
"","","","","","html-keyboard-response","314","902169","0.0-18.0-0.0-1.1","null","<span style='color:GreenYellow; font-size: 70px;'>正确! </span>","null","","","","","","","","","","","","","","","","","","","","","","","feedback_test",""
"","","","","","psychophysics","315","904224","0.0-18.0-0.0-0.2","1038","","j","","","","","","","","","","","","","key","j","16.66054098360664","768","428","j","true","img/C_28.png","生人","prac_stranger","","生人"
"","","","","","html-keyboard-response","316","904526","0.0-18.0-0.0-1.2","null","<span style='color:GreenYellow; font-size: 70px;'>正确! </span>","null","","","","","","","","","","","","","","","","","","","","","","","feedback_test",""
"","","","","","psychophysics","317","906693","0.0-18.0-0.0-0.3","1164","","f","","","","","","","","","","","","","key","f","16.657000000000203","768","428","f","true","img/H_28.png","自我","prac_stranger","","自我"
"","","","","","html-keyboard-response","318","907004","0.0-18.0-0.0-1.3","null","<span style='color:GreenYellow; font-size: 70px;'>正确! </span>","null","","","","","","","","","","","","","","","","","","","","","","","feedback_test",""
"","","","","","psychophysics","319","908884","0.0-18.0-0.0-0.4","867","","d","","","","","","","","","","","","","key","d","16.65733035714324","768","428","d","true","img/S_28.png","自我","prac_stranger","","朋友"
"","","","","","html-keyboard-response","320","909191","0.0-18.0-0.0-1.4","null","<span style='color:GreenYellow; font-size: 70px;'>正确! </span>","null","","","","","","","","","","","","","","","","","","","","","","","feedback_test",""
"","","","","","psychophysics","321","911213","0.0-18.0-0.0-0.5","998","","f","","","","","","","","","","","","","key","f","16.658383333332797","768","428","f","true","img/H_28.png","自我","prac_stranger","","自我"
"","","","","","html-keyboard-response","322","911522","0.0-18.0-0.0-1.5","null","<span style='color:GreenYellow; font-size: 70px;'>正确! </span>","null","","","","","","","","","","","","","","","","","","","","","","","feedback_test",""
"","","","","","psychophysics","323","914027","0.0-18.0-0.0-0.6","null","","null","","","","","","","","","","","","","key","null","16.657570469798678","768","428","d","false","img/H_28.png","朋友","prac_stranger","","自我"
"","","","","","html-keyboard-response","324","914342","0.0-18.0-0.0-1.6","null","<span class='add_' style='color:yellow; font-size: 70px;'> 太慢! </span>","null","","","","","","","","","","","","","","","","","","","","","","","feedback_test",""
"","","","","","psychophysics","325","916327","0.0-18.0-0.0-0.7","982","","k","","","","","","","","","","","","","key","k","16.6574491525426","768","428","k","true","img/C_28.png","朋友","prac_stranger","","生人"
"","","","","","html-keyboard-response","326","916631","0.0-18.0-0.0-1.7","null","<span style='color:GreenYellow; font-size: 70px;'>正确! </span>","null","","","","","","","","","","","","","","","","","","","","","","","feedback_test",""
"","","","","","psychophysics","327","918542","0.0-18.0-0.0-0.8","898","","j","","","","","","","","","","","","","key","j","16.65730088495596","768","428","j","true","img/C_28.png","生人","prac_stranger","","生人"
"","","","","","html-keyboard-response","328","918848","0.0-18.0-0.0-1.8","null","<span style='color:GreenYellow; font-size: 70px;'>正确! </span>","null","","","","","","","","","","","","","","","","","","","","","","","feedback_test",""
"","","","","","psychophysics","329","921097","0.0-18.0-0.0-0.9","1237","","d","","","","","","","","","","","","","key","d","16.657865671641645","768","428","d","true","img/H_28.png","生人","prac_stranger","","自我"
"","","","","","html-keyboard-response","330","921433","0.0-18.0-0.0-1.9","null","<span style='color:GreenYellow; font-size: 70px;'>正确! </span>","null","","","","","","","","","","","","","","","","","","","","","","","feedback_test",""
"","","","","","psychophysics","331","923347","0.0-18.0-0.0-0.10","889","","k","","","","","","","","","","","","","key","k","16.657421052631545","768","428","k","true","img/C_28.png","自我","prac_stranger","","生人"
"","","","","","html-keyboard-response","332","923661","0.0-18.0-0.0-1.10","null","<span style='color:GreenYellow; font-size: 70px;'>正确! </span>","null","","","","","","","","","","","","","","","","","","","","","","","feedback_test",""
"","","","","","psychophysics","333","925858","0.0-18.0-0.0-0.11","1189","","d","","","","","","","","","","","","","key","d","16.656259541984518","768","428","d","true","img/S_28.png","生人","prac_stranger","","朋友"
"","","","","","html-keyboard-response","334","926169","0.0-18.0-0.0-1.11","null","<span style='color:GreenYellow; font-size: 70px;'>正确! </span>","null","","","","","","","","","","","","","","","","","","","","","","","feedback_test",""
"","","","","","psychophysics","335","928193","0.0-18.0-0.0-0.12","1021","","d","","","","","","","","","","","","","key","d","16.65774380165337","768","428","d","true","img/S_28.png","自我","prac_stranger","","朋友"
"","","","","","html-keyboard-response","336","928516","0.0-18.0-0.0-1.12","null","<span style='color:GreenYellow; font-size: 70px;'>正确! </span>","null","","","","","","","","","","","","","","","","","","","","","","","feedback_test",""
"","","","","","psychophysics","337","930636","0.0-18.0-0.0-0.13","1106","","d","","","","","","","","","","","","","key","d","16.65758730158753","768","428","f","false","img/S_28.png","朋友","prac_stranger","","朋友"
"","","","","","html-keyboard-response","338","930941","0.0-18.0-0.0-1.13","null","<span style='color:red; font-size: 70px;'>错误! </span>","null","","","","","","","","","","","","","","","","","","","","","","","feedback_test",""
"","","","","","psychophysics","339","932861","0.0-18.0-0.0-0.14","909","","d","","","","","","","","","","","","","key","d","16.654657894736278","768","428","d","true","img/S_28.png","生人","prac_stranger","","朋友"
"","","","","","html-keyboard-response","340","933169","0.0-18.0-0.0-1.14","null","<span style='color:GreenYellow; font-size: 70px;'>正确! </span>","null","","","","","","","","","","","","","","","","","","","","","","","feedback_test",""
"","","","","","psychophysics","341","935200","0.0-18.0-0.0-0.15","1031","","f","","","","","","","","","","","","","key","f","16.655008333333534","768","428","f","true","img/H_28.png","自我","prac_stranger","","自我"
"","","","","","html-keyboard-response","342","935516","0.0-18.0-0.0-1.15","null","<span style='color:GreenYellow; font-size: 70px;'>正确! </span>","null","","","","","","","","","","","","","","","","","","","","","","","feedback_test",""
"","","","","","psychophysics","343","937372","0.0-18.0-0.0-0.16","822","","k","","","","","","","","","","","","","key","k","16.660765765765515","768","428","k","true","img/C_28.png","自我","prac_stranger","","生人"
"","","","","","html-keyboard-response","344","937684","0.0-18.0-0.0-1.16","null","<span style='color:GreenYellow; font-size: 70px;'>正确! </span>","null","","","","","","","","","","","","","","","","","","","","","","","feedback_test",""
"","","","","","psychophysics","345","939391","0.0-18.0-0.0-0.17","692","","j","","","","","","","","","","","","","key","j","16.65398019802005","768","428","j","true","img/C_28.png","生人","prac_stranger","","生人"
"","","","","","html-keyboard-response","346","939697","0.0-18.0-0.0-1.17","null","<span style='color:GreenYellow; font-size: 70px;'>正确! </span>","null","","","","","","","","","","","","","","","","","","","","","","","feedback_test",""
"","","","","","psychophysics","347","941631","0.0-18.0-0.0-0.18","932","","f","","","","","","","","","","","","","key","f","16.65671929824595","768","428","f","true","img/S_28.png","朋友","prac_stranger","","朋友"
"","","","","","html-keyboard-response","348","941941","0.0-18.0-0.0-1.18","null","<span style='color:GreenYellow; font-size: 70px;'>正确! </span>","null","","","","","","","","","","","","","","","","","","","","","","","feedback_test",""
"","","","","","psychophysics","349","943842","0.0-18.0-0.0-0.19","871","","f","","","","","","","","","","","","","key","f","16.65771681415968","768","428","f","true","img/H_28.png","自我","prac_stranger","","自我"
"","","","","","html-keyboard-response","350","944143","0.0-18.0-0.0-1.19","null","<span style='color:GreenYellow; font-size: 70px;'>正确! </span>","null","","","","","","","","","","","","","","","","","","","","","","","feedback_test",""
"","","","","","psychophysics","351","946079","0.0-18.0-0.0-0.20","932","","k","","","","","","","","","","","","","key","k","16.657469565216857","768","428","k","true","img/C_28.png","朋友","prac_stranger","","生人"
"","","","","","html-keyboard-response","352","946393","0.0-18.0-0.0-1.20","null","<span style='color:GreenYellow; font-size: 70px;'>正确! </span>","null","","","","","","","","","","","","","","","","","","","","","","","feedback_test",""
"","","","","","psychophysics","353","948220","0.0-18.0-0.0-0.21","826","","j","","","","","","","","","","","","","key","j","16.657211009174834","768","428","j","true","img/C_28.png","生人","prac_stranger","","生人"
"","","","","","html-keyboard-response","354","948522","0.0-18.0-0.0-1.21","null","<span style='color:GreenYellow; font-size: 70px;'>正确! </span>","null","","","","","","","","","","","","","","","","","","","","","","","feedback_test",""
"","","","","","psychophysics","355","950497","0.0-18.0-0.0-0.22","961","","d","","","","","","","","","","","","","key","d","16.660211864407017","768","428","d","true","img/H_28.png","生人","prac_stranger","","自我"
"","","","","","html-keyboard-response","356","950803","0.0-18.0-0.0-1.22","null","<span style='color:GreenYellow; font-size: 70px;'>正确! </span>","null","","","","","","","","","","","","","","","","","","","","","","","feedback_test",""
"","","","","","psychophysics","357","952851","0.0-18.0-0.0-0.23","1042","","d","","","","","","","","","","","","","key","d","16.657499999999732","768","428","d","true","img/H_28.png","朋友","prac_stranger","","自我"
"","","","","","html-keyboard-response","358","953164","0.0-18.0-0.0-1.23","null","<span style='color:GreenYellow; font-size: 70px;'>正确! </span>","null","","","","","","","","","","","","","","","","","","","","","","","feedback_test",""
"","","","","","html-keyboard-response","359","1001766","0.0-19.0","48600","[""<style>.context{color:white; font-size: 35px; line-height:40px}</style>                                        <div><p class='context'>您正确回答了92% 的试次。</p><p class='context'>您的平均反应时为992毫秒。</p><p class='context'>恭喜您完成练习。您可以在此时休息一段时间，准备好后按任意键进入正式实验。</p><p class='footer' style='font-size: 35px; line-height:40px;'>请在进入正式实验实验之前将您的<span style='color: lightgreen;'>食指和中指</span>放在电脑键盘的相应键位上，做好按键准备。</p>""]"," ","","","","","","","","","","","","","","","","","","","","","","","",""
"","","","","","html-keyboard-response","360","1006046","0.0-20.0-0.0-0.0","4275","
                    <p>请您将食指和中指放在相应按键上，准备进入<span style='color: yellow;'>重点图形为“自我”对应图形</span>的正式匹配任务</p>
                    <p> <div style = ""color: green""><按任意键开始></div></p>
                    "," ","","","","","","","","","","","","","","","","","","","","","","","",""
"","","","","","psychophysics","361","1008577","0.0-20.0-0.0-1.0-0.0-0.0","null","","null","","","","","","","","","","","","","key","null","16.660239999999757","768","428","f","false","img/S_28.png","朋友","self","","朋友"
"","","","","","html-keyboard-response","362","1008882","0.0-20.0-0.0-1.0-0.0-1.0","null","<span class='add_' style='color:yellow; font-size: 70px;'> 太慢! </span>","null","","","","","","","","","","","","","","","","","","","","","","","feedback_test",""
"","","","","","psychophysics","363","1010825","0.0-20.0-0.0-1.0-0.0-0.1","941","","k","","","","","","","","","","","","","key","k","16.655599999999747","768","428","d","false","img/S_28.png","自我","self","","朋友"
"","","","","","html-keyboard-response","364","1011131","0.0-20.0-0.0-1.0-0.0-1.1","null","<span style='color:red; font-size: 70px;'>错误! </span>","null","","","","","","","","","","","","","","","","","","","","","","","feedback_test",""
"","","","","","psychophysics","365","1013430","0.0-20.0-0.0-1.0-0.0-0.2","1288","","d","","","","","","","","","","","","","key","d","16.6574525547445","768","428","k","false","img/H_28.png","朋友","self","","自我"
"","","","","","html-keyboard-response","366","1013734","0.0-20.0-0.0-1.0-0.0-1.2","null","<span style='color:red; font-size: 70px;'>错误! </span>","null","","","","","","","","","","","","","","","","","","","","","","","feedback_test",""
"","","","","","psychophysics","367","1016256","0.0-20.0-0.0-1.0-0.0-0.3","null","","null","","","","","","","","","","","","","key","null","16.65667333333365","768","428","f","false","img/C_28.png","生人","self","","生人"
"","","","","","html-keyboard-response","368","1016586","0.0-20.0-0.0-1.0-0.0-1.3","null","<span class='add_' style='color:yellow; font-size: 70px;'> 太慢! </span>","null","","","","","","","","","","","","","","","","","","","","","","","feedback_test",""
"","","","","","psychophysics","369","1018451","0.0-20.0-0.0-1.0-0.0-0.4","844","","j","","","","","","","","","","","","","key","j","16.65765765765766","768","428","j","true","img/H_28.png","自我","self","","自我"
"","","","","","html-keyboard-response","370","1018754","0.0-20.0-0.0-1.0-0.0-1.4","null","<span style='color:GreenYellow; font-size: 70px;'>正确! </span>","null","","","","","","","","","","","","","","","","","","","","","","","feedback_test",""
"","","","","","psychophysics","371","1020865","0.0-20.0-0.0-1.0-0.0-0.5","1107","","d","","","","","","","","","","","","","key","d","16.660376000000163","768","428","d","true","img/C_28.png","朋友","self","","生人"
"","","","","","html-keyboard-response","372","1021176","0.0-20.0-0.0-1.0-0.0-1.5","null","<span style='color:GreenYellow; font-size: 70px;'>正确! </span>","null","","","","","","","","","","","","","","","","","","","","","","","feedback_test",""
"","","","","","psychophysics","373","1023559","0.0-20.0-0.0-1.0-0.0-0.6","1374","","f","","","","","","","","","","","","","key","f","16.658260563380267","768","428","d","false","img/C_28.png","自我","self","","生人"
"","","","","","html-keyboard-response","374","1023875","0.0-20.0-0.0-1.0-0.0-1.6","null","<span style='color:red; font-size: 70px;'>错误! </span>","null","","","","","","","","","","","","","","","","","","","","","","","feedback_test",""
"","","","","","psychophysics","375","1026206","0.0-20.0-0.0-1.0-0.0-0.7","1322","","d","","","","","","","","","","","","","key","d","16.659179856114612","768","428","d","true","img/S_28.png","生人","self","","朋友"
"","","","","","html-keyboard-response","376","1026507","0.0-20.0-0.0-1.0-0.0-1.7","null","<span style='color:GreenYellow; font-size: 70px;'>正确! </span>","null","","","","","","","","","","","","","","","","","","","","","","","feedback_test",""
"","","","","","psychophysics","377","1028396","0.0-20.0-0.0-1.0-0.0-0.8","880","","j","","","","","","","","","","","","","key","j","16.6542678571433","768","428","j","true","img/H_28.png","自我","self","","自我"
"","","","","","html-keyboard-response","378","1028719","0.0-20.0-0.0-1.0-0.0-1.8","null","<span style='color:GreenYellow; font-size: 70px;'>正确! </span>","null","","","","","","","","","","","","","","","","","","","","","","","feedback_test",""
"","","","","","psychophysics","379","1031076","0.0-20.0-0.0-1.0-0.0-0.9","1346","","f","","","","","","","","","","","","","key","f","16.654792857142663","768","428","f","true","img/S_28.png","朋友","self","","朋友"
"","","","","","html-keyboard-response","380","1031390","0.0-20.0-0.0-1.0-0.0-1.9","null","<span style='color:GreenYellow; font-size: 70px;'>正确! </span>","null","","","","","","","","","","","","","","","","","","","","","","","feedback_test",""
"","","","","","psychophysics","381","1033423","0.0-20.0-0.0-1.0-0.0-0.10","1027","","f","","","","","","","","","","","","","key","f","16.657537190081968","768","428","f","true","img/C_28.png","生人","self","","生人"
"","","","","","html-keyboard-response","382","1033727","0.0-20.0-0.0-1.0-0.0-1.10","null","<span style='color:GreenYellow; font-size: 70px;'>正确! </span>","null","","","","","","","","","","","","","","","","","","","","","","","feedback_test",""
"","","","","","psychophysics","383","1035701","0.0-20.0-0.0-1.0-0.0-0.11","972","","k","","","","","","","","","","","","","key","k","16.657406779661205","768","428","k","true","img/H_28.png","生人","self","","自我"
"","","","","","html-keyboard-response","384","1036003","0.0-20.0-0.0-1.0-0.0-1.11","null","<span style='color:GreenYellow; font-size: 70px;'>正确! </span>","null","","","","","","","","","","","","","","","","","","","","","","","feedback_test",""
"","","","","","psychophysics","385","1038169","0.0-20.0-0.0-1.0-0.0-0.12","1151","","d","","","","","","","","","","","","","key","d","16.65748837209296","768","428","k","false","img/H_28.png","朋友","self","","自我"
"","","","","","html-keyboard-response","386","1038472","0.0-20.0-0.0-1.0-0.0-1.12","null","<span style='color:red; font-size: 70px;'>错误! </span>","null","","","","","","","","","","","","","","","","","","","","","","","feedback_test",""
"","","","","","psychophysics","387","1040975","0.0-20.0-0.0-1.0-0.0-0.13","null","","null","","","","","","","","","","","","","key","null","16.657120805369665","768","428","f","false","img/C_28.png","生人","self","","生人"
"","","","","","html-keyboard-response","388","1041276","0.0-20.0-0.0-1.0-0.0-1.13","null","<span class='add_' style='color:yellow; font-size: 70px;'> 太慢! </span>","null","","","","","","","","","","","","","","","","","","","","","","","feedback_test",""
"","","","","","psychophysics","389","1043112","0.0-20.0-0.0-1.0-0.0-0.14","834","","d","","","","","","","","","","","","","key","d","16.659889908257547","768","428","f","false","img/S_28.png","朋友","self","","朋友"
"","","","","","html-keyboard-response","390","1043415","0.0-20.0-0.0-1.0-0.0-1.14","null","<span style='color:red; font-size: 70px;'>错误! </span>","null","","","","","","","","","","","","","","","","","","","","","","","feedback_test",""
"","","","","","psychophysics","391","1045544","0.0-20.0-0.0-1.0-0.0-0.15","1121","","f","","","","","","","","","","","","","key","f","16.657236220472765","768","428","f","true","img/C_28.png","生人","self","","生人"
"","","","","","html-keyboard-response","392","1045853","0.0-20.0-0.0-1.0-0.0-1.15","null","<span style='color:GreenYellow; font-size: 70px;'>正确! </span>","null","","","","","","","","","","","","","","","","","","","","","","","feedback_test",""
"","","","","","psychophysics","393","1047868","0.0-20.0-0.0-1.0-0.0-0.16","1013","","d","","","","","","","","","","","","","key","d","16.66013333333346","768","428","d","true","img/C_28.png","自我","self","","生人"
"","","","","","html-keyboard-response","394","1048179","0.0-20.0-0.0-1.0-0.0-1.16","null","<span style='color:GreenYellow; font-size: 70px;'>正确! </span>","null","","","","","","","","","","","","","","","","","","","","","","","feedback_test",""
"","","","","","psychophysics","395","1049929","0.0-20.0-0.0-1.0-0.0-0.17","725","","k","","","","","","","","","","","","","key","k","16.655759615382593","768","428","k","true","img/H_28.png","生人","self","","自我"
"","","","","","html-keyboard-response","396","1050236","0.0-20.0-0.0-1.0-0.0-1.17","null","<span style='color:GreenYellow; font-size: 70px;'>正确! </span>","null","","","","","","","","","","","","","","","","","","","","","","","feedback_test",""
"","","","","","psychophysics","397","1052124","0.0-20.0-0.0-1.0-0.0-0.18","887","","j","","","","","","","","","","","","","key","j","16.65680357142992","768","428","j","true","img/H_28.png","自我","self","","自我"
"","","","","","html-keyboard-response","398","1052440","0.0-20.0-0.0-1.0-0.0-1.18","null","<span style='color:GreenYellow; font-size: 70px;'>正确! </span>","null","","","","","","","","","","","","","","","","","","","","","","","feedback_test",""
"","","","","","psychophysics","399","1054714","0.0-20.0-0.0-1.0-0.0-0.19","1261","","f","","","","","","","","","","","","","key","f","16.654948148148616","768","428","d","false","img/S_28.png","自我","self","","朋友"
"","","","","","html-keyboard-response","400","1055026","0.0-20.0-0.0-1.0-0.0-1.19","null","<span style='color:red; font-size: 70px;'>错误! </span>","null","","","","","","","","","","","","","","","","","","","","","","","feedback_test",""
"","","","","","psychophysics","401","1056921","0.0-20.0-0.0-1.0-0.0-0.20","878","","d","","","","","","","","","","","","","key","d","16.66068141592823","768","428","d","true","img/S_28.png","生人","self","","朋友"
"","","","","","html-keyboard-response","402","1057231","0.0-20.0-0.0-1.0-0.0-1.20","null","<span style='color:GreenYellow; font-size: 70px;'>正确! </span>","null","","","","","","","","","","","","","","","","","","","","","","","feedback_test",""
"","","","","","psychophysics","403","1059360","0.0-20.0-0.0-1.0-0.0-0.21","1112","","f","","","","","","","","","","","","","key","f","16.650238095239427","768","428","f","true","img/S_28.png","朋友","self","","朋友"
"","","","","","html-keyboard-response","404","1059666","0.0-20.0-0.0-1.0-0.0-1.21","null","<span style='color:GreenYellow; font-size: 70px;'>正确! </span>","null","","","","","","","","","","","","","","","","","","","","","","","feedback_test",""
"","","","","","psychophysics","405","1061546","0.0-20.0-0.0-1.0-0.0-0.22","863","","j","","","","","","","","","","","","","key","j","16.657756756758317","768","428","j","true","img/H_28.png","自我","self","","自我"
"","","","","","html-keyboard-response","406","1061853","0.0-20.0-0.0-1.0-0.0-1.22","null","<span style='color:GreenYellow; font-size: 70px;'>正确! </span>","null","","","","","","","","","","","","","","","","","","","","","","","feedback_test",""
"","","","","","psychophysics","407","1063839","0.0-20.0-0.0-1.0-0.0-0.23","959","","f","","","","","","","","","","","","","key","f","16.65673728813654","768","428","d","false","img/C_28.png","朋友","self","","生人"
"","","","","","html-keyboard-response","408","1064153","0.0-20.0-0.0-1.0-0.0-1.23","null","<span style='color:red; font-size: 70px;'>错误! </span>","null","","","","","","","","","","","","","","","","","","","","","","","feedback_test",""
"","","","","","psychophysics","409","1066192","0.0-20.0-0.0-1.0-0.0-0.24","1036","","d","","","","","","","","","","","","","key","d","16.659388429752727","768","428","d","true","img/S_28.png","自我","self","","朋友"
"","","","","","html-keyboard-response","410","1066502","0.0-20.0-0.0-1.0-0.0-1.24","null","<span style='color:GreenYellow; font-size: 70px;'>正确! </span>","null","","","","","","","","","","","","","","","","","","","","","","","feedback_test",""
"","","","","","psychophysics","411","1068225","0.0-20.0-0.0-1.0-0.0-0.25","715","","f","","","","","","","","","","","","","key","f","16.657274509802935","768","428","f","true","img/C_28.png","生人","self","","生人"
"","","","","","html-keyboard-response","412","1068531","0.0-20.0-0.0-1.0-0.0-1.25","null","<span style='color:GreenYellow; font-size: 70px;'>正确! </span>","null","","","","","","","","","","","","","","","","","","","","","","","feedback_test",""
"","","","","","psychophysics","413","1070731","0.0-20.0-0.0-1.0-0.0-0.26","1189","","f","","","","","","","","","","","","","key","f","16.65748091602968","768","428","f","true","img/C_28.png","生人","self","","生人"
"","","","","","html-keyboard-response","414","1071042","0.0-20.0-0.0-1.0-0.0-1.26","null","<span style='color:GreenYellow; font-size: 70px;'>正确! </span>","null","","","","","","","","","","","","","","","","","","","","","","","feedback_test",""
"","","","","","psychophysics","415","1073065","0.0-20.0-0.0-1.0-0.0-0.27","1017","","f","","","","","","","","","","","","","key","f","16.65772500000118","768","428","f","true","img/S_28.png","朋友","self","","朋友"
"","","","","","html-keyboard-response","416","1073372","0.0-20.0-0.0-1.0-0.0-1.27","null","<span style='color:GreenYellow; font-size: 70px;'>正确! </span>","null","","","","","","","","","","","","","","","","","","","","","","","feedback_test",""
"","","","","","psychophysics","417","1075306","0.0-20.0-0.0-1.0-0.0-0.28","932","","d","","","","","","","","","","","","","key","d","16.6584608695652","768","428","d","true","img/S_28.png","生人","self","","朋友"
"","","","","","html-keyboard-response","418","1075614","0.0-20.0-0.0-1.0-0.0-1.28","null","<span style='color:GreenYellow; font-size: 70px;'>正确! </span>","null","","","","","","","","","","","","","","","","","","","","","","","feedback_test",""
"","","","","","psychophysics","419","1077846","0.0-20.0-0.0-1.0-0.0-0.29","1223","","f","","","","","","","","","","","","","key","f","16.65791729323328","768","428","d","false","img/C_28.png","朋友","self","","生人"
"","","","","","html-keyboard-response","420","1078150","0.0-20.0-0.0-1.0-0.0-1.29","null","<span style='color:red; font-size: 70px;'>错误! </span>","null","","","","","","","","","","","","","","","","","","","","","","","feedback_test",""
"","","","","","psychophysics","421","1080075","0.0-20.0-0.0-1.0-0.0-0.30","921","","d","","","","","","","","","","","","","key","d","16.657634782608923","768","428","k","false","img/H_28.png","朋友","self","","自我"
"","","","","","html-keyboard-response","422","1080383","0.0-20.0-0.0-1.0-0.0-1.30","null","<span style='color:red; font-size: 70px;'>错误! </span>","null","","","","","","","","","","","","","","","","","","","","","","","feedback_test",""
