"success","timeout","failed_images","failed_audio","failed_video","trial_type","trial_index","time_elapsed","internal_node_id","rt","stimulus","response","value","item_width_mm","item_height_mm","item_width_px","px2mm","view_dist_mm","item_width_deg","px2deg","scale_factor","win_width_deg","win_height_deg","view_history","response_type","key_press","avg_frame_time","center_x","center_y","correct_response","correct","Image","word","condition","screen_id"
"true","false","[]","[]","[]","preload","0","1000","0.0-0.0","","","","","","","","","","","","","","","","","","","","","","","","","",""
"","","","","","html-keyboard-response","1","55906","0.0-1.0","54902","
     <p>您好，欢迎参加本次实验。</p>
     <p>为充分保障您的权利，请确保您已经知晓并同意《参与实验同意书》以及《数据公开知情同意书》。</p>
     <p>如果您未见过上述内容，请咨询实验员。</p>
     <p>如果您选择继续实验，则表示您已经清楚两份知情同意书的内容并同意。</p>
     <p> <div style = ""color: green""><按任意键至下页></div> </p>
     ","j","","","","","","","","","","","","","","","","","","","","","","",""
"","","","","","html-keyboard-response","2","57666","0.0-2.0","1760","
     <p>本实验首先需要您填写一些基本个人信息。</p>
     <p> <div style = ""color: green""><按任意键至下页></div></p>
     ","j","","","","","","","","","","","","","","","","","","","","","","",""
"","","","","","call-function","3","57668","0.0-3.0-0.0","","","","","","","","","","","","","","","","","","","","","","","","","",""
"","","","","","survey-html-form","4","66213","0.0-3.0-1.0","8537","","{""Q0"":""18""}","","","","","","","","","","","","","","","","","","","","","","",""
"","","","","","html-button-response","5","67285","0.0-3.0-2.0","1065","<p style = 'color : white'>您的性别</p>","0","","","","","","","","","","","","","","","","","","","","","","",""
"","","","","","survey-html-form","6","76141","0.0-3.0-3.0","8853","","{""Q0"":""2003""}","","","","","","","","","","","","","","","","","","","","","","",""
"","","","","","survey-html-form","7","84157","0.0-3.0-4.0","8013","","{""Q0"":""5""}","","","","","","","","","","","","","","","","","","","","","","",""
"","","","","","virtual-chinrest","8","243093","0.0-4.0","158932","","","","85.6","53.98","462.09658969247823","5.395159136200139","529.53","9.241931793849565","50","0.8266669967294459","29.58","14.92","","","","","","","","","","","",""
"true","","","","","fullscreen","9","245924","0.0-5.0","","","","","","","","","","","","","","","","","","","","","","","","","",""
"","","","","","instructions","10","282270","0.0-6.0","36344","","","","","","","","","","","","","","[{""page_index"":0,""viewing_time"":3806},{""page_index"":1,""viewing_time"":26536},{""page_index"":2,""viewing_time"":2376},{""page_index"":3,""viewing_time"":3626}]","","","","","","","","","","",""
"","","","","","psychophysics","11","284845","0.0-7.0-0.0","null","","null","","","","","","","","","","","","","key","null","44.547090909091374","768","428","j","false","img/C_ambi40.png","生人","prac",""
"","","","","","html-keyboard-response","12","285360","0.0-7.0-1.0","null","<span class='add_' style='color:yellow; font-size: 70px;'> 太慢! </span>","null","","","","","","","","","","","","","","","","","","","","","","","feedback_test"
"","","","","","psychophysics","13","287894","0.0-7.0-0.1","null","","null","","","","","","","","","","","","","key","null","49.02007843137208","768","428","f","false","img/S_ambi40.png","朋友","prac",""
"","","","","","html-keyboard-response","14","288439","0.0-7.0-1.1","null","<span class='add_' style='color:yellow; font-size: 70px;'> 太慢! </span>","null","","","","","","","","","","","","","","","","","","","","","","","feedback_test"
"","","","","","psychophysics","15","290911","0.0-7.0-0.2","1458","","j","","","","","","","","","","","","","key","j","46.228603773585625","768","428","j","true","img/H_ambi40.png","自我","prac",""
"","","","","","html-keyboard-response","16","291418","0.0-7.0-1.2","null","<span style='color:GreenYellow; font-size: 70px;'>正确! </span>","null","","","","","","","","","","","","","","","","","","","","","","","feedback_test"
"","","","","","psychophysics","17","293925","0.0-7.0-0.3","null","","null","","","","","","","","","","","","","key","null","46.542283018868645","768","428","j","false","img/T_ambi40.png","をる","prac",""
"","","","","","html-keyboard-response","18","294439","0.0-7.0-1.3","null","<span class='add_' style='color:yellow; font-size: 70px;'> 太慢! </span>","null","","","","","","","","","","","","","","","","","","","","","","","feedback_test"
"","","","","","psychophysics","19","296908","0.0-7.0-0.4","1459","","f","","","","","","","","","","","","","key","f","47.99374000000069","768","428","f","true","img/C_ambi40.png","自我","prac",""
"","","","","","html-keyboard-response","20","297426","0.0-7.0-1.4","null","<span style='color:GreenYellow; font-size: 70px;'>正确! </span>","null","","","","","","","","","","","","","","","","","","","","","","","feedback_test"
"","","","","","psychophysics","21","299859","0.0-7.0-0.5","1425","","j","","","","","","","","","","","","","key","j","46.15625","768","428","j","true","img/T_ambi40.png","をる","prac",""
"","","","","","html-keyboard-response","22","300373","0.0-7.0-1.5","null","<span style='color:GreenYellow; font-size: 70px;'>正确! </span>","null","","","","","","","","","","","","","","","","","","","","","","","feedback_test"
"","","","","","psychophysics","23","302895","0.0-7.0-0.6","null","","null","","","","","","","","","","","","","key","null","45.989240740740634","768","428","j","false","img/T_ambi40.png","をる","prac",""
"","","","","","html-keyboard-response","24","303439","0.0-7.0-1.6","null","<span class='add_' style='color:yellow; font-size: 70px;'> 太慢! </span>","null","","","","","","","","","","","","","","","","","","","","","","","feedback_test"
"","","","","","psychophysics","25","305946","0.0-7.0-0.7","null","","null","","","","","","","","","","","","","key","null","45.37270370370351","768","428","j","false","img/S_ambi40.png","生人","prac",""
"","","","","","html-keyboard-response","26","306461","0.0-7.0-1.7","null","<span class='add_' style='color:yellow; font-size: 70px;'> 太慢! </span>","null","","","","","","","","","","","","","","","","","","","","","","","feedback_test"
"","","","","","psychophysics","27","308629","0.0-7.0-0.8","1163","","j","","","","","","","","","","","","","key","j","46.11206521739191","768","428","j","true","img/T_ambi40.png","をる","prac",""
"","","","","","html-keyboard-response","28","309136","0.0-7.0-1.8","null","<span style='color:GreenYellow; font-size: 70px;'>正确! </span>","null","","","","","","","","","","","","","","","","","","","","","","","feedback_test"
"","","","","","psychophysics","29","311647","0.0-7.0-0.9","null","","null","","","","","","","","","","","","","key","null","47.4433269230772","768","428","j","false","img/H_ambi40.png","朋友","prac",""
"","","","","","html-keyboard-response","30","312160","0.0-7.0-1.9","null","<span class='add_' style='color:yellow; font-size: 70px;'> 太慢! </span>","null","","","","","","","","","","","","","","","","","","","","","","","feedback_test"
"","","","","","psychophysics","31","314334","0.0-7.0-0.10","1161","","j","","","","","","","","","","","","","key","j","46.74134782608725","768","428","j","true","img/S_ambi40.png","自我","prac",""
"","","","","","html-keyboard-response","32","314838","0.0-7.0-1.10","null","<span style='color:GreenYellow; font-size: 70px;'>正确! </span>","null","","","","","","","","","","","","","","","","","","","","","","","feedback_test"
"","","","","","psychophysics","33","316980","0.0-7.0-0.11","1129","","f","","","","","","","","","","","","","key","f","46.01578260869618","768","428","f","true","img/H_ambi40.png","生人","prac",""
"","","","","","html-keyboard-response","34","317489","0.0-7.0-1.11","null","<span style='color:GreenYellow; font-size: 70px;'>正确! </span>","null","","","","","","","","","","","","","","","","","","","","","","","feedback_test"
"","","","","","psychophysics","35","319995","0.0-7.0-0.12","null","","null","","","","","","","","","","","","","key","null","45.65066666666664","768","428","f","false","img/S_ambi40.png","朋友","prac",""
"","","","","","html-keyboard-response","36","320511","0.0-7.0-1.12","null","<span class='add_' style='color:yellow; font-size: 70px;'> 太慢! </span>","null","","","","","","","","","","","","","","","","","","","","","","","feedback_test"
"","","","","","psychophysics","37","322710","0.0-7.0-0.13","1187","","f","","","","","","","","","","","","","key","f","43.86604166666681","768","428","f","true","img/C_ambi40.png","自我","prac",""
"","","","","","html-keyboard-response","38","323220","0.0-7.0-1.13","null","<span style='color:GreenYellow; font-size: 70px;'>正确! </span>","null","","","","","","","","","","","","","","","","","","","","","","","feedback_test"
"","","","","","psychophysics","39","325266","0.0-7.0-0.14","1032","","f","","","","","","","","","","","","","key","f","45.83531818181853","768","428","f","true","img/H_ambi40.png","生人","prac",""
"","","","","","html-keyboard-response","40","325775","0.0-7.0-1.14","null","<span style='color:GreenYellow; font-size: 70px;'>正确! </span>","null","","","","","","","","","","","","","","","","","","","","","","","feedback_test"
"","","","","","psychophysics","41","327998","0.0-7.0-0.15","1208","","j","","","","","","","","","","","","","key","j","45.4780624999997","768","428","j","true","img/C_ambi40.png","朋友","prac",""
"","","","","","html-keyboard-response","42","328505","0.0-7.0-1.15","null","<span style='color:GreenYellow; font-size: 70px;'>正确! </span>","null","","","","","","","","","","","","","","","","","","","","","","","feedback_test"
"","","","","","psychophysics","43","330722","0.0-7.0-0.16","1208","","f","","","","","","","","","","","","","key","f","44.79397916666736","768","428","f","true","img/H_ambi40.png","生人","prac",""
"","","","","","html-keyboard-response","44","331229","0.0-7.0-1.16","null","<span style='color:GreenYellow; font-size: 70px;'>正确! </span>","null","","","","","","","","","","","","","","","","","","","","","","","feedback_test"
"","","","","","psychophysics","45","333470","0.0-7.0-0.17","1236","","j","","","","","","","","","","","","","key","j","46.162021276595546","768","428","j","true","img/T_ambi40.png","をる","prac",""
"","","","","","html-keyboard-response","46","333983","0.0-7.0-1.17","null","<span style='color:GreenYellow; font-size: 70px;'>正确! </span>","null","","","","","","","","","","","","","","","","","","","","","","","feedback_test"
"","","","","","psychophysics","47","336441","0.0-7.0-0.18","1448","","j","","","","","","","","","","","","","key","j","49.3179591836738","768","428","f","false","img/H_ambi40.png","生人","prac",""
"","","","","","html-keyboard-response","48","336953","0.0-7.0-1.18","null","<span style='color:red; font-size: 70px;'>错误! </span>","null","","","","","","","","","","","","","","","","","","","","","","","feedback_test"
"","","","","","psychophysics","49","339079","0.0-7.0-0.19","1118","","j","","","","","","","","","","","","","key","j","44.666425531914584","768","428","j","true","img/T_ambi40.png","をる","prac",""
"","","","","","html-keyboard-response","50","339583","0.0-7.0-1.19","null","<span style='color:GreenYellow; font-size: 70px;'>正确! </span>","null","","","","","","","","","","","","","","","","","","","","","","","feedback_test"
"","","","","","psychophysics","51","341563","0.0-7.0-0.20","970","","f","","","","","","","","","","","","","key","f","46.43009523809555","768","428","f","true","img/C_ambi40.png","自我","prac",""
"","","","","","html-keyboard-response","52","342073","0.0-7.0-1.20","null","<span style='color:GreenYellow; font-size: 70px;'>正确! </span>","null","","","","","","","","","","","","","","","","","","","","","","","feedback_test"
"","","","","","psychophysics","53","344594","0.0-7.0-0.21","null","","null","","","","","","","","","","","","","key","null","46.16752830188599","768","428","f","false","img/S_ambi40.png","朋友","prac",""
"","","","","","html-keyboard-response","54","345105","0.0-7.0-1.21","null","<span class='add_' style='color:yellow; font-size: 70px;'> 太慢! </span>","null","","","","","","","","","","","","","","","","","","","","","","","feedback_test"
"","","","","","psychophysics","55","347134","0.0-7.0-0.22","1017","","j","","","","","","","","","","","","","key","j","47.223238095239225","768","428","j","true","img/T_ambi40.png","をる","prac",""
"","","","","","html-keyboard-response","56","347645","0.0-7.0-1.22","null","<span style='color:GreenYellow; font-size: 70px;'>正确! </span>","null","","","","","","","","","","","","","","","","","","","","","","","feedback_test"
"","","","","","psychophysics","57","349853","0.0-7.0-0.23","1204","","j","","","","","","","","","","","","","key","j","45.39272340425498","768","428","j","true","img/H_ambi40.png","自我","prac",""
"","","","","","html-keyboard-response","58","350355","0.0-7.0-1.23","null","<span style='color:GreenYellow; font-size: 70px;'>正确! </span>","null","","","","","","","","","","","","","","","","","","","","","","","feedback_test"
"","","","","","psychophysics","59","352396","0.0-7.0-0.24","1032","","f","","","","","","","","","","","","","key","f","44.430333333333124","768","428","j","false","img/S_ambi40.png","生人","prac",""
"","","","","","html-keyboard-response","60","352904","0.0-7.0-1.24","null","<span style='color:red; font-size: 70px;'>错误! </span>","null","","","","","","","","","","","","","","","","","","","","","","","feedback_test"
"","","","","","psychophysics","61","354919","0.0-7.0-0.25","1000","","f","","","","","","","","","","","","","key","f","45.35074418604639","768","428","f","true","img/C_ambi40.png","自我","prac",""
"","","","","","html-keyboard-response","62","355429","0.0-7.0-1.25","null","<span style='color:GreenYellow; font-size: 70px;'>正确! </span>","null","","","","","","","","","","","","","","","","","","","","","","","feedback_test"
"","","","","","psychophysics","63","357346","0.0-7.0-0.26","914","","j","","","","","","","","","","","","","key","j","47.01033333333311","768","428","j","true","img/T_ambi40.png","をる","prac",""
"","","","","","html-keyboard-response","64","357849","0.0-7.0-1.26","null","<span style='color:GreenYellow; font-size: 70px;'>正确! </span>","null","","","","","","","","","","","","","","","","","","","","","","","feedback_test"
"","","","","","psychophysics","65","359994","0.0-7.0-0.27","1135","","j","","","","","","","","","","","","","key","j","44.10035416666627","768","428","j","true","img/S_ambi40.png","自我","prac",""
"","","","","","html-keyboard-response","66","360508","0.0-7.0-1.27","null","<span style='color:GreenYellow; font-size: 70px;'>正确! </span>","null","","","","","","","","","","","","","","","","","","","","","","","feedback_test"
"","","","","","psychophysics","67","362824","0.0-7.0-0.28","1309","","j","","","","","","","","","","","","","key","j","48.17006382978635","768","428","j","true","img/C_ambi40.png","生人","prac",""
"","","","","","html-keyboard-response","68","363339","0.0-7.0-1.28","null","<span style='color:GreenYellow; font-size: 70px;'>正确! </span>","null","","","","","","","","","","","","","","","","","","","","","","","feedback_test"
"","","","","","psychophysics","69","365447","0.0-7.0-0.29","1090","","f","","","","","","","","","","","","","key","f","39.544666666666494","768","428","f","true","img/S_ambi40.png","朋友","prac",""
"","","","","","html-keyboard-response","70","365951","0.0-7.0-1.29","null","<span style='color:GreenYellow; font-size: 70px;'>正确! </span>","null","","","","","","","","","","","","","","","","","","","","","","","feedback_test"
"","","","","","psychophysics","71","368238","0.0-7.0-0.30","1274","","j","","","","","","","","","","","","","key","j","41.66814814814845","768","428","j","true","img/H_ambi40.png","朋友","prac",""
"","","","","","html-keyboard-response","72","368743","0.0-7.0-1.30","null","<span style='color:GreenYellow; font-size: 70px;'>正确! </span>","null","","","","","","","","","","","","","","","","","","","","","","","feedback_test"
"","","","","","psychophysics","73","371058","0.0-7.0-0.31","1306","","j","","","","","","","","","","","","","key","j","45.07774509803858","768","428","j","true","img/C_ambi40.png","朋友","prac",""
"","","","","","html-keyboard-response","74","371574","0.0-7.0-1.31","null","<span style='color:GreenYellow; font-size: 70px;'>正确! </span>","null","","","","","","","","","","","","","","","","","","","","","","","feedback_test"
"","","","","","psychophysics","75","374084","0.0-8.0-0.0-0.0","null","","null","","","","","","","","","","","","","key","null","47.1709622641518","768","428","j","false","img/T_ambi40.png","をる","prac",""
"","","","","","html-keyboard-response","76","374589","0.0-8.0-0.0-1.0","null","<span class='add_' style='color:yellow; font-size: 70px;'> 太慢! </span>","null","","","","","","","","","","","","","","","","","","","","","","","feedback_test"
"","","","","","psychophysics","77","377110","0.0-8.0-0.0-0.1","null","","null","","","","","","","","","","","","","key","null","44.04962499999965","768","428","f","false","img/S_ambi40.png","朋友","prac",""
"","","","","","html-keyboard-response","78","377623","0.0-8.0-0.0-1.1","null","<span class='add_' style='color:yellow; font-size: 70px;'> 太慢! </span>","null","","","","","","","","","","","","","","","","","","","","","","","feedback_test"
"","","","","","psychophysics","79","379758","0.0-8.0-0.0-0.2","1121","","j","","","","","","","","","","","","","key","j","44.09847916666695","768","428","j","true","img/S_ambi40.png","自我","prac",""
"","","","","","html-keyboard-response","80","380267","0.0-8.0-0.0-1.2","null","<span style='color:GreenYellow; font-size: 70px;'>正确! </span>","null","","","","","","","","","","","","","","","","","","","","","","","feedback_test"
"","","","","","psychophysics","81","382785","0.0-8.0-0.0-0.3","null","","null","","","","","","","","","","","","","key","null","47.159320754717314","768","428","j","false","img/S_ambi40.png","生人","prac",""
"","","","","","html-keyboard-response","82","383299","0.0-8.0-0.0-1.3","null","<span class='add_' style='color:yellow; font-size: 70px;'> 太慢! </span>","null","","","","","","","","","","","","","","","","","","","","","","","feedback_test"
"","","","","","psychophysics","83","385549","0.0-8.0-0.0-0.4","1246","","f","","","","","","","","","","","","","key","f","49.698136363636216","768","428","f","true","img/C_ambi40.png","自我","prac",""
"","","","","","html-keyboard-response","84","386053","0.0-8.0-0.0-1.4","null","<span style='color:GreenYellow; font-size: 70px;'>正确! </span>","null","","","","","","","","","","","","","","","","","","","","","","","feedback_test"
"","","","","","psychophysics","85","388093","0.0-8.0-0.0-0.5","1026","","j","","","","","","","","","","","","","key","j","44.468266666666345","768","428","j","true","img/C_ambi40.png","朋友","prac",""
"","","","","","html-keyboard-response","86","388597","0.0-8.0-0.0-1.5","null","<span style='color:GreenYellow; font-size: 70px;'>正确! </span>","null","","","","","","","","","","","","","","","","","","","","","","","feedback_test"
"","","","","","psychophysics","87","391025","0.0-8.0-0.0-0.6","1425","","j","","","","","","","","","","","","","key","j","50.34937499999918","768","428","j","true","img/H_ambi40.png","朋友","prac",""
"","","","","","html-keyboard-response","88","391535","0.0-8.0-0.0-1.6","null","<span style='color:GreenYellow; font-size: 70px;'>正确! </span>","null","","","","","","","","","","","","","","","","","","","","","","","feedback_test"
"","","","","","psychophysics","89","394007","0.0-8.0-0.0-0.7","1461","","f","","","","","","","","","","","","","key","f","48.33527999999933","768","428","f","true","img/H_ambi40.png","生人","prac",""
"","","","","","html-keyboard-response","90","394522","0.0-8.0-0.0-1.7","null","<span style='color:GreenYellow; font-size: 70px;'>正确! </span>","null","","","","","","","","","","","","","","","","","","","","","","","feedback_test"
"","","","","","psychophysics","91","396944","0.0-8.0-0.0-0.8","1420","","j","","","","","","","","","","","","","key","j","46.734137254901796","768","428","j","true","img/H_ambi40.png","自我","prac",""
"","","","","","html-keyboard-response","92","397456","0.0-8.0-0.0-1.8","null","<span style='color:GreenYellow; font-size: 70px;'>正确! </span>","null","","","","","","","","","","","","","","","","","","","","","","","feedback_test"
"","","","","","psychophysics","93","399961","0.0-8.0-0.0-0.9","null","","null","","","","","","","","","","","","","key","null","46.48922641509441","768","428","f","false","img/H_ambi40.png","生人","prac",""
"","","","","","html-keyboard-response","94","400475","0.0-8.0-0.0-1.9","null","<span class='add_' style='color:yellow; font-size: 70px;'> 太慢! </span>","null","","","","","","","","","","","","","","","","","","","","","","","feedback_test"
"","","","","","psychophysics","95","402894","0.0-8.0-0.0-0.10","1409","","j","","","","","","","","","","","","","key","j","45.284509433961674","768","428","j","true","img/T_ambi40.png","をる","prac",""
"","","","","","html-keyboard-response","96","403400","0.0-8.0-0.0-1.10","null","<span style='color:GreenYellow; font-size: 70px;'>正确! </span>","null","","","","","","","","","","","","","","","","","","","","","","","feedback_test"
"","","","","","psychophysics","97","405898","0.0-8.0-0.0-0.11","1492","","j","","","","","","","","","","","","","key","j","48.667360000000336","768","428","j","true","img/T_ambi40.png","をる","prac",""
"","","","","","html-keyboard-response","98","406399","0.0-8.0-0.0-1.11","null","<span style='color:GreenYellow; font-size: 70px;'>正确! </span>","null","","","","","","","","","","","","","","","","","","","","","","","feedback_test"
"","","","","","psychophysics","99","408681","0.0-8.0-0.0-0.12","1275","","f","","","","","","","","","","","","","key","f","48.18989130434879","768","428","f","true","img/S_ambi40.png","朋友","prac",""
"","","","","","html-keyboard-response","100","409187","0.0-8.0-0.0-1.12","null","<span style='color:GreenYellow; font-size: 70px;'>正确! </span>","null","","","","","","","","","","","","","","","","","","","","","","","feedback_test"
"","","","","","psychophysics","101","411326","0.0-8.0-0.0-0.13","1131","","f","","","","","","","","","","","","","key","f","46.29804444444469","768","428","f","true","img/C_ambi40.png","自我","prac",""
"","","","","","html-keyboard-response","102","411828","0.0-8.0-0.0-1.13","null","<span style='color:GreenYellow; font-size: 70px;'>正确! </span>","null","","","","","","","","","","","","","","","","","","","","","","","feedback_test"
"","","","","","psychophysics","103","414184","0.0-8.0-0.0-0.14","1347","","j","","","","","","","","","","","","","key","j","47.620877551020605","768","428","j","true","img/C_ambi40.png","生人","prac",""
"","","","","","html-keyboard-response","104","414698","0.0-8.0-0.0-1.14","null","<span style='color:GreenYellow; font-size: 70px;'>正确! </span>","null","","","","","","","","","","","","","","","","","","","","","","","feedback_test"
"","","","","","psychophysics","105","416964","0.0-8.0-0.0-0.15","1254","","j","","","","","","","","","","","","","key","j","44.302306122449465","768","428","j","true","img/T_ambi40.png","をる","prac",""
"","","","","","html-keyboard-response","106","417470","0.0-8.0-0.0-1.15","null","<span style='color:GreenYellow; font-size: 70px;'>正确! </span>","null","","","","","","","","","","","","","","","","","","","","","","","feedback_test"
"","","","","","psychophysics","107","420004","0.0-8.0-0.0-0.16","null","","null","","","","","","","","","","","","","key","null","44.94235714285709","768","428","f","false","img/H_ambi40.png","生人","prac",""
"","","","","","html-keyboard-response","108","420522","0.0-8.0-0.0-1.16","null","<span class='add_' style='color:yellow; font-size: 70px;'> 太慢! </span>","null","","","","","","","","","","","","","","","","","","","","","","","feedback_test"
"","","","","","psychophysics","109","422341","0.0-8.0-0.0-0.17","803","","f","","","","","","","","","","","","","key","f","43.90441463414648","768","428","f","true","img/C_ambi40.png","自我","prac",""
"","","","","","html-keyboard-response","110","422858","0.0-8.0-0.0-1.17","null","<span style='color:GreenYellow; font-size: 70px;'>正确! </span>","null","","","","","","","","","","","","","","","","","","","","","","","feedback_test"
"","","","","","psychophysics","111","425187","0.0-8.0-0.0-0.18","1316","","f","","","","","","","","","","","","","key","f","44.44590196078392","768","428","f","true","img/S_ambi40.png","朋友","prac",""
"","","","","","html-keyboard-response","112","425693","0.0-8.0-0.0-1.18","null","<span style='color:GreenYellow; font-size: 70px;'>正确! </span>","null","","","","","","","","","","","","","","","","","","","","","","","feedback_test"
"","","","","","psychophysics","113","428074","0.0-8.0-0.0-0.19","1370","","j","","","","","","","","","","","","","key","j","45.75276470588242","768","428","f","false","img/H_ambi40.png","生人","prac",""
"","","","","","html-keyboard-response","114","428588","0.0-8.0-0.0-1.19","null","<span style='color:red; font-size: 70px;'>错误! </span>","null","","","","","","","","","","","","","","","","","","","","","","","feedback_test"
"","","","","","psychophysics","115","430914","0.0-8.0-0.0-0.20","1314","","j","","","","","","","","","","","","","key","j","46.60124489795939","768","428","j","true","img/S_ambi40.png","生人","prac",""
"","","","","","html-keyboard-response","116","431419","0.0-8.0-0.0-1.20","null","<span style='color:GreenYellow; font-size: 70px;'>正确! </span>","null","","","","","","","","","","","","","","","","","","","","","","","feedback_test"
"","","","","","psychophysics","117","433423","0.0-8.0-0.0-0.21","1000","","j","","","","","","","","","","","","","key","j","47.1561707317071","768","428","j","true","img/T_ambi40.png","をる","prac",""
"","","","","","html-keyboard-response","118","433936","0.0-8.0-0.0-1.21","null","<span style='color:GreenYellow; font-size: 70px;'>正确! </span>","null","","","","","","","","","","","","","","","","","","","","","","","feedback_test"
"","","","","","psychophysics","119","436063","0.0-8.0-0.0-0.22","1116","","j","","","","","","","","","","","","","key","j","50.00192857142871","768","428","j","true","img/T_ambi40.png","をる","prac",""
"","","","","","html-keyboard-response","120","436565","0.0-8.0-0.0-1.22","null","<span style='color:GreenYellow; font-size: 70px;'>正确! </span>","null","","","","","","","","","","","","","","","","","","","","","","","feedback_test"
"","","","","","psychophysics","121","438560","0.0-8.0-0.0-0.23","989","","j","","","","","","","","","","","","","key","j","44.57602325581328","768","428","j","true","img/T_ambi40.png","をる","prac",""
"","","","","","html-keyboard-response","122","439063","0.0-8.0-0.0-1.23","null","<span style='color:GreenYellow; font-size: 70px;'>正确! </span>","null","","","","","","","","","","","","","","","","","","","","","","","feedback_test"
"","","","","","psychophysics","123","441383","0.0-8.0-0.0-0.24","1309","","f","","","","","","","","","","","","","key","f","46.00187999999966","768","428","j","false","img/H_ambi40.png","自我","prac",""
"","","","","","html-keyboard-response","124","441902","0.0-8.0-0.0-1.24","null","<span style='color:red; font-size: 70px;'>错误! </span>","null","","","","","","","","","","","","","","","","","","","","","","","feedback_test"
"","","","","","psychophysics","125","444176","0.0-8.0-0.0-0.25","1256","","f","","","","","","","","","","","","","key","f","45.91981632653054","768","428","j","false","img/H_ambi40.png","朋友","prac",""
"","","","","","html-keyboard-response","126","444692","0.0-8.0-0.0-1.25","null","<span style='color:red; font-size: 70px;'>错误! </span>","null","","","","","","","","","","","","","","","","","","","","","","","feedback_test"
"","","","","","psychophysics","127","447225","0.0-8.0-0.0-0.26","null","","null","","","","","","","","","","","","","key","null","46.856886792452435","768","428","j","false","img/C_ambi40.png","生人","prac",""
"","","","","","html-keyboard-response","128","447768","0.0-8.0-0.0-1.26","null","<span class='add_' style='color:yellow; font-size: 70px;'> 太慢! </span>","null","","","","","","","","","","","","","","","","","","","","","","","feedback_test"
"","","","","","psychophysics","129","449992","0.0-8.0-0.0-0.27","1214","","f","","","","","","","","","","","","","key","f","46.1010212765962","768","428","f","true","img/S_ambi40.png","朋友","prac",""
"","","","","","html-keyboard-response","130","450494","0.0-8.0-0.0-1.27","null","<span style='color:GreenYellow; font-size: 70px;'>正确! </span>","null","","","","","","","","","","","","","","","","","","","","","","","feedback_test"
"","","","","","psychophysics","131","452667","0.0-8.0-0.0-0.28","1164","","j","","","","","","","","","","","","","key","j","46.298711111110684","768","428","j","true","img/S_ambi40.png","自我","prac",""
"","","","","","html-keyboard-response","132","453169","0.0-8.0-0.0-1.28","null","<span style='color:GreenYellow; font-size: 70px;'>正确! </span>","null","","","","","","","","","","","","","","","","","","","","","","","feedback_test"
"","","","","","psychophysics","133","455272","0.0-8.0-0.0-0.29","1090","","j","","","","","","","","","","","","","key","j","44.92947826086943","768","428","j","true","img/T_ambi40.png","をる","prac",""
"","","","","","html-keyboard-response","134","455785","0.0-8.0-0.0-1.29","null","<span style='color:GreenYellow; font-size: 70px;'>正确! </span>","null","","","","","","","","","","","","","","","","","","","","","","","feedback_test"
"","","","","","psychophysics","135","457837","0.0-8.0-0.0-0.30","1037","","f","","","","","","","","","","","","","key","f","46.48872093023288","768","428","f","true","img/C_ambi40.png","自我","prac",""
"","","","","","html-keyboard-response","136","458353","0.0-8.0-0.0-1.30","null","<span style='color:GreenYellow; font-size: 70px;'>正确! </span>","null","","","","","","","","","","","","","","","","","","","","","","","feedback_test"
"","","","","","psychophysics","137","460589","0.0-8.0-0.0-0.31","1232","","j","","","","","","","","","","","","","key","j","45.4870208333341","768","428","j","true","img/C_ambi40.png","朋友","prac",""
"","","","","","html-keyboard-response","138","461091","0.0-8.0-0.0-1.31","null","<span style='color:GreenYellow; font-size: 70px;'>正确! </span>","null","","","","","","","","","","","","","","","","","","","","","","","feedback_test"
"","","","","","html-keyboard-response","139","467970","0.0-9.0","6874","<style>.context{color:white; font-size: 35px; line-height:40px}</style>                          <div><p class='context'>您正确回答了72% 的试次。</p ><p class='context'>您的平均反应时为1212毫秒。</p ><p class='context'>恭喜您完成练习。按任意键进入正式实验。</p ><p class='footer' style='font-size: 35px; line-height:40px;'>请在进入正式实验实验之前将您的<span style='color: lightgreen;'>食指</span>放在电脑键盘的相应键位上进行按键。</p >","f","","","","","","","","","","","","","","","","","","","","","","",""
"","","","","","psychophysics","140","470488","0.0-10.0-0.0-0.0-0.0-0.0","null","","null","","","","","","","","","","","","","key","null","45.68270370370441","768","428","f","false","img/C_ambi40.png","自我","same",""
"","","","","","html-keyboard-response","141","470997","0.0-10.0-0.0-0.0-0.0-1.0","null","<span class='add_' style='color:yellow; font-size: 70px;'> 太慢! </span>","null","","","","","","","","","","","","","","","","","","","","","","","feedback_test"
"","","","","","psychophysics","142","473249","0.0-10.0-0.0-0.0-0.0-0.1","1213","","f","","","","","","","","","","","","","key","f","45.56489795918353","768","428","f","true","img/H_ambi40.png","生人","same",""
"","","","","","html-keyboard-response","143","473757","0.0-10.0-0.0-0.0-0.0-1.1","null","<span style='color:GreenYellow; font-size: 70px;'>正确! </span>","null","","","","","","","","","","","","","","","","","","","","","","","feedback_test"
"","","","","","psychophysics","144","475859","0.0-10.0-0.0-0.0-0.0-0.2","1095","","f","","","","","","","","","","","","","key","f","43.948425531914914","768","428","f","true","img/H_ambi40.png","生人","same",""
"","","","","","html-keyboard-response","145","476367","0.0-10.0-0.0-0.0-0.0-1.2","null","<span style='color:GreenYellow; font-size: 70px;'>正确! </span>","null","","","","","","","","","","","","","","","","","","","","","","","feedback_test"
"","","","","","psychophysics","146","478465","0.0-10.0-0.0-0.0-0.0-0.3","1092","","j","","","","","","","","","","","","","key","j","44.32819148936145","768","428","j","true","img/H_ambi40.png","朋友","same",""
"","","","","","html-keyboard-response","147","478973","0.0-10.0-0.0-0.0-0.0-1.3","null","<span style='color:GreenYellow; font-size: 70px;'>正确! </span>","null","","","","","","","","","","","","","","","","","","","","","","","feedback_test"
"","","","","","psychophysics","148","480924","0.0-10.0-0.0-0.0-0.0-0.4","949","","j","","","","","","","","","","","","","key","j","47.50107500000013","768","428","j","true","img/T_ambi40.png","をる","same",""
"","","","","","html-keyboard-response","149","481428","0.0-10.0-0.0-0.0-0.0-1.4","null","<span style='color:GreenYellow; font-size: 70px;'>正确! </span>","null","","","","","","","","","","","","","","","","","","","","","","","feedback_test"
"","","","","","psychophysics","150","483508","0.0-10.0-0.0-0.0-0.0-0.5","1066","","f","","","","","","","","","","","","","key","f","44.81624444444379","768","428","j","false","img/S_ambi40.png","自我","same",""
"","","","","","html-keyboard-response","151","484011","0.0-10.0-0.0-0.0-0.0-1.5","null","<span style='color:red; font-size: 70px;'>错误! </span>","null","","","","","","","","","","","","","","","","","","","","","","","feedback_test"
"","","","","","psychophysics","152","486059","0.0-10.0-0.0-0.0-0.0-0.6","1039","","f","","","","","","","","","","","","","key","f","45.067500000000685","768","428","f","true","img/H_ambi40.png","生人","same",""
"","","","","","html-keyboard-response","153","486567","0.0-10.0-0.0-0.0-0.0-1.6","null","<span style='color:GreenYellow; font-size: 70px;'>正确! </span>","null","","","","","","","","","","","","","","","","","","","","","","","feedback_test"
"","","","","","psychophysics","154","488808","0.0-10.0-0.0-0.0-0.0-0.7","1239","","j","","","","","","","","","","","","","key","j","46.187021276595296","768","428","f","false","img/S_ambi40.png","朋友","same",""
"","","","","","html-keyboard-response","155","489323","0.0-10.0-0.0-0.0-0.0-1.7","null","<span style='color:red; font-size: 70px;'>错误! </span>","null","","","","","","","","","","","","","","","","","","","","","","","feedback_test"
"","","","","","psychophysics","156","491507","0.0-10.0-0.0-0.0-0.0-0.8","1173","","j","","","","","","","","","","","","","key","j","44.09879166666724","768","428","j","true","img/S_ambi40.png","生人","same",""
"","","","","","html-keyboard-response","157","492018","0.0-10.0-0.0-0.0-0.0-1.8","null","<span style='color:GreenYellow; font-size: 70px;'>正确! </span>","null","","","","","","","","","","","","","","","","","","","","","","","feedback_test"
"","","","","","psychophysics","158","493875","0.0-10.0-0.0-0.0-0.0-0.9","844","","j","","","","","","","","","","","","","key","j","45.416025641025044","768","428","j","true","img/T_ambi40.png","をる","same",""
"","","","","","html-keyboard-response","159","494382","0.0-10.0-0.0-0.0-0.0-1.9","null","<span style='color:GreenYellow; font-size: 70px;'>正确! </span>","null","","","","","","","","","","","","","","","","","","","","","","","feedback_test"
"","","","","","psychophysics","160","496863","0.0-10.0-0.0-0.0-0.0-0.10","1474","","f","","","","","","","","","","","","","key","f","45.372222222221794","768","428","f","true","img/S_ambi40.png","朋友","same",""
"","","","","","html-keyboard-response","161","497371","0.0-10.0-0.0-0.0-0.0-1.10","null","<span style='color:GreenYellow; font-size: 70px;'>正确! </span>","null","","","","","","","","","","","","","","","","","","","","","","","feedback_test"
"","","","","","psychophysics","162","499608","0.0-10.0-0.0-0.0-0.0-0.11","1229","","j","","","","","","","","","","","","","key","j","44.2167551020405","768","428","j","true","img/C_ambi40.png","朋友","same",""
"","","","","","html-keyboard-response","163","500122","0.0-10.0-0.0-0.0-0.0-1.11","null","<span style='color:GreenYellow; font-size: 70px;'>正确! </span>","null","","","","","","","","","","","","","","","","","","","","","","","feedback_test"
"","","","","","psychophysics","164","502099","0.0-10.0-0.0-0.0-0.0-0.12","972","","f","","","","","","","","","","","","","key","f","44.573930232558226","768","428","f","true","img/C_ambi40.png","自我","same",""
"","","","","","html-keyboard-response","165","502604","0.0-10.0-0.0-0.0-0.0-1.12","null","<span style='color:GreenYellow; font-size: 70px;'>正确! </span>","null","","","","","","","","","","","","","","","","","","","","","","","feedback_test"
"","","","","","psychophysics","166","504777","0.0-10.0-0.0-0.0-0.0-0.13","1162","","j","","","","","","","","","","","","","key","j","45.03676595744687","768","428","j","true","img/H_ambi40.png","自我","same",""
"","","","","","html-keyboard-response","167","505282","0.0-10.0-0.0-0.0-0.0-1.13","null","<span style='color:GreenYellow; font-size: 70px;'>正确! </span>","null","","","","","","","","","","","","","","","","","","","","","","","feedback_test"
"","","","","","psychophysics","168","507324","0.0-10.0-0.0-0.0-0.0-0.14","1037","","j","","","","","","","","","","","","","key","j","45.8393863636368","768","428","j","true","img/T_ambi40.png","をる","same",""
"","","","","","html-keyboard-response","169","507835","0.0-10.0-0.0-0.0-0.0-1.14","null","<span style='color:GreenYellow; font-size: 70px;'>正确! </span>","null","","","","","","","","","","","","","","","","","","","","","","","feedback_test"
"","","","","","psychophysics","170","510105","0.0-10.0-0.0-0.0-0.0-0.15","1261","","j","","","","","","","","","","","","","key","j","45.57983673469292","768","428","j","true","img/C_ambi40.png","生人","same",""
"","","","","","html-keyboard-response","171","510618","0.0-10.0-0.0-0.0-0.0-1.15","null","<span style='color:GreenYellow; font-size: 70px;'>正确! </span>","null","","","","","","","","","","","","","","","","","","","","","","","feedback_test"
"","","","","","psychophysics","172","512832","0.0-10.0-0.0-0.0-0.0-0.16","1211","","j","","","","","","","","","","","","","key","j","45.13999999999942","768","428","f","false","img/S_ambi40.png","朋友","same",""
"","","","","","html-keyboard-response","173","513339","0.0-10.0-0.0-0.0-0.0-1.16","null","<span style='color:red; font-size: 70px;'>错误! </span>","null","","","","","","","","","","","","","","","","","","","","","","","feedback_test"
"","","","","","psychophysics","174","515506","0.0-10.0-0.0-0.0-0.0-0.17","1160","","f","","","","","","","","","","","","","key","f","44.09872916666669","768","428","f","true","img/C_ambi40.png","自我","same",""
"","","","","","html-keyboard-response","175","516018","0.0-10.0-0.0-0.0-0.0-1.17","null","<span style='color:GreenYellow; font-size: 70px;'>正确! </span>","null","","","","","","","","","","","","","","","","","","","","","","","feedback_test"
"","","","","","psychophysics","176","518107","0.0-10.0-0.0-0.0-0.0-0.18","1076","","j","","","","","","","","","","","","","key","j","44.81651111111019","768","428","j","true","img/S_ambi40.png","自我","same",""
"","","","","","html-keyboard-response","177","518619","0.0-10.0-0.0-0.0-0.0-1.18","null","<span style='color:GreenYellow; font-size: 70px;'>正确! </span>","null","","","","","","","","","","","","","","","","","","","","","","","feedback_test"
"","","","","","psychophysics","178","520810","0.0-10.0-0.0-0.0-0.0-0.19","1189","","f","","","","","","","","","","","","","key","f","44.55993877550972","768","428","f","true","img/H_ambi40.png","生人","same",""
"","","","","","html-keyboard-response","179","521326","0.0-10.0-0.0-0.0-0.0-1.19","null","<span style='color:GreenYellow; font-size: 70px;'>正确! </span>","null","","","","","","","","","","","","","","","","","","","","","","","feedback_test"
"","","","","","psychophysics","180","523450","0.0-10.0-0.0-0.0-0.0-0.20","1115","","j","","","","","","","","","","","","","key","j","46.59181818181903","768","428","f","false","img/S_ambi40.png","朋友","same",""
"","","","","","html-keyboard-response","181","523951","0.0-10.0-0.0-0.0-0.0-1.20","null","<span style='color:red; font-size: 70px;'>错误! </span>","null","","","","","","","","","","","","","","","","","","","","","","","feedback_test"
"","","","","","psychophysics","182","526028","0.0-10.0-0.0-0.0-0.0-0.21","1070","","j","","","","","","","","","","","","","key","j","44.5674999999996","768","428","j","true","img/T_ambi40.png","をる","same",""
"","","","","","html-keyboard-response","183","526539","0.0-10.0-0.0-0.0-0.0-1.21","null","<span style='color:GreenYellow; font-size: 70px;'>正确! </span>","null","","","","","","","","","","","","","","","","","","","","","","","feedback_test"
"","","","","","psychophysics","184","528599","0.0-10.0-0.0-0.0-0.0-0.22","1057","","f","","","","","","","","","","","","","key","f","46.12595348837136","768","428","f","true","img/S_ambi40.png","朋友","same",""
"","","","","","html-keyboard-response","185","529102","0.0-10.0-0.0-0.0-0.0-1.22","null","<span style='color:GreenYellow; font-size: 70px;'>正确! </span>","null","","","","","","","","","","","","","","","","","","","","","","","feedback_test"
"","","","","","psychophysics","186","531205","0.0-10.0-0.0-0.0-0.0-0.23","1101","","j","","","","","","","","","","","","","key","j","46.29819999999987","768","428","j","true","img/C_ambi40.png","生人","same",""
"","","","","","html-keyboard-response","187","531708","0.0-10.0-0.0-0.0-0.0-1.23","null","<span style='color:GreenYellow; font-size: 70px;'>正确! </span>","null","","","","","","","","","","","","","","","","","","","","","","","feedback_test"
"","","","","","psychophysics","188","533690","0.0-10.0-0.0-0.0-0.0-0.24","974","","f","","","","","","","","","","","","","key","f","44.96313953488459","768","428","f","true","img/C_ambi40.png","自我","same",""
"","","","","","html-keyboard-response","189","534193","0.0-10.0-0.0-0.0-0.0-1.24","null","<span style='color:GreenYellow; font-size: 70px;'>正确! </span>","null","","","","","","","","","","","","","","","","","","","","","","","feedback_test"
"","","","","","psychophysics","190","536321","0.0-10.0-0.0-0.0-0.0-0.25","1113","","j","","","","","","","","","","","","","key","j","44.32857446808695","768","428","j","true","img/H_ambi40.png","自我","same",""
"","","","","","html-keyboard-response","191","536829","0.0-10.0-0.0-0.0-0.0-1.25","null","<span style='color:GreenYellow; font-size: 70px;'>正确! </span>","null","","","","","","","","","","","","","","","","","","","","","","","feedback_test"
"","","","","","psychophysics","192","538744","0.0-10.0-0.0-0.0-0.0-0.26","906","","j","","","","","","","","","","","","","key","j","45.937536585366175","768","428","j","true","img/T_ambi40.png","をる","same",""
"","","","","","html-keyboard-response","193","539246","0.0-10.0-0.0-0.0-0.0-1.26","null","<span style='color:GreenYellow; font-size: 70px;'>正确! </span>","null","","","","","","","","","","","","","","","","","","","","","","","feedback_test"
"","","","","","psychophysics","194","541296","0.0-10.0-0.0-0.0-0.0-0.27","1032","","j","","","","","","","","","","","","","key","j","44.20436956521893","768","428","j","true","img/T_ambi40.png","をる","same",""
"","","","","","html-keyboard-response","195","541800","0.0-10.0-0.0-0.0-0.0-1.27","null","<span style='color:GreenYellow; font-size: 70px;'>正确! </span>","null","","","","","","","","","","","","","","","","","","","","","","","feedback_test"
"","","","","","psychophysics","196","543835","0.0-10.0-0.0-0.0-0.0-0.28","1027","","f","","","","","","","","","","","","","key","f","43.4784565217383","768","428","j","false","img/H_ambi40.png","朋友","same",""
"","","","","","html-keyboard-response","197","544337","0.0-10.0-0.0-0.0-0.0-1.28","null","<span style='color:red; font-size: 70px;'>错误! </span>","null","","","","","","","","","","","","","","","","","","","","","","","feedback_test"
"","","","","","psychophysics","198","546162","0.0-10.0-0.0-0.0-0.0-0.29","812","","f","","","","","","","","","","","","","key","f","44.260275000002004","768","428","f","true","img/S_ambi40.png","朋友","same",""
"","","","","","html-keyboard-response","199","546702","0.0-10.0-0.0-0.0-0.0-1.29","null","<span style='color:GreenYellow; font-size: 70px;'>正确! </span>","null","","","","","","","","","","","","","","","","","","","","","","","feedback_test"
"","","","","","psychophysics","200","548919","0.0-10.0-0.0-0.0-0.0-0.30","1204","","f","","","","","","","","","","","","","key","f","46.742565217389945","768","428","f","true","img/H_ambi40.png","生人","same",""
"","","","","","html-keyboard-response","201","549423","0.0-10.0-0.0-0.0-0.0-1.30","null","<span style='color:GreenYellow; font-size: 70px;'>正确! </span>","null","","","","","","","","","","","","","","","","","","","","","","","feedback_test"
"","","","","","psychophysics","202","551384","0.0-10.0-0.0-0.0-0.0-0.31","947","","f","","","","","","","","","","","","","key","f","42.59451111111169","768","428","f","true","img/H_ambi40.png","生人","same",""
"","","","","","html-keyboard-response","203","551886","0.0-10.0-0.0-0.0-0.0-1.31","null","<span style='color:GreenYellow; font-size: 70px;'>正确! </span>","null","","","","","","","","","","","","","","","","","","","","","","","feedback_test"
"","","","","","psychophysics","204","554311","0.0-10.0-0.0-0.0-0.0-0.32","1422","","f","","","","","","","","","","","","","key","f","41.444428571429206","768","428","j","false","img/C_ambi40.png","朋友","same",""
"","","","","","html-keyboard-response","205","554818","0.0-10.0-0.0-0.0-0.0-1.32","null","<span style='color:red; font-size: 70px;'>错误! </span>","null","","","","","","","","","","","","","","","","","","","","","","","feedback_test"
"","","","","","psychophysics","206","557010","0.0-10.0-0.0-0.0-0.0-0.33","1177","","f","","","","","","","","","","","","","key","f","43.33497999999905","768","428","j","false","img/S_ambi40.png","生人","same",""
"","","","","","html-keyboard-response","207","557513","0.0-10.0-0.0-0.0-0.0-1.33","null","<span style='color:red; font-size: 70px;'>错误! </span>","null","","","","","","","","","","","","","","","","","","","","","","","feedback_test"
"","","","","","psychophysics","208","559586","0.0-10.0-0.0-0.0-0.0-0.34","1056","","f","","","","","","","","","","","","","key","f","41.83116326530521","768","428","f","true","img/C_ambi40.png","自我","same",""
"","","","","","html-keyboard-response","209","560099","0.0-10.0-0.0-0.0-0.0-1.34","null","<span style='color:GreenYellow; font-size: 70px;'>正确! </span>","null","","","","","","","","","","","","","","","","","","","","","","","feedback_test"
"","","","","","psychophysics","210","562098","0.0-10.0-0.0-0.0-0.0-0.35","987","","f","","","","","","","","","","","","","key","f","45.077204545454485","768","428","f","true","img/C_ambi40.png","自我","same",""
"","","","","","html-keyboard-response","211","562600","0.0-10.0-0.0-0.0-0.0-1.35","null","<span style='color:GreenYellow; font-size: 70px;'>正确! </span>","null","","","","","","","","","","","","","","","","","","","","","","","feedback_test"
"","","","","","psychophysics","212","564916","0.0-10.0-0.0-0.0-0.0-0.36","1307","","f","","","","","","","","","","","","","key","f","45.66919999999926","768","428","f","true","img/S_ambi40.png","朋友","same",""
"","","","","","html-keyboard-response","213","565425","0.0-10.0-0.0-0.0-0.0-1.36","null","<span style='color:GreenYellow; font-size: 70px;'>正确! </span>","null","","","","","","","","","","","","","","","","","","","","","","","feedback_test"
"","","","","","psychophysics","214","567887","0.0-10.0-0.0-0.0-0.0-0.37","1455","","f","","","","","","","","","","","","","key","f","44.7554074074077","768","428","f","true","img/H_ambi40.png","生人","same",""
"","","","","","html-keyboard-response","215","568402","0.0-10.0-0.0-0.0-0.0-1.37","null","<span style='color:GreenYellow; font-size: 70px;'>正确! </span>","null","","","","","","","","","","","","","","","","","","","","","","","feedback_test"
"","","","","","psychophysics","216","570505","0.0-10.0-0.0-0.0-0.0-0.38","1095","","j","","","","","","","","","","","","","key","j","46.29771111111105","768","428","j","true","img/S_ambi40.png","自我","same",""
"","","","","","html-keyboard-response","217","571017","0.0-10.0-0.0-0.0-0.0-1.38","null","<span style='color:GreenYellow; font-size: 70px;'>正确! </span>","null","","","","","","","","","","","","","","","","","","","","","","","feedback_test"
"","","","","","psychophysics","218","573280","0.0-10.0-0.0-0.0-0.0-0.39","1252","","f","","","","","","","","","","","","","key","f","46.18327083333376","768","428","f","true","img/H_ambi40.png","生人","same",""
"","","","","","html-keyboard-response","219","573786","0.0-10.0-0.0-0.0-0.0-1.39","null","<span style='color:GreenYellow; font-size: 70px;'>正确! </span>","null","","","","","","","","","","","","","","","","","","","","","","","feedback_test"
"","","","","","psychophysics","220","575928","0.0-10.0-0.0-0.0-0.0-0.40","1138","","f","","","","","","","","","","","","","key","f","46.01778260869501","768","428","f","true","img/H_ambi40.png","生人","same",""
"","","","","","html-keyboard-response","221","576432","0.0-10.0-0.0-0.0-0.0-1.40","null","<span style='color:GreenYellow; font-size: 70px;'>正确! </span>","null","","","","","","","","","","","","","","","","","","","","","","","feedback_test"
"","","","","","psychophysics","222","578767","0.0-10.0-0.0-0.0-0.0-0.41","1322","","f","","","","","","","","","","","","","key","f","44.553249999999444","768","428","f","true","img/S_ambi40.png","朋友","same",""
"","","","","","html-keyboard-response","223","579272","0.0-10.0-0.0-0.0-0.0-1.41","null","<span style='color:GreenYellow; font-size: 70px;'>正确! </span>","null","","","","","","","","","","","","","","","","","","","","","","","feedback_test"
"","","","","","psychophysics","224","581323","0.0-10.0-0.0-0.0-0.0-0.42","1047","","j","","","","","","","","","","","","","key","j","46.82492857142851","768","428","j","true","img/T_ambi40.png","をる","same",""
"","","","","","html-keyboard-response","225","581829","0.0-10.0-0.0-0.0-0.0-1.42","null","<span style='color:GreenYellow; font-size: 70px;'>正确! </span>","null","","","","","","","","","","","","","","","","","","","","","","","feedback_test"
"","","","","","psychophysics","226","583792","0.0-10.0-0.0-0.0-0.0-0.43","954","","f","","","","","","","","","","","","","key","f","43.564681818182265","768","428","f","true","img/C_ambi40.png","自我","same",""
"","","","","","html-keyboard-response","227","584302","0.0-10.0-0.0-0.0-0.0-1.43","null","<span style='color:GreenYellow; font-size: 70px;'>正确! </span>","null","","","","","","","","","","","","","","","","","","","","","","","feedback_test"
"","","","","","psychophysics","228","586747","0.0-10.0-0.0-0.0-0.0-0.44","1433","","j","","","","","","","","","","","","","key","j","47.66864000000059","768","428","j","true","img/C_ambi40.png","生人","same",""
"","","","","","html-keyboard-response","229","587256","0.0-10.0-0.0-0.0-0.0-1.44","null","<span style='color:GreenYellow; font-size: 70px;'>正确! </span>","null","","","","","","","","","","","","","","","","","","","","","","","feedback_test"
"","","","","","psychophysics","230","589282","0.0-10.0-0.0-0.0-0.0-0.45","1016","","j","","","","","","","","","","","","","key","j","45.455636363635264","768","428","j","true","img/T_ambi40.png","をる","same",""
"","","","","","html-keyboard-response","231","589789","0.0-10.0-0.0-0.0-0.0-1.45","null","<span style='color:GreenYellow; font-size: 70px;'>正确! </span>","null","","","","","","","","","","","","","","","","","","","","","","","feedback_test"
"","","","","","psychophysics","232","591778","0.0-10.0-0.0-0.0-0.0-0.46","986","","f","","","","","","","","","","","","","key","f","44.57788372092859","768","428","f","true","img/C_ambi40.png","自我","same",""
"","","","","","html-keyboard-response","233","592284","0.0-10.0-0.0-0.0-0.0-1.46","null","<span style='color:GreenYellow; font-size: 70px;'>正确! </span>","null","","","","","","","","","","","","","","","","","","","","","","","feedback_test"
"","","","","","psychophysics","234","594578","0.0-10.0-0.0-0.0-0.0-0.47","1285","","j","","","","","","","","","","","","","key","j","45.92359183673576","768","428","j","true","img/C_ambi40.png","朋友","same",""
"","","","","","html-keyboard-response","235","595080","0.0-10.0-0.0-0.0-0.0-1.47","null","<span style='color:GreenYellow; font-size: 70px;'>正确! </span>","null","","","","","","","","","","","","","","","","","","","","","","","feedback_test"
"","","","","","psychophysics","236","597570","0.0-10.0-0.0-0.0-0.0-0.48","1482","","j","","","","","","","","","","","","","key","j","44.54818181818224","768","428","j","true","img/S_ambi40.png","生人","same",""
"","","","","","html-keyboard-response","237","598079","0.0-10.0-0.0-0.0-0.0-1.48","null","<span style='color:GreenYellow; font-size: 70px;'>正确! </span>","null","","","","","","","","","","","","","","","","","","","","","","","feedback_test"
"","","","","","psychophysics","238","600254","0.0-10.0-0.0-0.0-0.0-0.49","1159","","j","","","","","","","","","","","","","key","j","47.00695555555479","768","428","f","false","img/S_ambi40.png","朋友","same",""
"","","","","","html-keyboard-response","239","600758","0.0-10.0-0.0-0.0-0.0-1.49","null","<span style='color:red; font-size: 70px;'>错误! </span>","null","","","","","","","","","","","","","","","","","","","","","","","feedback_test"
"","","","","","psychophysics","240","602756","0.0-10.0-0.0-0.0-0.0-0.50","995","","f","","","","","","","","","","","","","key","f","45.73774418604647","768","428","f","true","img/C_ambi40.png","自我","same",""
"","","","","","html-keyboard-response","241","603271","0.0-10.0-0.0-0.0-0.0-1.50","null","<span style='color:GreenYellow; font-size: 70px;'>正确! </span>","null","","","","","","","","","","","","","","","","","","","","","","","feedback_test"
"","","","","","psychophysics","242","605385","0.0-10.0-0.0-0.0-0.0-0.51","1108","","j","","","","","","","","","","","","","key","j","44.6824680851064","768","428","j","true","img/H_ambi40.png","自我","same",""
"","","","","","html-keyboard-response","243","605900","0.0-10.0-0.0-0.0-0.0-1.51","null","<span style='color:GreenYellow; font-size: 70px;'>正确! </span>","null","","","","","","","","","","","","","","","","","","","","","","","feedback_test"
"","","","","","psychophysics","244","608027","0.0-10.0-0.0-0.0-0.0-0.52","1119","","j","","","","","","","","","","","","","key","j","48.811571428568904","768","428","j","true","img/T_ambi40.png","をる","same",""
"","","","","","html-keyboard-response","245","608543","0.0-10.0-0.0-0.0-0.0-1.52","null","<span style='color:GreenYellow; font-size: 70px;'>正确! </span>","null","","","","","","","","","","","","","","","","","","","","","","","feedback_test"
"","","","","","psychophysics","246","611051","0.0-10.0-0.0-0.0-0.0-0.53","null","","null","","","","","","","","","","","","","key","null","45.371944444443756","768","428","j","false","img/H_ambi40.png","朋友","same",""
"","","","","","html-keyboard-response","247","611564","0.0-10.0-0.0-0.0-0.0-1.53","null","<span class='add_' style='color:yellow; font-size: 70px;'> 太慢! </span>","null","","","","","","","","","","","","","","","","","","","","","","","feedback_test"
"","","","","","psychophysics","248","613600","0.0-10.0-0.0-0.0-0.0-0.54","1021","","f","","","","","","","","","","","","","key","f","45.45722727272766","768","428","f","true","img/C_ambi40.png","自我","same",""
"","","","","","html-keyboard-response","249","614112","0.0-10.0-0.0-0.0-0.0-1.54","null","<span style='color:GreenYellow; font-size: 70px;'>正确! </span>","null","","","","","","","","","","","","","","","","","","","","","","","feedback_test"
"","","","","","psychophysics","250","616185","0.0-10.0-0.0-0.0-0.0-0.55","1064","","j","","","","","","","","","","","","","key","j","44.81795555555469","768","428","j","true","img/S_ambi40.png","生人","same",""
"","","","","","html-keyboard-response","251","616689","0.0-10.0-0.0-0.0-0.0-1.55","null","<span style='color:GreenYellow; font-size: 70px;'>正确! </span>","null","","","","","","","","","","","","","","","","","","","","","","","feedback_test"
"","","","","","psychophysics","252","618691","0.0-10.0-0.0-0.0-0.0-0.56","999","","j","","","","","","","","","","","","","key","j","44.076488888889756","768","428","j","true","img/T_ambi40.png","をる","same",""
"","","","","","html-keyboard-response","253","619195","0.0-10.0-0.0-0.0-0.0-1.56","null","<span style='color:GreenYellow; font-size: 70px;'>正确! </span>","null","","","","","","","","","","","","","","","","","","","","","","","feedback_test"
"","","","","","psychophysics","254","621594","0.0-10.0-0.0-0.0-0.0-0.57","1393","","f","","","","","","","","","","","","","key","f","47.3360400000005","768","428","j","false","img/H_ambi40.png","自我","same",""
"","","","","","html-keyboard-response","255","622104","0.0-10.0-0.0-0.0-0.0-1.57","null","<span style='color:red; font-size: 70px;'>错误! </span>","null","","","","","","","","","","","","","","","","","","","","","","","feedback_test"
"","","","","","psychophysics","256","624639","0.0-10.0-0.0-0.0-0.0-0.58","null","","null","","","","","","","","","","","","","key","null","44.34532142857331","768","428","f","false","img/C_ambi40.png","自我","same",""
"","","","","","html-keyboard-response","257","625153","0.0-10.0-0.0-0.0-0.0-1.58","null","<span class='add_' style='color:yellow; font-size: 70px;'> 太慢! </span>","null","","","","","","","","","","","","","","","","","","","","","","","feedback_test"
"","","","","","psychophysics","258","627304","0.0-10.0-0.0-0.0-0.0-0.59","1141","","j","","","","","","","","","","","","","key","j","47.350818181817885","768","428","j","true","img/C_ambi40.png","生人","same",""
"","","","","","html-keyboard-response","259","627811","0.0-10.0-0.0-0.0-0.0-1.59","null","<span style='color:GreenYellow; font-size: 70px;'>正确! </span>","null","","","","","","","","","","","","","","","","","","","","","","","feedback_test"
"","","","","","psychophysics","260","629880","0.0-10.0-0.0-0.0-0.0-0.60","1066","","j","","","","","","","","","","","","","key","j","48.4145714285717","768","428","j","true","img/T_ambi40.png","をる","same",""
"","","","","","html-keyboard-response","261","630394","0.0-10.0-0.0-0.0-0.0-1.60","null","<span style='color:GreenYellow; font-size: 70px;'>正确! </span>","null","","","","","","","","","","","","","","","","","","","","","","","feedback_test"
"","","","","","psychophysics","262","632377","0.0-10.0-0.0-0.0-0.0-0.61","972","","f","","","","","","","","","","","","","key","f","43.3410888888899","768","428","f","true","img/S_ambi40.png","朋友","same",""
"","","","","","html-keyboard-response","263","632893","0.0-10.0-0.0-0.0-0.0-1.61","null","<span style='color:GreenYellow; font-size: 70px;'>正确! </span>","null","","","","","","","","","","","","","","","","","","","","","","","feedback_test"
"","","","","","psychophysics","264","635416","0.0-10.0-0.0-0.0-0.0-0.62","null","","null","","","","","","","","","","","","","key","null","42.53118965517256","768","428","j","false","img/C_ambi40.png","朋友","same",""
"","","","","","html-keyboard-response","265","635927","0.0-10.0-0.0-0.0-0.0-1.62","null","<span class='add_' style='color:yellow; font-size: 70px;'> 太慢! </span>","null","","","","","","","","","","","","","","","","","","","","","","","feedback_test"
"","","","","","psychophysics","266","638017","0.0-10.0-0.0-0.0-0.0-0.63","1080","","f","","","","","","","","","","","","","key","f","47.67637209302399","768","428","f","true","img/S_ambi40.png","朋友","same",""
"","","","","","html-keyboard-response","267","638522","0.0-10.0-0.0-0.0-0.0-1.63","null","<span style='color:GreenYellow; font-size: 70px;'>正确! </span>","null","","","","","","","","","","","","","","","","","","","","","","","feedback_test"
"","","","","","psychophysics","268","640490","0.0-10.0-0.0-0.0-0.0-0.64","958","","f","","","","","","","","","","","","","key","f","46.749024390245836","768","428","f","true","img/C_ambi40.png","自我","same",""
"","","","","","html-keyboard-response","269","641021","0.0-10.0-0.0-0.0-0.0-1.64","null","<span style='color:GreenYellow; font-size: 70px;'>正确! </span>","null","","","","","","","","","","","","","","","","","","","","","","","feedback_test"
"","","","","","psychophysics","270","643079","0.0-10.0-0.0-0.0-0.0-0.65","1032","","j","","","","","","","","","","","","","key","j","43.11047826086819","768","428","j","true","img/T_ambi40.png","をる","same",""
"","","","","","html-keyboard-response","271","643582","0.0-10.0-0.0-0.0-0.0-1.65","null","<span style='color:GreenYellow; font-size: 70px;'>正确! </span>","null","","","","","","","","","","","","","","","","","","","","","","","feedback_test"
"","","","","","psychophysics","272","645844","0.0-10.0-0.0-0.0-0.0-0.66","1248","","j","","","","","","","","","","","","","key","j","45.57793877550819","768","428","j","true","img/H_ambi40.png","朋友","same",""
"","","","","","html-keyboard-response","273","646351","0.0-10.0-0.0-0.0-0.0-1.66","null","<span style='color:GreenYellow; font-size: 70px;'>正确! </span>","null","","","","","","","","","","","","","","","","","","","","","","","feedback_test"
"","","","","","psychophysics","274","648670","0.0-10.0-0.0-0.0-0.0-0.67","1307","","j","","","","","","","","","","","","","key","j","47.571416666665755","768","428","f","false","img/H_ambi40.png","生人","same",""
"","","","","","html-keyboard-response","275","649178","0.0-10.0-0.0-0.0-0.0-1.67","null","<span style='color:red; font-size: 70px;'>错误! </span>","null","","","","","","","","","","","","","","","","","","","","","","","feedback_test"
"","","","","","psychophysics","276","651565","0.0-10.0-0.0-0.0-0.0-0.68","1376","","j","","","","","","","","","","","","","key","j","46.642740000002085","768","428","f","false","img/S_ambi40.png","朋友","same",""
"","","","","","html-keyboard-response","277","652072","0.0-10.0-0.0-0.0-0.0-1.68","null","<span style='color:red; font-size: 70px;'>错误! </span>","null","","","","","","","","","","","","","","","","","","","","","","","feedback_test"
"","","","","","psychophysics","278","654239","0.0-10.0-0.0-0.0-0.0-0.69","1154","","j","","","","","","","","","","","","","key","j","47.03948888888893","768","428","f","false","img/H_ambi40.png","生人","same",""
"","","","","","html-keyboard-response","279","654746","0.0-10.0-0.0-0.0-0.0-1.69","null","<span style='color:red; font-size: 70px;'>错误! </span>","null","","","","","","","","","","","","","","","","","","","","","","","feedback_test"
"","","","","","psychophysics","280","656860","0.0-10.0-0.0-0.0-0.0-0.70","1108","","j","","","","","","","","","","","","","key","j","44.5688478260873","768","428","j","true","img/S_ambi40.png","自我","same",""
"","","","","","html-keyboard-response","281","657365","0.0-10.0-0.0-0.0-0.0-1.70","null","<span style='color:GreenYellow; font-size: 70px;'>正确! </span>","null","","","","","","","","","","","","","","","","","","","","","","","feedback_test"
"","","","","","psychophysics","282","659768","0.0-10.0-0.0-0.0-0.0-0.71","1389","","f","","","","","","","","","","","","","key","f","47.66850000000093","768","428","f","true","img/H_ambi40.png","生人","same",""
"","","","","","html-keyboard-response","283","660278","0.0-10.0-0.0-0.0-0.0-1.71","null","<span style='color:GreenYellow; font-size: 70px;'>正确! </span>","null","","","","","","","","","","","","","","","","","","","","","","","feedback_test"
"","","","","","psychophysics","284","662519","0.0-10.0-0.0-0.0-0.0-0.72","1225","","f","","","","","","","","","","","","","key","f","44.00208000000101","768","428","f","true","img/H_ambi40.png","生人","same",""
"","","","","","html-keyboard-response","285","663031","0.0-10.0-0.0-0.0-0.0-1.72","null","<span style='color:GreenYellow; font-size: 70px;'>正确! </span>","null","","","","","","","","","","","","","","","","","","","","","","","feedback_test"
"","","","","","psychophysics","286","665176","0.0-10.0-0.0-0.0-0.0-0.73","1142","","j","","","","","","","","","","","","","key","j","43.197591836732926","768","428","j","true","img/S_ambi40.png","自我","same",""
"","","","","","html-keyboard-response","287","665684","0.0-10.0-0.0-0.0-0.0-1.73","null","<span style='color:GreenYellow; font-size: 70px;'>正确! </span>","null","","","","","","","","","","","","","","","","","","","","","","","feedback_test"
"","","","","","psychophysics","288","667785","0.0-10.0-0.0-0.0-0.0-0.74","1085","","f","","","","","","","","","","","","","key","f","44.92993478260873","768","428","f","true","img/C_ambi40.png","自我","same",""
"","","","","","html-keyboard-response","289","668299","0.0-10.0-0.0-0.0-0.0-1.74","null","<span style='color:GreenYellow; font-size: 70px;'>正确! </span>","null","","","","","","","","","","","","","","","","","","","","","","","feedback_test"
"","","","","","psychophysics","290","670264","0.0-10.0-0.0-0.0-0.0-0.75","956","","j","","","","","","","","","","","","","key","j","44.96360465116138","768","428","j","true","img/T_ambi40.png","をる","same",""
"","","","","","html-keyboard-response","291","670768","0.0-10.0-0.0-0.0-0.0-1.75","null","<span style='color:GreenYellow; font-size: 70px;'>正确! </span>","null","","","","","","","","","","","","","","","","","","","","","","","feedback_test"
"","","","","","psychophysics","292","673081","0.0-10.0-0.0-0.0-0.0-0.76","1303","","f","","","","","","","","","","","","","key","f","45.006380000000355","768","428","f","true","img/H_ambi40.png","生人","same",""
"","","","","","html-keyboard-response","293","673588","0.0-10.0-0.0-0.0-0.0-1.76","null","<span style='color:GreenYellow; font-size: 70px;'>正确! </span>","null","","","","","","","","","","","","","","","","","","","","","","","feedback_test"
"","","","","","psychophysics","294","675548","0.0-10.0-0.0-0.0-0.0-0.77","948","","f","","","","","","","","","","","","","key","f","47.53014634146423","768","428","f","true","img/H_ambi40.png","生人","same",""
"","","","","","html-keyboard-response","295","676058","0.0-10.0-0.0-0.0-0.0-1.77","null","<span style='color:GreenYellow; font-size: 70px;'>正确! </span>","null","","","","","","","","","","","","","","","","","","","","","","","feedback_test"
"","","","","","psychophysics","296","678240","0.0-10.0-0.0-0.0-0.0-0.78","1179","","f","","","","","","","","","","","","","key","f","46.73969565217292","768","428","f","true","img/C_ambi40.png","自我","same",""
"","","","","","html-keyboard-response","297","678756","0.0-10.0-0.0-0.0-0.0-1.78","null","<span style='color:GreenYellow; font-size: 70px;'>正确! </span>","null","","","","","","","","","","","","","","","","","","","","","","","feedback_test"
"","","","","","psychophysics","298","681275","0.0-10.0-0.0-0.0-0.0-0.79","null","","null","","","","","","","","","","","","","key","null","45.98859259259404","768","428","f","false","img/S_ambi40.png","朋友","same",""
"","","","","","html-keyboard-response","299","681790","0.0-10.0-0.0-0.0-0.0-1.79","null","<span class='add_' style='color:yellow; font-size: 70px;'> 太慢! </span>","null","","","","","","","","","","","","","","","","","","","","","","","feedback_test"
"","","","","","psychophysics","300","683999","0.0-10.0-0.0-0.0-0.0-0.80","1201","","f","","","","","","","","","","","","","key","f","46.456042553191665","768","428","f","true","img/C_ambi40.png","自我","same",""
"","","","","","html-keyboard-response","301","684511","0.0-10.0-0.0-0.0-0.0-1.80","null","<span style='color:GreenYellow; font-size: 70px;'>正确! </span>","null","","","","","","","","","","","","","","","","","","","","","","","feedback_test"
"","","","","","psychophysics","302","686749","0.0-10.0-0.0-0.0-0.0-0.81","1231","","f","","","","","","","","","","","","","key","f","46.09380851063798","768","428","f","true","img/S_ambi40.png","朋友","same",""
"","","","","","html-keyboard-response","303","687255","0.0-10.0-0.0-0.0-0.0-1.81","null","<span style='color:GreenYellow; font-size: 70px;'>正确! </span>","null","","","","","","","","","","","","","","","","","","","","","","","feedback_test"
"","","","","","psychophysics","304","689087","0.0-10.0-0.0-0.0-0.0-0.82","822","","f","","","","","","","","","","","","","key","f","42.859500000001084","768","428","j","false","img/C_ambi40.png","朋友","same",""
"","","","","","html-keyboard-response","305","689598","0.0-10.0-0.0-0.0-0.0-1.82","null","<span style='color:red; font-size: 70px;'>错误! </span>","null","","","","","","","","","","","","","","","","","","","","","","","feedback_test"
"","","","","","psychophysics","306","691857","0.0-10.0-0.0-0.0-0.0-0.83","1252","","j","","","","","","","","","","","","","key","j","44.89953061224588","768","428","j","true","img/H_ambi40.png","自我","same",""
"","","","","","html-keyboard-response","307","692361","0.0-10.0-0.0-0.0-0.0-1.83","null","<span style='color:GreenYellow; font-size: 70px;'>正确! </span>","null","","","","","","","","","","","","","","","","","","","","","","","feedback_test"
"","","","","","psychophysics","308","694371","0.0-10.0-0.0-0.0-0.0-0.84","1001","","j","","","","","","","","","","","","","key","j","46.12611627907135","768","428","j","true","img/T_ambi40.png","をる","same",""
"","","","","","html-keyboard-response","309","694874","0.0-10.0-0.0-0.0-0.0-1.84","null","<span style='color:GreenYellow; font-size: 70px;'>正确! </span>","null","","","","","","","","","","","","","","","","","","","","","","","feedback_test"
"","","","","","psychophysics","310","697051","0.0-10.0-0.0-0.0-0.0-0.85","1166","","j","","","","","","","","","","","","","key","j","47.10267391304344","768","428","j","true","img/S_ambi40.png","生人","same",""
"","","","","","html-keyboard-response","311","697566","0.0-10.0-0.0-0.0-0.0-1.85","null","<span style='color:GreenYellow; font-size: 70px;'>正确! </span>","null","","","","","","","","","","","","","","","","","","","","","","","feedback_test"
"","","","","","psychophysics","312","700081","0.0-10.0-0.0-0.0-0.0-0.86","null","","null","","","","","","","","","","","","","key","null","43.862070175439214","768","428","j","false","img/H_ambi40.png","朋友","same",""
"","","","","","html-keyboard-response","313","700598","0.0-10.0-0.0-0.0-0.0-1.86","null","<span class='add_' style='color:yellow; font-size: 70px;'> 太慢! </span>","null","","","","","","","","","","","","","","","","","","","","","","","feedback_test"
"","","","","","psychophysics","314","702613","0.0-10.0-0.0-0.0-0.0-0.87","1005","","j","","","","","","","","","","","","","key","j","41.49127659574399","768","428","j","true","img/T_ambi40.png","をる","same",""
"","","","","","html-keyboard-response","315","703119","0.0-10.0-0.0-0.0-0.0-1.87","null","<span style='color:GreenYellow; font-size: 70px;'>正确! </span>","null","","","","","","","","","","","","","","","","","","","","","","","feedback_test"
"","","","","","psychophysics","316","705329","0.0-10.0-0.0-0.0-0.0-0.88","1197","","f","","","","","","","","","","","","","key","f","43.87989795918348","768","428","f","true","img/S_ambi40.png","朋友","same",""
"","","","","","html-keyboard-response","317","705839","0.0-10.0-0.0-0.0-0.0-1.88","null","<span style='color:GreenYellow; font-size: 70px;'>正确! </span>","null","","","","","","","","","","","","","","","","","","","","","","","feedback_test"
"","","","","","psychophysics","318","708161","0.0-10.0-0.0-0.0-0.0-0.89","1312","","j","","","","","","","","","","","","","key","j","45.334180000000636","768","428","j","true","img/C_ambi40.png","生人","same",""
"","","","","","html-keyboard-response","319","708669","0.0-10.0-0.0-0.0-0.0-1.89","null","<span style='color:GreenYellow; font-size: 70px;'>正确! </span>","null","","","","","","","","","","","","","","","","","","","","","","","feedback_test"
"","","","","","psychophysics","320","710961","0.0-10.0-0.0-0.0-0.0-0.90","1278","","j","","","","","","","","","","","","","key","j","45.58010204081728","768","428","j","true","img/C_ambi40.png","生人","same",""
"","","","","","html-keyboard-response","321","711474","0.0-10.0-0.0-0.0-0.0-1.90","null","<span style='color:GreenYellow; font-size: 70px;'>正确! </span>","null","","","","","","","","","","","","","","","","","","","","","","","feedback_test"
"","","","","","psychophysics","322","713601","0.0-10.0-0.0-0.0-0.0-0.91","1119","","j","","","","","","","","","","","","","key","j","43.75212499999907","768","428","j","true","img/H_ambi40.png","朋友","same",""
"","","","","","html-keyboard-response","323","714116","0.0-10.0-0.0-0.0-0.0-1.91","null","<span style='color:GreenYellow; font-size: 70px;'>正确! </span>","null","","","","","","","","","","","","","","","","","","","","","","","feedback_test"
"","","","","","psychophysics","324","716195","0.0-10.0-0.0-0.0-0.0-0.92","1065","","f","","","","","","","","","","","","","key","f","45.18713333333273","768","428","f","true","img/C_ambi40.png","自我","same",""
"","","","","","html-keyboard-response","325","716703","0.0-10.0-0.0-0.0-0.0-1.92","null","<span style='color:GreenYellow; font-size: 70px;'>正确! </span>","null","","","","","","","","","","","","","","","","","","","","","","","feedback_test"
"","","","","","psychophysics","326","718804","0.0-10.0-0.0-0.0-0.0-0.93","1090","","f","","","","","","","","","","","","","key","f","42.36231250000128","768","428","f","true","img/H_ambi40.png","生人","same",""
"","","","","","html-keyboard-response","327","719307","0.0-10.0-0.0-0.0-0.0-1.93","null","<span style='color:GreenYellow; font-size: 70px;'>正确! </span>","null","","","","","","","","","","","","","","","","","","","","","","","feedback_test"
"","","","","","psychophysics","328","721483","0.0-10.0-0.0-0.0-0.0-0.94","1165","","j","","","","","","","","","","","","","key","j","44.73982978723398","768","428","j","true","img/C_ambi40.png","朋友","same",""
"","","","","","html-keyboard-response","329","721988","0.0-10.0-0.0-0.0-0.0-1.94","null","<span style='color:GreenYellow; font-size: 70px;'>正确! </span>","null","","","","","","","","","","","","","","","","","","","","","","","feedback_test"
"","","","","","psychophysics","330","724241","0.0-10.0-0.0-0.0-0.0-0.95","1240","","j","","","","","","","","","","","","","key","j","44.89340816326534","768","428","j","true","img/H_ambi40.png","自我","same",""
"","","","","","html-keyboard-response","331","724747","0.0-10.0-0.0-0.0-0.0-1.95","null","<span style='color:GreenYellow; font-size: 70px;'>正确! </span>","null","","","","","","","","","","","","","","","","","","","","","","","feedback_test"
"","","","","","psychophysics","332","726651","0.0-10.0-0.0-0.0-0.0-0.96","890","","f","","","","","","","","","","","","","key","f","43.02469767441941","768","428","f","true","img/C_ambi40.png","自我","same",""
"","","","","","html-keyboard-response","333","727161","0.0-10.0-0.0-0.0-0.0-1.96","null","<span style='color:GreenYellow; font-size: 70px;'>正确! </span>","null","","","","","","","","","","","","","","","","","","","","","","","feedback_test"
"","","","","","psychophysics","334","729428","0.0-10.0-0.0-0.0-0.0-0.97","1252","","f","","","","","","","","","","","","","key","f","45.57681632652993","768","428","f","true","img/H_ambi40.png","生人","same",""
"","","","","","html-keyboard-response","335","729936","0.0-10.0-0.0-0.0-0.0-1.97","null","<span style='color:GreenYellow; font-size: 70px;'>正确! </span>","null","","","","","","","","","","","","","","","","","","","","","","","feedback_test"
"","","","","","psychophysics","336","732207","0.0-10.0-0.0-0.0-0.0-0.98","1257","","j","","","","","","","","","","","","","key","j","44.668540000000505","768","428","j","true","img/S_ambi40.png","生人","same",""
"","","","","","html-keyboard-response","337","732710","0.0-10.0-0.0-0.0-0.0-1.98","null","<span style='color:GreenYellow; font-size: 70px;'>正确! </span>","null","","","","","","","","","","","","","","","","","","","","","","","feedback_test"
"","","","","","psychophysics","338","734695","0.0-10.0-0.0-0.0-0.0-0.99","972","","j","","","","","","","","","","","","","key","j","46.430071428570606","768","428","j","true","img/T_ambi40.png","をる","same",""
"","","","","","html-keyboard-response","339","735206","0.0-10.0-0.0-0.0-0.0-1.99","null","<span style='color:GreenYellow; font-size: 70px;'>正确! </span>","null","","","","","","","","","","","","","","","","","","","","","","","feedback_test"
"","","","","","psychophysics","340","737208","0.0-10.0-0.0-0.0-0.0-0.100","991","","j","","","","","","","","","","","","","key","j","47.96943902438961","768","428","f","false","img/S_ambi40.png","朋友","same",""
"","","","","","html-keyboard-response","341","737717","0.0-10.0-0.0-0.0-0.0-1.100","null","<span style='color:red; font-size: 70px;'>错误! </span>","null","","","","","","","","","","","","","","","","","","","","","","","feedback_test"
"","","","","","psychophysics","342","739784","0.0-10.0-0.0-0.0-0.0-0.101","1054","","f","","","","","","","","","","","","","key","f","46.592863636363866","768","428","f","true","img/C_ambi40.png","自我","same",""
"","","","","","html-keyboard-response","343","740289","0.0-10.0-0.0-0.0-0.0-1.101","null","<span style='color:GreenYellow; font-size: 70px;'>正确! </span>","null","","","","","","","","","","","","","","","","","","","","","","","feedback_test"
"","","","","","psychophysics","344","742234","0.0-10.0-0.0-0.0-0.0-0.102","932","","j","","","","","","","","","","","","","key","j","43.529204545455286","768","428","j","true","img/T_ambi40.png","をる","same",""
"","","","","","html-keyboard-response","345","742737","0.0-10.0-0.0-0.0-0.0-1.102","null","<span style='color:GreenYellow; font-size: 70px;'>正确! </span>","null","","","","","","","","","","","","","","","","","","","","","","","feedback_test"
"","","","","","psychophysics","346","744754","0.0-10.0-0.0-0.0-0.0-0.103","1008","","j","","","","","","","","","","","","","key","j","46.51309302325501","768","428","j","true","img/T_ambi40.png","をる","same",""
"","","","","","html-keyboard-response","347","745260","0.0-10.0-0.0-0.0-0.0-1.103","null","<span style='color:GreenYellow; font-size: 70px;'>正确! </span>","null","","","","","","","","","","","","","","","","","","","","","","","feedback_test"
"","","","","","psychophysics","348","747424","0.0-10.0-0.0-0.0-0.0-0.104","1153","","j","","","","","","","","","","","","","key","j","46.01619565217381","768","428","j","true","img/S_ambi40.png","自我","same",""
"","","","","","html-keyboard-response","349","747933","0.0-10.0-0.0-0.0-0.0-1.104","null","<span style='color:GreenYellow; font-size: 70px;'>正确! </span>","null","","","","","","","","","","","","","","","","","","","","","","","feedback_test"
"","","","","","psychophysics","350","750177","0.0-10.0-0.0-0.0-0.0-0.105","1241","","f","","","","","","","","","","","","","key","f","43.96670000000158","768","428","f","true","img/S_ambi40.png","朋友","same",""
"","","","","","html-keyboard-response","351","750691","0.0-10.0-0.0-0.0-0.0-1.105","null","<span style='color:GreenYellow; font-size: 70px;'>正确! </span>","null","","","","","","","","","","","","","","","","","","","","","","","feedback_test"
"","","","","","psychophysics","352","752856","0.0-10.0-0.0-0.0-0.0-0.106","1151","","f","","","","","","","","","","","","","key","f","46.37906521739205","768","428","f","true","img/S_ambi40.png","朋友","same",""
"","","","","","html-keyboard-response","353","753358","0.0-10.0-0.0-0.0-0.0-1.106","null","<span style='color:GreenYellow; font-size: 70px;'>正确! </span>","null","","","","","","","","","","","","","","","","","","","","","","","feedback_test"
"","","","","","psychophysics","354","755376","0.0-10.0-0.0-0.0-0.0-0.107","1003","","j","","","","","","","","","","","","","key","j","45.07559090909093","768","428","f","false","img/H_ambi40.png","生人","same",""
"","","","","","html-keyboard-response","355","755879","0.0-10.0-0.0-0.0-0.0-1.107","null","<span style='color:red; font-size: 70px;'>错误! </span>","null","","","","","","","","","","","","","","","","","","","","","","","feedback_test"
"","","","","","html-keyboard-response","356","759528","0.0-10.0-0.0-0.0-1.0","3643","<style>.context{color:white; font-size: 35px; line-height:40px}</style>                          <div><p class='context'>您正确回答了81% 的试次。</p><p class='context'>您的平均反应时为1119毫秒。</p><p class='context'>请按任意键进入休息</p></div>","j","","","","","","","","","","","","","","","","","","","","","","",""
"","","","","","html-button-response","357","791904","0.0-10.0-0.0-0.0-2.0","32370","
                    <p>您当前还剩余5组实验</p>
                    <p>现在是休息时间，当您结束休息后，您可以点击 结束休息 按钮 继续</p>
                    <p>建议休息时间还剩余<span id=""iii"">60</span>秒</p>","0","","","","","","","","","","","","","","","","","","","","","","",""
"","","","","","psychophysics","358","794419","0.0-10.0-0.0-0.0-0.1-0.108","null","","null","","","","","","","","","","","","","key","null","49.02184313725607","768","428","f","false","img/H_ambi40.png","生人","same",""
"","","","","","html-keyboard-response","359","794929","0.0-10.0-0.0-0.0-0.1-1.108","null","<span class='add_' style='color:yellow; font-size: 70px;'> 太慢! </span>","null","","","","","","","","","","","","","","","","","","","","","","","feedback_test"
"","","","","","psychophysics","360","797328","0.0-10.0-0.0-0.0-0.1-0.109","1392","","j","","","","","","","","","","","","","key","j","46.08049019607807","768","428","j","true","img/S_ambi40.png","生人","same",""
"","","","","","html-keyboard-response","361","797830","0.0-10.0-0.0-0.0-0.1-1.109","null","<span style='color:GreenYellow; font-size: 70px;'>正确! </span>","null","","","","","","","","","","","","","","","","","","","","","","","feedback_test"
"","","","","","psychophysics","362","799854","0.0-10.0-0.0-0.0-0.1-0.110","1012","","f","","","","","","","","","","","","","key","f","44.07497777777931","768","428","f","true","img/C_ambi40.png","自我","same",""
"","","","","","html-keyboard-response","363","800363","0.0-10.0-0.0-0.0-0.1-1.110","null","<span style='color:GreenYellow; font-size: 70px;'>正确! </span>","null","","","","","","","","","","","","","","","","","","","","","","","feedback_test"
"","","","","","psychophysics","364","802738","0.0-10.0-0.0-0.0-0.1-0.111","1366","","f","","","","","","","","","","","","","key","f","42.493018181818876","768","428","f","true","img/S_ambi40.png","朋友","same",""
"","","","","","html-keyboard-response","365","803241","0.0-10.0-0.0-0.0-0.1-1.111","null","<span style='color:GreenYellow; font-size: 70px;'>正确! </span>","null","","","","","","","","","","","","","","","","","","","","","","","feedback_test"
"","","","","","psychophysics","366","805389","0.0-10.0-0.0-0.0-0.1-0.112","1140","","j","","","","","","","","","","","","","key","j","45.28943478260898","768","428","j","true","img/T_ambi40.png","をる","same",""
"","","","","","html-keyboard-response","367","805901","0.0-10.0-0.0-0.0-0.1-1.112","null","<span style='color:GreenYellow; font-size: 70px;'>正确! </span>","null","","","","","","","","","","","","","","","","","","","","","","","feedback_test"
"","","","","","psychophysics","368","807842","0.0-10.0-0.0-0.0-0.1-0.113","927","","f","","","","","","","","","","","","","key","f","46.342878048782374","768","428","f","true","img/C_ambi40.png","自我","same",""
"","","","","","html-keyboard-response","369","808352","0.0-10.0-0.0-0.0-0.1-1.113","null","<span style='color:GreenYellow; font-size: 70px;'>正确! </span>","null","","","","","","","","","","","","","","","","","","","","","","","feedback_test"
"","","","","","psychophysics","370","810496","0.0-10.0-0.0-0.0-0.1-0.114","1128","","j","","","","","","","","","","","","","key","j","46.014934782609444","768","428","j","true","img/C_ambi40.png","朋友","same",""
"","","","","","html-keyboard-response","371","811005","0.0-10.0-0.0-0.0-0.1-1.114","null","<span style='color:GreenYellow; font-size: 70px;'>正确! </span>","null","","","","","","","","","","","","","","","","","","","","","","","feedback_test"
"","","","","","psychophysics","372","813161","0.0-10.0-0.0-0.0-0.1-0.115","1147","","j","","","","","","","","","","","","","key","j","45.0357234042554","768","428","f","false","img/S_ambi40.png","朋友","same",""
"","","","","","html-keyboard-response","373","813668","0.0-10.0-0.0-0.0-0.1-1.115","null","<span style='color:red; font-size: 70px;'>错误! </span>","null","","","","","","","","","","","","","","","","","","","","","","","feedback_test"
"","","","","","psychophysics","374","815757","0.0-10.0-0.0-0.0-0.1-0.116","1083","","f","","","","","","","","","","","","","key","f","48.0176190476216","768","428","f","true","img/H_ambi40.png","生人","same",""
"","","","","","html-keyboard-response","375","816269","0.0-10.0-0.0-0.0-0.1-1.116","null","<span style='color:GreenYellow; font-size: 70px;'>正确! </span>","null","","","","","","","","","","","","","","","","","","","","","","","feedback_test"
"","","","","","psychophysics","376","818576","0.0-10.0-0.0-0.0-0.1-0.117","1300","","j","","","","","","","","","","","","","key","j","46.60126530612363","768","428","j","true","img/C_ambi40.png","生人","same",""
"","","","","","html-keyboard-response","377","819079","0.0-10.0-0.0-0.0-0.1-1.117","null","<span style='color:GreenYellow; font-size: 70px;'>正确! </span>","null","","","","","","","","","","","","","","","","","","","","","","","feedback_test"
"","","","","","psychophysics","378","821338","0.0-10.0-0.0-0.0-0.1-0.118","1255","","j","","","","","","","","","","","","","key","j","45.0146800000011","768","428","j","true","img/S_ambi40.png","自我","same",""
"","","","","","html-keyboard-response","379","821850","0.0-10.0-0.0-0.0-0.1-1.118","null","<span style='color:GreenYellow; font-size: 70px;'>正确! </span>","null","","","","","","","","","","","","","","","","","","","","","","","feedback_test"
"","","","","","psychophysics","380","824036","0.0-10.0-0.0-0.0-0.1-0.119","1175","","j","","","","","","","","","","","","","key","j","44.79360416666653","768","428","j","true","img/T_ambi40.png","をる","same",""
"","","","","","html-keyboard-response","381","824541","0.0-10.0-0.0-0.0-0.1-1.119","null","<span style='color:GreenYellow; font-size: 70px;'>正确! </span>","null","","","","","","","","","","","","","","","","","","","","","","","feedback_test"
"","","","","","psychophysics","382","826874","0.0-10.0-0.0-0.0-0.1-0.120","1325","","f","","","","","","","","","","","","","key","f","46.00225999999791","768","428","f","true","img/S_ambi40.png","朋友","same",""
"","","","","","html-keyboard-response","383","827381","0.0-10.0-0.0-0.0-0.1-1.120","null","<span style='color:GreenYellow; font-size: 70px;'>正确! </span>","null","","","","","","","","","","","","","","","","","","","","","","","feedback_test"
"","","","","","psychophysics","384","829399","0.0-10.0-0.0-0.0-0.1-0.121","1007","","j","","","","","","","","","","","","","key","j","44.07640000000182","768","428","j","true","img/T_ambi40.png","をる","same",""
"","","","","","html-keyboard-response","385","829905","0.0-10.0-0.0-0.0-0.1-1.121","null","<span style='color:GreenYellow; font-size: 70px;'>正确! </span>","null","","","","","","","","","","","","","","","","","","","","","","","feedback_test"
"","","","","","psychophysics","386","832385","0.0-10.0-0.0-0.0-0.1-0.122","1470","","j","","","","","","","","","","","","","key","j","48.0018200000003","768","428","f","false","img/H_ambi40.png","生人","same",""
"","","","","","html-keyboard-response","387","832895","0.0-10.0-0.0-0.0-0.1-1.122","null","<span style='color:red; font-size: 70px;'>错误! </span>","null","","","","","","","","","","","","","","","","","","","","","","","feedback_test"
"","","","","","psychophysics","388","835131","0.0-10.0-0.0-0.0-0.1-0.123","1232","","j","","","","","","","","","","","","","key","j","48.52057777777987","768","428","j","true","img/H_ambi40.png","朋友","same",""
"","","","","","html-keyboard-response","389","835634","0.0-10.0-0.0-0.0-0.1-1.123","null","<span style='color:GreenYellow; font-size: 70px;'>正确! </span>","null","","","","","","","","","","","","","","","","","","","","","","","feedback_test"
"","","","","","psychophysics","390","837816","0.0-10.0-0.0-0.0-0.1-0.124","1171","","j","","","","","","","","","","","","","key","j","44.45383333333302","768","428","j","true","img/H_ambi40.png","自我","same",""
"","","","","","html-keyboard-response","391","838320","0.0-10.0-0.0-0.0-0.1-1.124","null","<span style='color:GreenYellow; font-size: 70px;'>正确! </span>","null","","","","","","","","","","","","","","","","","","","","","","","feedback_test"
"","","","","","psychophysics","392","840530","0.0-10.0-0.0-0.0-0.1-0.125","1197","","f","","","","","","","","","","","","","key","f","47.409000000000624","768","428","f","true","img/C_ambi40.png","自我","same",""
"","","","","","html-keyboard-response","393","841039","0.0-10.0-0.0-0.0-0.1-1.125","null","<span style='color:GreenYellow; font-size: 70px;'>正确! </span>","null","","","","","","","","","","","","","","","","","","","","","","","feedback_test"
"","","","","","psychophysics","394","842975","0.0-10.0-0.0-0.0-0.1-0.126","928","","f","","","","","","","","","","","","","key","f","44.186674418604696","768","428","f","true","img/C_ambi40.png","自我","same",""
"","","","","","html-keyboard-response","395","843487","0.0-10.0-0.0-0.0-0.1-1.126","null","<span style='color:GreenYellow; font-size: 70px;'>正确! </span>","null","","","","","","","","","","","","","","","","","","","","","","","feedback_test"
"","","","","","psychophysics","396","846013","0.0-10.0-0.0-0.0-0.1-0.127","1512","","f","","","","","","","","","","","","","key","f","48.078307692308535","768","428","f","true","img/H_ambi40.png","生人","same",""
"","","","","","html-keyboard-response","397","846524","0.0-10.0-0.0-0.0-0.1-1.127","null","<span class='add_' style='color:yellow; font-size: 70px;'> 太慢! </span>","null","","","","","","","","","","","","","","","","","","","","","","","feedback_test"
"","","","","","psychophysics","398","848881","0.0-10.0-0.0-0.0-0.1-0.128","1345","","f","","","","","","","","","","","","","key","f","45.42719607843159","768","428","f","true","img/S_ambi40.png","朋友","same",""
"","","","","","html-keyboard-response","399","849385","0.0-10.0-0.0-0.0-0.1-1.128","null","<span style='color:GreenYellow; font-size: 70px;'>正确! </span>","null","","","","","","","","","","","","","","","","","","","","","","","feedback_test"
"","","","","","psychophysics","400","851700","0.0-10.0-0.0-0.0-0.1-0.129","1310","","f","","","","","","","","","","","","","key","f","47.57027083333378","768","428","f","true","img/H_ambi40.png","生人","same",""
"","","","","","html-keyboard-response","401","852215","0.0-10.0-0.0-0.0-0.1-1.129","null","<span style='color:GreenYellow; font-size: 70px;'>正确! </span>","null","","","","","","","","","","","","","","","","","","","","","","","feedback_test"
"","","","","","psychophysics","402","854580","0.0-10.0-0.0-0.0-0.1-0.130","1351","","j","","","","","","","","","","","","","key","j","45.213365384614846","768","428","j","true","img/C_ambi40.png","生人","same",""
"","","","","","html-keyboard-response","403","855097","0.0-10.0-0.0-0.0-0.1-1.130","null","<span style='color:GreenYellow; font-size: 70px;'>正确! </span>","null","","","","","","","","","","","","","","","","","","","","","","","feedback_test"
"","","","","","psychophysics","404","857618","0.0-10.0-0.0-0.0-0.1-0.131","null","","null","","","","","","","","","","","","","key","null","45.45549090909137","768","428","f","false","img/S_ambi40.png","朋友","same",""
"","","","","","html-keyboard-response","405","858134","0.0-10.0-0.0-0.0-0.1-1.131","null","<span class='add_' style='color:yellow; font-size: 70px;'> 太慢! </span>","null","","","","","","","","","","","","","","","","","","","","","","","feedback_test"
"","","","","","psychophysics","406","860070","0.0-10.0-0.0-0.0-0.1-0.132","922","","f","","","","","","","","","","","","","key","f","44.187976744185676","768","428","f","true","img/C_ambi40.png","自我","same",""
"","","","","","html-keyboard-response","407","860578","0.0-10.0-0.0-0.0-0.1-1.132","null","<span style='color:GreenYellow; font-size: 70px;'>正确! </span>","null","","","","","","","","","","","","","","","","","","","","","","","feedback_test"
"","","","","","psychophysics","408","862690","0.0-10.0-0.0-0.0-0.1-0.133","1097","","j","","","","","","","","","","","","","key","j","46.29862222222404","768","428","j","true","img/T_ambi40.png","をる","same",""
"","","","","","html-keyboard-response","409","863193","0.0-10.0-0.0-0.0-0.1-1.133","null","<span style='color:GreenYellow; font-size: 70px;'>正确! </span>","null","","","","","","","","","","","","","","","","","","","","","","","feedback_test"
"","","","","","psychophysics","410","865479","0.0-10.0-0.0-0.0-0.1-0.134","1277","","f","","","","","","","","","","","","","key","f","44.116411764704274","768","428","j","false","img/S_ambi40.png","生人","same",""
"","","","","","html-keyboard-response","411","865992","0.0-10.0-0.0-0.0-0.1-1.134","null","<span style='color:red; font-size: 70px;'>错误! </span>","null","","","","","","","","","","","","","","","","","","","","","","","feedback_test"
"","","","","","psychophysics","412","867967","0.0-10.0-0.0-0.0-0.1-0.135","961","","j","","","","","","","","","","","","","key","j","46.75095121951195","768","428","j","true","img/T_ambi40.png","をる","same",""
"","","","","","html-keyboard-response","413","868480","0.0-10.0-0.0-0.0-0.1-1.135","null","<span style='color:GreenYellow; font-size: 70px;'>正确! </span>","null","","","","","","","","","","","","","","","","","","","","","","","feedback_test"
"","","","","","psychophysics","414","870752","0.0-10.0-0.0-0.0-0.1-0.136","1254","","j","","","","","","","","","","","","","key","j","44.002160000000146","768","428","j","true","img/H_ambi40.png","朋友","same",""
"","","","","","html-keyboard-response","415","871254","0.0-10.0-0.0-0.0-0.1-1.136","null","<span style='color:GreenYellow; font-size: 70px;'>正确! </span>","null","","","","","","","","","","","","","","","","","","","","","","","feedback_test"
"","","","","","psychophysics","416","873689","0.0-10.0-0.0-0.0-0.1-0.137","1421","","j","","","","","","","","","","","","","key","j","44.97292452830083","768","428","j","true","img/C_ambi40.png","朋友","same",""
"","","","","","html-keyboard-response","417","874193","0.0-10.0-0.0-0.0-0.1-1.137","null","<span style='color:GreenYellow; font-size: 70px;'>正确! </span>","null","","","","","","","","","","","","","","","","","","","","","","","feedback_test"
"","","","","","psychophysics","418","876505","0.0-10.0-0.0-0.0-0.1-0.138","1297","","j","","","","","","","","","","","","","key","j","45.33568000000203","768","428","f","false","img/S_ambi40.png","朋友","same",""
"","","","","","html-keyboard-response","419","877006","0.0-10.0-0.0-0.0-0.1-1.138","null","<span style='color:red; font-size: 70px;'>错误! </span>","null","","","","","","","","","","","","","","","","","","","","","","","feedback_test"
"","","","","","psychophysics","420","879149","0.0-10.0-0.0-0.0-0.1-0.139","1136","","j","","","","","","","","","","","","","key","j","44.09950000000148","768","428","j","true","img/T_ambi40.png","をる","same",""
"","","","","","html-keyboard-response","421","879650","0.0-10.0-0.0-0.0-0.1-1.139","null","<span style='color:GreenYellow; font-size: 70px;'>正确! </span>","null","","","","","","","","","","","","","","","","","","","","","","","feedback_test"
"","","","","","psychophysics","422","881931","0.0-10.0-0.0-0.0-0.1-0.140","1278","","j","","","","","","","","","","","","","key","j","45.654653061224074","768","428","j","true","img/H_ambi40.png","自我","same",""
"","","","","","html-keyboard-response","423","882443","0.0-10.0-0.0-0.0-0.1-1.140","null","<span style='color:GreenYellow; font-size: 70px;'>正确! </span>","null","","","","","","","","","","","","","","","","","","","","","","","feedback_test"
"","","","","","psychophysics","424","884735","0.0-10.0-0.0-0.0-0.1-0.141","1280","","j","","","","","","","","","","","","","key","j","44.960819999999366","768","428","j","true","img/S_ambi40.png","自我","same",""
"","","","","","html-keyboard-response","425","885250","0.0-10.0-0.0-0.0-0.1-1.141","null","<span style='color:GreenYellow; font-size: 70px;'>正确! </span>","null","","","","","","","","","","","","","","","","","","","","","","","feedback_test"
"","","","","","psychophysics","426","887293","0.0-10.0-0.0-0.0-0.1-0.142","1038","","f","","","","","","","","","","","","","key","f","46.21944186046481","768","428","f","true","img/C_ambi40.png","自我","same",""
"","","","","","html-keyboard-response","427","887797","0.0-10.0-0.0-0.0-0.1-1.142","null","<span style='color:GreenYellow; font-size: 70px;'>正确! </span>","null","","","","","","","","","","","","","","","","","","","","","","","feedback_test"
"","","","","","psychophysics","428","890251","0.0-10.0-0.0-0.0-0.1-0.143","1449","","f","","","","","","","","","","","","","key","f","45.91341509434113","768","428","f","true","img/H_ambi40.png","生人","same",""
"","","","","","html-keyboard-response","429","890754","0.0-10.0-0.0-0.0-0.1-1.143","null","<span style='color:GreenYellow; font-size: 70px;'>正确! </span>","null","","","","","","","","","","","","","","","","","","","","","","","feedback_test"
"","","","","","psychophysics","430","893039","0.0-10.0-0.0-0.0-0.1-0.144","1273","","j","","","","","","","","","","","","","key","j","46.876416666666046","768","428","f","false","img/S_ambi40.png","朋友","same",""
"","","","","","html-keyboard-response","431","893555","0.0-10.0-0.0-0.0-0.1-1.144","null","<span style='color:red; font-size: 70px;'>错误! </span>","null","","","","","","","","","","","","","","","","","","","","","","","feedback_test"
"","","","","","psychophysics","432","895746","0.0-10.0-0.0-0.0-0.1-0.145","1177","","f","","","","","","","","","","","","","key","f","45.3919787234057","768","428","f","true","img/S_ambi40.png","朋友","same",""
"","","","","","html-keyboard-response","433","896250","0.0-10.0-0.0-0.0-0.1-1.145","null","<span style='color:GreenYellow; font-size: 70px;'>正确! </span>","null","","","","","","","","","","","","","","","","","","","","","","","feedback_test"
"","","","","","psychophysics","434","898343","0.0-10.0-0.0-0.0-0.1-0.146","1083","","f","","","","","","","","","","","","","key","f","45.65064444444401","768","428","f","true","img/C_ambi40.png","自我","same",""
"","","","","","html-keyboard-response","435","898853","0.0-10.0-0.0-0.0-0.1-1.146","null","<span style='color:GreenYellow; font-size: 70px;'>正确! </span>","null","","","","","","","","","","","","","","","","","","","","","","","feedback_test"
"","","","","","psychophysics","436","900842","0.0-10.0-0.0-0.0-0.1-0.147","979","","f","","","","","","","","","","","","","key","f","43.338799999998365","768","428","f","true","img/C_ambi40.png","自我","same",""
"","","","","","html-keyboard-response","437","901345","0.0-10.0-0.0-0.0-0.1-1.147","null","<span style='color:GreenYellow; font-size: 70px;'>正确! </span>","null","","","","","","","","","","","","","","","","","","","","","","","feedback_test"
"","","","","","psychophysics","438","903463","0.0-10.0-0.0-0.0-0.1-0.148","1106","","f","","","","","","","","","","","","","key","f","46.29735555555413","768","428","f","true","img/H_ambi40.png","生人","same",""
"","","","","","html-keyboard-response","439","903970","0.0-10.0-0.0-0.0-0.1-1.148","null","<span style='color:GreenYellow; font-size: 70px;'>正确! </span>","null","","","","","","","","","","","","","","","","","","","","","","","feedback_test"
"","","","","","psychophysics","440","906050","0.0-10.0-0.0-0.0-0.1-0.149","1066","","f","","","","","","","","","","","","","key","f","45.83565909091108","768","428","f","true","img/H_ambi40.png","生人","same",""
"","","","","","html-keyboard-response","441","906556","0.0-10.0-0.0-0.0-0.1-1.149","null","<span style='color:GreenYellow; font-size: 70px;'>正确! </span>","null","","","","","","","","","","","","","","","","","","","","","","","feedback_test"
"","","","","","psychophysics","442","908603","0.0-10.0-0.0-0.0-0.1-0.150","1024","","f","","","","","","","","","","","","","key","f","42.55436170212627","768","428","j","false","img/C_ambi40.png","生人","same",""
