success,timeout,failed_images,failed_audio,failed_video,trial_type,trial_index,time_elapsed,internal_node_id,rt,stimulus,response,value,item_width_mm,item_height_mm,item_width_px,px2mm,view_dist_mm,item_width_deg,px2deg,scale_factor,win_width_deg,win_height_deg,view_history,response_type,key_press,avg_frame_time,center_x,center_y,correct_response,correct,Image,word,condition,screen_id
TRUE,FALSE,[],[],[],preload,0,910,0.0-0.0,,,,,,,,,,,,,,,,,,,,,,,,,,
,,,,,html-keyboard-response,1,90668,0.0-1.0,89756,"
     <p>您好，欢迎参加本次实验。</p>
     <p>为充分保障您的权利，请确保您已经知晓并同意《参与实验同意书》以及《数据公开知情同意书》。</p>
     <p>如果您未见过上述内容，请咨询实验员。</p>
     <p>如果您选择继续实验，则表示您已经清楚两份知情同意书的内容并同意。</p>
     <p> <div style = ""color: green""><按任意键至下页></div> </p>
     ",enter,,,,,,,,,,,,,,,,,,,,,,,
,,,,,html-keyboard-response,2,92221,0.0-2.0,1552,"
     <p>本实验首先需要您填写一些基本个人信息。</p>
     <p> <div style = ""color: green""><按任意键至下页></div></p>
     ",enter,,,,,,,,,,,,,,,,,,,,,,,
,,,,,call-function,3,92222,0.0-3.0-0.0,,,,,,,,,,,,,,,,,,,,,,,,,,
,,,,,survey-html-form,4,96643,0.0-3.0-1.0,4416,,{"Q0":"10"},,,,,,,,,,,,,,,,,,,,,,,
,,,,,html-button-response,5,97511,0.0-3.0-2.0,866,<p style = 'color : white'>您的性别</p>,0,,,,,,,,,,,,,,,,,,,,,,,
,,,,,survey-html-form,6,103289,0.0-3.0-3.0,5775,,{"Q0":"2001"},,,,,,,,,,,,,,,,,,,,,,,
,,,,,survey-html-form,7,106775,0.0-3.0-4.0,3484,,{"Q0":"5"},,,,,,,,,,,,,,,,,,,,,,,
,,,,,virtual-chinrest,8,367380,0.0-4.0,260605,,,,85.6,53.98,352.109988,4.114656717,695.57,7.042199761,50,0.994007588,24.64,10.82,,,,,,,,,,,,
TRUE,,,,,fullscreen,9,370426,0.0-5.0,,,,,,,,,,,,,,,,,,,,,,,,,,
,,,,,instructions,10,442065,0.0-6.0,71637,,,,,,,,,,,,,,"[{""page_index"":0,""viewing_time"":13243},{""page_index"":1,""viewing_time"":48374},{""page_index"":2,""viewing_time"":3214},{""page_index"":3,""viewing_time"":6806}]",,,,,,,,,,,
,,,,,psychophysics,11,444577,0.0-7.0-0.0,null,,null,,,,,,,,,,,,,key,null,16.7835473,640,356,j,FALSE,img/S_ambi40.png,朋友,prac,
,,,,,html-keyboard-response,12,445079,0.0-7.0-1.0,null,<span class='add_' style='color:yellow; font-size: 70px;'> 太慢! </span>,null,,,,,,,,,,,,,,,,,,,,,,,feedback_test
,,,,,psychophysics,13,447582,0.0-7.0-0.1,null,,null,,,,,,,,,,,,,key,null,16.67171622,640,356,f,FALSE,img/T_ambi40.png,をる,prac,
,,,,,html-keyboard-response,14,448084,0.0-7.0-1.1,null,<span class='add_' style='color:yellow; font-size: 70px;'> 太慢! </span>,null,,,,,,,,,,,,,,,,,,,,,,,feedback_test
,,,,,psychophysics,15,450592,0.0-7.0-0.2,null,,null,,,,,,,,,,,,,key,null,16.67107383,640,356,f,FALSE,img/H_ambi40.png,朋友,prac,
,,,,,html-keyboard-response,16,451094,0.0-7.0-1.2,null,<span class='add_' style='color:yellow; font-size: 70px;'> 太慢! </span>,null,,,,,,,,,,,,,,,,,,,,,,,feedback_test
,,,,,psychophysics,17,453596,0.0-7.0-0.3,null,,null,,,,,,,,,,,,,key,null,16.67090604,640,356,f,FALSE,img/H_ambi40.png,朋友,prac,
,,,,,html-keyboard-response,18,454099,0.0-7.0-1.3,null,<span class='add_' style='color:yellow; font-size: 70px;'> 太慢! </span>,null,,,,,,,,,,,,,,,,,,,,,,,feedback_test
,,,,,psychophysics,19,456601,0.0-7.0-0.4,null,,null,,,,,,,,,,,,,key,null,16.6708255,640,356,f,FALSE,img/T_ambi40.png,をる,prac,
,,,,,html-keyboard-response,20,457102,0.0-7.0-1.4,null,<span class='add_' style='color:yellow; font-size: 70px;'> 太慢! </span>,null,,,,,,,,,,,,,,,,,,,,,,,feedback_test
,,,,,psychophysics,21,459605,0.0-7.0-0.5,null,,null,,,,,,,,,,,,,key,null,16.67125503,640,356,j,FALSE,img/H_ambi40.png,生人,prac,
,,,,,html-keyboard-response,22,460119,0.0-7.0-1.5,null,<span class='add_' style='color:yellow; font-size: 70px;'> 太慢! </span>,null,,,,,,,,,,,,,,,,,,,,,,,feedback_test
,,,,,psychophysics,23,462622,0.0-7.0-0.6,null,,null,,,,,,,,,,,,,key,null,16.67122148,640,356,j,FALSE,img/C_ambi40.png,自我,prac,
,,,,,html-keyboard-response,24,463124,0.0-7.0-1.6,null,<span class='add_' style='color:yellow; font-size: 70px;'> 太慢! </span>,null,,,,,,,,,,,,,,,,,,,,,,,feedback_test
,,,,,psychophysics,25,465628,0.0-7.0-0.7,null,,null,,,,,,,,,,,,,key,null,16.67144966,640,356,j,FALSE,img/S_ambi40.png,生人,prac,
,,,,,html-keyboard-response,26,466131,0.0-7.0-1.7,null,<span class='add_' style='color:yellow; font-size: 70px;'> 太慢! </span>,null,,,,,,,,,,,,,,,,,,,,,,,feedback_test
,,,,,psychophysics,27,468633,0.0-7.0-0.8,null,,null,,,,,,,,,,,,,key,null,16.67133557,640,356,j,FALSE,img/H_ambi40.png,自我,prac,
,,,,,html-keyboard-response,28,469135,0.0-7.0-1.8,null,<span class='add_' style='color:yellow; font-size: 70px;'> 太慢! </span>,null,,,,,,,,,,,,,,,,,,,,,,,feedback_test
,,,,,psychophysics,29,471637,0.0-7.0-0.9,null,,null,,,,,,,,,,,,,key,null,16.67120946,640,356,f,FALSE,img/T_ambi40.png,をる,prac,
,,,,,html-keyboard-response,30,472138,0.0-7.0-1.9,null,<span class='add_' style='color:yellow; font-size: 70px;'> 太慢! </span>,null,,,,,,,,,,,,,,,,,,,,,,,feedback_test
,,,,,psychophysics,31,474640,0.0-7.0-0.10,null,,null,,,,,,,,,,,,,key,null,16.67158389,640,356,f,FALSE,img/C_ambi40.png,生人,prac,
,,,,,html-keyboard-response,32,475142,0.0-7.0-1.10,null,<span class='add_' style='color:yellow; font-size: 70px;'> 太慢! </span>,null,,,,,,,,,,,,,,,,,,,,,,,feedback_test
,,,,,psychophysics,33,477644,0.0-7.0-0.11,null,,null,,,,,,,,,,,,,key,null,16.67183893,640,356,f,FALSE,img/T_ambi40.png,をる,prac,
,,,,,html-keyboard-response,34,478146,0.0-7.0-1.11,null,<span class='add_' style='color:yellow; font-size: 70px;'> 太慢! </span>,null,,,,,,,,,,,,,,,,,,,,,,,feedback_test
,,,,,psychophysics,35,480648,0.0-7.0-0.12,null,,null,,,,,,,,,,,,,key,null,16.67102013,640,356,f,FALSE,img/S_ambi40.png,自我,prac,
,,,,,html-keyboard-response,36,481150,0.0-7.0-1.12,null,<span class='add_' style='color:yellow; font-size: 70px;'> 太慢! </span>,null,,,,,,,,,,,,,,,,,,,,,,,feedback_test
,,,,,psychophysics,37,483652,0.0-7.0-0.13,null,,null,,,,,,,,,,,,,key,null,16.67148993,640,356,f,FALSE,img/C_ambi40.png,生人,prac,
,,,,,html-keyboard-response,38,484153,0.0-7.0-1.13,null,<span class='add_' style='color:yellow; font-size: 70px;'> 太慢! </span>,null,,,,,,,,,,,,,,,,,,,,,,,feedback_test
,,,,,psychophysics,39,486655,0.0-7.0-0.14,null,,null,,,,,,,,,,,,,key,null,16.67087919,640,356,f,FALSE,img/S_ambi40.png,自我,prac,
,,,,,html-keyboard-response,40,487156,0.0-7.0-1.14,null,<span class='add_' style='color:yellow; font-size: 70px;'> 太慢! </span>,null,,,,,,,,,,,,,,,,,,,,,,,feedback_test
,,,,,psychophysics,41,489659,0.0-7.0-0.15,null,,null,,,,,,,,,,,,,key,null,16.67094595,640,356,j,FALSE,img/C_ambi40.png,朋友,prac,
,,,,,html-keyboard-response,42,490161,0.0-7.0-1.15,null,<span class='add_' style='color:yellow; font-size: 70px;'> 太慢! </span>,null,,,,,,,,,,,,,,,,,,,,,,,feedback_test
,,,,,psychophysics,43,492664,0.0-7.0-0.16,null,,null,,,,,,,,,,,,,key,null,16.67121477,640,356,j,FALSE,img/H_ambi40.png,生人,prac,
,,,,,html-keyboard-response,44,493167,0.0-7.0-1.16,null,<span class='add_' style='color:yellow; font-size: 70px;'> 太慢! </span>,null,,,,,,,,,,,,,,,,,,,,,,,feedback_test
,,,,,psychophysics,45,495671,0.0-7.0-0.17,null,,null,,,,,,,,,,,,,key,null,16.6718255,640,356,j,FALSE,img/C_ambi40.png,朋友,prac,
,,,,,html-keyboard-response,46,496172,0.0-7.0-1.17,null,<span class='add_' style='color:yellow; font-size: 70px;'> 太慢! </span>,null,,,,,,,,,,,,,,,,,,,,,,,feedback_test
,,,,,psychophysics,47,497422,0.0-7.0-0.18,249,,j,,,,,,,,,,,,,key,j,16.67063514,640,356,f,FALSE,img/T_ambi40.png,をる,prac,
,,,,,html-keyboard-response,48,497929,0.0-7.0-1.18,null,<span style='color:red; font-size: 70px;'>错误! </span>,null,,,,,,,,,,,,,,,,,,,,,,,feedback_test
,,,,,psychophysics,49,500431,0.0-7.0-0.19,null,,null,,,,,,,,,,,,,key,null,16.67131544,640,356,f,FALSE,img/S_ambi40.png,自我,prac,
,,,,,html-keyboard-response,50,500934,0.0-7.0-1.19,null,<span class='add_' style='color:yellow; font-size: 70px;'> 太慢! </span>,null,,,,,,,,,,,,,,,,,,,,,,,feedback_test
,,,,,psychophysics,51,503435,0.0-7.0-0.20,null,,null,,,,,,,,,,,,,key,null,16.67118792,640,356,f,FALSE,img/T_ambi40.png,をる,prac,
,,,,,html-keyboard-response,52,503937,0.0-7.0-1.20,null,<span class='add_' style='color:yellow; font-size: 70px;'> 太慢! </span>,null,,,,,,,,,,,,,,,,,,,,,,,feedback_test
,,,,,psychophysics,53,506440,0.0-7.0-0.21,null,,null,,,,,,,,,,,,,key,null,16.67098658,640,356,f,FALSE,img/T_ambi40.png,をる,prac,
,,,,,html-keyboard-response,54,506943,0.0-7.0-1.21,null,<span class='add_' style='color:yellow; font-size: 70px;'> 太慢! </span>,null,,,,,,,,,,,,,,,,,,,,,,,feedback_test
,,,,,psychophysics,55,509447,0.0-7.0-0.22,null,,null,,,,,,,,,,,,,key,null,16.67137584,640,356,j,FALSE,img/C_ambi40.png,自我,prac,
,,,,,html-keyboard-response,56,509949,0.0-7.0-1.22,null,<span class='add_' style='color:yellow; font-size: 70px;'> 太慢! </span>,null,,,,,,,,,,,,,,,,,,,,,,,feedback_test
,,,,,psychophysics,57,512452,0.0-7.0-0.23,null,,null,,,,,,,,,,,,,key,null,16.67174497,640,356,f,FALSE,img/S_ambi40.png,自我,prac,
,,,,,html-keyboard-response,58,512954,0.0-7.0-1.23,null,<span class='add_' style='color:yellow; font-size: 70px;'> 太慢! </span>,null,,,,,,,,,,,,,,,,,,,,,,,feedback_test
,,,,,psychophysics,59,515458,0.0-7.0-0.24,null,,null,,,,,,,,,,,,,key,null,16.67126174,640,356,f,FALSE,img/C_ambi40.png,生人,prac,
,,,,,html-keyboard-response,60,515960,0.0-7.0-1.24,null,<span class='add_' style='color:yellow; font-size: 70px;'> 太慢! </span>,null,,,,,,,,,,,,,,,,,,,,,,,feedback_test
,,,,,psychophysics,61,518464,0.0-7.0-0.25,null,,null,,,,,,,,,,,,,key,null,16.67121622,616,266.3333333,f,FALSE,img/T_ambi40.png,をる,prac,
,,,,,html-keyboard-response,62,518965,0.0-7.0-1.25,null,<span class='add_' style='color:yellow; font-size: 70px;'> 太慢! </span>,null,,,,,,,,,,,,,,,,,,,,,,,feedback_test
,,,,,psychophysics,63,521468,0.0-7.0-0.26,null,,null,,,,,,,,,,,,,key,null,16.67118919,616,266.3333333,f,FALSE,img/H_ambi40.png,朋友,prac,
,,,,,html-keyboard-response,64,521969,0.0-7.0-1.26,null,<span class='add_' style='color:yellow; font-size: 70px;'> 太慢! </span>,null,,,,,,,,,,,,,,,,,,,,,,,feedback_test
,,,,,psychophysics,65,524471,0.0-7.0-0.27,null,,null,,,,,,,,,,,,,key,null,16.67115436,616,266.3333333,f,FALSE,img/C_ambi40.png,生人,prac,
,,,,,html-keyboard-response,66,524973,0.0-7.0-1.27,null,<span class='add_' style='color:yellow; font-size: 70px;'> 太慢! </span>,null,,,,,,,,,,,,,,,,,,,,,,,feedback_test
,,,,,psychophysics,67,527476,0.0-7.0-0.28,null,,null,,,,,,,,,,,,,key,null,16.67145638,616,266.3333333,f,FALSE,img/H_ambi40.png,朋友,prac,
,,,,,html-keyboard-response,68,527980,0.0-7.0-1.28,null,<span class='add_' style='color:yellow; font-size: 70px;'> 太慢! </span>,null,,,,,,,,,,,,,,,,,,,,,,,feedback_test
,,,,,psychophysics,69,530483,0.0-7.0-0.29,null,,null,,,,,,,,,,,,,key,null,16.67168456,616,266.3333333,j,FALSE,img/H_ambi40.png,自我,prac,
,,,,,html-keyboard-response,70,530985,0.0-7.0-1.29,null,<span class='add_' style='color:yellow; font-size: 70px;'> 太慢! </span>,null,,,,,,,,,,,,,,,,,,,,,,,feedback_test
,,,,,psychophysics,71,533487,0.0-7.0-0.30,null,,null,,,,,,,,,,,,,key,null,16.67185811,616,266.3333333,j,FALSE,img/S_ambi40.png,生人,prac,
,,,,,html-keyboard-response,72,533989,0.0-7.0-1.30,null,<span class='add_' style='color:yellow; font-size: 70px;'> 太慢! </span>,null,,,,,,,,,,,,,,,,,,,,,,,feedback_test
,,,,,psychophysics,73,536492,0.0-7.0-0.31,null,,null,,,,,,,,,,,,,key,null,16.67097987,616,266.3333333,j,FALSE,img/S_ambi40.png,朋友,prac,
,,,,,html-keyboard-response,74,536995,0.0-7.0-1.31,null,<span class='add_' style='color:yellow; font-size: 70px;'> 太慢! </span>,null,,,,,,,,,,,,,,,,,,,,,,,feedback_test
,,,,,psychophysics,75,539498,0.0-8.0-0.0-0.0,null,,null,,,,,,,,,,,,,key,null,16.67118792,616,266.3333333,f,FALSE,img/C_ambi40.png,生人,prac,
,,,,,html-keyboard-response,76,539999,0.0-8.0-0.0-1.0,null,<span class='add_' style='color:yellow; font-size: 70px;'> 太慢! </span>,null,,,,,,,,,,,,,,,,,,,,,,,feedback_test
,,,,,psychophysics,77,541752,0.0-8.0-0.0-0.1,751,,j,,,,,,,,,,,,,key,j,16.67184615,616,266.3333333,f,FALSE,img/C_ambi40.png,生人,prac,
,,,,,html-keyboard-response,78,542254,0.0-8.0-0.0-1.1,null,<span style='color:red; font-size: 70px;'>错误! </span>,null,,,,,,,,,,,,,,,,,,,,,,,feedback_test
,,,,,psychophysics,79,544756,0.0-8.0-0.0-0.2,null,,null,,,,,,,,,,,,,key,null,16.67127703,616,266.3333333,f,FALSE,img/H_ambi40.png,朋友,prac,
,,,,,html-keyboard-response,80,545258,0.0-8.0-0.0-1.2,null,<span class='add_' style='color:yellow; font-size: 70px;'> 太慢! </span>,null,,,,,,,,,,,,,,,,,,,,,,,feedback_test
,,,,,psychophysics,81,547405,0.0-8.0-0.0-0.3,1146,,j,,,,,,,,,,,,,key,j,16.67319685,616,266.3333333,j,TRUE,img/H_ambi40.png,自我,prac,
,,,,,html-keyboard-response,82,547906,0.0-8.0-0.0-1.3,null,<span style='color:GreenYellow; font-size: 70px;'>正确! </span>,null,,,,,,,,,,,,,,,,,,,,,,,feedback_test
,,,,,psychophysics,83,550200,0.0-8.0-0.0-0.4,1293,,j,,,,,,,,,,,,,key,j,16.67138971,616,266.3333333,f,FALSE,img/T_ambi40.png,をる,prac,
,,,,,html-keyboard-response,84,550701,0.0-8.0-0.0-1.4,null,<span style='color:red; font-size: 70px;'>错误! </span>,null,,,,,,,,,,,,,,,,,,,,,,,feedback_test
,,,,,psychophysics,85,552670,0.0-8.0-0.0-0.5,967,,f,,,,,,,,,,,,,key,f,16.67104274,616,266.3333333,f,TRUE,img/S_ambi40.png,自我,prac,
,,,,,html-keyboard-response,86,553172,0.0-8.0-0.0-1.5,null,<span style='color:GreenYellow; font-size: 70px;'>正确! </span>,null,,,,,,,,,,,,,,,,,,,,,,,feedback_test
,,,,,psychophysics,87,555146,0.0-8.0-0.0-0.6,971,,f,,,,,,,,,,,,,key,f,16.67116239,616,266.3333333,j,FALSE,img/S_ambi40.png,生人,prac,
,,,,,html-keyboard-response,88,555647,0.0-8.0-0.0-1.6,null,<span style='color:red; font-size: 70px;'>错误! </span>,null,,,,,,,,,,,,,,,,,,,,,,,feedback_test
,,,,,psychophysics,89,557589,0.0-8.0-0.0-0.7,940,,f,,,,,,,,,,,,,key,f,16.6729913,616,266.3333333,j,FALSE,img/S_ambi40.png,朋友,prac,
,,,,,html-keyboard-response,90,558089,0.0-8.0-0.0-1.7,null,<span style='color:red; font-size: 70px;'>错误! </span>,null,,,,,,,,,,,,,,,,,,,,,,,feedback_test
,,,,,psychophysics,91,560042,0.0-8.0-0.0-0.8,949,,f,,,,,,,,,,,,,key,f,16.67137391,616,266.3333333,f,TRUE,img/H_ambi40.png,朋友,prac,
,,,,,html-keyboard-response,92,560544,0.0-8.0-0.0-1.8,null,<span style='color:GreenYellow; font-size: 70px;'>正确! </span>,null,,,,,,,,,,,,,,,,,,,,,,,feedback_test
,,,,,psychophysics,93,562211,0.0-8.0-0.0-0.9,666,,j,,,,,,,,,,,,,key,j,16.67230612,616,266.3333333,f,FALSE,img/T_ambi40.png,をる,prac,
,,,,,html-keyboard-response,94,562718,0.0-8.0-0.0-1.9,null,<span style='color:red; font-size: 70px;'>错误! </span>,null,,,,,,,,,,,,,,,,,,,,,,,feedback_test
,,,,,psychophysics,95,565221,0.0-8.0-0.0-0.10,null,,null,,,,,,,,,,,,,key,null,16.67057047,616,266.3333333,j,FALSE,img/C_ambi40.png,自我,prac,
,,,,,html-keyboard-response,96,565722,0.0-8.0-0.0-1.10,null,<span class='add_' style='color:yellow; font-size: 70px;'> 太慢! </span>,null,,,,,,,,,,,,,,,,,,,,,,,feedback_test
,,,,,psychophysics,97,568175,0.0-8.0-0.0-0.11,1450,,j,,,,,,,,,,,,,key,j,16.67239726,616,266.3333333,f,FALSE,img/T_ambi40.png,をる,prac,
,,,,,html-keyboard-response,98,568679,0.0-8.0-0.0-1.11,null,<span style='color:red; font-size: 70px;'>错误! </span>,null,,,,,,,,,,,,,,,,,,,,,,,feedback_test
,,,,,psychophysics,99,570559,0.0-8.0-0.0-0.12,879,,j,,,,,,,,,,,,,key,j,16.6710991,616,266.3333333,f,FALSE,img/T_ambi40.png,をる,prac,
,,,,,html-keyboard-response,100,571060,0.0-8.0-0.0-1.12,null,<span style='color:red; font-size: 70px;'>错误! </span>,null,,,,,,,,,,,,,,,,,,,,,,,feedback_test
,,,,,psychophysics,101,573191,0.0-8.0-0.0-0.13,1128,,j,,,,,,,,,,,,,key,j,16.67155118,616,266.3333333,j,TRUE,img/H_ambi40.png,生人,prac,
,,,,,html-keyboard-response,102,573692,0.0-8.0-0.0-1.13,null,<span style='color:GreenYellow; font-size: 70px;'>正确! </span>,null,,,,,,,,,,,,,,,,,,,,,,,feedback_test
,,,,,psychophysics,103,576194,0.0-8.0-0.0-0.14,null,,null,,,,,,,,,,,,,key,null,16.67108725,616,266.3333333,j,FALSE,img/C_ambi40.png,朋友,prac,
,,,,,html-keyboard-response,104,576696,0.0-8.0-0.0-1.14,null,<span class='add_' style='color:yellow; font-size: 70px;'> 太慢! </span>,null,,,,,,,,,,,,,,,,,,,,,,,feedback_test
,,,,,psychophysics,105,578580,0.0-8.0-0.0-0.15,884,,f,,,,,,,,,,,,,key,f,16.67179279,616,266.3333333,f,TRUE,img/S_ambi40.png,自我,prac,
,,,,,html-keyboard-response,106,579082,0.0-8.0-0.0-1.15,null,<span style='color:GreenYellow; font-size: 70px;'>正确! </span>,null,,,,,,,,,,,,,,,,,,,,,,,feedback_test
,,,,,psychophysics,107,580900,0.0-8.0-0.0-0.16,816,,f,,,,,,,,,,,,,key,f,16.67136449,616,266.3333333,f,TRUE,img/H_ambi40.png,朋友,prac,
,,,,,html-keyboard-response,108,581401,0.0-8.0-0.0-1.16,null,<span style='color:GreenYellow; font-size: 70px;'>正确! </span>,null,,,,,,,,,,,,,,,,,,,,,,,feedback_test
,,,,,psychophysics,109,583258,0.0-8.0-0.0-0.17,855,,j,,,,,,,,,,,,,key,j,16.67224545,616,266.3333333,f,FALSE,img/S_ambi40.png,自我,prac,
,,,,,html-keyboard-response,110,583761,0.0-8.0-0.0-1.17,null,<span style='color:red; font-size: 70px;'>错误! </span>,null,,,,,,,,,,,,,,,,,,,,,,,feedback_test
,,,,,psychophysics,111,585613,0.0-8.0-0.0-0.18,850,,j,,,,,,,,,,,,,key,j,16.67094495,616,266.3333333,f,FALSE,img/T_ambi40.png,をる,prac,
,,,,,html-keyboard-response,112,586115,0.0-8.0-0.0-1.18,null,<span style='color:red; font-size: 70px;'>错误! </span>,null,,,,,,,,,,,,,,,,,,,,,,,feedback_test
,,,,,psychophysics,113,588618,0.0-8.0-0.0-0.19,null,,null,,,,,,,,,,,,,key,null,16.67145638,616,266.3333333,f,FALSE,img/C_ambi40.png,生人,prac,
,,,,,html-keyboard-response,114,589120,0.0-8.0-0.0-1.19,null,<span class='add_' style='color:yellow; font-size: 70px;'> 太慢! </span>,null,,,,,,,,,,,,,,,,,,,,,,,feedback_test
,,,,,psychophysics,115,591102,0.0-8.0-0.0-0.20,981,,j,,,,,,,,,,,,,key,j,16.67112821,616,266.3333333,j,TRUE,img/S_ambi40.png,生人,prac,
,,,,,html-keyboard-response,116,591603,0.0-8.0-0.0-1.20,null,<span style='color:GreenYellow; font-size: 70px;'>正确! </span>,null,,,,,,,,,,,,,,,,,,,,,,,feedback_test
,,,,,psychophysics,117,594105,0.0-8.0-0.0-0.21,null,,null,,,,,,,,,,,,,key,null,16.67102013,616,266.3333333,j,FALSE,img/S_ambi40.png,朋友,prac,
,,,,,html-keyboard-response,118,594607,0.0-8.0-0.0-1.21,null,<span class='add_' style='color:yellow; font-size: 70px;'> 太慢! </span>,null,,,,,,,,,,,,,,,,,,,,,,,feedback_test
,,,,,psychophysics,119,596429,0.0-8.0-0.0-0.22,820,,f,,,,,,,,,,,,,key,f,16.6714537,616,266.3333333,f,TRUE,img/H_ambi40.png,朋友,prac,
,,,,,html-keyboard-response,120,596931,0.0-8.0-0.0-1.22,null,<span style='color:GreenYellow; font-size: 70px;'>正确! </span>,null,,,,,,,,,,,,,,,,,,,,,,,feedback_test
,,,,,psychophysics,121,598903,0.0-8.0-0.0-0.23,971,,j,,,,,,,,,,,,,key,j,16.67140171,616,266.3333333,j,TRUE,img/C_ambi40.png,自我,prac,
,,,,,html-keyboard-response,122,599405,0.0-8.0-0.0-1.23,null,<span style='color:GreenYellow; font-size: 70px;'>正确! </span>,null,,,,,,,,,,,,,,,,,,,,,,,feedback_test
,,,,,psychophysics,123,601504,0.0-8.0-0.0-0.24,1099,,j,,,,,,,,,,,,,key,j,16.67133871,616,266.3333333,j,TRUE,img/H_ambi40.png,自我,prac,
,,,,,html-keyboard-response,124,602006,0.0-8.0-0.0-1.24,null,<span style='color:GreenYellow; font-size: 70px;'>正确! </span>,null,,,,,,,,,,,,,,,,,,,,,,,feedback_test
,,,,,psychophysics,125,603950,0.0-8.0-0.0-0.25,943,,j,,,,,,,,,,,,,key,j,16.66994783,616,266.3333333,f,FALSE,img/T_ambi40.png,をる,prac,
,,,,,html-keyboard-response,126,604451,0.0-8.0-0.0-1.25,null,<span style='color:red; font-size: 70px;'>错误! </span>,null,,,,,,,,,,,,,,,,,,,,,,,feedback_test
,,,,,psychophysics,127,606735,0.0-8.0-0.0-0.26,1282,,j,,,,,,,,,,,,,key,j,16.67122059,616,266.3333333,j,TRUE,img/C_ambi40.png,朋友,prac,
,,,,,html-keyboard-response,128,607236,0.0-8.0-0.0-1.26,null,<span style='color:GreenYellow; font-size: 70px;'>正确! </span>,null,,,,,,,,,,,,,,,,,,,,,,,feedback_test
,,,,,psychophysics,129,609509,0.0-8.0-0.0-0.27,1271,,j,,,,,,,,,,,,,key,j,16.67114706,616,266.3333333,f,FALSE,img/C_ambi40.png,生人,prac,
,,,,,html-keyboard-response,130,610012,0.0-8.0-0.0-1.27,null,<span style='color:red; font-size: 70px;'>错误! </span>,null,,,,,,,,,,,,,,,,,,,,,,,feedback_test
,,,,,psychophysics,131,611896,0.0-8.0-0.0-0.28,882,,j,,,,,,,,,,,,,key,j,16.67029464,616,266.3333333,f,FALSE,img/T_ambi40.png,をる,prac,
,,,,,html-keyboard-response,132,612399,0.0-8.0-0.0-1.28,null,<span style='color:red; font-size: 70px;'>错误! </span>,null,,,,,,,,,,,,,,,,,,,,,,,feedback_test
,,,,,psychophysics,133,614386,0.0-8.0-0.0-0.29,985,,f,,,,,,,,,,,,,key,f,16.67155085,616,266.3333333,f,TRUE,img/T_ambi40.png,をる,prac,
,,,,,html-keyboard-response,134,614888,0.0-8.0-0.0-1.29,null,<span style='color:GreenYellow; font-size: 70px;'>正确! </span>,null,,,,,,,,,,,,,,,,,,,,,,,feedback_test
,,,,,psychophysics,135,616941,0.0-8.0-0.0-0.30,1050,,j,,,,,,,,,,,,,key,j,16.67079508,616,266.3333333,f,FALSE,img/S_ambi40.png,自我,prac,
,,,,,html-keyboard-response,136,617442,0.0-8.0-0.0-1.30,null,<span style='color:red; font-size: 70px;'>错误! </span>,null,,,,,,,,,,,,,,,,,,,,,,,feedback_test
,,,,,psychophysics,137,619703,0.0-8.0-0.0-0.31,1258,,j,,,,,,,,,,,,,key,j,16.67117164,616,266.3333333,j,TRUE,img/H_ambi40.png,生人,prac,
,,,,,html-keyboard-response,138,620206,0.0-8.0-0.0-1.31,null,<span style='color:GreenYellow; font-size: 70px;'>正确! </span>,null,,,,,,,,,,,,,,,,,,,,,,,feedback_test
,,,,,html-keyboard-response,139,636609,0.0-8.0-1.0-0.0,16401,<style>.context{color:white; font-size: 35px; line-height:40px}</style>                          <div><p class='context'>您正确回答了41% 的试次。</p ><p class='context'>您的平均反应时为1022毫秒。</p >,enter,,,,,,,,,,,,,,,,,,,,,,,
,,,,,instructions,140,659275,0.0-8.0-1.0-1.0,22663,,,,,,,,,,,,,,"[{""page_index"":0,""viewing_time"":4454},{""page_index"":1,""viewing_time"":14873},{""page_index"":2,""viewing_time"":3336}]",,,,,,,,,,,
,,,,,psychophysics,141,661779,0.0-8.1-0.1-0.32,null,,null,,,,,,,,,,,,,key,null,16.67088591,616,266.3333333,f,FALSE,img/H_ambi40.png,朋友,prac,
,,,,,html-keyboard-response,142,662281,0.0-8.1-0.1-1.32,null,<span class='add_' style='color:yellow; font-size: 70px;'> 太慢! </span>,null,,,,,,,,,,,,,,,,,,,,,,,feedback_test
,,,,,psychophysics,143,664784,0.0-8.1-0.1-0.33,null,,null,,,,,,,,,,,,,key,null,16.67140268,616,266.3333333,j,FALSE,img/H_ambi40.png,生人,prac,
,,,,,html-keyboard-response,144,665286,0.0-8.1-0.1-1.33,null,<span class='add_' style='color:yellow; font-size: 70px;'> 太慢! </span>,null,,,,,,,,,,,,,,,,,,,,,,,feedback_test
,,,,,psychophysics,145,667128,0.0-8.1-0.1-0.34,840,,j,,,,,,,,,,,,,key,j,16.67208182,616,266.3333333,f,FALSE,img/S_ambi40.png,自我,prac,
,,,,,html-keyboard-response,146,667629,0.0-8.1-0.1-1.34,null,<span style='color:red; font-size: 70px;'>错误! </span>,null,,,,,,,,,,,,,,,,,,,,,,,feedback_test
,,,,,psychophysics,147,669531,0.0-8.1-0.1-0.35,899,,f,,,,,,,,,,,,,key,f,16.67031858,616,266.3333333,f,TRUE,img/T_ambi40.png,をる,prac,
,,,,,html-keyboard-response,148,670033,0.0-8.1-0.1-1.35,null,<span style='color:GreenYellow; font-size: 70px;'>正确! </span>,null,,,,,,,,,,,,,,,,,,,,,,,feedback_test
,,,,,psychophysics,149,672133,0.0-8.1-0.1-0.36,1096,,f,,,,,,,,,,,,,key,f,16.671992,616,266.3333333,f,TRUE,img/S_ambi40.png,自我,prac,
,,,,,html-keyboard-response,150,672634,0.0-8.1-0.1-1.36,null,<span style='color:GreenYellow; font-size: 70px;'>正确! </span>,null,,,,,,,,,,,,,,,,,,,,,,,feedback_test
,,,,,psychophysics,151,674292,0.0-8.1-0.1-0.37,657,,f,,,,,,,,,,,,,key,f,16.67167347,616,266.3333333,f,TRUE,img/H_ambi40.png,朋友,prac,
,,,,,html-keyboard-response,152,674793,0.0-8.1-0.1-1.37,null,<span style='color:GreenYellow; font-size: 70px;'>正确! </span>,null,,,,,,,,,,,,,,,,,,,,,,,feedback_test
,,,,,psychophysics,153,676764,0.0-8.1-0.1-0.38,969,,j,,,,,,,,,,,,,key,j,16.67175214,616,266.3333333,j,TRUE,img/S_ambi40.png,生人,prac,
,,,,,html-keyboard-response,154,677267,0.0-8.1-0.1-1.38,null,<span style='color:GreenYellow; font-size: 70px;'>正确! </span>,null,,,,,,,,,,,,,,,,,,,,,,,feedback_test
,,,,,psychophysics,155,679067,0.0-8.1-0.1-0.39,799,,f,,,,,,,,,,,,,key,f,16.67136449,616,266.3333333,f,TRUE,img/T_ambi40.png,をる,prac,
,,,,,html-keyboard-response,156,679569,0.0-8.1-0.1-1.39,null,<span style='color:GreenYellow; font-size: 70px;'>正确! </span>,null,,,,,,,,,,,,,,,,,,,,,,,feedback_test
,,,,,psychophysics,157,681542,0.0-8.1-0.1-0.40,971,,f,,,,,,,,,,,,,key,f,16.67222222,616,266.3333333,j,FALSE,img/H_ambi40.png,自我,prac,
,,,,,html-keyboard-response,158,682051,0.0-8.1-0.1-1.40,null,<span style='color:red; font-size: 70px;'>错误! </span>,null,,,,,,,,,,,,,,,,,,,,,,,feedback_test
,,,,,psychophysics,159,684058,0.0-8.1-0.1-0.41,1006,,j,,,,,,,,,,,,,key,j,16.67117647,616,266.3333333,j,TRUE,img/C_ambi40.png,朋友,prac,
,,,,,html-keyboard-response,160,684560,0.0-8.1-0.1-1.41,null,<span style='color:GreenYellow; font-size: 70px;'>正确! </span>,null,,,,,,,,,,,,,,,,,,,,,,,feedback_test
,,,,,psychophysics,161,686634,0.0-8.1-0.1-0.42,1072,,j,,,,,,,,,,,,,key,j,16.67092683,616,266.3333333,j,TRUE,img/S_ambi40.png,朋友,prac,
,,,,,html-keyboard-response,162,687135,0.0-8.1-0.1-1.42,null,<span style='color:GreenYellow; font-size: 70px;'>正确! </span>,null,,,,,,,,,,,,,,,,,,,,,,,feedback_test
,,,,,psychophysics,163,688990,0.0-8.1-0.1-0.43,854,,j,,,,,,,,,,,,,key,j,16.67093636,616,266.3333333,f,FALSE,img/C_ambi40.png,生人,prac,
,,,,,html-keyboard-response,164,689491,0.0-8.1-0.1-1.43,null,<span style='color:red; font-size: 70px;'>错误! </span>,null,,,,,,,,,,,,,,,,,,,,,,,feedback_test
,,,,,psychophysics,165,691392,0.0-8.1-0.1-0.44,899,,f,,,,,,,,,,,,,key,f,16.67153982,616,266.3333333,f,TRUE,img/C_ambi40.png,生人,prac,
,,,,,html-keyboard-response,166,691898,0.0-8.1-0.1-1.44,null,<span style='color:GreenYellow; font-size: 70px;'>正确! </span>,null,,,,,,,,,,,,,,,,,,,,,,,feedback_test
,,,,,psychophysics,167,693704,0.0-8.1-0.1-0.45,804,,f,,,,,,,,,,,,,key,f,16.67091589,616,266.3333333,f,TRUE,img/T_ambi40.png,をる,prac,
,,,,,html-keyboard-response,168,694206,0.0-8.1-0.1-1.45,null,<span style='color:GreenYellow; font-size: 70px;'>正确! </span>,null,,,,,,,,,,,,,,,,,,,,,,,feedback_test
,,,,,psychophysics,169,696077,0.0-8.1-0.1-0.46,870,,f,,,,,,,,,,,,,key,f,16.67101802,616,266.3333333,f,TRUE,img/T_ambi40.png,をる,prac,
,,,,,html-keyboard-response,170,696580,0.0-8.1-0.1-1.46,null,<span style='color:GreenYellow; font-size: 70px;'>正确! </span>,null,,,,,,,,,,,,,,,,,,,,,,,feedback_test
,,,,,psychophysics,171,698886,0.0-8.1-0.1-0.47,1304,,f,,,,,,,,,,,,,key,f,16.67174453,616,266.3333333,j,FALSE,img/C_ambi40.png,自我,prac,
,,,,,html-keyboard-response,172,699387,0.0-8.1-0.1-1.47,null,<span style='color:red; font-size: 70px;'>错误! </span>,null,,,,,,,,,,,,,,,,,,,,,,,feedback_test
,,,,,psychophysics,173,701095,0.0-8.1-0.1-0.48,705,,j,,,,,,,,,,,,,key,j,16.67108911,616,266.3333333,j,TRUE,img/C_ambi40.png,自我,prac,
,,,,,html-keyboard-response,174,701596,0.0-8.1-0.1-1.48,null,<span style='color:GreenYellow; font-size: 70px;'>正确! </span>,null,,,,,,,,,,,,,,,,,,,,,,,feedback_test
,,,,,psychophysics,175,703386,0.0-8.1-0.1-0.49,789,,f,,,,,,,,,,,,,key,f,16.67213084,616,266.3333333,f,TRUE,img/T_ambi40.png,をる,prac,
,,,,,html-keyboard-response,176,703887,0.0-8.1-0.1-1.49,null,<span style='color:GreenYellow; font-size: 70px;'>正确! </span>,null,,,,,,,,,,,,,,,,,,,,,,,feedback_test
,,,,,psychophysics,177,705942,0.0-8.1-0.1-0.50,1052,,f,,,,,,,,,,,,,key,f,16.67131148,616,266.3333333,f,TRUE,img/C_ambi40.png,生人,prac,
,,,,,html-keyboard-response,178,706444,0.0-8.1-0.1-1.50,null,<span style='color:GreenYellow; font-size: 70px;'>正确! </span>,null,,,,,,,,,,,,,,,,,,,,,,,feedback_test
,,,,,psychophysics,179,708651,0.0-8.1-0.1-0.51,1206,,j,,,,,,,,,,,,,key,j,16.67110687,616,266.3333333,f,FALSE,img/S_ambi40.png,自我,prac,
,,,,,html-keyboard-response,180,709152,0.0-8.1-0.1-1.51,null,<span style='color:red; font-size: 70px;'>错误! </span>,null,,,,,,,,,,,,,,,,,,,,,,,feedback_test
,,,,,psychophysics,181,711535,0.0-8.1-0.1-0.52,1381,,f,,,,,,,,,,,,,key,f,16.67086525,616,266.3333333,j,FALSE,img/C_ambi40.png,朋友,prac,
,,,,,html-keyboard-response,182,712036,0.0-8.1-0.1-1.52,null,<span style='color:red; font-size: 70px;'>错误! </span>,null,,,,,,,,,,,,,,,,,,,,,,,feedback_test
,,,,,psychophysics,183,713882,0.0-8.1-0.1-0.53,845,,f,,,,,,,,,,,,,key,f,16.67137615,616,266.3333333,f,TRUE,img/H_ambi40.png,朋友,prac,
,,,,,html-keyboard-response,184,714383,0.0-8.1-0.1-1.53,null,<span style='color:GreenYellow; font-size: 70px;'>正确! </span>,null,,,,,,,,,,,,,,,,,,,,,,,feedback_test
,,,,,psychophysics,185,716140,0.0-8.1-0.1-0.54,755,,f,,,,,,,,,,,,,key,f,16.6710381,616,266.3333333,j,FALSE,img/S_ambi40.png,生人,prac,
,,,,,html-keyboard-response,186,716651,0.0-8.1-0.1-1.54,null,<span style='color:red; font-size: 70px;'>错误! </span>,null,,,,,,,,,,,,,,,,,,,,,,,feedback_test
,,,,,psychophysics,187,719022,0.0-8.1-0.1-0.55,1369,,f,,,,,,,,,,,,,key,f,16.67142857,616,266.3333333,f,TRUE,img/S_ambi40.png,自我,prac,
,,,,,html-keyboard-response,188,719524,0.0-8.1-0.1-1.55,null,<span style='color:GreenYellow; font-size: 70px;'>正确! </span>,null,,,,,,,,,,,,,,,,,,,,,,,feedback_test
,,,,,psychophysics,189,721549,0.0-8.1-0.1-0.56,1023,,j,,,,,,,,,,,,,key,j,16.67099167,616,266.3333333,j,TRUE,img/S_ambi40.png,朋友,prac,
,,,,,html-keyboard-response,190,722050,0.0-8.1-0.1-1.56,null,<span style='color:GreenYellow; font-size: 70px;'>正确! </span>,null,,,,,,,,,,,,,,,,,,,,,,,feedback_test
,,,,,psychophysics,191,723990,0.0-8.1-0.1-0.57,939,,f,,,,,,,,,,,,,key,f,16.6727069,616,266.3333333,j,FALSE,img/H_ambi40.png,生人,prac,
,,,,,html-keyboard-response,192,724505,0.0-8.1-0.1-1.57,null,<span style='color:red; font-size: 70px;'>错误! </span>,null,,,,,,,,,,,,,,,,,,,,,,,feedback_test
,,,,,psychophysics,193,727009,0.0-8.1-0.1-0.58,null,,null,,,,,,,,,,,,,key,null,16.67106757,616,266.3333333,f,FALSE,img/H_ambi40.png,朋友,prac,
,,,,,html-keyboard-response,194,727511,0.0-8.1-0.1-1.58,null,<span class='add_' style='color:yellow; font-size: 70px;'> 太慢! </span>,null,,,,,,,,,,,,,,,,,,,,,,,feedback_test
,,,,,psychophysics,195,729515,0.0-8.1-0.1-0.59,1003,,f,,,,,,,,,,,,,key,f,16.67151261,616,266.3333333,j,FALSE,img/H_ambi40.png,自我,prac,
,,,,,html-keyboard-response,196,730017,0.0-8.1-0.1-1.59,null,<span style='color:red; font-size: 70px;'>错误! </span>,null,,,,,,,,,,,,,,,,,,,,,,,feedback_test
,,,,,psychophysics,197,732239,0.0-8.1-0.1-0.60,1221,,j,,,,,,,,,,,,,key,j,16.67112879,616,266.3333333,f,FALSE,img/C_ambi40.png,生人,prac,
,,,,,html-keyboard-response,198,732743,0.0-8.1-0.1-1.60,null,<span style='color:red; font-size: 70px;'>错误! </span>,null,,,,,,,,,,,,,,,,,,,,,,,feedback_test
,,,,,psychophysics,199,734556,0.0-8.1-0.1-0.61,812,,f,,,,,,,,,,,,,key,f,16.67228972,616,266.3333333,f,TRUE,img/T_ambi40.png,をる,prac,
,,,,,html-keyboard-response,200,735056,0.0-8.1-0.1-1.61,null,<span style='color:GreenYellow; font-size: 70px;'>正确! </span>,null,,,,,,,,,,,,,,,,,,,,,,,feedback_test
,,,,,psychophysics,201,737104,0.0-8.1-0.1-0.62,1045,,f,,,,,,,,,,,,,key,f,16.67080992,616,266.3333333,f,TRUE,img/T_ambi40.png,をる,prac,
,,,,,html-keyboard-response,202,737606,0.0-8.1-0.1-1.62,null,<span style='color:GreenYellow; font-size: 70px;'>正确! </span>,null,,,,,,,,,,,,,,,,,,,,,,,feedback_test
,,,,,psychophysics,203,739146,0.0-8.1-0.1-0.63,539,,f,,,,,,,,,,,,,key,f,16.67156522,616,266.3333333,f,TRUE,img/T_ambi40.png,をる,prac,
,,,,,html-keyboard-response,204,739648,0.0-8.1-0.1-1.63,null,<span style='color:GreenYellow; font-size: 70px;'>正确! </span>,null,,,,,,,,,,,,,,,,,,,,,,,feedback_test
,,,,,html-keyboard-response,205,743476,0.0-8.1-1.1-0.1,3824,<style>.context{color:white; font-size: 35px; line-height:40px}</style>                          <div><p class='context'>您正确回答了59% 的试次。</p ><p class='context'>您的平均反应时为908毫秒。</p >,enter,,,,,,,,,,,,,,,,,,,,,,,
,,,,,instructions,206,757638,0.0-8.1-1.1-1.1,14159,,,,,,,,,,,,,,"[{""page_index"":0,""viewing_time"":2575},{""page_index"":1,""viewing_time"":1815},{""page_index"":2,""viewing_time"":2506},{""page_index"":1,""viewing_time"":6616},{""page_index"":2,""viewing_time"":646}]",,,,,,,,,,,
,,,,,psychophysics,207,759368,0.0-8.2-0.2-0.64,726,,f,,,,,,,,,,,,,key,f,16.67161165,616,266.3333333,f,TRUE,img/T_ambi40.png,をる,prac,
,,,,,html-keyboard-response,208,759870,0.0-8.2-0.2-1.64,null,<span style='color:GreenYellow; font-size: 70px;'>正确! </span>,null,,,,,,,,,,,,,,,,,,,,,,,feedback_test
,,,,,psychophysics,209,761928,0.0-8.2-0.2-0.65,1057,,j,,,,,,,,,,,,,key,j,16.67118852,616,266.3333333,j,TRUE,img/C_ambi40.png,自我,prac,
,,,,,html-keyboard-response,210,762430,0.0-8.2-0.2-1.65,null,<span style='color:GreenYellow; font-size: 70px;'>正确! </span>,null,,,,,,,,,,,,,,,,,,,,,,,feedback_test
,,,,,psychophysics,211,764130,0.0-8.2-0.2-0.66,700,,f,,,,,,,,,,,,,key,f,16.6700396,616,266.3333333,f,TRUE,img/T_ambi40.png,をる,prac,
,,,,,html-keyboard-response,212,764631,0.0-8.2-0.2-1.66,null,<span style='color:GreenYellow; font-size: 70px;'>正确! </span>,null,,,,,,,,,,,,,,,,,,,,,,,feedback_test
,,,,,psychophysics,213,766593,0.0-8.2-0.2-0.67,960,,f,,,,,,,,,,,,,key,f,16.67172414,616,266.3333333,j,FALSE,img/H_ambi40.png,自我,prac,
,,,,,html-keyboard-response,214,767095,0.0-8.2-0.2-1.67,null,<span style='color:red; font-size: 70px;'>错误! </span>,null,,,,,,,,,,,,,,,,,,,,,,,feedback_test
,,,,,psychophysics,215,769198,0.0-8.2-0.2-0.68,1101,,j,,,,,,,,,,,,,key,j,16.670576,616,266.3333333,j,TRUE,img/H_ambi40.png,生人,prac,
,,,,,html-keyboard-response,216,769700,0.0-8.2-0.2-1.68,null,<span style='color:GreenYellow; font-size: 70px;'>正确! </span>,null,,,,,,,,,,,,,,,,,,,,,,,feedback_test
,,,,,psychophysics,217,771370,0.0-8.2-0.2-0.69,668,,f,,,,,,,,,,,,,key,f,16.67162626,616,266.3333333,f,TRUE,img/T_ambi40.png,をる,prac,
,,,,,html-keyboard-response,218,771874,0.0-8.2-0.2-1.69,null,<span style='color:GreenYellow; font-size: 70px;'>正确! </span>,null,,,,,,,,,,,,,,,,,,,,,,,feedback_test
,,,,,psychophysics,219,773966,0.0-8.2-0.2-0.70,1091,,j,,,,,,,,,,,,,key,j,16.67115323,616,266.3333333,j,TRUE,img/C_ambi40.png,朋友,prac,
,,,,,html-keyboard-response,220,774467,0.0-8.2-0.2-1.70,null,<span style='color:GreenYellow; font-size: 70px;'>正确! </span>,null,,,,,,,,,,,,,,,,,,,,,,,feedback_test
,,,,,psychophysics,221,776213,0.0-8.2-0.2-0.71,745,,f,,,,,,,,,,,,,key,f,16.67084466,616,266.3333333,f,TRUE,img/S_ambi40.png,自我,prac,
,,,,,html-keyboard-response,222,776715,0.0-8.2-0.2-1.71,null,<span style='color:GreenYellow; font-size: 70px;'>正确! </span>,null,,,,,,,,,,,,,,,,,,,,,,,feedback_test
,,,,,psychophysics,223,778421,0.0-8.2-0.2-0.72,705,,f,,,,,,,,,,,,,key,f,16.67274257,616,266.3333333,f,TRUE,img/T_ambi40.png,をる,prac,
,,,,,html-keyboard-response,224,778922,0.0-8.2-0.2-1.72,null,<span style='color:GreenYellow; font-size: 70px;'>正确! </span>,null,,,,,,,,,,,,,,,,,,,,,,,feedback_test
,,,,,psychophysics,225,780882,0.0-8.2-0.2-0.73,960,,j,,,,,,,,,,,,,key,j,16.67099138,616,266.3333333,j,TRUE,img/S_ambi40.png,朋友,prac,
,,,,,html-keyboard-response,226,781385,0.0-8.2-0.2-1.73,null,<span style='color:GreenYellow; font-size: 70px;'>正确! </span>,null,,,,,,,,,,,,,,,,,,,,,,,feedback_test
,,,,,psychophysics,227,783623,0.0-8.2-0.2-0.74,1237,,f,,,,,,,,,,,,,key,f,16.67189474,616,266.3333333,f,TRUE,img/S_ambi40.png,自我,prac,
,,,,,html-keyboard-response,228,784125,0.0-8.2-0.2-1.74,null,<span style='color:GreenYellow; font-size: 70px;'>正确! </span>,null,,,,,,,,,,,,,,,,,,,,,,,feedback_test
,,,,,psychophysics,229,786023,0.0-8.2-0.2-0.75,896,,f,,,,,,,,,,,,,key,f,16.67096429,616,266.3333333,f,TRUE,img/C_ambi40.png,生人,prac,
,,,,,html-keyboard-response,230,786525,0.0-8.2-0.2-1.75,null,<span style='color:GreenYellow; font-size: 70px;'>正确! </span>,null,,,,,,,,,,,,,,,,,,,,,,,feedback_test
,,,,,psychophysics,231,788336,0.0-8.2-0.2-0.76,809,,f,,,,,,,,,,,,,key,f,16.67192523,616,266.3333333,f,TRUE,img/H_ambi40.png,朋友,prac,
,,,,,html-keyboard-response,232,788837,0.0-8.2-0.2-1.76,null,<span style='color:GreenYellow; font-size: 70px;'>正确! </span>,null,,,,,,,,,,,,,,,,,,,,,,,feedback_test
,,,,,psychophysics,233,790777,0.0-8.2-0.2-0.77,939,,j,,,,,,,,,,,,,key,j,16.67155652,616,266.3333333,j,TRUE,img/S_ambi40.png,生人,prac,
,,,,,html-keyboard-response,234,791279,0.0-8.2-0.2-1.77,null,<span style='color:GreenYellow; font-size: 70px;'>正确! </span>,null,,,,,,,,,,,,,,,,,,,,,,,feedback_test
,,,,,psychophysics,235,793096,0.0-8.2-0.2-0.78,815,,f,,,,,,,,,,,,,key,f,16.67196296,616,266.3333333,f,TRUE,img/C_ambi40.png,生人,prac,
,,,,,html-keyboard-response,236,793598,0.0-8.2-0.2-1.78,null,<span style='color:GreenYellow; font-size: 70px;'>正确! </span>,null,,,,,,,,,,,,,,,,,,,,,,,feedback_test
,,,,,psychophysics,237,795312,0.0-8.2-0.2-0.79,712,,f,,,,,,,,,,,,,key,f,16.67130392,616,266.3333333,f,TRUE,img/H_ambi40.png,朋友,prac,
,,,,,html-keyboard-response,238,795815,0.0-8.2-0.2-1.79,null,<span style='color:GreenYellow; font-size: 70px;'>正确! </span>,null,,,,,,,,,,,,,,,,,,,,,,,feedback_test
,,,,,psychophysics,239,797537,0.0-8.2-0.2-0.80,720,,j,,,,,,,,,,,,,key,j,16.67148039,616,266.3333333,j,TRUE,img/C_ambi40.png,朋友,prac,
,,,,,html-keyboard-response,240,798038,0.0-8.2-0.2-1.80,null,<span style='color:GreenYellow; font-size: 70px;'>正确! </span>,null,,,,,,,,,,,,,,,,,,,,,,,feedback_test
,,,,,psychophysics,241,799921,0.0-8.2-0.2-0.81,881,,j,,,,,,,,,,,,,key,j,16.67078571,616,266.3333333,j,TRUE,img/C_ambi40.png,自我,prac,
,,,,,html-keyboard-response,242,800423,0.0-8.2-0.2-1.81,null,<span style='color:GreenYellow; font-size: 70px;'>正确! </span>,null,,,,,,,,,,,,,,,,,,,,,,,feedback_test
,,,,,psychophysics,243,802086,0.0-8.2-0.2-0.82,661,,f,,,,,,,,,,,,,key,f,16.67120202,616,266.3333333,f,TRUE,img/T_ambi40.png,をる,prac,
,,,,,html-keyboard-response,244,802587,0.0-8.2-0.2-1.82,null,<span style='color:GreenYellow; font-size: 70px;'>正确! </span>,null,,,,,,,,,,,,,,,,,,,,,,,feedback_test
,,,,,psychophysics,245,804341,0.0-8.2-0.2-0.83,753,,f,,,,,,,,,,,,,key,f,16.67278846,616,266.3333333,j,FALSE,img/H_ambi40.png,自我,prac,
,,,,,html-keyboard-response,246,804843,0.0-8.2-0.2-1.83,null,<span style='color:red; font-size: 70px;'>错误! </span>,null,,,,,,,,,,,,,,,,,,,,,,,feedback_test
,,,,,psychophysics,247,806452,0.0-8.2-0.2-0.84,608,,f,,,,,,,,,,,,,key,f,16.67254737,616,266.3333333,f,TRUE,img/T_ambi40.png,をる,prac,
,,,,,html-keyboard-response,248,806953,0.0-8.2-0.2-1.84,null,<span style='color:GreenYellow; font-size: 70px;'>正确! </span>,null,,,,,,,,,,,,,,,,,,,,,,,feedback_test
,,,,,psychophysics,249,808777,0.0-8.2-0.2-0.85,823,,f,,,,,,,,,,,,,key,f,16.67194444,616,266.3333333,f,TRUE,img/S_ambi40.png,自我,prac,
,,,,,html-keyboard-response,250,809278,0.0-8.2-0.2-1.85,null,<span style='color:GreenYellow; font-size: 70px;'>正确! </span>,null,,,,,,,,,,,,,,,,,,,,,,,feedback_test
,,,,,psychophysics,251,810911,0.0-8.2-0.2-0.86,631,,f,,,,,,,,,,,,,key,f,16.6715,616,266.3333333,f,TRUE,img/T_ambi40.png,をる,prac,
,,,,,html-keyboard-response,252,811417,0.0-8.2-0.2-1.86,null,<span style='color:GreenYellow; font-size: 70px;'>正确! </span>,null,,,,,,,,,,,,,,,,,,,,,,,feedback_test
,,,,,psychophysics,253,813387,0.0-8.2-0.2-0.87,969,,f,,,,,,,,,,,,,key,f,16.67060684,616,266.3333333,f,TRUE,img/H_ambi40.png,朋友,prac,
,,,,,html-keyboard-response,254,813889,0.0-8.2-0.2-1.87,null,<span style='color:GreenYellow; font-size: 70px;'>正确! </span>,null,,,,,,,,,,,,,,,,,,,,,,,feedback_test
,,,,,psychophysics,255,815494,0.0-8.2-0.2-0.88,601,,f,,,,,,,,,,,,,key,f,16.67138947,616,266.3333333,f,TRUE,img/H_ambi40.png,朋友,prac,
,,,,,html-keyboard-response,256,815995,0.0-8.2-0.2-1.88,null,<span style='color:GreenYellow; font-size: 70px;'>正确! </span>,null,,,,,,,,,,,,,,,,,,,,,,,feedback_test
,,,,,psychophysics,257,818051,0.0-8.2-0.2-0.89,1054,,f,,,,,,,,,,,,,key,f,16.67184426,616,266.3333333,f,TRUE,img/C_ambi40.png,生人,prac,
,,,,,html-keyboard-response,258,818552,0.0-8.2-0.2-1.89,null,<span style='color:GreenYellow; font-size: 70px;'>正确! </span>,null,,,,,,,,,,,,,,,,,,,,,,,feedback_test
,,,,,psychophysics,259,820175,0.0-8.2-0.2-0.90,619,,f,,,,,,,,,,,,,key,f,16.6711875,616,266.3333333,f,TRUE,img/S_ambi40.png,自我,prac,
,,,,,html-keyboard-response,260,820679,0.0-8.2-0.2-1.90,null,<span style='color:GreenYellow; font-size: 70px;'>正确! </span>,null,,,,,,,,,,,,,,,,,,,,,,,feedback_test
,,,,,psychophysics,261,822403,0.0-8.2-0.2-0.91,722,,j,,,,,,,,,,,,,key,j,16.67154369,616,266.3333333,j,TRUE,img/H_ambi40.png,生人,prac,
,,,,,html-keyboard-response,262,822905,0.0-8.2-0.2-1.91,null,<span style='color:GreenYellow; font-size: 70px;'>正确! </span>,null,,,,,,,,,,,,,,,,,,,,,,,feedback_test
,,,,,psychophysics,263,824858,0.0-8.2-0.2-0.92,951,,f,,,,,,,,,,,,,key,f,16.67164655,616,266.3333333,f,TRUE,img/C_ambi40.png,生人,prac,
,,,,,html-keyboard-response,264,825359,0.0-8.2-0.2-1.92,null,<span style='color:GreenYellow; font-size: 70px;'>正确! </span>,null,,,,,,,,,,,,,,,,,,,,,,,feedback_test
,,,,,psychophysics,265,827249,0.0-8.2-0.2-0.93,889,,j,,,,,,,,,,,,,key,j,16.67104464,616,266.3333333,j,TRUE,img/S_ambi40.png,生人,prac,
,,,,,html-keyboard-response,266,827752,0.0-8.2-0.2-1.93,null,<span style='color:GreenYellow; font-size: 70px;'>正确! </span>,null,,,,,,,,,,,,,,,,,,,,,,,feedback_test
,,,,,psychophysics,267,829428,0.0-8.2-0.2-0.94,674,,f,,,,,,,,,,,,,key,f,16.67135354,616,266.3333333,f,TRUE,img/T_ambi40.png,をる,prac,
,,,,,html-keyboard-response,268,829930,0.0-8.2-0.2-1.94,null,<span style='color:GreenYellow; font-size: 70px;'>正确! </span>,null,,,,,,,,,,,,,,,,,,,,,,,feedback_test
,,,,,psychophysics,269,831900,0.0-8.2-0.2-0.95,968,,j,,,,,,,,,,,,,key,j,16.67167521,616,266.3333333,j,TRUE,img/S_ambi40.png,朋友,prac,
,,,,,html-keyboard-response,270,832403,0.0-8.2-0.2-1.95,null,<span style='color:GreenYellow; font-size: 70px;'>正确! </span>,null,,,,,,,,,,,,,,,,,,,,,,,feedback_test
,,,,,html-keyboard-response,271,838111,0.0-9.0,5704,<style>.context{color:white; font-size: 35px; line-height:40px}</style>                          <div><p class='context'>您正确回答了94% 的试次。</p ><p class='context'>您的平均反应时为831毫秒。</p ><p class='context'>恭喜您完成练习。按任意键进入正式实验。</p ><p class='footer' style='font-size: 35px; line-height:40px;'>请在进入正式实验实验之前将您的<span style='color: lightgreen;'>食指</span>放在电脑键盘的相应键位上进行按键。</p >,enter,,,,,,,,,,,,,,,,,,,,,,,
,,,,,psychophysics,272,840619,0.0-10.0-0.0-0.0-0.0-0.0,null,,null,,,,,,,,,,,,,key,null,16.67638255,616,266.3333333,f,FALSE,img/C_ambi40.png,生人,same,
,,,,,html-keyboard-response,273,841121,0.0-10.0-0.0-0.0-0.0-1.0,null,<span class='add_' style='color:yellow; font-size: 70px;'> 太慢! </span>,null,,,,,,,,,,,,,,,,,,,,,,,feedback_test
,,,,,psychophysics,274,842808,0.0-10.0-0.0-0.0-0.0-0.1,684,,f,,,,,,,,,,,,,key,f,16.67263,616,266.3333333,f,TRUE,img/H_ambi40.png,朋友,same,
,,,,,html-keyboard-response,275,843309,0.0-10.0-0.0-0.0-0.0-1.1,null,<span style='color:GreenYellow; font-size: 70px;'>正确! </span>,null,,,,,,,,,,,,,,,,,,,,,,,feedback_test
,,,,,psychophysics,276,845084,0.0-10.0-0.0-0.0-0.0-0.2,772,,j,,,,,,,,,,,,,key,j,16.67158095,616,266.3333333,j,TRUE,img/H_ambi40.png,生人,same,
,,,,,html-keyboard-response,277,845586,0.0-10.0-0.0-0.0-0.0-1.2,null,<span style='color:GreenYellow; font-size: 70px;'>正确! </span>,null,,,,,,,,,,,,,,,,,,,,,,,feedback_test
,,,,,psychophysics,278,847616,0.0-10.0-0.0-0.0-0.0-0.3,1028,,j,,,,,,,,,,,,,key,j,16.67343333,616,266.3333333,j,TRUE,img/C_ambi40.png,自我,same,
,,,,,html-keyboard-response,279,848117,0.0-10.0-0.0-0.0-0.0-1.3,null,<span style='color:GreenYellow; font-size: 70px;'>正确! </span>,null,,,,,,,,,,,,,,,,,,,,,,,feedback_test
,,,,,psychophysics,280,849679,0.0-10.0-0.0-0.0-0.0-0.4,561,,f,,,,,,,,,,,,,key,f,16.67132258,616,266.3333333,f,TRUE,img/H_ambi40.png,朋友,same,
,,,,,html-keyboard-response,281,850182,0.0-10.0-0.0-0.0-0.0-1.4,null,<span style='color:GreenYellow; font-size: 70px;'>正确! </span>,null,,,,,,,,,,,,,,,,,,,,,,,feedback_test
,,,,,psychophysics,282,851856,0.0-10.0-0.0-0.0-0.0-0.5,672,,f,,,,,,,,,,,,,key,f,16.6720404,616,266.3333333,j,FALSE,img/C_ambi40.png,朋友,same,
,,,,,html-keyboard-response,283,852357,0.0-10.0-0.0-0.0-0.0-1.5,null,<span style='color:red; font-size: 70px;'>错误! </span>,null,,,,,,,,,,,,,,,,,,,,,,,feedback_test
,,,,,psychophysics,284,853940,0.0-10.0-0.0-0.0-0.0-0.6,581,,f,,,,,,,,,,,,,key,f,16.67180645,616,266.3333333,j,FALSE,img/H_ambi40.png,自我,same,
,,,,,html-keyboard-response,285,854440,0.0-10.0-0.0-0.0-0.0-1.6,null,<span style='color:red; font-size: 70px;'>错误! </span>,null,,,,,,,,,,,,,,,,,,,,,,,feedback_test
,,,,,psychophysics,286,856057,0.0-10.0-0.0-0.0-0.0-0.7,615,,f,,,,,,,,,,,,,key,f,16.67115789,616,266.3333333,f,TRUE,img/T_ambi40.png,をる,same,
,,,,,html-keyboard-response,287,856558,0.0-10.0-0.0-0.0-0.0-1.7,null,<span style='color:GreenYellow; font-size: 70px;'>正确! </span>,null,,,,,,,,,,,,,,,,,,,,,,,feedback_test
,,,,,psychophysics,288,858705,0.0-10.0-0.0-0.0-0.0-0.8,1146,,j,,,,,,,,,,,,,key,j,16.6711811,616,266.3333333,f,FALSE,img/C_ambi40.png,生人,same,
,,,,,html-keyboard-response,289,859208,0.0-10.0-0.0-0.0-0.0-1.8,null,<span style='color:red; font-size: 70px;'>错误! </span>,null,,,,,,,,,,,,,,,,,,,,,,,feedback_test
,,,,,psychophysics,290,861069,0.0-10.0-0.0-0.0-0.0-0.9,861,,j,,,,,,,,,,,,,key,j,16.67146364,616,266.3333333,j,TRUE,img/C_ambi40.png,自我,same,
,,,,,html-keyboard-response,291,861571,0.0-10.0-0.0-0.0-0.0-1.9,null,<span style='color:GreenYellow; font-size: 70px;'>正确! </span>,null,,,,,,,,,,,,,,,,,,,,,,,feedback_test
,,,,,psychophysics,292,863468,0.0-10.0-0.0-0.0-0.0-0.10,895,,f,,,,,,,,,,,,,key,f,16.67152212,616,266.3333333,f,TRUE,img/S_ambi40.png,自我,same,
,,,,,html-keyboard-response,293,863969,0.0-10.0-0.0-0.0-0.0-1.10,null,<span style='color:GreenYellow; font-size: 70px;'>正确! </span>,null,,,,,,,,,,,,,,,,,,,,,,,feedback_test
,,,,,psychophysics,294,865650,0.0-10.0-0.0-0.0-0.0-0.11,679,,j,,,,,,,,,,,,,key,j,16.6710303,616,266.3333333,j,TRUE,img/S_ambi40.png,朋友,same,
,,,,,html-keyboard-response,295,866151,0.0-10.0-0.0-0.0-0.0-1.11,null,<span style='color:GreenYellow; font-size: 70px;'>正确! </span>,null,,,,,,,,,,,,,,,,,,,,,,,feedback_test
,,,,,psychophysics,296,867843,0.0-10.0-0.0-0.0-0.0-0.12,691,,f,,,,,,,,,,,,,key,f,16.67068,616,266.3333333,f,TRUE,img/T_ambi40.png,をる,same,
,,,,,html-keyboard-response,297,868346,0.0-10.0-0.0-0.0-0.0-1.12,null,<span style='color:GreenYellow; font-size: 70px;'>正确! </span>,null,,,,,,,,,,,,,,,,,,,,,,,feedback_test
,,,,,psychophysics,298,870260,0.0-10.0-0.0-0.0-0.0-0.13,913,,f,,,,,,,,,,,,,key,f,16.6719469,616,266.3333333,f,TRUE,img/S_ambi40.png,自我,same,
,,,,,html-keyboard-response,299,870763,0.0-10.0-0.0-0.0-0.0-1.13,null,<span style='color:GreenYellow; font-size: 70px;'>正确! </span>,null,,,,,,,,,,,,,,,,,,,,,,,feedback_test
,,,,,psychophysics,300,872444,0.0-10.0-0.0-0.0-0.0-0.14,680,,j,,,,,,,,,,,,,key,j,16.67060606,616,266.3333333,j,TRUE,img/S_ambi40.png,朋友,same,
,,,,,html-keyboard-response,301,872949,0.0-10.0-0.0-0.0-0.0-1.14,null,<span style='color:GreenYellow; font-size: 70px;'>正确! </span>,null,,,,,,,,,,,,,,,,,,,,,,,feedback_test
,,,,,psychophysics,302,875126,0.0-10.0-0.0-0.0-0.0-0.15,1175,,j,,,,,,,,,,,,,key,j,16.67133333,616,266.3333333,j,TRUE,img/S_ambi40.png,生人,same,
,,,,,html-keyboard-response,303,875628,0.0-10.0-0.0-0.0-0.0-1.15,null,<span style='color:GreenYellow; font-size: 70px;'>正确! </span>,null,,,,,,,,,,,,,,,,,,,,,,,feedback_test
,,,,,psychophysics,304,877195,0.0-10.0-0.0-0.0-0.0-0.16,564,,f,,,,,,,,,,,,,key,f,16.6718587,616,266.3333333,f,TRUE,img/T_ambi40.png,をる,same,
,,,,,html-keyboard-response,305,877696,0.0-10.0-0.0-0.0-0.0-1.16,null,<span style='color:GreenYellow; font-size: 70px;'>正确! </span>,null,,,,,,,,,,,,,,,,,,,,,,,feedback_test
,,,,,psychophysics,306,879697,0.0-10.0-0.0-0.0-0.0-0.17,1000,,j,,,,,,,,,,,,,key,j,16.67109322,616,266.3333333,j,TRUE,img/H_ambi40.png,生人,same,
,,,,,html-keyboard-response,307,880199,0.0-10.0-0.0-0.0-0.0-1.17,null,<span style='color:GreenYellow; font-size: 70px;'>正确! </span>,null,,,,,,,,,,,,,,,,,,,,,,,feedback_test
,,,,,psychophysics,308,881764,0.0-10.0-0.0-0.0-0.0-0.18,563,,f,,,,,,,,,,,,,key,f,16.67273913,616,266.3333333,f,TRUE,img/H_ambi40.png,朋友,same,
,,,,,html-keyboard-response,309,882265,0.0-10.0-0.0-0.0-0.0-1.18,null,<span style='color:GreenYellow; font-size: 70px;'>正确! </span>,null,,,,,,,,,,,,,,,,,,,,,,,feedback_test
,,,,,psychophysics,310,884146,0.0-10.0-0.0-0.0-0.0-0.19,880,,j,,,,,,,,,,,,,key,j,16.67198198,616,266.3333333,j,TRUE,img/S_ambi40.png,生人,same,
,,,,,html-keyboard-response,311,884647,0.0-10.0-0.0-0.0-0.0-1.19,null,<span style='color:GreenYellow; font-size: 70px;'>正确! </span>,null,,,,,,,,,,,,,,,,,,,,,,,feedback_test
,,,,,psychophysics,312,886588,0.0-10.0-0.0-0.0-0.0-0.20,939,,j,,,,,,,,,,,,,key,j,16.67072174,616,266.3333333,j,TRUE,img/C_ambi40.png,朋友,same,
,,,,,html-keyboard-response,313,887090,0.0-10.0-0.0-0.0-0.0-1.20,null,<span style='color:GreenYellow; font-size: 70px;'>正确! </span>,null,,,,,,,,,,,,,,,,,,,,,,,feedback_test
,,,,,psychophysics,314,888870,0.0-10.0-0.0-0.0-0.0-0.21,778,,f,,,,,,,,,,,,,key,f,16.6709717,616,266.3333333,f,TRUE,img/S_ambi40.png,自我,same,
,,,,,html-keyboard-response,315,889372,0.0-10.0-0.0-0.0-0.0-1.21,null,<span style='color:GreenYellow; font-size: 70px;'>正确! </span>,null,,,,,,,,,,,,,,,,,,,,,,,feedback_test
,,,,,psychophysics,316,891102,0.0-10.0-0.0-0.0-0.0-0.22,728,,j,,,,,,,,,,,,,key,j,16.67087255,616,266.3333333,j,TRUE,img/H_ambi40.png,生人,same,
,,,,,html-keyboard-response,317,891603,0.0-10.0-0.0-0.0-0.0-1.22,null,<span style='color:GreenYellow; font-size: 70px;'>正确! </span>,null,,,,,,,,,,,,,,,,,,,,,,,feedback_test
,,,,,psychophysics,318,893136,0.0-10.0-0.0-0.0-0.0-0.23,532,,f,,,,,,,,,,,,,key,f,16.67098901,616,266.3333333,f,TRUE,img/T_ambi40.png,をる,same,
,,,,,html-keyboard-response,319,893639,0.0-10.0-0.0-0.0-0.0-1.23,null,<span style='color:GreenYellow; font-size: 70px;'>正确! </span>,null,,,,,,,,,,,,,,,,,,,,,,,feedback_test
,,,,,psychophysics,320,895289,0.0-10.0-0.0-0.0-0.0-0.24,648,,f,,,,,,,,,,,,,key,f,16.67137755,616,266.3333333,f,TRUE,img/T_ambi40.png,をる,same,
,,,,,html-keyboard-response,321,895790,0.0-10.0-0.0-0.0-0.0-1.24,null,<span style='color:GreenYellow; font-size: 70px;'>正确! </span>,null,,,,,,,,,,,,,,,,,,,,,,,feedback_test
,,,,,psychophysics,322,897536,0.0-10.0-0.0-0.0-0.0-0.25,744,,f,,,,,,,,,,,,,key,f,16.67280583,616,266.3333333,f,TRUE,img/S_ambi40.png,自我,same,
,,,,,html-keyboard-response,323,898037,0.0-10.0-0.0-0.0-0.0-1.25,null,<span style='color:GreenYellow; font-size: 70px;'>正确! </span>,null,,,,,,,,,,,,,,,,,,,,,,,feedback_test
,,,,,psychophysics,324,899575,0.0-10.0-0.0-0.0-0.0-0.26,537,,f,,,,,,,,,,,,,key,f,16.67083516,616,266.3333333,f,TRUE,img/T_ambi40.png,をる,same,
,,,,,html-keyboard-response,325,900079,0.0-10.0-0.0-0.0-0.0-1.26,null,<span style='color:GreenYellow; font-size: 70px;'>正确! </span>,null,,,,,,,,,,,,,,,,,,,,,,,feedback_test
,,,,,psychophysics,326,901712,0.0-10.0-0.0-0.0-0.0-0.27,633,,j,,,,,,,,,,,,,key,j,16.67241237,616,266.3333333,j,TRUE,img/S_ambi40.png,朋友,same,
,,,,,html-keyboard-response,327,902214,0.0-10.0-0.0-0.0-0.0-1.27,null,<span style='color:GreenYellow; font-size: 70px;'>正确! </span>,null,,,,,,,,,,,,,,,,,,,,,,,feedback_test
,,,,,psychophysics,328,903996,0.0-10.0-0.0-0.0-0.0-0.28,778,,j,,,,,,,,,,,,,key,j,16.6704434,616,266.3333333,j,TRUE,img/H_ambi40.png,生人,same,
,,,,,html-keyboard-response,329,904497,0.0-10.0-0.0-0.0-0.0-1.28,null,<span style='color:GreenYellow; font-size: 70px;'>正确! </span>,null,,,,,,,,,,,,,,,,,,,,,,,feedback_test
,,,,,psychophysics,330,906251,0.0-10.0-0.0-0.0-0.0-0.29,753,,f,,,,,,,,,,,,,key,f,16.67130769,616,266.3333333,f,TRUE,img/C_ambi40.png,生人,same,
,,,,,html-keyboard-response,331,906752,0.0-10.0-0.0-0.0-0.0-1.29,null,<span style='color:GreenYellow; font-size: 70px;'>正确! </span>,null,,,,,,,,,,,,,,,,,,,,,,,feedback_test
,,,,,psychophysics,332,908440,0.0-10.0-0.0-0.0-0.0-0.30,687,,f,,,,,,,,,,,,,key,f,16.6717,616,266.3333333,f,TRUE,img/C_ambi40.png,生人,same,
,,,,,html-keyboard-response,333,908941,0.0-10.0-0.0-0.0-0.0-1.30,null,<span style='color:GreenYellow; font-size: 70px;'>正确! </span>,null,,,,,,,,,,,,,,,,,,,,,,,feedback_test
,,,,,psychophysics,334,910593,0.0-10.0-0.0-0.0-0.0-0.31,651,,j,,,,,,,,,,,,,key,j,16.67107143,616,266.3333333,j,TRUE,img/C_ambi40.png,自我,same,
,,,,,html-keyboard-response,335,911096,0.0-10.0-0.0-0.0-0.0-1.31,null,<span style='color:GreenYellow; font-size: 70px;'>正确! </span>,null,,,,,,,,,,,,,,,,,,,,,,,feedback_test
,,,,,psychophysics,336,912934,0.0-10.0-0.0-0.0-0.0-0.32,835,,j,,,,,,,,,,,,,key,j,16.6717156,616,266.3333333,j,TRUE,img/S_ambi40.png,朋友,same,
,,,,,html-keyboard-response,337,913435,0.0-10.0-0.0-0.0-0.0-1.32,null,<span style='color:GreenYellow; font-size: 70px;'>正确! </span>,null,,,,,,,,,,,,,,,,,,,,,,,feedback_test
,,,,,psychophysics,338,915022,0.0-10.0-0.0-0.0-0.0-0.33,585,,f,,,,,,,,,,,,,key,f,16.67174468,616,266.3333333,f,TRUE,img/H_ambi40.png,朋友,same,
,,,,,html-keyboard-response,339,915523,0.0-10.0-0.0-0.0-0.0-1.33,null,<span style='color:GreenYellow; font-size: 70px;'>正确! </span>,null,,,,,,,,,,,,,,,,,,,,,,,feedback_test
,,,,,psychophysics,340,917250,0.0-10.0-0.0-0.0-0.0-0.34,727,,j,,,,,,,,,,,,,key,j,16.67008824,616,266.3333333,j,TRUE,img/H_ambi40.png,自我,same,
,,,,,html-keyboard-response,341,917751,0.0-10.0-0.0-0.0-0.0-1.34,null,<span style='color:GreenYellow; font-size: 70px;'>正确! </span>,null,,,,,,,,,,,,,,,,,,,,,,,feedback_test
,,,,,psychophysics,342,919428,0.0-10.0-0.0-0.0-0.0-0.35,675,,j,,,,,,,,,,,,,key,j,16.67147,616,266.3333333,j,TRUE,img/C_ambi40.png,自我,same,
,,,,,html-keyboard-response,343,919930,0.0-10.0-0.0-0.0-0.0-1.35,null,<span style='color:GreenYellow; font-size: 70px;'>正确! </span>,null,,,,,,,,,,,,,,,,,,,,,,,feedback_test
,,,,,psychophysics,344,921483,0.0-10.0-0.0-0.0-0.0-0.36,550,,f,,,,,,,,,,,,,key,f,16.67180435,616,266.3333333,f,TRUE,img/T_ambi40.png,をる,same,
,,,,,html-keyboard-response,345,921985,0.0-10.0-0.0-0.0-0.0-1.36,null,<span style='color:GreenYellow; font-size: 70px;'>正确! </span>,null,,,,,,,,,,,,,,,,,,,,,,,feedback_test
,,,,,psychophysics,346,924077,0.0-10.0-0.0-0.0-0.0-0.37,1091,,j,,,,,,,,,,,,,key,j,16.67096774,616,266.3333333,j,TRUE,img/H_ambi40.png,自我,same,
,,,,,html-keyboard-response,347,924578,0.0-10.0-0.0-0.0-0.0-1.37,null,<span style='color:GreenYellow; font-size: 70px;'>正确! </span>,null,,,,,,,,,,,,,,,,,,,,,,,feedback_test
,,,,,psychophysics,348,926619,0.0-10.0-0.0-0.0-0.0-0.38,1040,,j,,,,,,,,,,,,,key,j,16.67087603,616,266.3333333,j,TRUE,img/S_ambi40.png,生人,same,
,,,,,html-keyboard-response,349,927120,0.0-10.0-0.0-0.0-0.0-1.38,null,<span style='color:GreenYellow; font-size: 70px;'>正确! </span>,null,,,,,,,,,,,,,,,,,,,,,,,feedback_test
,,,,,psychophysics,350,928987,0.0-10.0-0.0-0.0-0.0-0.39,865,,j,,,,,,,,,,,,,key,j,16.67127027,616,266.3333333,j,TRUE,img/S_ambi40.png,朋友,same,
,,,,,html-keyboard-response,351,929488,0.0-10.0-0.0-0.0-0.0-1.39,null,<span style='color:GreenYellow; font-size: 70px;'>正确! </span>,null,,,,,,,,,,,,,,,,,,,,,,,feedback_test
,,,,,psychophysics,352,931143,0.0-10.0-0.0-0.0-0.0-0.40,654,,f,,,,,,,,,,,,,key,f,16.671,616,266.3333333,f,TRUE,img/T_ambi40.png,をる,same,
,,,,,html-keyboard-response,353,931644,0.0-10.0-0.0-0.0-0.0-1.40,null,<span style='color:GreenYellow; font-size: 70px;'>正确! </span>,null,,,,,,,,,,,,,,,,,,,,,,,feedback_test
,,,,,psychophysics,354,933544,0.0-10.0-0.0-0.0-0.0-0.41,899,,j,,,,,,,,,,,,,key,j,16.67147321,616,266.3333333,j,TRUE,img/C_ambi40.png,自我,same,
,,,,,html-keyboard-response,355,934045,0.0-10.0-0.0-0.0-0.0-1.41,null,<span style='color:GreenYellow; font-size: 70px;'>正确! </span>,null,,,,,,,,,,,,,,,,,,,,,,,feedback_test
,,,,,psychophysics,356,935705,0.0-10.0-0.0-0.0-0.0-0.42,658,,f,,,,,,,,,,,,,key,f,16.6712449,616,266.3333333,f,TRUE,img/H_ambi40.png,朋友,same,
,,,,,html-keyboard-response,357,936206,0.0-10.0-0.0-0.0-0.0-1.42,null,<span style='color:GreenYellow; font-size: 70px;'>正确! </span>,null,,,,,,,,,,,,,,,,,,,,,,,feedback_test
,,,,,psychophysics,358,937806,0.0-10.0-0.0-0.0-0.0-0.43,598,,f,,,,,,,,,,,,,key,f,16.67055789,616,266.3333333,j,FALSE,img/H_ambi40.png,生人,same,
,,,,,html-keyboard-response,359,938307,0.0-10.0-0.0-0.0-0.0-1.43,null,<span style='color:red; font-size: 70px;'>错误! </span>,null,,,,,,,,,,,,,,,,,,,,,,,feedback_test
,,,,,psychophysics,360,940024,0.0-10.0-0.0-0.0-0.0-0.44,716,,f,,,,,,,,,,,,,key,f,16.67035644,616,266.3333333,f,TRUE,img/C_ambi40.png,生人,same,
,,,,,html-keyboard-response,361,940525,0.0-10.0-0.0-0.0-0.0-1.44,null,<span style='color:GreenYellow; font-size: 70px;'>正确! </span>,null,,,,,,,,,,,,,,,,,,,,,,,feedback_test
,,,,,psychophysics,362,942216,0.0-10.0-0.0-0.0-0.0-0.45,690,,j,,,,,,,,,,,,,key,j,16.67239604,616,266.3333333,j,TRUE,img/C_ambi40.png,朋友,same,
,,,,,html-keyboard-response,363,942717,0.0-10.0-0.0-0.0-0.0-1.45,null,<span style='color:GreenYellow; font-size: 70px;'>正确! </span>,null,,,,,,,,,,,,,,,,,,,,,,,feedback_test
,,,,,psychophysics,364,944536,0.0-10.0-0.0-0.0-0.0-0.46,817,,f,,,,,,,,,,,,,key,f,16.67275926,616,266.3333333,f,TRUE,img/C_ambi40.png,生人,same,
,,,,,html-keyboard-response,365,945039,0.0-10.0-0.0-0.0-0.0-1.46,null,<span style='color:GreenYellow; font-size: 70px;'>正确! </span>,null,,,,,,,,,,,,,,,,,,,,,,,feedback_test
,,,,,psychophysics,366,946710,0.0-10.0-0.0-0.0-0.0-0.47,668,,j,,,,,,,,,,,,,key,j,16.6729697,616,266.3333333,j,TRUE,img/S_ambi40.png,朋友,same,
,,,,,html-keyboard-response,367,947212,0.0-10.0-0.0-0.0-0.0-1.47,null,<span style='color:GreenYellow; font-size: 70px;'>正确! </span>,null,,,,,,,,,,,,,,,,,,,,,,,feedback_test
,,,,,psychophysics,368,948977,0.0-10.0-0.0-0.0-0.0-0.48,763,,j,,,,,,,,,,,,,key,j,16.67109524,616,266.3333333,j,TRUE,img/H_ambi40.png,生人,same,
,,,,,html-keyboard-response,369,949479,0.0-10.0-0.0-0.0-0.0-1.48,null,<span style='color:GreenYellow; font-size: 70px;'>正确! </span>,null,,,,,,,,,,,,,,,,,,,,,,,feedback_test
,,,,,psychophysics,370,951323,0.0-10.0-0.0-0.0-0.0-0.49,842,,f,,,,,,,,,,,,,key,f,16.67133945,616,266.3333333,f,TRUE,img/S_ambi40.png,自我,same,
,,,,,html-keyboard-response,371,951825,0.0-10.0-0.0-0.0-0.0-1.49,null,<span style='color:GreenYellow; font-size: 70px;'>正确! </span>,null,,,,,,,,,,,,,,,,,,,,,,,feedback_test
,,,,,psychophysics,372,953515,0.0-10.0-0.0-0.0-0.0-0.50,688,,j,,,,,,,,,,,,,key,j,16.67181,616,266.3333333,j,TRUE,img/C_ambi40.png,自我,same,
,,,,,html-keyboard-response,373,954016,0.0-10.0-0.0-0.0-0.0-1.50,null,<span style='color:GreenYellow; font-size: 70px;'>正确! </span>,null,,,,,,,,,,,,,,,,,,,,,,,feedback_test
,,,,,psychophysics,374,955589,0.0-10.0-0.0-0.0-0.0-0.51,572,,f,,,,,,,,,,,,,key,f,16.67124731,616,266.3333333,f,TRUE,img/T_ambi40.png,をる,same,
,,,,,html-keyboard-response,375,956091,0.0-10.0-0.0-0.0-0.0-1.51,null,<span style='color:GreenYellow; font-size: 70px;'>正确! </span>,null,,,,,,,,,,,,,,,,,,,,,,,feedback_test
,,,,,psychophysics,376,957995,0.0-10.0-0.0-0.0-0.0-0.52,901,,f,,,,,,,,,,,,,key,f,16.67219469,616,266.3333333,f,TRUE,img/S_ambi40.png,自我,same,
,,,,,html-keyboard-response,377,958496,0.0-10.0-0.0-0.0-0.0-1.52,null,<span style='color:GreenYellow; font-size: 70px;'>正确! </span>,null,,,,,,,,,,,,,,,,,,,,,,,feedback_test
,,,,,psychophysics,378,960123,0.0-10.0-0.0-0.0-0.0-0.53,624,,f,,,,,,,,,,,,,key,f,16.67155208,616,266.3333333,f,TRUE,img/H_ambi40.png,朋友,same,
,,,,,html-keyboard-response,379,960625,0.0-10.0-0.0-0.0-0.0-1.53,null,<span style='color:GreenYellow; font-size: 70px;'>正确! </span>,null,,,,,,,,,,,,,,,,,,,,,,,feedback_test
,,,,,psychophysics,380,962242,0.0-10.0-0.0-0.0-0.0-0.54,612,,j,,,,,,,,,,,,,key,j,16.6726875,616,266.3333333,j,TRUE,img/S_ambi40.png,朋友,same,
,,,,,html-keyboard-response,381,962744,0.0-10.0-0.0-0.0-0.0-1.54,null,<span style='color:GreenYellow; font-size: 70px;'>正确! </span>,null,,,,,,,,,,,,,,,,,,,,,,,feedback_test
,,,,,psychophysics,382,964483,0.0-10.0-0.0-0.0-0.0-0.55,737,,f,,,,,,,,,,,,,key,f,16.67132039,616,266.3333333,f,TRUE,img/C_ambi40.png,生人,same,
,,,,,html-keyboard-response,383,964985,0.0-10.0-0.0-0.0-0.0-1.55,null,<span style='color:GreenYellow; font-size: 70px;'>正确! </span>,null,,,,,,,,,,,,,,,,,,,,,,,feedback_test
,,,,,psychophysics,384,966761,0.0-10.0-0.0-0.0-0.0-0.56,775,,f,,,,,,,,,,,,,key,f,16.67189524,616,266.3333333,f,TRUE,img/S_ambi40.png,自我,same,
,,,,,html-keyboard-response,385,967262,0.0-10.0-0.0-0.0-0.0-1.56,null,<span style='color:GreenYellow; font-size: 70px;'>正确! </span>,null,,,,,,,,,,,,,,,,,,,,,,,feedback_test
,,,,,psychophysics,386,968918,0.0-10.0-0.0-0.0-0.0-0.57,655,,j,,,,,,,,,,,,,key,j,16.67227551,616,266.3333333,f,FALSE,img/C_ambi40.png,生人,same,
,,,,,html-keyboard-response,387,969419,0.0-10.0-0.0-0.0-0.0-1.57,null,<span style='color:red; font-size: 70px;'>错误! </span>,null,,,,,,,,,,,,,,,,,,,,,,,feedback_test
,,,,,psychophysics,388,971087,0.0-10.0-0.0-0.0-0.0-0.58,666,,f,,,,,,,,,,,,,key,f,16.6710404,616,266.3333333,f,TRUE,img/H_ambi40.png,朋友,same,
,,,,,html-keyboard-response,389,971595,0.0-10.0-0.0-0.0-0.0-1.58,null,<span style='color:GreenYellow; font-size: 70px;'>正确! </span>,null,,,,,,,,,,,,,,,,,,,,,,,feedback_test
,,,,,psychophysics,390,973384,0.0-10.0-0.0-0.0-0.0-0.59,786,,j,,,,,,,,,,,,,key,j,16.6715283,616,266.3333333,j,TRUE,img/C_ambi40.png,自我,same,
,,,,,html-keyboard-response,391,973885,0.0-10.0-0.0-0.0-0.0-1.59,null,<span style='color:GreenYellow; font-size: 70px;'>正确! </span>,null,,,,,,,,,,,,,,,,,,,,,,,feedback_test
,,,,,psychophysics,392,975465,0.0-10.0-0.0-0.0-0.0-0.60,579,,f,,,,,,,,,,,,,key,f,16.67168817,616,266.3333333,f,TRUE,img/H_ambi40.png,朋友,same,
,,,,,html-keyboard-response,393,975966,0.0-10.0-0.0-0.0-0.0-1.60,null,<span style='color:GreenYellow; font-size: 70px;'>正确! </span>,null,,,,,,,,,,,,,,,,,,,,,,,feedback_test
,,,,,psychophysics,394,977522,0.0-10.0-0.0-0.0-0.0-0.61,553,,f,,,,,,,,,,,,,key,f,16.67120652,616,266.3333333,j,FALSE,img/H_ambi40.png,自我,same,
,,,,,html-keyboard-response,395,978023,0.0-10.0-0.0-0.0-0.0-1.61,null,<span style='color:red; font-size: 70px;'>错误! </span>,null,,,,,,,,,,,,,,,,,,,,,,,feedback_test
,,,,,psychophysics,396,980009,0.0-10.0-0.0-0.0-0.0-0.62,984,,j,,,,,,,,,,,,,key,j,16.67136752,616,266.3333333,j,TRUE,img/H_ambi40.png,生人,same,
,,,,,html-keyboard-response,397,980510,0.0-10.0-0.0-0.0-0.0-1.62,null,<span style='color:GreenYellow; font-size: 70px;'>正确! </span>,null,,,,,,,,,,,,,,,,,,,,,,,feedback_test
,,,,,psychophysics,398,982510,0.0-10.0-0.0-0.0-0.0-0.63,999,,j,,,,,,,,,,,,,key,j,16.67118644,616,266.3333333,j,TRUE,img/S_ambi40.png,生人,same,
,,,,,html-keyboard-response,399,983012,0.0-10.0-0.0-0.0-0.0-1.63,null,<span style='color:GreenYellow; font-size: 70px;'>正确! </span>,null,,,,,,,,,,,,,,,,,,,,,,,feedback_test
,,,,,psychophysics,400,984542,0.0-10.0-0.0-0.0-0.0-0.64,529,,f,,,,,,,,,,,,,key,f,16.67283333,616,266.3333333,f,TRUE,img/S_ambi40.png,自我,same,
,,,,,html-keyboard-response,401,985044,0.0-10.0-0.0-0.0-0.0-1.64,null,<span style='color:GreenYellow; font-size: 70px;'>正确! </span>,null,,,,,,,,,,,,,,,,,,,,,,,feedback_test
,,,,,psychophysics,402,986611,0.0-10.0-0.0-0.0-0.0-0.65,566,,f,,,,,,,,,,,,,key,f,16.67184783,616,266.3333333,f,TRUE,img/T_ambi40.png,をる,same,
,,,,,html-keyboard-response,403,987111,0.0-10.0-0.0-0.0-0.0-1.65,null,<span style='color:GreenYellow; font-size: 70px;'>正确! </span>,null,,,,,,,,,,,,,,,,,,,,,,,feedback_test
,,,,,psychophysics,404,988656,0.0-10.0-0.0-0.0-0.0-0.66,543,,f,,,,,,,,,,,,,key,f,16.67198901,616,266.3333333,f,TRUE,img/T_ambi40.png,をる,same,
,,,,,html-keyboard-response,405,989158,0.0-10.0-0.0-0.0-0.0-1.66,null,<span style='color:GreenYellow; font-size: 70px;'>正确! </span>,null,,,,,,,,,,,,,,,,,,,,,,,feedback_test
,,,,,psychophysics,406,990738,0.0-10.0-0.0-0.0-0.0-0.67,577,,f,,,,,,,,,,,,,key,f,16.6713617,616,266.3333333,f,TRUE,img/T_ambi40.png,をる,same,
,,,,,html-keyboard-response,407,991238,0.0-10.0-0.0-0.0-0.0-1.67,null,<span style='color:GreenYellow; font-size: 70px;'>正确! </span>,null,,,,,,,,,,,,,,,,,,,,,,,feedback_test
,,,,,psychophysics,408,992930,0.0-10.0-0.0-0.0-0.0-0.68,691,,j,,,,,,,,,,,,,key,j,16.67185149,616,266.3333333,j,TRUE,img/H_ambi40.png,生人,same,
,,,,,html-keyboard-response,409,993432,0.0-10.0-0.0-0.0-0.0-1.68,null,<span style='color:GreenYellow; font-size: 70px;'>正确! </span>,null,,,,,,,,,,,,,,,,,,,,,,,feedback_test
,,,,,psychophysics,410,995193,0.0-10.0-0.0-0.0-0.0-0.69,758,,j,,,,,,,,,,,,,key,j,16.67113462,616,266.3333333,j,TRUE,img/C_ambi40.png,朋友,same,
,,,,,html-keyboard-response,411,995694,0.0-10.0-0.0-0.0-0.0-1.69,null,<span style='color:GreenYellow; font-size: 70px;'>正确! </span>,null,,,,,,,,,,,,,,,,,,,,,,,feedback_test
,,,,,psychophysics,412,997508,0.0-10.0-0.0-0.0-0.0-0.70,812,,j,,,,,,,,,,,,,key,j,16.67128037,616,266.3333333,j,TRUE,img/C_ambi40.png,自我,same,
,,,,,html-keyboard-response,413,998010,0.0-10.0-0.0-0.0-0.0-1.70,null,<span style='color:GreenYellow; font-size: 70px;'>正确! </span>,null,,,,,,,,,,,,,,,,,,,,,,,feedback_test
,,,,,psychophysics,414,999909,0.0-10.0-0.0-0.0-0.0-0.71,897,,j,,,,,,,,,,,,,key,j,16.67312389,616,266.3333333,j,TRUE,img/S_ambi40.png,朋友,same,
,,,,,html-keyboard-response,415,1000411,0.0-10.0-0.0-0.0-0.0-1.71,null,<span style='color:GreenYellow; font-size: 70px;'>正确! </span>,null,,,,,,,,,,,,,,,,,,,,,,,feedback_test
,,,,,psychophysics,416,1002225,0.0-10.0-0.0-0.0-0.0-0.72,812,,j,,,,,,,,,,,,,key,j,16.67068224,616,266.3333333,j,TRUE,img/C_ambi40.png,自我,same,
,,,,,html-keyboard-response,417,1002727,0.0-10.0-0.0-0.0-0.0-1.72,null,<span style='color:GreenYellow; font-size: 70px;'>正确! </span>,null,,,,,,,,,,,,,,,,,,,,,,,feedback_test
,,,,,psychophysics,418,1004477,0.0-10.0-0.0-0.0-0.0-0.73,748,,f,,,,,,,,,,,,,key,f,16.67299038,616,266.3333333,f,TRUE,img/C_ambi40.png,生人,same,
,,,,,html-keyboard-response,419,1004979,0.0-10.0-0.0-0.0-0.0-1.73,null,<span style='color:GreenYellow; font-size: 70px;'>正确! </span>,null,,,,,,,,,,,,,,,,,,,,,,,feedback_test
,,,,,psychophysics,420,1006781,0.0-10.0-0.0-0.0-0.0-0.74,800,,f,,,,,,,,,,,,,key,f,16.673,616,266.3333333,f,TRUE,img/S_ambi40.png,自我,same,
,,,,,html-keyboard-response,421,1007283,0.0-10.0-0.0-0.0-0.0-1.74,null,<span style='color:GreenYellow; font-size: 70px;'>正确! </span>,null,,,,,,,,,,,,,,,,,,,,,,,feedback_test
,,,,,psychophysics,422,1008917,0.0-10.0-0.0-0.0-0.0-0.75,633,,j,,,,,,,,,,,,,key,j,16.67008333,616,266.3333333,j,TRUE,img/C_ambi40.png,朋友,same,
,,,,,html-keyboard-response,423,1009419,0.0-10.0-0.0-0.0-0.0-1.75,null,<span style='color:GreenYellow; font-size: 70px;'>正确! </span>,null,,,,,,,,,,,,,,,,,,,,,,,feedback_test
,,,,,psychophysics,424,1011050,0.0-10.0-0.0-0.0-0.0-0.76,630,,j,,,,,,,,,,,,,key,j,16.67124211,616,266.3333333,j,TRUE,img/C_ambi40.png,自我,same,
,,,,,html-keyboard-response,425,1011552,0.0-10.0-0.0-0.0-0.0-1.76,null,<span style='color:GreenYellow; font-size: 70px;'>正确! </span>,null,,,,,,,,,,,,,,,,,,,,,,,feedback_test
,,,,,psychophysics,426,1013157,0.0-10.0-0.0-0.0-0.0-0.77,604,,f,,,,,,,,,,,,,key,f,16.67110526,616,266.3333333,f,TRUE,img/T_ambi40.png,をる,same,
,,,,,html-keyboard-response,427,1013660,0.0-10.0-0.0-0.0-0.0-1.77,null,<span style='color:GreenYellow; font-size: 70px;'>正确! </span>,null,,,,,,,,,,,,,,,,,,,,,,,feedback_test
,,,,,psychophysics,428,1015411,0.0-10.0-0.0-0.0-0.0-0.78,750,,j,,,,,,,,,,,,,key,j,16.67092233,616,266.3333333,j,TRUE,img/H_ambi40.png,生人,same,
,,,,,html-keyboard-response,429,1015912,0.0-10.0-0.0-0.0-0.0-1.78,null,<span style='color:GreenYellow; font-size: 70px;'>正确! </span>,null,,,,,,,,,,,,,,,,,,,,,,,feedback_test
,,,,,psychophysics,430,1017799,0.0-10.0-0.0-0.0-0.0-0.79,885,,f,,,,,,,,,,,,,key,f,16.67166964,616,266.3333333,f,TRUE,img/C_ambi40.png,生人,same,
,,,,,html-keyboard-response,431,1018300,0.0-10.0-0.0-0.0-0.0-1.79,null,<span style='color:GreenYellow; font-size: 70px;'>正确! </span>,null,,,,,,,,,,,,,,,,,,,,,,,feedback_test
,,,,,psychophysics,432,1020247,0.0-10.0-0.0-0.0-0.0-0.80,945,,j,,,,,,,,,,,,,key,j,16.67127826,616,266.3333333,j,TRUE,img/H_ambi40.png,自我,same,
,,,,,html-keyboard-response,433,1020750,0.0-10.0-0.0-0.0-0.0-1.80,null,<span style='color:GreenYellow; font-size: 70px;'>正确! </span>,null,,,,,,,,,,,,,,,,,,,,,,,feedback_test
,,,,,psychophysics,434,1022865,0.0-10.0-0.0-0.0-0.0-0.81,1114,,j,,,,,,,,,,,,,key,j,16.66953968,616,266.3333333,j,TRUE,img/S_ambi40.png,生人,same,
,,,,,html-keyboard-response,435,1023367,0.0-10.0-0.0-0.0-0.0-1.81,null,<span style='color:GreenYellow; font-size: 70px;'>正确! </span>,null,,,,,,,,,,,,,,,,,,,,,,,feedback_test
,,,,,psychophysics,436,1025124,0.0-10.0-0.0-0.0-0.0-0.82,755,,f,,,,,,,,,,,,,key,f,16.67234615,616,266.3333333,f,TRUE,img/H_ambi40.png,朋友,same,
,,,,,html-keyboard-response,437,1025626,0.0-10.0-0.0-0.0-0.0-1.82,null,<span style='color:GreenYellow; font-size: 70px;'>正确! </span>,null,,,,,,,,,,,,,,,,,,,,,,,feedback_test
,,,,,psychophysics,438,1027252,0.0-10.0-0.0-0.0-0.0-0.83,625,,j,,,,,,,,,,,,,key,j,16.67059375,616,266.3333333,j,TRUE,img/S_ambi40.png,朋友,same,
,,,,,html-keyboard-response,439,1027753,0.0-10.0-0.0-0.0-0.0-1.83,null,<span style='color:GreenYellow; font-size: 70px;'>正确! </span>,null,,,,,,,,,,,,,,,,,,,,,,,feedback_test
,,,,,psychophysics,440,1029570,0.0-10.0-0.0-0.0-0.0-0.84,813,,j,,,,,,,,,,,,,key,j,16.6698972,616,266.3333333,j,TRUE,img/S_ambi40.png,朋友,same,
,,,,,html-keyboard-response,441,1030071,0.0-10.0-0.0-0.0-0.0-1.84,null,<span style='color:GreenYellow; font-size: 70px;'>正确! </span>,null,,,,,,,,,,,,,,,,,,,,,,,feedback_test
,,,,,psychophysics,442,1031643,0.0-10.0-0.0-0.0-0.0-0.85,569,,f,,,,,,,,,,,,,key,f,16.67344086,616,266.3333333,f,TRUE,img/T_ambi40.png,をる,same,
,,,,,html-keyboard-response,443,1032145,0.0-10.0-0.0-0.0-0.0-1.85,null,<span style='color:GreenYellow; font-size: 70px;'>正确! </span>,null,,,,,,,,,,,,,,,,,,,,,,,feedback_test
,,,,,psychophysics,444,1033831,0.0-10.0-0.0-0.0-0.0-0.86,684,,f,,,,,,,,,,,,,key,f,16.6712,616,266.3333333,f,TRUE,img/H_ambi40.png,朋友,same,
,,,,,html-keyboard-response,445,1034341,0.0-10.0-0.0-0.0-0.0-1.86,null,<span style='color:GreenYellow; font-size: 70px;'>正确! </span>,null,,,,,,,,,,,,,,,,,,,,,,,feedback_test
,,,,,psychophysics,446,1036238,0.0-10.0-0.0-0.0-0.0-0.87,896,,f,,,,,,,,,,,,,key,f,16.67123214,616,266.3333333,f,TRUE,img/S_ambi40.png,自我,same,
,,,,,html-keyboard-response,447,1036740,0.0-10.0-0.0-0.0-0.0-1.87,null,<span style='color:GreenYellow; font-size: 70px;'>正确! </span>,null,,,,,,,,,,,,,,,,,,,,,,,feedback_test
,,,,,psychophysics,448,1038297,0.0-10.0-0.0-0.0-0.0-0.88,555,,f,,,,,,,,,,,,,key,f,16.6723913,616,266.3333333,f,TRUE,img/T_ambi40.png,をる,same,
,,,,,html-keyboard-response,449,1038798,0.0-10.0-0.0-0.0-0.0-1.88,null,<span style='color:GreenYellow; font-size: 70px;'>正确! </span>,null,,,,,,,,,,,,,,,,,,,,,,,feedback_test
,,,,,psychophysics,450,1040635,0.0-10.0-0.0-0.0-0.0-0.89,835,,j,,,,,,,,,,,,,key,j,16.67091743,616,266.3333333,j,TRUE,img/H_ambi40.png,生人,same,
,,,,,html-keyboard-response,451,1041137,0.0-10.0-0.0-0.0-0.0-1.89,null,<span style='color:GreenYellow; font-size: 70px;'>正确! </span>,null,,,,,,,,,,,,,,,,,,,,,,,feedback_test
,,,,,psychophysics,452,1042895,0.0-10.0-0.0-0.0-0.0-0.90,756,,f,,,,,,,,,,,,,key,f,16.67221905,616,266.3333333,f,TRUE,img/S_ambi40.png,自我,same,
,,,,,html-keyboard-response,453,1043396,0.0-10.0-0.0-0.0-0.0-1.90,null,<span style='color:GreenYellow; font-size: 70px;'>正确! </span>,null,,,,,,,,,,,,,,,,,,,,,,,feedback_test
,,,,,psychophysics,454,1045089,0.0-10.0-0.0-0.0-0.0-0.91,691,,j,,,,,,,,,,,,,key,j,16.67168,616,266.3333333,j,TRUE,img/C_ambi40.png,自我,same,
,,,,,html-keyboard-response,455,1045590,0.0-10.0-0.0-0.0-0.0-1.91,null,<span style='color:GreenYellow; font-size: 70px;'>正确! </span>,null,,,,,,,,,,,,,,,,,,,,,,,feedback_test
,,,,,psychophysics,456,1047506,0.0-10.0-0.0-0.0-0.0-0.92,914,,j,,,,,,,,,,,,,key,j,16.67127434,616,266.3333333,f,FALSE,img/C_ambi40.png,生人,same,
,,,,,html-keyboard-response,457,1048010,0.0-10.0-0.0-0.0-0.0-1.92,null,<span style='color:red; font-size: 70px;'>错误! </span>,null,,,,,,,,,,,,,,,,,,,,,,,feedback_test
,,,,,psychophysics,458,1049643,0.0-10.0-0.0-0.0-0.0-0.93,632,,f,,,,,,,,,,,,,key,f,16.67088542,616,266.3333333,f,TRUE,img/S_ambi40.png,自我,same,
,,,,,html-keyboard-response,459,1050144,0.0-10.0-0.0-0.0-0.0-1.93,null,<span style='color:GreenYellow; font-size: 70px;'>正确! </span>,null,,,,,,,,,,,,,,,,,,,,,,,feedback_test
,,,,,psychophysics,460,1051668,0.0-10.0-0.0-0.0-0.0-0.94,523,,f,,,,,,,,,,,,,key,f,16.6713,616,266.3333333,f,TRUE,img/T_ambi40.png,をる,same,
,,,,,html-keyboard-response,461,1052170,0.0-10.0-0.0-0.0-0.0-1.94,null,<span style='color:GreenYellow; font-size: 70px;'>正确! </span>,null,,,,,,,,,,,,,,,,,,,,,,,feedback_test
,,,,,psychophysics,462,1053886,0.0-10.0-0.0-0.0-0.0-0.95,714,,j,,,,,,,,,,,,,key,j,16.67110784,616,266.3333333,j,TRUE,img/H_ambi40.png,生人,same,
,,,,,html-keyboard-response,463,1054387,0.0-10.0-0.0-0.0-0.0-1.95,null,<span style='color:GreenYellow; font-size: 70px;'>正确! </span>,null,,,,,,,,,,,,,,,,,,,,,,,feedback_test
,,,,,psychophysics,464,1056226,0.0-10.0-0.0-0.0-0.0-0.96,838,,j,,,,,,,,,,,,,key,j,16.6707963,616,266.3333333,j,TRUE,img/S_ambi40.png,朋友,same,
,,,,,html-keyboard-response,465,1056727,0.0-10.0-0.0-0.0-0.0-1.96,null,<span style='color:GreenYellow; font-size: 70px;'>正确! </span>,null,,,,,,,,,,,,,,,,,,,,,,,feedback_test
,,,,,psychophysics,466,1058420,0.0-10.0-0.0-0.0-0.0-0.97,691,,j,,,,,,,,,,,,,key,j,16.67082,616,266.3333333,j,TRUE,img/C_ambi40.png,朋友,same,
,,,,,html-keyboard-response,467,1058924,0.0-10.0-0.0-0.0-0.0-1.97,null,<span style='color:GreenYellow; font-size: 70px;'>正确! </span>,null,,,,,,,,,,,,,,,,,,,,,,,feedback_test
,,,,,psychophysics,468,1060708,0.0-10.0-0.0-0.0-0.0-0.98,783,,j,,,,,,,,,,,,,key,j,16.67109434,616,266.3333333,j,TRUE,img/S_ambi40.png,生人,same,
,,,,,html-keyboard-response,469,1061210,0.0-10.0-0.0-0.0-0.0-1.98,null,<span style='color:GreenYellow; font-size: 70px;'>正确! </span>,null,,,,,,,,,,,,,,,,,,,,,,,feedback_test
,,,,,psychophysics,470,1063147,0.0-10.0-0.0-0.0-0.0-0.99,936,,j,,,,,,,,,,,,,key,j,16.67330435,616,266.3333333,j,TRUE,img/H_ambi40.png,生人,same,
,,,,,html-keyboard-response,471,1063649,0.0-10.0-0.0-0.0-0.0-1.99,null,<span style='color:GreenYellow; font-size: 70px;'>正确! </span>,null,,,,,,,,,,,,,,,,,,,,,,,feedback_test
,,,,,psychophysics,472,1065350,0.0-10.0-0.0-0.0-0.0-0.100,700,,f,,,,,,,,,,,,,key,f,16.67149,616,266.3333333,f,TRUE,img/H_ambi40.png,朋友,same,
,,,,,html-keyboard-response,473,1065853,0.0-10.0-0.0-0.0-0.0-1.100,null,<span style='color:GreenYellow; font-size: 70px;'>正确! </span>,null,,,,,,,,,,,,,,,,,,,,,,,feedback_test
,,,,,psychophysics,474,1067563,0.0-10.0-0.0-0.0-0.0-0.101,707,,j,,,,,,,,,,,,,key,j,16.67188119,616,266.3333333,j,TRUE,img/H_ambi40.png,自我,same,
,,,,,html-keyboard-response,475,1068064,0.0-10.0-0.0-0.0-0.0-1.101,null,<span style='color:GreenYellow; font-size: 70px;'>正确! </span>,null,,,,,,,,,,,,,,,,,,,,,,,feedback_test
,,,,,psychophysics,476,1069761,0.0-10.0-0.0-0.0-0.0-0.102,694,,f,,,,,,,,,,,,,key,f,16.6709,616,266.3333333,f,TRUE,img/C_ambi40.png,生人,same,
,,,,,html-keyboard-response,477,1070261,0.0-10.0-0.0-0.0-0.0-1.102,null,<span style='color:GreenYellow; font-size: 70px;'>正确! </span>,null,,,,,,,,,,,,,,,,,,,,,,,feedback_test
,,,,,psychophysics,478,1071911,0.0-10.0-0.0-0.0-0.0-0.103,648,,j,,,,,,,,,,,,,key,j,16.67192857,616,266.3333333,j,TRUE,img/C_ambi40.png,自我,same,
,,,,,html-keyboard-response,479,1072427,0.0-10.0-0.0-0.0-0.0-1.103,null,<span style='color:GreenYellow; font-size: 70px;'>正确! </span>,null,,,,,,,,,,,,,,,,,,,,,,,feedback_test
,,,,,psychophysics,480,1074143,0.0-10.0-0.0-0.0-0.0-0.104,715,,j,,,,,,,,,,,,,key,j,16.67187255,616,266.3333333,j,TRUE,img/S_ambi40.png,朋友,same,
,,,,,html-keyboard-response,481,1074643,0.0-10.0-0.0-0.0-0.0-1.104,null,<span style='color:GreenYellow; font-size: 70px;'>正确! </span>,null,,,,,,,,,,,,,,,,,,,,,,,feedback_test
,,,,,psychophysics,482,1076240,0.0-10.0-0.0-0.0-0.0-0.105,596,,f,,,,,,,,,,,,,key,f,16.67109474,616,266.3333333,f,TRUE,img/T_ambi40.png,をる,same,
,,,,,html-keyboard-response,483,1076756,0.0-10.0-0.0-0.0-0.0-1.105,null,<span style='color:GreenYellow; font-size: 70px;'>正确! </span>,null,,,,,,,,,,,,,,,,,,,,,,,feedback_test
,,,,,psychophysics,484,1078319,0.0-10.0-0.0-0.0-0.0-0.106,561,,f,,,,,,,,,,,,,key,f,16.67090217,616,266.3333333,f,TRUE,img/H_ambi40.png,朋友,same,
,,,,,html-keyboard-response,485,1078820,0.0-10.0-0.0-0.0-0.0-1.106,null,<span style='color:GreenYellow; font-size: 70px;'>正确! </span>,null,,,,,,,,,,,,,,,,,,,,,,,feedback_test
,,,,,psychophysics,486,1080492,0.0-10.0-0.0-0.0-0.0-0.107,671,,f,,,,,,,,,,,,,key,f,16.67189899,616,266.3333333,f,TRUE,img/T_ambi40.png,をる,same,
,,,,,html-keyboard-response,487,1080994,0.0-10.0-0.0-0.0-0.0-1.107,null,<span style='color:GreenYellow; font-size: 70px;'>正确! </span>,null,,,,,,,,,,,,,,,,,,,,,,,feedback_test
,,,,,html-keyboard-response,488,1086493,0.0-10.0-0.0-0.0-1.0,5497,<style>.context{color:white; font-size: 35px; line-height:40px}</style>                          <div><p class='context'>您正确回答了93% 的试次。</p><p class='context'>您的平均反应时为738毫秒。</p><p class='context'>请按任意键进入休息</p></div>,enter,,,,,,,,,,,,,,,,,,,,,,,
,,,,,html-button-response,489,1151521,0.0-10.0-0.0-0.0-2.0,65025,"
                    <p>您当前还剩余5组实验</p>
                    <p>现在是休息时间，当您结束休息后，您可以点击 结束休息 按钮 继续</p>
                    <p>建议休息时间还剩余<span id=""iii"">60</span>秒</p>",0,,,,,,,,,,,,,,,,,,,,,,,
,,,,,psychophysics,490,1153504,0.0-10.0-0.0-0.0-0.1-0.108,981,,j,,,,,,,,,,,,,key,j,16.67189744,616,266.3333333,f,FALSE,img/C_ambi40.png,生人,same,
,,,,,html-keyboard-response,491,1154006,0.0-10.0-0.0-0.0-0.1-1.108,null,<span style='color:red; font-size: 70px;'>错误! </span>,null,,,,,,,,,,,,,,,,,,,,,,,feedback_test
,,,,,psychophysics,492,1155647,0.0-10.0-0.0-0.0-0.1-0.109,639,,f,,,,,,,,,,,,,key,f,16.67118557,616,266.3333333,f,TRUE,img/T_ambi40.png,をる,same,
,,,,,html-keyboard-response,493,1156149,0.0-10.0-0.0-0.0-0.1-1.109,null,<span style='color:GreenYellow; font-size: 70px;'>正确! </span>,null,,,,,,,,,,,,,,,,,,,,,,,feedback_test
,,,,,psychophysics,494,1157883,0.0-10.0-0.0-0.0-0.1-0.110,732,,j,,,,,,,,,,,,,key,j,16.67024272,616,266.3333333,j,TRUE,img/H_ambi40.png,生人,same,
,,,,,html-keyboard-response,495,1158384,0.0-10.0-0.0-0.0-0.1-1.110,null,<span style='color:GreenYellow; font-size: 70px;'>正确! </span>,null,,,,,,,,,,,,,,,,,,,,,,,feedback_test
,,,,,psychophysics,496,1160306,0.0-10.0-0.0-0.0-0.1-0.111,919,,j,,,,,,,,,,,,,key,j,16.67144737,616,266.3333333,j,TRUE,img/H_ambi40.png,自我,same,
,,,,,html-keyboard-response,497,1160807,0.0-10.0-0.0-0.0-0.1-1.111,null,<span style='color:GreenYellow; font-size: 70px;'>正确! </span>,null,,,,,,,,,,,,,,,,,,,,,,,feedback_test
,,,,,psychophysics,498,1162622,0.0-10.0-0.0-0.0-0.1-0.112,814,,j,,,,,,,,,,,,,key,j,16.67159813,616,266.3333333,j,TRUE,img/C_ambi40.png,朋友,same,
,,,,,html-keyboard-response,499,1163123,0.0-10.0-0.0-0.0-0.1-1.112,null,<span style='color:GreenYellow; font-size: 70px;'>正确! </span>,null,,,,,,,,,,,,,,,,,,,,,,,feedback_test
,,,,,psychophysics,500,1164846,0.0-10.0-0.0-0.0-0.1-0.113,721,,f,,,,,,,,,,,,,key,f,16.67231373,616,266.3333333,f,TRUE,img/S_ambi40.png,自我,same,
,,,,,html-keyboard-response,501,1165348,0.0-10.0-0.0-0.0-0.1-1.113,null,<span style='color:GreenYellow; font-size: 70px;'>正确! </span>,null,,,,,,,,,,,,,,,,,,,,,,,feedback_test
,,,,,psychophysics,502,1167023,0.0-10.0-0.0-0.0-0.1-0.114,672,,j,,,,,,,,,,,,,key,j,16.67032323,616,266.3333333,j,TRUE,img/S_ambi40.png,朋友,same,
,,,,,html-keyboard-response,503,1167524,0.0-10.0-0.0-0.0-0.1-1.114,null,<span style='color:GreenYellow; font-size: 70px;'>正确! </span>,null,,,,,,,,,,,,,,,,,,,,,,,feedback_test
,,,,,psychophysics,504,1169118,0.0-10.0-0.0-0.0-0.1-0.115,592,,f,,,,,,,,,,,,,key,f,16.67231915,616,266.3333333,f,TRUE,img/H_ambi40.png,朋友,same,
,,,,,html-keyboard-response,505,1169621,0.0-10.0-0.0-0.0-0.1-1.115,null,<span style='color:GreenYellow; font-size: 70px;'>正确! </span>,null,,,,,,,,,,,,,,,,,,,,,,,feedback_test
,,,,,psychophysics,506,1171145,0.0-10.0-0.0-0.0-0.1-0.116,522,,f,,,,,,,,,,,,,key,f,16.67115556,616,266.3333333,f,TRUE,img/H_ambi40.png,朋友,same,
,,,,,html-keyboard-response,507,1171646,0.0-10.0-0.0-0.0-0.1-1.116,null,<span style='color:GreenYellow; font-size: 70px;'>正确! </span>,null,,,,,,,,,,,,,,,,,,,,,,,feedback_test
,,,,,psychophysics,508,1173644,0.0-10.0-0.0-0.0-0.1-0.117,996,,j,,,,,,,,,,,,,key,j,16.67208475,616,266.3333333,j,TRUE,img/S_ambi40.png,生人,same,
,,,,,html-keyboard-response,509,1174145,0.0-10.0-0.0-0.0-0.1-1.117,null,<span style='color:GreenYellow; font-size: 70px;'>正确! </span>,null,,,,,,,,,,,,,,,,,,,,,,,feedback_test
,,,,,psychophysics,510,1175963,0.0-10.0-0.0-0.0-0.1-0.118,815,,j,,,,,,,,,,,,,key,j,16.67100926,616,266.3333333,j,TRUE,img/C_ambi40.png,自我,same,
,,,,,html-keyboard-response,511,1176464,0.0-10.0-0.0-0.0-0.1-1.118,null,<span style='color:GreenYellow; font-size: 70px;'>正确! </span>,null,,,,,,,,,,,,,,,,,,,,,,,feedback_test
,,,,,psychophysics,512,1178287,0.0-10.0-0.0-0.0-0.1-0.119,821,,f,,,,,,,,,,,,,key,f,16.67128704,616,266.3333333,f,TRUE,img/C_ambi40.png,生人,same,
,,,,,html-keyboard-response,513,1178789,0.0-10.0-0.0-0.0-0.1-1.119,null,<span style='color:GreenYellow; font-size: 70px;'>正确! </span>,null,,,,,,,,,,,,,,,,,,,,,,,feedback_test
,,,,,psychophysics,514,1180425,0.0-10.0-0.0-0.0-0.1-0.120,634,,f,,,,,,,,,,,,,key,f,16.67097917,616,266.3333333,f,TRUE,img/T_ambi40.png,をる,same,
,,,,,html-keyboard-response,515,1180925,0.0-10.0-0.0-0.0-0.1-1.120,null,<span style='color:GreenYellow; font-size: 70px;'>正确! </span>,null,,,,,,,,,,,,,,,,,,,,,,,feedback_test
,,,,,psychophysics,516,1182607,0.0-10.0-0.0-0.0-0.1-0.121,680,,j,,,,,,,,,,,,,key,j,16.67147,616,266.3333333,j,TRUE,img/C_ambi40.png,自我,same,
,,,,,html-keyboard-response,517,1183108,0.0-10.0-0.0-0.0-0.1-1.121,null,<span style='color:GreenYellow; font-size: 70px;'>正确! </span>,null,,,,,,,,,,,,,,,,,,,,,,,feedback_test
,,,,,psychophysics,518,1184701,0.0-10.0-0.0-0.0-0.1-0.122,591,,f,,,,,,,,,,,,,key,f,16.67209474,616,266.3333333,f,TRUE,img/S_ambi40.png,自我,same,
,,,,,html-keyboard-response,519,1185203,0.0-10.0-0.0-0.0-0.1-1.122,null,<span style='color:GreenYellow; font-size: 70px;'>正确! </span>,null,,,,,,,,,,,,,,,,,,,,,,,feedback_test
,,,,,psychophysics,520,1186858,0.0-10.0-0.0-0.0-0.1-0.123,653,,j,,,,,,,,,,,,,key,j,16.67023469,616,266.3333333,j,TRUE,img/S_ambi40.png,朋友,same,
,,,,,html-keyboard-response,521,1187359,0.0-10.0-0.0-0.0-0.1-1.123,null,<span style='color:GreenYellow; font-size: 70px;'>正确! </span>,null,,,,,,,,,,,,,,,,,,,,,,,feedback_test
,,,,,psychophysics,522,1188924,0.0-10.0-0.0-0.0-0.1-0.124,562,,f,,,,,,,,,,,,,key,f,16.67212903,616,266.3333333,j,FALSE,img/H_ambi40.png,生人,same,
,,,,,html-keyboard-response,523,1189425,0.0-10.0-0.0-0.0-0.1-1.124,null,<span style='color:red; font-size: 70px;'>错误! </span>,null,,,,,,,,,,,,,,,,,,,,,,,feedback_test
,,,,,psychophysics,524,1190966,0.0-10.0-0.0-0.0-0.1-0.125,538,,f,,,,,,,,,,,,,key,f,16.67094505,616,266.3333333,f,TRUE,img/T_ambi40.png,をる,same,
,,,,,html-keyboard-response,525,1191466,0.0-10.0-0.0-0.0-0.1-1.125,null,<span style='color:GreenYellow; font-size: 70px;'>正确! </span>,null,,,,,,,,,,,,,,,,,,,,,,,feedback_test
,,,,,psychophysics,526,1193320,0.0-10.0-0.0-0.0-0.1-0.126,852,,f,,,,,,,,,,,,,key,f,16.67142727,616,266.3333333,f,TRUE,img/C_ambi40.png,生人,same,
,,,,,html-keyboard-response,527,1193822,0.0-10.0-0.0-0.0-0.1-1.126,null,<span style='color:GreenYellow; font-size: 70px;'>正确! </span>,null,,,,,,,,,,,,,,,,,,,,,,,feedback_test
,,,,,psychophysics,528,1195493,0.0-10.0-0.0-0.0-0.1-0.127,668,,j,,,,,,,,,,,,,key,j,16.6719697,616,266.3333333,j,TRUE,img/C_ambi40.png,自我,same,
,,,,,html-keyboard-response,529,1195993,0.0-10.0-0.0-0.0-0.1-1.127,null,<span style='color:GreenYellow; font-size: 70px;'>正确! </span>,null,,,,,,,,,,,,,,,,,,,,,,,feedback_test
,,,,,psychophysics,530,1197676,0.0-10.0-0.0-0.0-0.1-0.128,680,,j,,,,,,,,,,,,,key,j,16.6724,616,266.3333333,j,TRUE,img/H_ambi40.png,生人,same,
,,,,,html-keyboard-response,531,1198177,0.0-10.0-0.0-0.0-0.1-1.128,null,<span style='color:GreenYellow; font-size: 70px;'>正确! </span>,null,,,,,,,,,,,,,,,,,,,,,,,feedback_test
,,,,,psychophysics,532,1199886,0.0-10.0-0.0-0.0-0.1-0.129,708,,j,,,,,,,,,,,,,key,j,16.67096078,616,266.3333333,j,TRUE,img/H_ambi40.png,自我,same,
,,,,,html-keyboard-response,533,1200388,0.0-10.0-0.0-0.0-0.1-1.129,null,<span style='color:GreenYellow; font-size: 70px;'>正确! </span>,null,,,,,,,,,,,,,,,,,,,,,,,feedback_test
,,,,,psychophysics,534,1202215,0.0-10.0-0.0-0.0-0.1-0.130,825,,j,,,,,,,,,,,,,key,j,16.6727037,616,266.3333333,j,TRUE,img/H_ambi40.png,生人,same,
,,,,,html-keyboard-response,535,1202715,0.0-10.0-0.0-0.0-0.1-1.130,null,<span style='color:GreenYellow; font-size: 70px;'>正确! </span>,null,,,,,,,,,,,,,,,,,,,,,,,feedback_test
,,,,,psychophysics,536,1204433,0.0-10.0-0.0-0.0-0.1-0.131,716,,f,,,,,,,,,,,,,key,f,16.67158416,616,266.3333333,f,TRUE,img/H_ambi40.png,朋友,same,
,,,,,html-keyboard-response,537,1204945,0.0-10.0-0.0-0.0-0.1-1.131,null,<span style='color:GreenYellow; font-size: 70px;'>正确! </span>,null,,,,,,,,,,,,,,,,,,,,,,,feedback_test
,,,,,psychophysics,538,1206550,0.0-10.0-0.0-0.0-0.1-0.132,604,,j,,,,,,,,,,,,,key,j,16.67101053,616,266.3333333,j,TRUE,img/C_ambi40.png,自我,same,
,,,,,html-keyboard-response,539,1207051,0.0-10.0-0.0-0.0-0.1-1.132,null,<span style='color:GreenYellow; font-size: 70px;'>正确! </span>,null,,,,,,,,,,,,,,,,,,,,,,,feedback_test
,,,,,psychophysics,540,1208648,0.0-10.0-0.0-0.0-0.1-0.133,595,,f,,,,,,,,,,,,,key,f,16.67155319,616,266.3333333,f,TRUE,img/T_ambi40.png,をる,same,
,,,,,html-keyboard-response,541,1209149,0.0-10.0-0.0-0.0-0.1-1.133,null,<span style='color:GreenYellow; font-size: 70px;'>正确! </span>,null,,,,,,,,,,,,,,,,,,,,,,,feedback_test
,,,,,psychophysics,542,1210729,0.0-10.0-0.0-0.0-0.1-0.134,578,,f,,,,,,,,,,,,,key,f,16.67134043,616,266.3333333,f,TRUE,img/T_ambi40.png,をる,same,
,,,,,html-keyboard-response,543,1211231,0.0-10.0-0.0-0.0-0.1-1.134,null,<span style='color:GreenYellow; font-size: 70px;'>正确! </span>,null,,,,,,,,,,,,,,,,,,,,,,,feedback_test
,,,,,psychophysics,544,1212746,0.0-10.0-0.0-0.0-0.1-0.135,513,,f,,,,,,,,,,,,,key,f,16.67181111,616,266.3333333,f,TRUE,img/T_ambi40.png,をる,same,
,,,,,html-keyboard-response,545,1213247,0.0-10.0-0.0-0.0-0.1-1.135,null,<span style='color:GreenYellow; font-size: 70px;'>正确! </span>,null,,,,,,,,,,,,,,,,,,,,,,,feedback_test
,,,,,psychophysics,546,1214889,0.0-10.0-0.0-0.0-0.1-0.136,641,,j,,,,,,,,,,,,,key,j,16.67127835,616,266.3333333,j,TRUE,img/S_ambi40.png,朋友,same,
,,,,,html-keyboard-response,547,1215390,0.0-10.0-0.0-0.0-0.1-1.136,null,<span style='color:GreenYellow; font-size: 70px;'>正确! </span>,null,,,,,,,,,,,,,,,,,,,,,,,feedback_test
,,,,,psychophysics,548,1217276,0.0-10.0-0.0-0.0-0.1-0.137,885,,f,,,,,,,,,,,,,key,f,16.67150893,616,266.3333333,f,TRUE,img/H_ambi40.png,朋友,same,
,,,,,html-keyboard-response,549,1217778,0.0-10.0-0.0-0.0-0.1-1.137,null,<span style='color:GreenYellow; font-size: 70px;'>正确! </span>,null,,,,,,,,,,,,,,,,,,,,,,,feedback_test
,,,,,psychophysics,550,1219548,0.0-10.0-0.0-0.0-0.1-0.138,768,,j,,,,,,,,,,,,,key,j,16.67200952,616,266.3333333,j,TRUE,img/C_ambi40.png,朋友,same,
,,,,,html-keyboard-response,551,1220049,0.0-10.0-0.0-0.0-0.1-1.138,null,<span style='color:GreenYellow; font-size: 70px;'>正确! </span>,null,,,,,,,,,,,,,,,,,,,,,,,feedback_test
,,,,,psychophysics,552,1221602,0.0-10.0-0.0-0.0-0.1-0.139,551,,f,,,,,,,,,,,,,key,f,16.67229348,616,266.3333333,f,TRUE,img/S_ambi40.png,自我,same,
,,,,,html-keyboard-response,553,1222103,0.0-10.0-0.0-0.0-0.1-1.139,null,<span style='color:GreenYellow; font-size: 70px;'>正确! </span>,null,,,,,,,,,,,,,,,,,,,,,,,feedback_test
,,,,,psychophysics,554,1223706,0.0-10.0-0.0-0.0-0.1-0.140,602,,f,,,,,,,,,,,,,key,f,16.67104211,616,266.3333333,f,TRUE,img/C_ambi40.png,生人,same,
,,,,,html-keyboard-response,555,1224208,0.0-10.0-0.0-0.0-0.1-1.140,null,<span style='color:GreenYellow; font-size: 70px;'>正确! </span>,null,,,,,,,,,,,,,,,,,,,,,,,feedback_test
,,,,,psychophysics,556,1225779,0.0-10.0-0.0-0.0-0.1-0.141,570,,f,,,,,,,,,,,,,key,f,16.67107527,616,266.3333333,f,TRUE,img/S_ambi40.png,自我,same,
,,,,,html-keyboard-response,557,1226283,0.0-10.0-0.0-0.0-0.1-1.141,null,<span style='color:GreenYellow; font-size: 70px;'>正确! </span>,null,,,,,,,,,,,,,,,,,,,,,,,feedback_test
,,,,,psychophysics,558,1227917,0.0-10.0-0.0-0.0-0.1-0.142,634,,j,,,,,,,,,,,,,key,j,16.67119588,616,266.3333333,j,TRUE,img/S_ambi40.png,朋友,same,
,,,,,html-keyboard-response,559,1228419,0.0-10.0-0.0-0.0-0.1-1.142,null,<span style='color:GreenYellow; font-size: 70px;'>正确! </span>,null,,,,,,,,,,,,,,,,,,,,,,,feedback_test
,,,,,psychophysics,560,1230265,0.0-10.0-0.0-0.0-0.1-0.143,844,,j,,,,,,,,,,,,,key,j,16.67138182,616,266.3333333,j,TRUE,img/S_ambi40.png,生人,same,
,,,,,html-keyboard-response,561,1230768,0.0-10.0-0.0-0.0-0.1-1.143,null,<span style='color:GreenYellow; font-size: 70px;'>正确! </span>,null,,,,,,,,,,,,,,,,,,,,,,,feedback_test
,,,,,psychophysics,562,1232327,0.0-10.0-0.0-0.0-0.1-0.144,557,,f,,,,,,,,,,,,,key,f,16.67187097,616,266.3333333,f,TRUE,img/S_ambi40.png,自我,same,
,,,,,html-keyboard-response,563,1232829,0.0-10.0-0.0-0.0-0.1-1.144,null,<span style='color:GreenYellow; font-size: 70px;'>正确! </span>,null,,,,,,,,,,,,,,,,,,,,,,,feedback_test
,,,,,psychophysics,564,1234642,0.0-10.0-0.0-0.0-0.1-0.145,812,,j,,,,,,,,,,,,,key,j,16.67299065,616,266.3333333,j,TRUE,img/C_ambi40.png,自我,same,
,,,,,html-keyboard-response,565,1235143,0.0-10.0-0.0-0.0-0.1-1.145,null,<span style='color:GreenYellow; font-size: 70px;'>正确! </span>,null,,,,,,,,,,,,,,,,,,,,,,,feedback_test
,,,,,psychophysics,566,1236777,0.0-10.0-0.0-0.0-0.1-0.146,630,,f,,,,,,,,,,,,,key,f,16.67076042,616,266.3333333,f,TRUE,img/S_ambi40.png,自我,same,
,,,,,html-keyboard-response,567,1237279,0.0-10.0-0.0-0.0-0.1-1.146,null,<span style='color:GreenYellow; font-size: 70px;'>正确! </span>,null,,,,,,,,,,,,,,,,,,,,,,,feedback_test
,,,,,psychophysics,568,1238904,0.0-10.0-0.0-0.0-0.1-0.147,624,,j,,,,,,,,,,,,,key,j,16.67153125,616,266.3333333,j,TRUE,img/S_ambi40.png,朋友,same,
,,,,,html-keyboard-response,569,1239406,0.0-10.0-0.0-0.0-0.1-1.147,null,<span style='color:GreenYellow; font-size: 70px;'>正确! </span>,null,,,,,,,,,,,,,,,,,,,,,,,feedback_test
,,,,,psychophysics,570,1241003,0.0-10.0-0.0-0.0-0.1-0.148,593,,f,,,,,,,,,,,,,key,f,16.67115789,616,266.3333333,f,TRUE,img/H_ambi40.png,朋友,same,
,,,,,html-keyboard-response,571,1241506,0.0-10.0-0.0-0.0-0.1-1.148,null,<span style='color:GreenYellow; font-size: 70px;'>正确! </span>,null,,,,,,,,,,,,,,,,,,,,,,,feedback_test
,,,,,psychophysics,572,1243163,0.0-10.0-0.0-0.0-0.1-0.149,657,,j,,,,,,,,,,,,,key,j,16.67170408,616,266.3333333,j,TRUE,img/S_ambi40.png,朋友,same,
,,,,,html-keyboard-response,573,1243664,0.0-10.0-0.0-0.0-0.1-1.149,null,<span style='color:GreenYellow; font-size: 70px;'>正确! </span>,null,,,,,,,,,,,,,,,,,,,,,,,feedback_test
,,,,,psychophysics,574,1245337,0.0-10.0-0.0-0.0-0.1-0.150,670,,j,,,,,,,,,,,,,key,j,16.67118182,616,266.3333333,j,TRUE,img/S_ambi40.png,生人,same,
,,,,,html-keyboard-response,575,1245839,0.0-10.0-0.0-0.0-0.1-1.150,null,<span style='color:GreenYellow; font-size: 70px;'>正确! </span>,null,,,,,,,,,,,,,,,,,,,,,,,feedback_test
,,,,,psychophysics,576,1247606,0.0-10.0-0.0-0.0-0.1-0.151,765,,f,,,,,,,,,,,,,key,f,16.6696,616,266.3333333,f,TRUE,img/C_ambi40.png,生人,same,
,,,,,html-keyboard-response,577,1248108,0.0-10.0-0.0-0.0-0.1-1.151,null,<span style='color:GreenYellow; font-size: 70px;'>正确! </span>,null,,,,,,,,,,,,,,,,,,,,,,,feedback_test
,,,,,psychophysics,578,1249709,0.0-10.0-0.0-0.0-0.1-0.152,597,,f,,,,,,,,,,,,,key,f,16.67063158,616,266.3333333,f,TRUE,img/H_ambi40.png,朋友,same,
,,,,,html-keyboard-response,579,1250221,0.0-10.0-0.0-0.0-0.1-1.152,null,<span style='color:GreenYellow; font-size: 70px;'>正确! </span>,null,,,,,,,,,,,,,,,,,,,,,,,feedback_test
,,,,,psychophysics,580,1252129,0.0-10.0-0.0-0.0-0.1-0.153,906,,j,,,,,,,,,,,,,key,j,16.67160177,616,266.3333333,j,TRUE,img/C_ambi40.png,自我,same,
,,,,,html-keyboard-response,581,1252631,0.0-10.0-0.0-0.0-0.1-1.153,null,<span style='color:GreenYellow; font-size: 70px;'>正确! </span>,null,,,,,,,,,,,,,,,,,,,,,,,feedback_test
,,,,,psychophysics,582,1254401,0.0-10.0-0.0-0.0-0.1-0.154,768,,j,,,,,,,,,,,,,key,j,16.6719619,616,266.3333333,j,TRUE,img/H_ambi40.png,生人,same,
,,,,,html-keyboard-response,583,1254904,0.0-10.0-0.0-0.0-0.1-1.154,null,<span style='color:GreenYellow; font-size: 70px;'>正确! </span>,null,,,,,,,,,,,,,,,,,,,,,,,feedback_test
,,,,,psychophysics,584,1256605,0.0-10.0-0.0-0.0-0.1-0.155,699,,f,,,,,,,,,,,,,key,f,16.67133663,616,266.3333333,f,TRUE,img/C_ambi40.png,生人,same,
,,,,,html-keyboard-response,585,1257108,0.0-10.0-0.0-0.0-0.1-1.155,null,<span style='color:GreenYellow; font-size: 70px;'>正确! </span>,null,,,,,,,,,,,,,,,,,,,,,,,feedback_test
,,,,,psychophysics,586,1258648,0.0-10.0-0.0-0.0-0.1-0.156,538,,f,,,,,,,,,,,,,key,f,16.67214286,616,266.3333333,f,TRUE,img/T_ambi40.png,をる,same,
,,,,,html-keyboard-response,587,1259150,0.0-10.0-0.0-0.0-0.1-1.156,null,<span style='color:GreenYellow; font-size: 70px;'>正确! </span>,null,,,,,,,,,,,,,,,,,,,,,,,feedback_test
,,,,,psychophysics,588,1261214,0.0-10.0-0.0-0.0-0.1-0.157,1063,,j,,,,,,,,,,,,,key,j,16.671,616,266.3333333,j,TRUE,img/C_ambi40.png,朋友,same,
,,,,,html-keyboard-response,589,1261715,0.0-10.0-0.0-0.0-0.1-1.157,null,<span style='color:GreenYellow; font-size: 70px;'>正确! </span>,null,,,,,,,,,,,,,,,,,,,,,,,feedback_test
,,,,,psychophysics,590,1263338,0.0-10.0-0.0-0.0-0.1-0.158,622,,j,,,,,,,,,,,,,key,j,16.670375,616,266.3333333,j,TRUE,img/H_ambi40.png,生人,same,
,,,,,html-keyboard-response,591,1263840,0.0-10.0-0.0-0.0-0.1-1.158,null,<span style='color:GreenYellow; font-size: 70px;'>正确! </span>,null,,,,,,,,,,,,,,,,,,,,,,,feedback_test
,,,,,psychophysics,592,1265606,0.0-10.0-0.0-0.0-0.1-0.159,763,,j,,,,,,,,,,,,,key,j,16.67178095,616,266.3333333,j,TRUE,img/H_ambi40.png,自我,same,
,,,,,html-keyboard-response,593,1266108,0.0-10.0-0.0-0.0-0.1-1.159,null,<span style='color:GreenYellow; font-size: 70px;'>正确! </span>,null,,,,,,,,,,,,,,,,,,,,,,,feedback_test
,,,,,psychophysics,594,1267619,0.0-10.0-0.0-0.0-0.1-0.160,508,,f,,,,,,,,,,,,,key,f,16.67169663,616,266.3333333,f,TRUE,img/T_ambi40.png,をる,same,
,,,,,html-keyboard-response,595,1268119,0.0-10.0-0.0-0.0-0.1-1.160,null,<span style='color:GreenYellow; font-size: 70px;'>正确! </span>,null,,,,,,,,,,,,,,,,,,,,,,,feedback_test
,,,,,psychophysics,596,1269613,0.0-10.0-0.0-0.0-0.1-0.161,493,,f,,,,,,,,,,,,,key,f,16.67131818,616,266.3333333,f,TRUE,img/T_ambi40.png,をる,same,
,,,,,html-keyboard-response,597,1270115,0.0-10.0-0.0-0.0-0.1-1.161,null,<span style='color:GreenYellow; font-size: 70px;'>正确! </span>,null,,,,,,,,,,,,,,,,,,,,,,,feedback_test
,,,,,psychophysics,598,1271832,0.0-10.0-0.0-0.0-0.1-0.162,714,,j,,,,,,,,,,,,,key,j,16.67231373,616,266.3333333,f,FALSE,img/H_ambi40.png,朋友,same,
,,,,,html-keyboard-response,599,1272333,0.0-10.0-0.0-0.0-0.1-1.162,null,<span style='color:red; font-size: 70px;'>错误! </span>,null,,,,,,,,,,,,,,,,,,,,,,,feedback_test
,,,,,psychophysics,600,1274062,0.0-10.0-0.0-0.0-0.1-0.163,728,,j,,,,,,,,,,,,,key,j,16.67137864,616,266.3333333,j,TRUE,img/S_ambi40.png,朋友,same,
,,,,,html-keyboard-response,601,1274565,0.0-10.0-0.0-0.0-0.1-1.163,null,<span style='color:GreenYellow; font-size: 70px;'>正确! </span>,null,,,,,,,,,,,,,,,,,,,,,,,feedback_test
,,,,,psychophysics,602,1276272,0.0-10.0-0.0-0.0-0.1-0.164,704,,j,,,,,,,,,,,,,key,j,16.67068317,616,266.3333333,j,TRUE,img/C_ambi40.png,自我,same,
,,,,,html-keyboard-response,603,1276774,0.0-10.0-0.0-0.0-0.1-1.164,null,<span style='color:GreenYellow; font-size: 70px;'>正确! </span>,null,,,,,,,,,,,,,,,,,,,,,,,feedback_test
,,,,,psychophysics,604,1278525,0.0-10.0-0.0-0.0-0.1-0.165,750,,j,,,,,,,,,,,,,key,j,16.67222115,616,266.3333333,j,TRUE,img/H_ambi40.png,自我,same,
,,,,,html-keyboard-response,605,1279026,0.0-10.0-0.0-0.0-0.1-1.165,null,<span style='color:GreenYellow; font-size: 70px;'>正确! </span>,null,,,,,,,,,,,,,,,,,,,,,,,feedback_test
,,,,,psychophysics,606,1280688,0.0-10.0-0.0-0.0-0.1-0.166,658,,j,,,,,,,,,,,,,key,j,16.67094898,616,266.3333333,j,TRUE,img/C_ambi40.png,自我,same,
,,,,,html-keyboard-response,607,1281188,0.0-10.0-0.0-0.0-0.1-1.166,null,<span style='color:GreenYellow; font-size: 70px;'>正确! </span>,null,,,,,,,,,,,,,,,,,,,,,,,feedback_test
,,,,,psychophysics,608,1282649,0.0-10.0-0.0-0.0-0.1-0.167,459,,f,,,,,,,,,,,,,key,f,16.66938372,616,266.3333333,f,TRUE,img/S_ambi40.png,自我,same,
,,,,,html-keyboard-response,609,1283150,0.0-10.0-0.0-0.0-0.1-1.167,null,<span style='color:GreenYellow; font-size: 70px;'>正确! </span>,null,,,,,,,,,,,,,,,,,,,,,,,feedback_test
,,,,,psychophysics,610,1285035,0.0-10.0-0.0-0.0-0.1-0.168,882,,f,,,,,,,,,,,,,key,f,16.67085714,616,266.3333333,f,TRUE,img/C_ambi40.png,生人,same,
,,,,,html-keyboard-response,611,1285538,0.0-10.0-0.0-0.0-0.1-1.168,null,<span style='color:GreenYellow; font-size: 70px;'>正确! </span>,null,,,,,,,,,,,,,,,,,,,,,,,feedback_test
,,,,,psychophysics,612,1287153,0.0-10.0-0.0-0.0-0.1-0.169,614,,j,,,,,,,,,,,,,key,j,16.67184375,616,266.3333333,j,TRUE,img/H_ambi40.png,生人,same,
,,,,,html-keyboard-response,613,1287654,0.0-10.0-0.0-0.0-0.1-1.169,null,<span style='color:GreenYellow; font-size: 70px;'>正确! </span>,null,,,,,,,,,,,,,,,,,,,,,,,feedback_test
,,,,,psychophysics,614,1289540,0.0-10.0-0.0-0.0-0.1-0.170,884,,j,,,,,,,,,,,,,key,j,16.67166964,616,266.3333333,j,TRUE,img/S_ambi40.png,生人,same,
,,,,,html-keyboard-response,615,1290041,0.0-10.0-0.0-0.0-0.1-1.170,null,<span style='color:GreenYellow; font-size: 70px;'>正确! </span>,null,,,,,,,,,,,,,,,,,,,,,,,feedback_test
,,,,,psychophysics,616,1292017,0.0-10.0-0.0-0.0-0.1-0.171,975,,j,,,,,,,,,,,,,key,j,16.67052991,616,266.3333333,j,TRUE,img/S_ambi40.png,朋友,same,
,,,,,html-keyboard-response,617,1292519,0.0-10.0-0.0-0.0-0.1-1.171,null,<span style='color:GreenYellow; font-size: 70px;'>正确! </span>,null,,,,,,,,,,,,,,,,,,,,,,,feedback_test
,,,,,psychophysics,618,1294220,0.0-10.0-0.0-0.0-0.1-0.172,700,,f,,,,,,,,,,,,,key,f,16.67275248,616,266.3333333,f,TRUE,img/C_ambi40.png,生人,same,
,,,,,html-keyboard-response,619,1294728,0.0-10.0-0.0-0.0-0.1-1.172,null,<span style='color:GreenYellow; font-size: 70px;'>正确! </span>,null,,,,,,,,,,,,,,,,,,,,,,,feedback_test
,,,,,psychophysics,620,1296342,0.0-10.0-0.0-0.0-0.1-0.173,613,,f,,,,,,,,,,,,,key,f,16.67124211,616,266.3333333,f,TRUE,img/T_ambi40.png,をる,same,
,,,,,html-keyboard-response,621,1296844,0.0-10.0-0.0-0.0-0.1-1.173,null,<span style='color:GreenYellow; font-size: 70px;'>正确! </span>,null,,,,,,,,,,,,,,,,,,,,,,,feedback_test
,,,,,psychophysics,622,1298312,0.0-10.0-0.0-0.0-0.1-0.174,467,,f,,,,,,,,,,,,,key,f,16.67127907,616,266.3333333,f,TRUE,img/T_ambi40.png,をる,same,
,,,,,html-keyboard-response,623,1298814,0.0-10.0-0.0-0.0-0.1-1.174,null,<span style='color:GreenYellow; font-size: 70px;'>正确! </span>,null,,,,,,,,,,,,,,,,,,,,,,,feedback_test
,,,,,psychophysics,624,1300786,0.0-10.0-0.0-0.0-0.1-0.175,969,,f,,,,,,,,,,,,,key,f,16.67097436,616,266.3333333,f,TRUE,img/S_ambi40.png,自我,same,
,,,,,html-keyboard-response,625,1301288,0.0-10.0-0.0-0.0-0.1-1.175,null,<span style='color:GreenYellow; font-size: 70px;'>正确! </span>,null,,,,,,,,,,,,,,,,,,,,,,,feedback_test
,,,,,psychophysics,626,1302918,0.0-10.0-0.0-0.0-0.1-0.176,628,,j,,,,,,,,,,,,,key,j,16.67060825,616,266.3333333,j,TRUE,img/C_ambi40.png,朋友,same,
,,,,,html-keyboard-response,627,1303420,0.0-10.0-0.0-0.0-0.1-1.176,null,<span style='color:GreenYellow; font-size: 70px;'>正确! </span>,null,,,,,,,,,,,,,,,,,,,,,,,feedback_test
,,,,,psychophysics,628,1305102,0.0-10.0-0.0-0.0-0.1-0.177,679,,j,,,,,,,,,,,,,key,j,16.67061,616,266.3333333,j,TRUE,img/H_ambi40.png,生人,same,
,,,,,html-keyboard-response,629,1305603,0.0-10.0-0.0-0.0-0.1-1.177,null,<span style='color:GreenYellow; font-size: 70px;'>正确! </span>,null,,,,,,,,,,,,,,,,,,,,,,,feedback_test
,,,,,psychophysics,630,1307144,0.0-10.0-0.0-0.0-0.1-0.178,540,,f,,,,,,,,,,,,,key,f,16.67162637,616,266.3333333,f,TRUE,img/H_ambi40.png,朋友,same,
,,,,,html-keyboard-response,631,1307644,0.0-10.0-0.0-0.0-0.1-1.178,null,<span style='color:GreenYellow; font-size: 70px;'>正确! </span>,null,,,,,,,,,,,,,,,,,,,,,,,feedback_test
,,,,,psychophysics,632,1309248,0.0-10.0-0.0-0.0-0.1-0.179,603,,f,,,,,,,,,,,,,key,f,16.67067368,616,266.3333333,f,TRUE,img/T_ambi40.png,をる,same,
,,,,,html-keyboard-response,633,1309750,0.0-10.0-0.0-0.0-0.1-1.179,null,<span style='color:GreenYellow; font-size: 70px;'>正确! </span>,null,,,,,,,,,,,,,,,,,,,,,,,feedback_test
,,,,,psychophysics,634,1311381,0.0-10.0-0.0-0.0-0.1-0.180,629,,j,,,,,,,,,,,,,key,j,16.67126042,616,266.3333333,j,TRUE,img/C_ambi40.png,朋友,same,
,,,,,html-keyboard-response,635,1311882,0.0-10.0-0.0-0.0-0.1-1.180,null,<span style='color:GreenYellow; font-size: 70px;'>正确! </span>,null,,,,,,,,,,,,,,,,,,,,,,,feedback_test
,,,,,psychophysics,636,1313465,0.0-10.0-0.0-0.0-0.1-0.181,582,,f,,,,,,,,,,,,,key,f,16.67221505,616,266.3333333,f,TRUE,img/S_ambi40.png,自我,same,
,,,,,html-keyboard-response,637,1313967,0.0-10.0-0.0-0.0-0.1-1.181,null,<span style='color:GreenYellow; font-size: 70px;'>正确! </span>,null,,,,,,,,,,,,,,,,,,,,,,,feedback_test
,,,,,psychophysics,638,1315491,0.0-10.0-0.0-0.0-0.1-0.182,523,,f,,,,,,,,,,,,,key,f,16.67126667,616,266.3333333,f,TRUE,img/T_ambi40.png,をる,same,
,,,,,html-keyboard-response,639,1315992,0.0-10.0-0.0-0.0-0.1-1.182,null,<span style='color:GreenYellow; font-size: 70px;'>正确! </span>,null,,,,,,,,,,,,,,,,,,,,,,,feedback_test
,,,,,psychophysics,640,1317608,0.0-10.0-0.0-0.0-0.1-0.183,614,,j,,,,,,,,,,,,,key,j,16.67011458,616,266.3333333,j,TRUE,img/H_ambi40.png,生人,same,
,,,,,html-keyboard-response,641,1318109,0.0-10.0-0.0-0.0-0.1-1.183,null,<span style='color:GreenYellow; font-size: 70px;'>正确! </span>,null,,,,,,,,,,,,,,,,,,,,,,,feedback_test
