"success","timeout","failed_images","failed_audio","failed_video","trial_type","trial_index","time_elapsed","internal_node_id","rt","stimulus","response","value","item_width_mm","item_height_mm","item_width_px","px2mm","view_dist_mm","item_width_deg","px2deg","scale_factor","win_width_deg","win_height_deg","view_history","response_type","key_press","avg_frame_time","center_x","center_y","correct_response","correct","Image","word","condition","screen_id"
"true","false","[]","[]","[]","preload","0","374","0.0-0.0","","","","","","","","","","","","","","","","","","","","","","","","","",""
"","","","","","html-keyboard-response","1","18026","0.0-1.0","17651","
     <p>您好，欢迎参加本次实验。</p>
     <p>为充分保障您的权利，请确保您已经知晓并同意《参与实验同意书》以及《数据公开知情同意书》。</p>
     <p>如果您未见过上述内容，请咨询实验员。</p>
     <p>如果您选择继续实验，则表示您已经清楚两份知情同意书的内容并同意。</p>
     <p> <div style = ""color: green""><按任意键至下页></div> </p>
     ","arrowdown","","","","","","","","","","","","","","","","","","","","","","",""
"","","","","","html-keyboard-response","2","18414","0.0-2.0","388","
     <p>本实验首先需要您填写一些基本个人信息。</p>
     <p> <div style = ""color: green""><按任意键至下页></div></p>
     ","arrowdown","","","","","","","","","","","","","","","","","","","","","","",""
"","","","","","call-function","3","18415","0.0-3.0-0.0","","","","","","","","","","","","","","","","","","","","","","","","","",""
"","","","","","survey-html-form","4","21397","0.0-3.0-1.0","2981","","{""Q0"":""20""}","","","","","","","","","","","","","","","","","","","","","","",""
"","","","","","html-button-response","5","22675","0.0-3.0-2.0","1276","<p style = 'color : white'>您的性别</p>","1","","","","","","","","","","","","","","","","","","","","","","",""
"","","","","","survey-html-form","6","26169","0.0-3.0-3.0","3493","","{""Q0"":""2004""}","","","","","","","","","","","","","","","","","","","","","","",""
"","","","","","survey-html-form","7","29147","0.0-3.0-4.0","2977","","{""Q0"":""5""}","","","","","","","","","","","","","","","","","","","","","","",""
"","","","","","virtual-chinrest","8","94636","0.0-4.0","65489","","","","85.6","53.98","503.62192177932025","5.8834336656462645","485.67","10.072438435586404","50","0.8498438639999141","28.28","13.92","","","","","","","","","","","",""
"true","","","","","fullscreen","9","96943","0.0-5.0","","","","","","","","","","","","","","","","","","","","","","","","","",""
"","","","","","instructions","10","196266","0.0-6.0","99324","","","","","","","","","","","","","","[{""page_index"":0,""viewing_time"":4197},{""page_index"":1,""viewing_time"":91885},{""page_index"":2,""viewing_time"":2658},{""page_index"":3,""viewing_time"":583}]","","","","","","","","","","",""
"","","","","","psychophysics","11","197655","0.0-7.0-0.0","379","","f","","","","","","","","","","","","","key","f","16.667000000000215","720","446","j","false","img/S_ambi40.png","生人","prac",""
"","","","","","html-keyboard-response","12","198163","0.0-7.0-1.0","null","<span style='color:red; font-size: 70px;'>错误! </span>","null","","","","","","","","","","","","","","","","","","","","","","","feedback_test"
"","","","","","psychophysics","13","199235","0.0-7.0-0.1","65","","j","","","","","","","","","","","","","key","j","16.667000000000126","720","446","f","false","img/C_ambi40.png","朋友","prac",""
"","","","","","html-keyboard-response","14","199737","0.0-7.0-1.1","null","<span style='color:yellow; font-size: 70px;'>过快! </span>","null","","","","","","","","","","","","","","","","","","","","","","","feedback_test"
"","","","","","psychophysics","15","200921","0.0-7.0-0.2","176","","j","","","","","","","","","","","","","key","j","16.667000000000034","720","446","j","true","img/S_ambi40.png","朋友","prac",""
"","","","","","html-keyboard-response","16","201427","0.0-7.0-1.2","null","<span style='color:yellow; font-size: 70px;'>过快! </span>","null","","","","","","","","","","","","","","","","","","","","","","","feedback_test"
"","","","","","psychophysics","17","203240","0.0-7.0-0.3","810","","j","","","","","","","","","","","","","key","j","16.667000000000055","720","446","f","false","img/C_ambi40.png","朋友","prac",""
"","","","","","html-keyboard-response","18","203744","0.0-7.0-1.3","null","<span style='color:red; font-size: 70px;'>错误! </span>","null","","","","","","","","","","","","","","","","","","","","","","","feedback_test"
"","","","","","psychophysics","19","205499","0.0-7.0-0.4","752","","f","","","","","","","","","","","","","key","f","16.66700000000016","720","446","f","true","img/T_ambi40.png","をる","prac",""
"","","","","","html-keyboard-response","20","206000","0.0-7.0-1.4","null","<span style='color:GreenYellow; font-size: 70px;'>正确! </span>","null","","","","","","","","","","","","","","","","","","","","","","","feedback_test"
"","","","","","psychophysics","21","207216","0.0-7.0-0.5","205","","f","","","","","","","","","","","","","key","f","16.66700000000007","720","446","j","false","img/H_ambi40.png","朋友","prac",""
"","","","","","html-keyboard-response","22","207720","0.0-7.0-1.5","null","<span style='color:red; font-size: 70px;'>错误! </span>","null","","","","","","","","","","","","","","","","","","","","","","","feedback_test"
"","","","","","psychophysics","23","208865","0.0-7.0-0.6","139","","j","","","","","","","","","","","","","key","j","16.666999999999998","720","446","j","true","img/C_ambi40.png","生人","prac",""
"","","","","","html-keyboard-response","24","209369","0.0-7.0-1.6","null","<span style='color:yellow; font-size: 70px;'>过快! </span>","null","","","","","","","","","","","","","","","","","","","","","","","feedback_test"
"","","","","","psychophysics","25","211337","0.0-7.0-0.7","960","","f","","","","","","","","","","","","","key","f","16.666999999999913","720","446","f","true","img/H_ambi40.png","生人","prac",""
"","","","","","html-keyboard-response","26","211841","0.0-7.0-1.7","null","<span style='color:GreenYellow; font-size: 70px;'>正确! </span>","null","","","","","","","","","","","","","","","","","","","","","","","feedback_test"
"","","","","","psychophysics","27","213102","0.0-7.0-0.8","260","","f","","","","","","","","","","","","","key","f","16.667675675675618","720","446","f","true","img/S_ambi40.png","自我","prac",""
"","","","","","html-keyboard-response","28","213609","0.0-7.0-1.8","null","<span style='color:GreenYellow; font-size: 70px;'>正确! </span>","null","","","","","","","","","","","","","","","","","","","","","","","feedback_test"
"","","","","","psychophysics","29","214863","0.0-7.0-0.9","252","","f","","","","","","","","","","","","","key","f","16.666999999999707","720","446","f","true","img/H_ambi40.png","生人","prac",""
"","","","","","html-keyboard-response","30","215369","0.0-7.0-1.9","null","<span style='color:GreenYellow; font-size: 70px;'>正确! </span>","null","","","","","","","","","","","","","","","","","","","","","","","feedback_test"
"","","","","","psychophysics","31","217122","0.0-7.0-0.10","745","","f","","","","","","","","","","","","","key","f","16.66700000000016","720","446","f","true","img/T_ambi40.png","をる","prac",""
"","","","","","html-keyboard-response","32","217624","0.0-7.0-1.10","null","<span style='color:GreenYellow; font-size: 70px;'>正确! </span>","null","","","","","","","","","","","","","","","","","","","","","","","feedback_test"
"","","","","","psychophysics","33","218888","0.0-7.0-0.11","261","","f","","","","","","","","","","","","","key","f","16.6670000000001","720","446","f","true","img/T_ambi40.png","をる","prac",""
"","","","","","html-keyboard-response","34","219394","0.0-7.0-1.11","null","<span style='color:GreenYellow; font-size: 70px;'>正确! </span>","null","","","","","","","","","","","","","","","","","","","","","","","feedback_test"
"","","","","","psychophysics","35","220669","0.0-7.0-0.12","266","","f","","","","","","","","","","","","","key","f","16.666999999999923","720","446","j","false","img/C_ambi40.png","自我","prac",""
"","","","","","html-keyboard-response","36","221176","0.0-7.0-1.12","null","<span style='color:red; font-size: 70px;'>错误! </span>","null","","","","","","","","","","","","","","","","","","","","","","","feedback_test"
"","","","","","psychophysics","37","222380","0.0-7.0-0.13","202","","j","","","","","","","","","","","","","key","j","16.666999999999845","720","446","f","false","img/T_ambi40.png","をる","prac",""
"","","","","","html-keyboard-response","38","222891","0.0-7.0-1.13","null","<span style='color:red; font-size: 70px;'>错误! </span>","null","","","","","","","","","","","","","","","","","","","","","","","feedback_test"
"","","","","","psychophysics","39","223974","0.0-7.0-0.14","80","","j","","","","","","","","","","","","","key","j","16.667603174602846","720","446","f","false","img/S_ambi40.png","自我","prac",""
"","","","","","html-keyboard-response","40","224482","0.0-7.0-1.14","null","<span style='color:yellow; font-size: 70px;'>过快! </span>","null","","","","","","","","","","","","","","","","","","","","","","","feedback_test"
"","","","","","psychophysics","41","225672","0.0-7.0-0.15","181","","j","","","","","","","","","","","","","key","j","16.667000000000034","720","446","j","true","img/H_ambi40.png","自我","prac",""
"","","","","","html-keyboard-response","42","226180","0.0-7.0-1.15","null","<span style='color:yellow; font-size: 70px;'>过快! </span>","null","","","","","","","","","","","","","","","","","","","","","","","feedback_test"
"","","","","","psychophysics","43","227198","0.0-7.0-0.16","4","","j","","","","","","","","","","","","","key","j","16.66700000000031","720","446","f","false","img/S_ambi40.png","自我","prac",""
"","","","","","html-keyboard-response","44","227708","0.0-7.0-1.16","null","<span style='color:yellow; font-size: 70px;'>过快! </span>","null","","","","","","","","","","","","","","","","","","","","","","","feedback_test"
"","","","","","psychophysics","45","228791","0.0-7.0-0.17","80","","f","","","","","","","","","","","","","key","f","16.667000000000126","720","446","f","true","img/H_ambi40.png","生人","prac",""
"","","","","","html-keyboard-response","46","229299","0.0-7.0-1.17","null","<span style='color:yellow; font-size: 70px;'>过快! </span>","null","","","","","","","","","","","","","","","","","","","","","","","feedback_test"
"","","","","","psychophysics","47","230515","0.0-7.0-0.18","207","","f","","","","","","","","","","","","","key","f","16.66700000000007","720","446","j","false","img/S_ambi40.png","朋友","prac",""
"","","","","","html-keyboard-response","48","231019","0.0-7.0-1.18","null","<span style='color:red; font-size: 70px;'>错误! </span>","null","","","","","","","","","","","","","","","","","","","","","","","feedback_test"
"","","","","","psychophysics","49","232174","0.0-7.0-0.19","148","","j","","","","","","","","","","","","","key","j","16.666999999999998","720","446","j","true","img/S_ambi40.png","生人","prac",""
"","","","","","html-keyboard-response","50","232682","0.0-7.0-1.19","null","<span style='color:yellow; font-size: 70px;'>过快! </span>","null","","","","","","","","","","","","","","","","","","","","","","","feedback_test"
"","","","","","psychophysics","51","233801","0.0-7.0-0.20","110","","j","","","","","","","","","","","","","key","j","16.66699999999996","720","446","j","true","img/H_ambi40.png","自我","prac",""
"","","","","","html-keyboard-response","52","234308","0.0-7.0-1.20","null","<span style='color:yellow; font-size: 70px;'>过快! </span>","null","","","","","","","","","","","","","","","","","","","","","","","feedback_test"
"","","","","","psychophysics","53","235509","0.0-7.0-0.21","193","","j","","","","","","","","","","","","","key","j","16.667000000000034","720","446","j","true","img/C_ambi40.png","自我","prac",""
"","","","","","html-keyboard-response","54","236016","0.0-7.0-1.21","null","<span style='color:yellow; font-size: 70px;'>过快! </span>","null","","","","","","","","","","","","","","","","","","","","","","","feedback_test"
"","","","","","psychophysics","55","237230","0.0-7.0-0.22","206","","j","","","","","","","","","","","","","key","j","16.66700000000007","720","446","j","true","img/H_ambi40.png","朋友","prac",""
"","","","","","html-keyboard-response","56","237736","0.0-7.0-1.22","null","<span style='color:GreenYellow; font-size: 70px;'>正确! </span>","null","","","","","","","","","","","","","","","","","","","","","","","feedback_test"
"","","","","","psychophysics","57","239189","0.0-7.0-0.23","446","","j","","","","","","","","","","","","","key","j","16.667000000000264","720","446","f","false","img/C_ambi40.png","朋友","prac",""
"","","","","","html-keyboard-response","58","239695","0.0-7.0-1.23","null","<span style='color:red; font-size: 70px;'>错误! </span>","null","","","","","","","","","","","","","","","","","","","","","","","feedback_test"
"","","","","","psychophysics","59","241054","0.0-7.0-0.24","346","","f","","","","","","","","","","","","","key","f","16.66700000000019","720","446","f","true","img/C_ambi40.png","朋友","prac",""
"","","","","","html-keyboard-response","60","241560","0.0-7.0-1.24","null","<span style='color:GreenYellow; font-size: 70px;'>正确! </span>","null","","","","","","","","","","","","","","","","","","","","","","","feedback_test"
"","","","","","psychophysics","61","243246","0.0-7.0-0.25","679","","f","","","","","","","","","","","","","key","f","16.66737000000023","720","446","f","true","img/T_ambi40.png","をる","prac",""
"","","","","","html-keyboard-response","62","243755","0.0-7.0-1.25","null","<span style='color:GreenYellow; font-size: 70px;'>正确! </span>","null","","","","","","","","","","","","","","","","","","","","","","","feedback_test"
"","","","","","psychophysics","63","245135","0.0-7.0-0.26","376","","f","","","","","","","","","","","","","key","f","16.66699999999986","720","446","f","true","img/T_ambi40.png","をる","prac",""
"","","","","","html-keyboard-response","64","245644","0.0-7.0-1.26","null","<span style='color:GreenYellow; font-size: 70px;'>正确! </span>","null","","","","","","","","","","","","","","","","","","","","","","","feedback_test"
"","","","","","psychophysics","65","246956","0.0-7.0-0.27","311","","j","","","","","","","","","","","","","key","j","16.66699999999996","720","446","f","false","img/T_ambi40.png","をる","prac",""
"","","","","","html-keyboard-response","66","247465","0.0-7.0-1.27","null","<span style='color:red; font-size: 70px;'>错误! </span>","null","","","","","","","","","","","","","","","","","","","","","","","feedback_test"
"","","","","","psychophysics","67","248705","0.0-7.0-0.28","231","","f","","","","","","","","","","","","","key","f","16.667000000000282","720","446","f","true","img/T_ambi40.png","をる","prac",""
"","","","","","html-keyboard-response","68","249210","0.0-7.0-1.28","null","<span style='color:GreenYellow; font-size: 70px;'>正确! </span>","null","","","","","","","","","","","","","","","","","","","","","","","feedback_test"
"","","","","","psychophysics","69","250471","0.0-7.0-0.29","260","","f","","","","","","","","","","","","","key","f","16.6670000000001","720","446","f","true","img/S_ambi40.png","自我","prac",""
"","","","","","html-keyboard-response","70","250978","0.0-7.0-1.29","null","<span style='color:GreenYellow; font-size: 70px;'>正确! </span>","null","","","","","","","","","","","","","","","","","","","","","","","feedback_test"
"","","","","","psychophysics","71","252253","0.0-7.0-0.30","273","","f","","","","","","","","","","","","","key","f","16.666999999999923","720","446","f","true","img/H_ambi40.png","生人","prac",""
"","","","","","html-keyboard-response","72","252760","0.0-7.0-1.30","null","<span style='color:GreenYellow; font-size: 70px;'>正确! </span>","null","","","","","","","","","","","","","","","","","","","","","","","feedback_test"
"","","","","","psychophysics","73","254386","0.0-7.0-0.31","624","","f","","","","","","","","","","","","","key","f","16.66700000000007","720","446","j","false","img/C_ambi40.png","生人","prac",""
"","","","","","html-keyboard-response","74","254891","0.0-7.0-1.31","null","<span style='color:red; font-size: 70px;'>错误! </span>","null","","","","","","","","","","","","","","","","","","","","","","","feedback_test"
"","","","","","psychophysics","75","256673","0.0-8.0-0.0-0.0","780","","j","","","","","","","","","","","","","key","j","16.667000000000034","720","446","j","true","img/C_ambi40.png","生人","prac",""
"","","","","","html-keyboard-response","76","257177","0.0-8.0-0.0-1.0","null","<span style='color:GreenYellow; font-size: 70px;'>正确! </span>","null","","","","","","","","","","","","","","","","","","","","","","","feedback_test"
"","","","","","psychophysics","77","258437","0.0-8.0-0.0-0.1","255","","f","","","","","","","","","","","","","key","f","16.6670000000001","720","446","f","true","img/C_ambi40.png","朋友","prac",""
"","","","","","html-keyboard-response","78","258943","0.0-8.0-0.0-1.1","null","<span style='color:GreenYellow; font-size: 70px;'>正确! </span>","null","","","","","","","","","","","","","","","","","","","","","","","feedback_test"
"","","","","","psychophysics","79","260206","0.0-8.0-0.0-0.2","252","","f","","","","","","","","","","","","","key","f","16.666999999999707","720","446","j","false","img/C_ambi40.png","自我","prac",""
"","","","","","html-keyboard-response","80","260711","0.0-8.0-0.0-1.2","null","<span style='color:red; font-size: 70px;'>错误! </span>","null","","","","","","","","","","","","","","","","","","","","","","","feedback_test"
"","","","","","psychophysics","81","262068","0.0-8.0-0.0-0.3","350","","j","","","","","","","","","","","","","key","j","16.66700000000019","720","446","f","false","img/H_ambi40.png","生人","prac",""
"","","","","","html-keyboard-response","82","262575","0.0-8.0-0.0-1.3","null","<span style='color:red; font-size: 70px;'>错误! </span>","null","","","","","","","","","","","","","","","","","","","","","","","feedback_test"
"","","","","","psychophysics","83","264474","0.0-8.0-0.0-0.4","890","","f","","","","","","","","","","","","","key","f","16.667446428571566","720","446","j","false","img/H_ambi40.png","朋友","prac",""
"","","","","","html-keyboard-response","84","264985","0.0-8.0-0.0-1.4","null","<span style='color:red; font-size: 70px;'>错误! </span>","null","","","","","","","","","","","","","","","","","","","","","","","feedback_test"
"","","","","","psychophysics","85","267493","0.0-8.0-0.0-0.5","null","","null","","","","","","","","","","","","","key","null","16.666999999999817","720","446","f","false","img/T_ambi40.png","をる","prac",""
"","","","","","html-keyboard-response","86","268000","0.0-8.0-0.0-1.5","null","<span class='add_' style='color:yellow; font-size: 70px;'> 太慢! </span>","null","","","","","","","","","","","","","","","","","","","","","","","feedback_test"
"","","","","","psychophysics","87","269289","0.0-8.0-0.0-0.6","280","","f","","","","","","","","","","","","","key","f","16.66699999999975","720","446","f","true","img/C_ambi40.png","朋友","prac",""
"","","","","","html-keyboard-response","88","269793","0.0-8.0-0.0-1.6","null","<span style='color:GreenYellow; font-size: 70px;'>正确! </span>","null","","","","","","","","","","","","","","","","","","","","","","","feedback_test"
"","","","","","psychophysics","89","270989","0.0-8.0-0.0-0.7","194","","f","","","","","","","","","","","","","key","f","16.667000000000034","720","446","j","false","img/H_ambi40.png","自我","prac",""
"","","","","","html-keyboard-response","90","271495","0.0-8.0-0.0-1.7","null","<span style='color:yellow; font-size: 70px;'>过快! </span>","null","","","","","","","","","","","","","","","","","","","","","","","feedback_test"
"","","","","","psychophysics","91","272696","0.0-8.0-0.0-0.8","193","","j","","","","","","","","","","","","","key","j","16.666999999999437","720","446","f","false","img/T_ambi40.png","をる","prac",""
"","","","","","html-keyboard-response","92","273200","0.0-8.0-0.0-1.8","null","<span style='color:yellow; font-size: 70px;'>过快! </span>","null","","","","","","","","","","","","","","","","","","","","","","","feedback_test"
"","","","","","psychophysics","93","274216","0.0-8.0-0.0-0.9","7","","j","","","","","","","","","","","","","key","j","16.667433333332884","720","446","j","true","img/S_ambi40.png","生人","prac",""
"","","","","","html-keyboard-response","94","274720","0.0-8.0-0.0-1.9","null","<span style='color:yellow; font-size: 70px;'>过快! </span>","null","","","","","","","","","","","","","","","","","","","","","","","feedback_test"
"","","","","","psychophysics","95","275865","0.0-8.0-0.0-0.10","138","","f","","","","","","","","","","","","","key","f","16.666999999999568","720","446","j","false","img/S_ambi40.png","朋友","prac",""
"","","","","","html-keyboard-response","96","276370","0.0-8.0-0.0-1.10","null","<span style='color:yellow; font-size: 70px;'>过快! </span>","null","","","","","","","","","","","","","","","","","","","","","","","feedback_test"
"","","","","","psychophysics","97","277525","0.0-8.0-0.0-0.11","148","","f","","","","","","","","","","","","","key","f","16.667000000000424","720","446","f","true","img/T_ambi40.png","をる","prac",""
"","","","","","html-keyboard-response","98","278035","0.0-8.0-0.0-1.11","null","<span style='color:yellow; font-size: 70px;'>过快! </span>","null","","","","","","","","","","","","","","","","","","","","","","","feedback_test"
"","","","","","psychophysics","99","279269","0.0-8.0-0.0-0.12","228","","f","","","","","","","","","","","","","key","f","16.666999999999884","720","446","f","true","img/H_ambi40.png","生人","prac",""
"","","","","","html-keyboard-response","100","279777","0.0-8.0-0.0-1.12","null","<span style='color:GreenYellow; font-size: 70px;'>正确! </span>","null","","","","","","","","","","","","","","","","","","","","","","","feedback_test"
"","","","","","psychophysics","101","280987","0.0-8.0-0.0-0.13","206","","f","","","","","","","","","","","","","key","f","16.667000000000257","720","446","f","true","img/S_ambi40.png","自我","prac",""
"","","","","","html-keyboard-response","102","281498","0.0-8.0-0.0-1.13","null","<span style='color:GreenYellow; font-size: 70px;'>正确! </span>","null","","","","","","","","","","","","","","","","","","","","","","","feedback_test"
"","","","","","psychophysics","103","282600","0.0-8.0-0.0-0.14","97","","f","","","","","","","","","","","","","key","f","16.66700000000061","720","446","f","true","img/T_ambi40.png","をる","prac",""
"","","","","","html-keyboard-response","104","283103","0.0-8.0-0.0-1.14","null","<span style='color:yellow; font-size: 70px;'>过快! </span>","null","","","","","","","","","","","","","","","","","","","","","","","feedback_test"
"","","","","","psychophysics","105","284249","0.0-8.0-0.0-0.15","141","","j","","","","","","","","","","","","","key","j","16.667000000000424","720","446","f","false","img/S_ambi40.png","自我","prac",""
"","","","","","html-keyboard-response","106","284753","0.0-8.0-0.0-1.15","null","<span style='color:yellow; font-size: 70px;'>过快! </span>","null","","","","","","","","","","","","","","","","","","","","","","","feedback_test"
"","","","","","psychophysics","107","285871","0.0-8.0-0.0-0.16","112","","f","","","","","","","","","","","","","key","f","16.66699999999996","720","446","f","true","img/S_ambi40.png","自我","prac",""
"","","","","","html-keyboard-response","108","286377","0.0-8.0-0.0-1.16","null","<span style='color:yellow; font-size: 70px;'>过快! </span>","null","","","","","","","","","","","","","","","","","","","","","","","feedback_test"
"","","","","","psychophysics","109","287698","0.0-8.0-0.0-0.17","314","","j","","","","","","","","","","","","","key","j","16.666999999999415","720","446","f","false","img/S_ambi40.png","自我","prac",""
"","","","","","html-keyboard-response","110","288209","0.0-8.0-0.0-1.17","null","<span style='color:red; font-size: 70px;'>错误! </span>","null","","","","","","","","","","","","","","","","","","","","","","","feedback_test"
"","","","","","psychophysics","111","289318","0.0-8.0-0.0-0.18","106","","j","","","","","","","","","","","","","key","j","16.666999999999714","720","446","j","true","img/H_ambi40.png","朋友","prac",""
"","","","","","html-keyboard-response","112","289824","0.0-8.0-0.0-1.18","null","<span style='color:yellow; font-size: 70px;'>过快! </span>","null","","","","","","","","","","","","","","","","","","","","","","","feedback_test"
"","","","","","psychophysics","113","291051","0.0-8.0-0.0-0.19","224","","f","","","","","","","","","","","","","key","f","16.66700000000047","720","446","f","true","img/H_ambi40.png","生人","prac",""
"","","","","","html-keyboard-response","114","291558","0.0-8.0-0.0-1.19","null","<span style='color:GreenYellow; font-size: 70px;'>正确! </span>","null","","","","","","","","","","","","","","","","","","","","","","","feedback_test"
"","","","","","psychophysics","115","292888","0.0-8.0-0.0-0.20","328","","f","","","","","","","","","","","","","key","f","16.66700000000016","720","446","f","true","img/C_ambi40.png","朋友","prac",""
"","","","","","html-keyboard-response","116","293394","0.0-8.0-0.0-1.20","null","<span style='color:GreenYellow; font-size: 70px;'>正确! </span>","null","","","","","","","","","","","","","","","","","","","","","","","feedback_test"
"","","","","","psychophysics","117","294705","0.0-8.0-0.0-0.21","305","","f","","","","","","","","","","","","","key","f","16.667831168831295","720","446","f","true","img/T_ambi40.png","をる","prac",""
"","","","","","html-keyboard-response","118","295210","0.0-8.0-0.0-1.21","null","<span style='color:GreenYellow; font-size: 70px;'>正确! </span>","null","","","","","","","","","","","","","","","","","","","","","","","feedback_test"
"","","","","","psychophysics","119","296608","0.0-8.0-0.0-0.22","391","","f","","","","","","","","","","","","","key","f","16.667000000000215","720","446","j","false","img/C_ambi40.png","生人","prac",""
"","","","","","html-keyboard-response","120","297113","0.0-8.0-0.0-1.22","null","<span style='color:red; font-size: 70px;'>错误! </span>","null","","","","","","","","","","","","","","","","","","","","","","","feedback_test"
"","","","","","psychophysics","121","298415","0.0-8.0-0.0-0.23","295","","j","","","","","","","","","","","","","key","j","16.66699999999996","720","446","f","false","img/C_ambi40.png","朋友","prac",""
"","","","","","html-keyboard-response","122","298918","0.0-8.0-0.0-1.23","null","<span style='color:red; font-size: 70px;'>错误! </span>","null","","","","","","","","","","","","","","","","","","","","","","","feedback_test"
"","","","","","psychophysics","123","300132","0.0-8.0-0.0-0.24","204","","f","","","","","","","","","","","","","key","f","16.666999999999664","720","446","j","false","img/S_ambi40.png","朋友","prac",""
"","","","","","html-keyboard-response","124","300641","0.0-8.0-0.0-1.24","null","<span style='color:red; font-size: 70px;'>错误! </span>","null","","","","","","","","","","","","","","","","","","","","","","","feedback_test"
"","","","","","psychophysics","125","301819","0.0-8.0-0.0-0.25","175","","j","","","","","","","","","","","","","key","j","16.667000000000648","720","446","f","false","img/H_ambi40.png","生人","prac",""
"","","","","","html-keyboard-response","126","302327","0.0-8.0-0.0-1.25","null","<span style='color:yellow; font-size: 70px;'>过快! </span>","null","","","","","","","","","","","","","","","","","","","","","","","feedback_test"
"","","","","","psychophysics","127","303448","0.0-8.0-0.0-0.26","119","","f","","","","","","","","","","","","","key","f","16.66699999999996","720","446","f","true","img/T_ambi40.png","をる","prac",""
"","","","","","html-keyboard-response","128","303953","0.0-8.0-0.0-1.26","null","<span style='color:yellow; font-size: 70px;'>过快! </span>","null","","","","","","","","","","","","","","","","","","","","","","","feedback_test"
"","","","","","psychophysics","129","305758","0.0-8.0-0.0-0.27","797","","f","","","","","","","","","","","","","key","f","16.667000000000055","720","446","j","false","img/S_ambi40.png","生人","prac",""
"","","","","","html-keyboard-response","130","306265","0.0-8.0-0.0-1.27","null","<span style='color:red; font-size: 70px;'>错误! </span>","null","","","","","","","","","","","","","","","","","","","","","","","feedback_test"
"","","","","","psychophysics","131","307973","0.0-8.0-0.0-0.28","699","","j","","","","","","","","","","","","","key","j","16.666999999999696","720","446","f","false","img/T_ambi40.png","をる","prac",""
"","","","","","html-keyboard-response","132","308480","0.0-8.0-0.0-1.28","null","<span style='color:red; font-size: 70px;'>错误! </span>","null","","","","","","","","","","","","","","","","","","","","","","","feedback_test"
"","","","","","psychophysics","133","310992","0.0-8.0-0.0-0.29","null","","null","","","","","","","","","","","","","key","null","16.666999999999817","720","446","j","false","img/H_ambi40.png","自我","prac",""
"","","","","","html-keyboard-response","134","311497","0.0-8.0-0.0-1.29","null","<span class='add_' style='color:yellow; font-size: 70px;'> 太慢! </span>","null","","","","","","","","","","","","","","","","","","","","","","","feedback_test"
"","","","","","psychophysics","135","312735","0.0-8.0-0.0-0.30","232","","f","","","","","","","","","","","","","key","f","16.667000000000684","720","446","f","true","img/T_ambi40.png","をる","prac",""
"","","","","","html-keyboard-response","136","313241","0.0-8.0-0.0-1.30","null","<span style='color:GreenYellow; font-size: 70px;'>正确! </span>","null","","","","","","","","","","","","","","","","","","","","","","","feedback_test"
"","","","","","psychophysics","137","314562","0.0-8.0-0.0-0.31","318","","f","","","","","","","","","","","","","key","f","16.667474358973916","720","446","j","false","img/C_ambi40.png","自我","prac",""
"","","","","","html-keyboard-response","138","315074","0.0-8.0-0.0-1.31","null","<span style='color:red; font-size: 70px;'>错误! </span>","null","","","","","","","","","","","","","","","","","","","","","","","feedback_test"
"","","","","","html-keyboard-response","139","319933","0.0-8.0-1.0-0.0","4856","<style>.context{color:white; font-size: 35px; line-height:40px}</style>                          <div><p class='context'>您正确回答了47% 的试次。</p ><p class='context'>您的平均反应时为228毫秒。</p >","arrowright","","","","","","","","","","","","","","","","","","","","","","",""
"","","","","","instructions","140","333527","0.0-8.0-1.0-1.0","13593","","","","","","","","","","","","","","[{""page_index"":0,""viewing_time"":2077},{""page_index"":1,""viewing_time"":9114},{""page_index"":2,""viewing_time"":2402}]","","","","","","","","","","",""
"","","","","","psychophysics","141","336016","0.0-8.1-0.1-0.32","1483","","f","","","","","","","","","","","","","key","f","16.6670000000001","720","446","f","true","img/H_ambi40.png","生人","prac",""
"","","","","","html-keyboard-response","142","336522","0.0-8.1-0.1-1.32","null","<span style='color:GreenYellow; font-size: 70px;'>正确! </span>","null","","","","","","","","","","","","","","","","","","","","","","","feedback_test"
"","","","","","psychophysics","143","337999","0.0-8.1-0.1-0.33","468","","f","","","","","","","","","","","","","key","f","16.666999999999774","720","446","f","true","img/H_ambi40.png","生人","prac",""
"","","","","","html-keyboard-response","144","338506","0.0-8.1-0.1-1.33","null","<span style='color:GreenYellow; font-size: 70px;'>正确! </span>","null","","","","","","","","","","","","","","","","","","","","","","","feedback_test"
"","","","","","psychophysics","145","339744","0.0-8.1-0.1-0.34","233","","f","","","","","","","","","","","","","key","f","16.667000000000684","720","446","j","false","img/C_ambi40.png","自我","prac",""
"","","","","","html-keyboard-response","146","340245","0.0-8.1-0.1-1.34","null","<span style='color:red; font-size: 70px;'>错误! </span>","null","","","","","","","","","","","","","","","","","","","","","","","feedback_test"
"","","","","","psychophysics","147","341608","0.0-8.1-0.1-0.35","355","","f","","","","","","","","","","","","","key","f","16.667000000000023","720","446","f","true","img/T_ambi40.png","をる","prac",""
"","","","","","html-keyboard-response","148","342117","0.0-8.1-0.1-1.35","null","<span style='color:GreenYellow; font-size: 70px;'>正确! </span>","null","","","","","","","","","","","","","","","","","","","","","","","feedback_test"
"","","","","","psychophysics","149","343436","0.0-8.1-0.1-0.36","318","","j","","","","","","","","","","","","","key","j","16.66700000000016","720","446","j","true","img/H_ambi40.png","自我","prac",""
"","","","","","html-keyboard-response","150","343940","0.0-8.1-0.1-1.36","null","<span style='color:GreenYellow; font-size: 70px;'>正确! </span>","null","","","","","","","","","","","","","","","","","","","","","","","feedback_test"
"","","","","","psychophysics","151","345228","0.0-8.1-0.1-0.37","279","","f","","","","","","","","","","","","","key","f","16.66699999999975","720","446","f","true","img/T_ambi40.png","をる","prac",""
"","","","","","html-keyboard-response","152","345736","0.0-8.1-0.1-1.37","null","<span style='color:GreenYellow; font-size: 70px;'>正确! </span>","null","","","","","","","","","","","","","","","","","","","","","","","feedback_test"
"","","","","","psychophysics","153","347088","0.0-8.1-0.1-0.38","349","","j","","","","","","","","","","","","","key","j","16.667000000000552","720","446","f","false","img/C_ambi40.png","朋友","prac",""
"","","","","","html-keyboard-response","154","347597","0.0-8.1-0.1-1.38","null","<span style='color:red; font-size: 70px;'>错误! </span>","null","","","","","","","","","","","","","","","","","","","","","","","feedback_test"
"","","","","","psychophysics","155","348860","0.0-8.1-0.1-0.39","259","","f","","","","","","","","","","","","","key","f","16.6670000000001","720","446","f","true","img/S_ambi40.png","自我","prac",""
"","","","","","html-keyboard-response","156","349365","0.0-8.1-0.1-1.39","null","<span style='color:GreenYellow; font-size: 70px;'>正确! </span>","null","","","","","","","","","","","","","","","","","","","","","","","feedback_test"
"","","","","","psychophysics","157","350690","0.0-8.1-0.1-0.40","323","","f","","","","","","","","","","","","","key","f","16.6677051282052","720","446","f","true","img/T_ambi40.png","をる","prac",""
"","","","","","html-keyboard-response","158","351196","0.0-8.1-0.1-1.40","null","<span style='color:GreenYellow; font-size: 70px;'>正确! </span>","null","","","","","","","","","","","","","","","","","","","","","","","feedback_test"
"","","","","","psychophysics","159","352505","0.0-8.1-0.1-0.41","300","","j","","","","","","","","","","","","","key","j","16.66699999999996","720","446","f","false","img/S_ambi40.png","自我","prac",""
"","","","","","html-keyboard-response","160","353012","0.0-8.1-0.1-1.41","null","<span style='color:red; font-size: 70px;'>错误! </span>","null","","","","","","","","","","","","","","","","","","","","","","","feedback_test"
"","","","","","psychophysics","161","354236","0.0-8.1-0.1-0.42","222","","f","","","","","","","","","","","","","key","f","16.666999999999664","720","446","j","false","img/C_ambi40.png","生人","prac",""
"","","","","","html-keyboard-response","162","354737","0.0-8.1-0.1-1.42","null","<span style='color:red; font-size: 70px;'>错误! </span>","null","","","","","","","","","","","","","","","","","","","","","","","feedback_test"
"","","","","","psychophysics","163","355971","0.0-8.1-0.1-0.43","224","","j","","","","","","","","","","","","","key","j","16.666999999999884","720","446","j","true","img/S_ambi40.png","朋友","prac",""
"","","","","","html-keyboard-response","164","356472","0.0-8.1-0.1-1.43","null","<span style='color:GreenYellow; font-size: 70px;'>正确! </span>","null","","","","","","","","","","","","","","","","","","","","","","","feedback_test"
"","","","","","psychophysics","165","357721","0.0-8.1-0.1-0.44","241","","f","","","","","","","","","","","","","key","f","16.6670000000001","720","446","j","false","img/H_ambi40.png","朋友","prac",""
"","","","","","html-keyboard-response","166","358224","0.0-8.1-0.1-1.44","null","<span style='color:red; font-size: 70px;'>错误! </span>","null","","","","","","","","","","","","","","","","","","","","","","","feedback_test"
"","","","","","psychophysics","167","359586","0.0-8.1-0.1-0.45","356","","j","","","","","","","","","","","","","key","j","16.667000000000023","720","446","j","true","img/S_ambi40.png","生人","prac",""
"","","","","","html-keyboard-response","168","360088","0.0-8.1-0.1-1.45","null","<span style='color:GreenYellow; font-size: 70px;'>正确! </span>","null","","","","","","","","","","","","","","","","","","","","","","","feedback_test"
"","","","","","psychophysics","169","361473","0.0-8.1-0.1-0.46","377","","f","","","","","","","","","","","","","key","f","16.667000000000215","720","446","f","true","img/T_ambi40.png","をる","prac",""
"","","","","","html-keyboard-response","170","361978","0.0-8.1-0.1-1.46","null","<span style='color:GreenYellow; font-size: 70px;'>正确! </span>","null","","","","","","","","","","","","","","","","","","","","","","","feedback_test"
"","","","","","psychophysics","171","363285","0.0-8.1-0.1-0.47","304","","j","","","","","","","","","","","","","key","j","16.66699999999996","720","446","f","false","img/C_ambi40.png","朋友","prac",""
"","","","","","html-keyboard-response","172","363794","0.0-8.1-0.1-1.47","null","<span style='color:red; font-size: 70px;'>错误! </span>","null","","","","","","","","","","","","","","","","","","","","","","","feedback_test"
"","","","","","psychophysics","173","364899","0.0-8.1-0.1-0.48","97","","f","","","","","","","","","","","","","key","f","16.666999999999714","720","446","j","false","img/S_ambi40.png","生人","prac",""
"","","","","","html-keyboard-response","174","365408","0.0-8.1-0.1-1.48","null","<span style='color:yellow; font-size: 70px;'>过快! </span>","null","","","","","","","","","","","","","","","","","","","","","","","feedback_test"
"","","","","","psychophysics","175","366922","0.0-8.1-0.1-0.49","508","","j","","","","","","","","","","","","","key","j","16.666999999999664","720","446","f","false","img/T_ambi40.png","をる","prac",""
"","","","","","html-keyboard-response","176","367434","0.0-8.1-0.1-1.49","null","<span style='color:red; font-size: 70px;'>错误! </span>","null","","","","","","","","","","","","","","","","","","","","","","","feedback_test"
"","","","","","psychophysics","177","368732","0.0-8.1-0.1-0.50","292","","f","","","","","","","","","","","","","key","f","16.66699999999996","720","446","f","true","img/C_ambi40.png","朋友","prac",""
"","","","","","html-keyboard-response","178","369242","0.0-8.1-0.1-1.50","null","<span style='color:GreenYellow; font-size: 70px;'>正确! </span>","null","","","","","","","","","","","","","","","","","","","","","","","feedback_test"
"","","","","","psychophysics","179","370671","0.0-8.1-0.1-0.51","428","","j","","","","","","","","","","","","","key","j","16.66754117647035","720","446","j","true","img/C_ambi40.png","生人","prac",""
"","","","","","html-keyboard-response","180","371177","0.0-8.1-0.1-1.51","null","<span style='color:GreenYellow; font-size: 70px;'>正确! </span>","null","","","","","","","","","","","","","","","","","","","","","","","feedback_test"
"","","","","","psychophysics","181","372443","0.0-8.1-0.1-0.52","263","","f","","","","","","","","","","","","","key","f","16.6670000000001","720","446","f","true","img/T_ambi40.png","をる","prac",""
"","","","","","html-keyboard-response","182","372953","0.0-8.1-0.1-1.52","null","<span style='color:GreenYellow; font-size: 70px;'>正确! </span>","null","","","","","","","","","","","","","","","","","","","","","","","feedback_test"
"","","","","","psychophysics","183","374349","0.0-8.1-0.1-0.53","390","","j","","","","","","","","","","","","","key","j","16.666999999999703","720","446","f","false","img/H_ambi40.png","生人","prac",""
"","","","","","html-keyboard-response","184","374857","0.0-8.1-0.1-1.53","null","<span style='color:red; font-size: 70px;'>错误! </span>","null","","","","","","","","","","","","","","","","","","","","","","","feedback_test"
"","","","","","psychophysics","185","376156","0.0-8.1-0.1-0.54","295","","f","","","","","","","","","","","","","key","f","16.66699999999996","720","446","f","true","img/C_ambi40.png","朋友","prac",""
"","","","","","html-keyboard-response","186","376664","0.0-8.1-0.1-1.54","null","<span style='color:GreenYellow; font-size: 70px;'>正确! </span>","null","","","","","","","","","","","","","","","","","","","","","","","feedback_test"
"","","","","","psychophysics","187","377984","0.0-8.1-0.1-0.55","313","","f","","","","","","","","","","","","","key","f","16.66700000000016","720","446","j","false","img/H_ambi40.png","自我","prac",""
"","","","","","html-keyboard-response","188","378487","0.0-8.1-0.1-1.55","null","<span style='color:red; font-size: 70px;'>错误! </span>","null","","","","","","","","","","","","","","","","","","","","","","","feedback_test"
"","","","","","psychophysics","189","379767","0.0-8.1-0.1-0.56","273","","f","","","","","","","","","","","","","key","f","16.66699999999975","720","446","f","true","img/H_ambi40.png","生人","prac",""
"","","","","","html-keyboard-response","190","380273","0.0-8.1-0.1-1.56","null","<span style='color:GreenYellow; font-size: 70px;'>正确! </span>","null","","","","","","","","","","","","","","","","","","","","","","","feedback_test"
"","","","","","psychophysics","191","381659","0.0-8.1-0.1-0.57","383","","f","","","","","","","","","","","","","key","f","16.667000000000215","720","446","f","true","img/S_ambi40.png","自我","prac",""
"","","","","","html-keyboard-response","192","382167","0.0-8.1-0.1-1.57","null","<span style='color:GreenYellow; font-size: 70px;'>正确! </span>","null","","","","","","","","","","","","","","","","","","","","","","","feedback_test"
"","","","","","psychophysics","193","383516","0.0-8.1-0.1-0.58","340","","f","","","","","","","","","","","","","key","f","16.667000000000552","720","446","j","false","img/S_ambi40.png","朋友","prac",""
"","","","","","html-keyboard-response","194","384021","0.0-8.1-0.1-1.58","null","<span style='color:red; font-size: 70px;'>错误! </span>","null","","","","","","","","","","","","","","","","","","","","","","","feedback_test"
"","","","","","psychophysics","195","385250","0.0-8.1-0.1-0.59","221","","j","","","","","","","","","","","","","key","j","16.666999999999884","720","446","j","true","img/C_ambi40.png","自我","prac",""
"","","","","","html-keyboard-response","196","385761","0.0-8.1-0.1-1.59","null","<span style='color:GreenYellow; font-size: 70px;'>正确! </span>","null","","","","","","","","","","","","","","","","","","","","","","","feedback_test"
"","","","","","psychophysics","197","387025","0.0-8.1-0.1-0.60","262","","f","","","","","","","","","","","","","key","f","16.6670000000001","720","446","j","false","img/H_ambi40.png","朋友","prac",""
"","","","","","html-keyboard-response","198","387533","0.0-8.1-0.1-1.60","null","<span style='color:red; font-size: 70px;'>错误! </span>","null","","","","","","","","","","","","","","","","","","","","","","","feedback_test"
"","","","","","psychophysics","199","388700","0.0-8.1-0.1-0.61","158","","j","","","","","","","","","","","","","key","j","16.666999999999803","720","446","f","false","img/S_ambi40.png","自我","prac",""
"","","","","","html-keyboard-response","200","389209","0.0-8.1-0.1-1.61","null","<span style='color:yellow; font-size: 70px;'>过快! </span>","null","","","","","","","","","","","","","","","","","","","","","","","feedback_test"
"","","","","","psychophysics","201","390566","0.0-8.1-0.1-0.62","353","","j","","","","","","","","","","","","","key","j","16.667625000000406","720","446","f","false","img/T_ambi40.png","をる","prac",""
"","","","","","html-keyboard-response","202","391071","0.0-8.1-0.1-1.62","null","<span style='color:red; font-size: 70px;'>错误! </span>","null","","","","","","","","","","","","","","","","","","","","","","","feedback_test"
"","","","","","psychophysics","203","392349","0.0-8.1-0.1-0.63","272","","f","","","","","","","","","","","","","key","f","16.667000000000513","720","446","f","true","img/T_ambi40.png","をる","prac",""
"","","","","","html-keyboard-response","204","392856","0.0-8.1-0.1-1.63","null","<span style='color:GreenYellow; font-size: 70px;'>正确! </span>","null","","","","","","","","","","","","","","","","","","","","","","","feedback_test"
"","","","","","html-keyboard-response","205","395818","0.0-8.1-1.1-0.1","2959","<style>.context{color:white; font-size: 35px; line-height:40px}</style>                          <div><p class='context'>您正确回答了56% 的试次。</p ><p class='context'>您的平均反应时为382毫秒。</p >","arrowright","","","","","","","","","","","","","","","","","","","","","","",""
"","","","","","instructions","206","401741","0.0-8.1-1.1-1.1","5919","","","","","","","","","","","","","","[{""page_index"":0,""viewing_time"":2359},{""page_index"":1,""viewing_time"":1118},{""page_index"":2,""viewing_time"":2442}]","","","","","","","","","","",""
"","","","","","psychophysics","207","404245","0.0-8.2-0.2-0.64","null","","null","","","","","","","","","","","","","key","null","16.666999999999923","720","446","f","false","img/S_ambi40.png","自我","prac",""
"","","","","","html-keyboard-response","208","404751","0.0-8.2-0.2-1.64","null","<span class='add_' style='color:yellow; font-size: 70px;'> 太慢! </span>","null","","","","","","","","","","","","","","","","","","","","","","","feedback_test"
"","","","","","psychophysics","209","406091","0.0-8.2-0.2-0.65","333","","f","","","","","","","","","","","","","key","f","16.66700000000036","720","446","j","false","img/H_ambi40.png","朋友","prac",""
"","","","","","html-keyboard-response","210","406597","0.0-8.2-0.2-1.65","null","<span style='color:red; font-size: 70px;'>错误! </span>","null","","","","","","","","","","","","","","","","","","","","","","","feedback_test"
"","","","","","psychophysics","211","408715","0.0-8.2-0.2-0.66","1107","","f","","","","","","","","","","","","","key","f","16.667000000000126","720","446","f","true","img/T_ambi40.png","をる","prac",""
"","","","","","html-keyboard-response","212","409220","0.0-8.2-0.2-1.66","null","<span style='color:GreenYellow; font-size: 70px;'>正确! </span>","null","","","","","","","","","","","","","","","","","","","","","","","feedback_test"
"","","","","","psychophysics","213","410618","0.0-8.2-0.2-0.67","390","","j","","","","","","","","","","","","","key","j","16.667000000000403","720","446","f","false","img/T_ambi40.png","をる","prac",""
"","","","","","html-keyboard-response","214","411126","0.0-8.2-0.2-1.67","null","<span style='color:red; font-size: 70px;'>错误! </span>","null","","","","","","","","","","","","","","","","","","","","","","","feedback_test"
"","","","","","psychophysics","215","412487","0.0-8.2-0.2-0.68","358","","f","","","","","","","","","","","","","key","f","16.666999999999824","720","446","f","true","img/T_ambi40.png","をる","prac",""
"","","","","","html-keyboard-response","216","412992","0.0-8.2-0.2-1.68","null","<span style='color:GreenYellow; font-size: 70px;'>正确! </span>","null","","","","","","","","","","","","","","","","","","","","","","","feedback_test"
"","","","","","psychophysics","217","414403","0.0-8.2-0.2-0.69","408","","f","","","","","","","","","","","","","key","f","16.666999999999703","720","446","f","true","img/C_ambi40.png","朋友","prac",""
"","","","","","html-keyboard-response","218","414911","0.0-8.2-0.2-1.69","null","<span style='color:GreenYellow; font-size: 70px;'>正确! </span>","null","","","","","","","","","","","","","","","","","","","","","","","feedback_test"
"","","","","","psychophysics","219","416219","0.0-8.2-0.2-0.70","301","","f","","","","","","","","","","","","","key","f","16.667000000000712","720","446","j","false","img/H_ambi40.png","自我","prac",""
"","","","","","html-keyboard-response","220","416724","0.0-8.2-0.2-1.70","null","<span style='color:red; font-size: 70px;'>错误! </span>","null","","","","","","","","","","","","","","","","","","","","","","","feedback_test"
"","","","","","psychophysics","221","418103","0.0-8.2-0.2-0.71","374","","f","","","","","","","","","","","","","key","f","16.667000000000023","720","446","j","false","img/C_ambi40.png","自我","prac",""
"","","","","","html-keyboard-response","222","418604","0.0-8.2-0.2-1.71","null","<span style='color:red; font-size: 70px;'>错误! </span>","null","","","","","","","","","","","","","","","","","","","","","","","feedback_test"
"","","","","","psychophysics","223","419667","0.0-8.2-0.2-0.72","55","","j","","","","","","","","","","","","","key","j","16.667000000000126","720","446","j","true","img/S_ambi40.png","朋友","prac",""
"","","","","","html-keyboard-response","224","420176","0.0-8.2-0.2-1.72","null","<span style='color:yellow; font-size: 70px;'>过快! </span>","null","","","","","","","","","","","","","","","","","","","","","","","feedback_test"
"","","","","","psychophysics","225","421532","0.0-8.2-0.2-0.73","353","","f","","","","","","","","","","","","","key","f","16.66762499999968","720","446","f","true","img/H_ambi40.png","生人","prac",""
"","","","","","html-keyboard-response","226","422035","0.0-8.2-0.2-1.73","null","<span style='color:GreenYellow; font-size: 70px;'>正确! </span>","null","","","","","","","","","","","","","","","","","","","","","","","feedback_test"
"","","","","","psychophysics","227","423405","0.0-8.2-0.2-0.74","360","","f","","","","","","","","","","","","","key","f","16.666999999999305","720","446","j","false","img/C_ambi40.png","生人","prac",""
"","","","","","html-keyboard-response","228","423909","0.0-8.2-0.2-1.74","null","<span style='color:red; font-size: 70px;'>错误! </span>","null","","","","","","","","","","","","","","","","","","","","","","","feedback_test"
"","","","","","psychophysics","229","425171","0.0-8.2-0.2-0.75","260","","j","","","","","","","","","","","","","key","j","16.6670000000001","720","446","j","true","img/S_ambi40.png","生人","prac",""
"","","","","","html-keyboard-response","230","425677","0.0-8.2-0.2-1.75","null","<span style='color:GreenYellow; font-size: 70px;'>正确! </span>","null","","","","","","","","","","","","","","","","","","","","","","","feedback_test"
"","","","","","psychophysics","231","427167","0.0-8.2-0.2-0.76","489","","j","","","","","","","","","","","","","key","j","16.66699999999996","720","446","f","false","img/C_ambi40.png","朋友","prac",""
"","","","","","html-keyboard-response","232","427669","0.0-8.2-0.2-1.76","null","<span style='color:red; font-size: 70px;'>错误! </span>","null","","","","","","","","","","","","","","","","","","","","","","","feedback_test"
"","","","","","psychophysics","233","428981","0.0-8.2-0.2-0.77","306","","f","","","","","","","","","","","","","key","f","16.666999999999415","720","446","f","true","img/T_ambi40.png","をる","prac",""
"","","","","","html-keyboard-response","234","429485","0.0-8.2-0.2-1.77","null","<span style='color:GreenYellow; font-size: 70px;'>正确! </span>","null","","","","","","","","","","","","","","","","","","","","","","","feedback_test"
"","","","","","psychophysics","235","430856","0.0-8.2-0.2-0.78","363","","f","","","","","","","","","","","","","key","f","16.667000000000023","720","446","f","true","img/S_ambi40.png","自我","prac",""
"","","","","","html-keyboard-response","236","431367","0.0-8.2-0.2-1.78","null","<span style='color:GreenYellow; font-size: 70px;'>正确! </span>","null","","","","","","","","","","","","","","","","","","","","","","","feedback_test"
"","","","","","psychophysics","237","432731","0.0-8.2-0.2-0.79","355","","f","","","","","","","","","","","","","key","f","16.667024691358503","720","446","f","true","img/H_ambi40.png","生人","prac",""
"","","","","","html-keyboard-response","238","433235","0.0-8.2-0.2-1.79","null","<span style='color:GreenYellow; font-size: 70px;'>正确! </span>","null","","","","","","","","","","","","","","","","","","","","","","","feedback_test"
"","","","","","psychophysics","239","434601","0.0-8.2-0.2-0.80","356","","f","","","","","","","","","","","","","key","f","16.667000000000023","720","446","f","true","img/C_ambi40.png","朋友","prac",""
"","","","","","html-keyboard-response","240","435112","0.0-8.2-0.2-1.80","null","<span style='color:GreenYellow; font-size: 70px;'>正确! </span>","null","","","","","","","","","","","","","","","","","","","","","","","feedback_test"
"","","","","","psychophysics","241","436449","0.0-8.2-0.2-0.81","335","","f","","","","","","","","","","","","","key","f","16.66700000000036","720","446","j","false","img/H_ambi40.png","自我","prac",""
"","","","","","html-keyboard-response","242","436959","0.0-8.2-0.2-1.81","null","<span style='color:red; font-size: 70px;'>错误! </span>","null","","","","","","","","","","","","","","","","","","","","","","","feedback_test"
"","","","","","psychophysics","243","438209","0.0-8.2-0.2-0.82","249","","j","","","","","","","","","","","","","key","j","16.666999999999884","720","446","f","false","img/C_ambi40.png","朋友","prac",""
"","","","","","html-keyboard-response","244","438716","0.0-8.2-0.2-1.82","null","<span style='color:red; font-size: 70px;'>错误! </span>","null","","","","","","","","","","","","","","","","","","","","","","","feedback_test"
"","","","","","psychophysics","245","439866","0.0-8.2-0.2-0.83","140","","f","","","","","","","","","","","","","key","f","16.666999999999568","720","446","f","true","img/T_ambi40.png","をる","prac",""
"","","","","","html-keyboard-response","246","440376","0.0-8.2-0.2-1.83","null","<span style='color:yellow; font-size: 70px;'>过快! </span>","null","","","","","","","","","","","","","","","","","","","","","","","feedback_test"
"","","","","","psychophysics","247","441789","0.0-8.2-0.2-0.84","412","","f","","","","","","","","","","","","","key","f","16.667000000000403","720","446","j","false","img/C_ambi40.png","自我","prac",""
"","","","","","html-keyboard-response","248","442294","0.0-8.2-0.2-1.84","null","<span style='color:red; font-size: 70px;'>错误! </span>","null","","","","","","","","","","","","","","","","","","","","","","","feedback_test"
"","","","","","psychophysics","249","443719","0.0-8.2-0.2-0.85","423","","j","","","","","","","","","","","","","key","j","16.666999999999895","720","446","j","true","img/S_ambi40.png","生人","prac",""
"","","","","","html-keyboard-response","250","444229","0.0-8.2-0.2-1.85","null","<span style='color:GreenYellow; font-size: 70px;'>正确! </span>","null","","","","","","","","","","","","","","","","","","","","","","","feedback_test"
"","","","","","psychophysics","251","445697","0.0-8.2-0.2-0.86","466","","f","","","","","","","","","","","","","key","f","16.666999999999774","720","446","f","true","img/T_ambi40.png","をる","prac",""
"","","","","","html-keyboard-response","252","446205","0.0-8.2-0.2-1.86","null","<span style='color:GreenYellow; font-size: 70px;'>正确! </span>","null","","","","","","","","","","","","","","","","","","","","","","","feedback_test"
"","","","","","psychophysics","253","447927","0.0-8.2-0.2-0.87","716","","f","","","","","","","","","","","","","key","f","16.66700000000001","720","446","f","true","img/S_ambi40.png","自我","prac",""
"","","","","","html-keyboard-response","254","448435","0.0-8.2-0.2-1.87","null","<span style='color:GreenYellow; font-size: 70px;'>正确! </span>","null","","","","","","","","","","","","","","","","","","","","","","","feedback_test"
"","","","","","psychophysics","255","450305","0.0-8.2-0.2-0.88","861","","f","","","","","","","","","","","","","key","f","16.6670000000001","720","446","f","true","img/T_ambi40.png","をる","prac",""
"","","","","","html-keyboard-response","256","450816","0.0-8.2-0.2-1.88","null","<span style='color:GreenYellow; font-size: 70px;'>正确! </span>","null","","","","","","","","","","","","","","","","","","","","","","","feedback_test"
"","","","","","psychophysics","257","452821","0.0-8.2-0.2-0.89","1002","","f","","","","","","","","","","","","","key","f","16.667621848739376","720","446","f","true","img/H_ambi40.png","生人","prac",""
"","","","","","html-keyboard-response","258","453326","0.0-8.2-0.2-1.89","null","<span style='color:GreenYellow; font-size: 70px;'>正确! </span>","null","","","","","","","","","","","","","","","","","","","","","","","feedback_test"
"","","","","","psychophysics","259","455048","0.0-8.2-0.2-0.90","714","","f","","","","","","","","","","","","","key","f","16.666999999999852","720","446","f","true","img/T_ambi40.png","をる","prac",""
"","","","","","html-keyboard-response","260","455559","0.0-8.2-0.2-1.90","null","<span style='color:GreenYellow; font-size: 70px;'>正确! </span>","null","","","","","","","","","","","","","","","","","","","","","","","feedback_test"
"","","","","","psychophysics","261","457316","0.0-8.2-0.2-0.91","754","","j","","","","","","","","","","","","","key","j","16.66700000000016","720","446","j","true","img/H_ambi40.png","朋友","prac",""
"","","","","","html-keyboard-response","262","457819","0.0-8.2-0.2-1.91","null","<span style='color:GreenYellow; font-size: 70px;'>正确! </span>","null","","","","","","","","","","","","","","","","","","","","","","","feedback_test"
"","","","","","psychophysics","263","459182","0.0-8.2-0.2-0.92","354","","f","","","","","","","","","","","","","key","f","16.666999999999305","720","446","f","true","img/S_ambi40.png","自我","prac",""
"","","","","","html-keyboard-response","264","459683","0.0-8.2-0.2-1.92","null","<span style='color:GreenYellow; font-size: 70px;'>正确! </span>","null","","","","","","","","","","","","","","","","","","","","","","","feedback_test"
"","","","","","psychophysics","265","461158","0.0-8.2-0.2-0.93","464","","j","","","","","","","","","","","","","key","j","16.666999999999774","720","446","j","true","img/S_ambi40.png","朋友","prac",""
"","","","","","html-keyboard-response","266","461670","0.0-8.2-0.2-1.93","null","<span style='color:GreenYellow; font-size: 70px;'>正确! </span>","null","","","","","","","","","","","","","","","","","","","","","","","feedback_test"
"","","","","","psychophysics","267","463249","0.0-8.2-0.2-0.94","571","","f","","","","","","","","","","","","","key","f","16.666787234042086","720","446","j","false","img/C_ambi40.png","生人","prac",""
"","","","","","html-keyboard-response","268","463759","0.0-8.2-0.2-1.94","null","<span style='color:red; font-size: 70px;'>错误! </span>","null","","","","","","","","","","","","","","","","","","","","","","","feedback_test"
"","","","","","psychophysics","269","465533","0.0-8.2-0.2-0.95","766","","j","","","","","","","","","","","","","key","j","16.666999999999756","720","446","f","false","img/H_ambi40.png","生人","prac",""
"","","","","","html-keyboard-response","270","466035","0.0-8.2-0.2-1.95","null","<span style='color:red; font-size: 70px;'>错误! </span>","null","","","","","","","","","","","","","","","","","","","","","","","feedback_test"
"","","","","","html-keyboard-response","271","467769","0.0-8.2-1.2-0.2","1731","<style>.context{color:white; font-size: 35px; line-height:40px}</style>                          <div><p class='context'>您正确回答了63% 的试次。</p ><p class='context'>您的平均反应时为491毫秒。</p >","arrowright","","","","","","","","","","","","","","","","","","","","","","",""
"","","","","","instructions","272","480996","0.0-8.2-1.2-1.2","13223","","","","","","","","","","","","","","[{""page_index"":0,""viewing_time"":10174},{""page_index"":1,""viewing_time"":1970},{""page_index"":2,""viewing_time"":1079}]","","","","","","","","","","",""
"","","","","","psychophysics","273","482522","0.0-8.3-0.3-0.96","517","","j","","","","","","","","","","","","","key","j","16.666999999999664","720","446","f","false","img/H_ambi40.png","生人","prac",""
"","","","","","html-keyboard-response","274","483030","0.0-8.3-0.3-1.96","null","<span style='color:red; font-size: 70px;'>错误! </span>","null","","","","","","","","","","","","","","","","","","","","","","","feedback_test"
"","","","","","psychophysics","275","484265","0.0-8.3-0.3-0.97","227","","f","","","","","","","","","","","","","key","f","16.666999999999884","720","446","f","true","img/C_ambi40.png","朋友","prac",""
"","","","","","html-keyboard-response","276","484774","0.0-8.3-0.3-1.97","null","<span style='color:GreenYellow; font-size: 70px;'>正确! </span>","null","","","","","","","","","","","","","","","","","","","","","","","feedback_test"
"","","","","","psychophysics","277","486102","0.0-8.3-0.3-0.98","326","","f","","","","","","","","","","","","","key","f","16.66700000000016","720","446","j","false","img/H_ambi40.png","朋友","prac",""
"","","","","","html-keyboard-response","278","486610","0.0-8.3-0.3-1.98","null","<span style='color:red; font-size: 70px;'>错误! </span>","null","","","","","","","","","","","","","","","","","","","","","","","feedback_test"
"","","","","","psychophysics","279","487956","0.0-8.3-0.3-0.99","344","","j","","","","","","","","","","","","","key","j","16.66700000000036","720","446","j","true","img/H_ambi40.png","自我","prac",""
"","","","","","html-keyboard-response","280","488461","0.0-8.3-0.3-1.99","null","<span style='color:GreenYellow; font-size: 70px;'>正确! </span>","null","","","","","","","","","","","","","","","","","","","","","","","feedback_test"
"","","","","","psychophysics","281","489831","0.0-8.3-0.3-0.100","368","","f","","","","","","","","","","","","","key","f","16.667000000000023","720","446","f","true","img/T_ambi40.png","をる","prac",""
"","","","","","html-keyboard-response","282","490342","0.0-8.3-0.3-1.100","null","<span style='color:GreenYellow; font-size: 70px;'>正确! </span>","null","","","","","","","","","","","","","","","","","","","","","","","feedback_test"
"","","","","","psychophysics","283","491688","0.0-8.3-0.3-0.101","339","","f","","","","","","","","","","","","","key","f","16.66700000000036","720","446","f","true","img/C_ambi40.png","朋友","prac",""
"","","","","","html-keyboard-response","284","492198","0.0-8.3-0.3-1.101","null","<span style='color:GreenYellow; font-size: 70px;'>正确! </span>","null","","","","","","","","","","","","","","","","","","","","","","","feedback_test"
"","","","","","psychophysics","285","493675","0.0-8.3-0.3-0.102","472","","f","","","","","","","","","","","","","key","f","16.667000000000446","720","446","f","true","img/S_ambi40.png","自我","prac",""
"","","","","","html-keyboard-response","286","494186","0.0-8.3-0.3-1.102","null","<span style='color:GreenYellow; font-size: 70px;'>正确! </span>","null","","","","","","","","","","","","","","","","","","","","","","","feedback_test"
"","","","","","psychophysics","287","495550","0.0-8.3-0.3-0.103","357","","f","","","","","","","","","","","","","key","f","16.667000000000023","720","446","f","true","img/T_ambi40.png","をる","prac",""
"","","","","","html-keyboard-response","288","496061","0.0-8.3-0.3-1.103","null","<span style='color:GreenYellow; font-size: 70px;'>正确! </span>","null","","","","","","","","","","","","","","","","","","","","","","","feedback_test"
"","","","","","psychophysics","289","497402","0.0-8.3-0.3-0.104","339","","f","","","","","","","","","","","","","key","f","16.667632911392616","720","446","f","true","img/H_ambi40.png","生人","prac",""
"","","","","","html-keyboard-response","290","497909","0.0-8.3-0.3-1.104","null","<span style='color:GreenYellow; font-size: 70px;'>正确! </span>","null","","","","","","","","","","","","","","","","","","","","","","","feedback_test"
"","","","","","psychophysics","291","499270","0.0-8.3-0.3-0.105","359","","f","","","","","","","","","","","","","key","f","16.666999999999824","720","446","f","true","img/T_ambi40.png","をる","prac",""
"","","","","","html-keyboard-response","292","499781","0.0-8.3-0.3-1.105","null","<span style='color:GreenYellow; font-size: 70px;'>正确! </span>","null","","","","","","","","","","","","","","","","","","","","","","","feedback_test"
"","","","","","psychophysics","293","501482","0.0-8.3-0.3-0.106","695","","f","","","","","","","","","","","","","key","f","16.666999999999696","720","446","j","false","img/S_ambi40.png","生人","prac",""
"","","","","","html-keyboard-response","294","501987","0.0-8.3-0.3-1.106","null","<span style='color:red; font-size: 70px;'>错误! </span>","null","","","","","","","","","","","","","","","","","","","","","","","feedback_test"
"","","","","","psychophysics","295","503440","0.0-8.3-0.3-0.107","444","","j","","","","","","","","","","","","","key","j","16.66699999999959","720","446","f","false","img/S_ambi40.png","自我","prac",""
"","","","","","html-keyboard-response","296","503949","0.0-8.3-0.3-1.107","null","<span style='color:red; font-size: 70px;'>错误! </span>","null","","","","","","","","","","","","","","","","","","","","","","","feedback_test"
"","","","","","psychophysics","297","505199","0.0-8.3-0.3-0.108","241","","f","","","","","","","","","","","","","key","f","16.666999999999312","720","446","j","false","img/C_ambi40.png","生人","prac",""
"","","","","","html-keyboard-response","298","505707","0.0-8.3-0.3-1.108","null","<span style='color:red; font-size: 70px;'>错误! </span>","null","","","","","","","","","","","","","","","","","","","","","","","feedback_test"
"","","","","","psychophysics","299","507274","0.0-8.3-0.3-0.109","563","","j","","","","","","","","","","","","","key","j","16.667000000000186","720","446","j","true","img/C_ambi40.png","自我","prac",""
"","","","","","html-keyboard-response","300","507787","0.0-8.3-0.3-1.109","null","<span style='color:GreenYellow; font-size: 70px;'>正确! </span>","null","","","","","","","","","","","","","","","","","","","","","","","feedback_test"
"","","","","","psychophysics","301","509782","0.0-8.3-0.3-0.110","988","","f","","","","","","","","","","","","","key","f","16.66700000000018","720","446","f","true","img/T_ambi40.png","をる","prac",""
"","","","","","html-keyboard-response","302","510292","0.0-8.3-0.3-1.110","null","<span style='color:GreenYellow; font-size: 70px;'>正确! </span>","null","","","","","","","","","","","","","","","","","","","","","","","feedback_test"
"","","","","","psychophysics","303","511703","0.0-8.3-0.3-0.111","407","","f","","","","","","","","","","","","","key","f","16.666999999999703","720","446","j","false","img/S_ambi40.png","朋友","prac",""
"","","","","","html-keyboard-response","304","512213","0.0-8.3-0.3-1.111","null","<span style='color:red; font-size: 70px;'>错误! </span>","null","","","","","","","","","","","","","","","","","","","","","","","feedback_test"
"","","","","","psychophysics","305","513791","0.0-8.3-0.3-0.112","570","","j","","","","","","","","","","","","","key","j","16.66699999999956","720","446","j","true","img/C_ambi40.png","自我","prac",""
"","","","","","html-keyboard-response","306","514299","0.0-8.3-0.3-1.112","null","<span style='color:GreenYellow; font-size: 70px;'>正确! </span>","null","","","","","","","","","","","","","","","","","","","","","","","feedback_test"
"","","","","","psychophysics","307","515685","0.0-8.3-0.3-0.113","376","","f","","","","","","","","","","","","","key","f","16.666999999999504","720","446","j","false","img/H_ambi40.png","朋友","prac",""
"","","","","","html-keyboard-response","308","516198","0.0-8.3-0.3-1.113","null","<span style='color:red; font-size: 70px;'>错误! </span>","null","","","","","","","","","","","","","","","","","","","","","","","feedback_test"
"","","","","","psychophysics","309","517842","0.0-8.3-0.3-0.114","639","","j","","","","","","","","","","","","","key","j","16.667515463917635","720","446","f","false","img/T_ambi40.png","をる","prac",""
"","","","","","html-keyboard-response","310","518346","0.0-8.3-0.3-1.114","null","<span style='color:red; font-size: 70px;'>错误! </span>","null","","","","","","","","","","","","","","","","","","","","","","","feedback_test"
"","","","","","psychophysics","311","520065","0.0-8.3-0.3-0.115","718","","f","","","","","","","","","","","","","key","f","16.666999999999852","720","446","f","true","img/H_ambi40.png","生人","prac",""
"","","","","","html-keyboard-response","312","520572","0.0-8.3-0.3-1.115","null","<span style='color:GreenYellow; font-size: 70px;'>正确! </span>","null","","","","","","","","","","","","","","","","","","","","","","","feedback_test"
"","","","","","psychophysics","313","522217","0.0-8.3-0.3-0.116","640","","f","","","","","","","","","","","","","key","f","16.666999999999796","720","446","f","true","img/T_ambi40.png","をる","prac",""
"","","","","","html-keyboard-response","314","522726","0.0-8.3-0.3-1.116","null","<span style='color:GreenYellow; font-size: 70px;'>正确! </span>","null","","","","","","","","","","","","","","","","","","","","","","","feedback_test"
"","","","","","psychophysics","315","524203","0.0-8.3-0.3-0.117","473","","f","","","","","","","","","","","","","key","f","16.667000000000446","720","446","f","true","img/C_ambi40.png","朋友","prac",""
"","","","","","html-keyboard-response","316","524709","0.0-8.3-0.3-1.117","null","<span style='color:GreenYellow; font-size: 70px;'>正确! </span>","null","","","","","","","","","","","","","","","","","","","","","","","feedback_test"
"","","","","","psychophysics","317","526240","0.0-8.3-0.3-0.118","527","","f","","","","","","","","","","","","","key","f","16.66700000000031","720","446","f","true","img/T_ambi40.png","をる","prac",""
"","","","","","html-keyboard-response","318","526745","0.0-8.3-0.3-1.118","null","<span style='color:GreenYellow; font-size: 70px;'>正确! </span>","null","","","","","","","","","","","","","","","","","","","","","","","feedback_test"
"","","","","","psychophysics","319","528363","0.0-8.3-0.3-0.119","617","","f","","","","","","","","","","","","","key","f","16.66700000000007","720","446","f","true","img/H_ambi40.png","生人","prac",""
"","","","","","html-keyboard-response","320","528865","0.0-8.3-0.3-1.119","null","<span style='color:GreenYellow; font-size: 70px;'>正确! </span>","null","","","","","","","","","","","","","","","","","","","","","","","feedback_test"
"","","","","","psychophysics","321","530589","0.0-8.3-0.3-0.120","712","","f","","","","","","","","","","","","","key","f","16.666999999999852","720","446","f","true","img/T_ambi40.png","をる","prac",""
"","","","","","html-keyboard-response","322","531097","0.0-8.3-0.3-1.120","null","<span style='color:GreenYellow; font-size: 70px;'>正确! </span>","null","","","","","","","","","","","","","","","","","","","","","","","feedback_test"
"","","","","","psychophysics","323","532532","0.0-8.3-0.3-0.121","423","","f","","","","","","","","","","","","","key","f","16.667000000000765","720","446","f","true","img/C_ambi40.png","朋友","prac",""
"","","","","","html-keyboard-response","324","533034","0.0-8.3-0.3-1.121","null","<span style='color:GreenYellow; font-size: 70px;'>正确! </span>","null","","","","","","","","","","","","","","","","","","","","","","","feedback_test"
"","","","","","psychophysics","325","534716","0.0-8.3-0.3-0.122","672","","f","","","","","","","","","","","","","key","f","16.666999999999533","720","446","j","false","img/S_ambi40.png","生人","prac",""
"","","","","","html-keyboard-response","326","535217","0.0-8.3-0.3-1.122","null","<span style='color:red; font-size: 70px;'>错误! </span>","null","","","","","","","","","","","","","","","","","","","","","","","feedback_test"
"","","","","","psychophysics","327","536757","0.0-8.3-0.3-0.123","532","","f","","","","","","","","","","","","","key","f","16.666999999999202","720","446","f","true","img/S_ambi40.png","自我","prac",""
"","","","","","html-keyboard-response","328","537266","0.0-8.3-0.3-1.123","null","<span style='color:GreenYellow; font-size: 70px;'>正确! </span>","null","","","","","","","","","","","","","","","","","","","","","","","feedback_test"
"","","","","","psychophysics","329","538839","0.0-8.3-0.3-0.124","563","","f","","","","","","","","","","","","","key","f","16.666709677418893","720","446","f","true","img/S_ambi40.png","自我","prac",""
"","","","","","html-keyboard-response","330","539348","0.0-8.3-0.3-1.124","null","<span style='color:GreenYellow; font-size: 70px;'>正确! </span>","null","","","","","","","","","","","","","","","","","","","","","","","feedback_test"
"","","","","","psychophysics","331","541170","0.0-8.3-0.3-0.125","817","","j","","","","","","","","","","","","","key","j","16.666999999999664","720","446","j","true","img/C_ambi40.png","生人","prac",""
"","","","","","html-keyboard-response","332","541675","0.0-8.3-0.3-1.125","null","<span style='color:GreenYellow; font-size: 70px;'>正确! </span>","null","","","","","","","","","","","","","","","","","","","","","","","feedback_test"
"","","","","","psychophysics","333","543526","0.0-8.3-0.3-0.126","848","","j","","","","","","","","","","","","","key","j","16.666999999999813","720","446","j","true","img/H_ambi40.png","自我","prac",""
"","","","","","html-keyboard-response","334","544037","0.0-8.3-0.3-1.126","null","<span style='color:GreenYellow; font-size: 70px;'>正确! </span>","null","","","","","","","","","","","","","","","","","","","","","","","feedback_test"
"","","","","","psychophysics","335","545932","0.0-8.3-0.3-0.127","890","","f","","","","","","","","","","","","","key","f","16.666999999999348","720","446","j","false","img/S_ambi40.png","朋友","prac",""
"","","","","","html-keyboard-response","336","546444","0.0-8.3-0.3-1.127","null","<span style='color:red; font-size: 70px;'>错误! </span>","null","","","","","","","","","","","","","","","","","","","","","","","feedback_test"
"","","","","","html-keyboard-response","337","548182","0.0-8.3-1.3-0.3","1733","<style>.context{color:white; font-size: 35px; line-height:40px}</style>                          <div><p class='context'>您正确回答了69% 的试次。</p ><p class='context'>您的平均反应时为536毫秒。</p >","arrowright","","","","","","","","","","","","","","","","","","","","","","",""
"","","","","","instructions","338","553320","0.0-8.3-1.3-1.3","5135","","","","","","","","","","","","","","[{""page_index"":0,""viewing_time"":346},{""page_index"":1,""viewing_time"":1367},{""page_index"":2,""viewing_time"":3422}]","","","","","","","","","","",""
"","","","","","psychophysics","339","554713","0.0-8.4-0.4-0.128","389","","f","","","","","","","","","","","","","key","f","16.666999999999","720","446","f","true","img/T_ambi40.png","をる","prac",""
"","","","","","html-keyboard-response","340","555221","0.0-8.4-0.4-1.128","null","<span style='color:GreenYellow; font-size: 70px;'>正确! </span>","null","","","","","","","","","","","","","","","","","","","","","","","feedback_test"
"","","","","","psychophysics","341","557139","0.0-8.4-0.4-0.129","914","","j","","","","","","","","","","","","","key","j","16.667000000000513","720","446","j","true","img/H_ambi40.png","自我","prac",""
"","","","","","html-keyboard-response","342","557644","0.0-8.4-0.4-1.129","null","<span style='color:GreenYellow; font-size: 70px;'>正确! </span>","null","","","","","","","","","","","","","","","","","","","","","","","feedback_test"
"","","","","","psychophysics","343","559037","0.0-8.4-0.4-0.130","388","","f","","","","","","","","","","","","","key","f","16.667000000000215","720","446","f","true","img/T_ambi40.png","をる","prac",""
"","","","","","html-keyboard-response","344","559548","0.0-8.4-0.4-1.130","null","<span style='color:GreenYellow; font-size: 70px;'>正确! </span>","null","","","","","","","","","","","","","","","","","","","","","","","feedback_test"
"","","","","","psychophysics","345","561308","0.0-8.4-0.4-0.131","753","","f","","","","","","","","","","","","","key","f","16.66700000000016","720","446","f","true","img/C_ambi40.png","朋友","prac",""
"","","","","","html-keyboard-response","346","561820","0.0-8.4-0.4-1.131","null","<span style='color:GreenYellow; font-size: 70px;'>正确! </span>","null","","","","","","","","","","","","","","","","","","","","","","","feedback_test"
"","","","","","psychophysics","347","563507","0.0-8.4-0.4-0.132","680","","f","","","","","","","","","","","","","key","f","16.667000000000698","720","446","f","true","img/T_ambi40.png","をる","prac",""
"","","","","","html-keyboard-response","348","564012","0.0-8.4-0.4-1.132","null","<span style='color:GreenYellow; font-size: 70px;'>正确! </span>","null","","","","","","","","","","","","","","","","","","","","","","","feedback_test"
"","","","","","psychophysics","349","565730","0.0-8.4-0.4-0.133","714","","f","","","","","","","","","","","","","key","f","16.666999999999852","720","446","f","true","img/C_ambi40.png","朋友","prac",""
"","","","","","html-keyboard-response","350","566232","0.0-8.4-0.4-1.133","null","<span style='color:GreenYellow; font-size: 70px;'>正确! </span>","null","","","","","","","","","","","","","","","","","","","","","","","feedback_test"
"","","","","","psychophysics","351","568049","0.0-8.4-0.4-0.134","806","","f","","","","","","","","","","","","","key","f","16.666999999999664","720","446","f","true","img/S_ambi40.png","自我","prac",""
"","","","","","html-keyboard-response","352","568552","0.0-8.4-0.4-1.134","null","<span style='color:GreenYellow; font-size: 70px;'>正确! </span>","null","","","","","","","","","","","","","","","","","","","","","","","feedback_test"
"","","","","","psychophysics","353","570449","0.0-8.4-0.4-0.135","887","","j","","","","","","","","","","","","","key","j","16.667362831858505","720","446","j","true","img/S_ambi40.png","生人","prac",""
"","","","","","html-keyboard-response","354","570953","0.0-8.4-0.4-1.135","null","<span style='color:GreenYellow; font-size: 70px;'>正确! </span>","null","","","","","","","","","","","","","","","","","","","","","","","feedback_test"
"","","","","","psychophysics","355","572685","0.0-8.4-0.4-0.136","724","","f","","","","","","","","","","","","","key","f","16.66700000000001","720","446","f","true","img/S_ambi40.png","自我","prac",""
"","","","","","html-keyboard-response","356","573196","0.0-8.4-0.4-1.136","null","<span style='color:GreenYellow; font-size: 70px;'>正确! </span>","null","","","","","","","","","","","","","","","","","","","","","","","feedback_test"
"","","","","","psychophysics","357","575066","0.0-8.4-0.4-0.137","864","","j","","","","","","","","","","","","","key","j","16.666999999999053","720","446","j","true","img/H_ambi40.png","朋友","prac",""
"","","","","","html-keyboard-response","358","575568","0.0-8.4-0.4-1.137","null","<span style='color:GreenYellow; font-size: 70px;'>正确! </span>","null","","","","","","","","","","","","","","","","","","","","","","","feedback_test"
"","","","","","psychophysics","359","577170","0.0-8.4-0.4-0.138","593","","f","","","","","","","","","","","","","key","f","16.666999999999902","720","446","f","true","img/T_ambi40.png","をる","prac",""
"","","","","","html-keyboard-response","360","577676","0.0-8.4-0.4-1.138","null","<span style='color:GreenYellow; font-size: 70px;'>正确! </span>","null","","","","","","","","","","","","","","","","","","","","","","","feedback_test"
"","","","","","psychophysics","361","579903","0.0-8.4-0.4-0.139","1226","","j","","","","","","","","","","","","","key","j","16.66699999999996","720","446","f","false","img/H_ambi40.png","生人","prac",""
"","","","","","html-keyboard-response","362","580412","0.0-8.4-0.4-1.139","null","<span style='color:red; font-size: 70px;'>错误! </span>","null","","","","","","","","","","","","","","","","","","","","","","","feedback_test"
"","","","","","psychophysics","363","582064","0.0-8.4-0.4-0.140","646","","f","","","","","","","","","","","","","key","f","16.666999999999202","720","446","j","false","img/C_ambi40.png","生人","prac",""
"","","","","","html-keyboard-response","364","582572","0.0-8.4-0.4-1.140","null","<span style='color:red; font-size: 70px;'>错误! </span>","null","","","","","","","","","","","","","","","","","","","","","","","feedback_test"
"","","","","","psychophysics","365","584407","0.0-8.4-0.4-0.141","830","","j","","","","","","","","","","","","","key","j","16.666999999999813","720","446","j","true","img/S_ambi40.png","朋友","prac",""
"","","","","","html-keyboard-response","366","584912","0.0-8.4-0.4-1.141","null","<span style='color:GreenYellow; font-size: 70px;'>正确! </span>","null","","","","","","","","","","","","","","","","","","","","","","","feedback_test"
"","","","","","psychophysics","367","586751","0.0-8.4-0.4-0.142","828","","f","","","","","","","","","","","","","key","f","16.666999999999813","720","446","j","false","img/C_ambi40.png","自我","prac",""
"","","","","","html-keyboard-response","368","587259","0.0-8.4-0.4-1.142","null","<span style='color:red; font-size: 70px;'>错误! </span>","null","","","","","","","","","","","","","","","","","","","","","","","feedback_test"
"","","","","","psychophysics","369","589218","0.0-8.4-0.4-0.143","957","","j","","","","","","","","","","","","","key","j","16.667517241379567","720","446","f","false","img/H_ambi40.png","生人","prac",""
"","","","","","html-keyboard-response","370","589720","0.0-8.4-0.4-1.143","null","<span style='color:red; font-size: 70px;'>错误! </span>","null","","","","","","","","","","","","","","","","","","","","","","","feedback_test"
"","","","","","psychophysics","371","591768","0.0-8.4-0.4-0.144","1042","","f","","","","","","","","","","","","","key","f","16.667000000000566","720","446","j","false","img/H_ambi40.png","朋友","prac",""
"","","","","","html-keyboard-response","372","592275","0.0-8.4-0.4-1.144","null","<span style='color:red; font-size: 70px;'>错误! </span>","null","","","","","","","","","","","","","","","","","","","","","","","feedback_test"
"","","","","","psychophysics","373","593716","0.0-8.4-0.4-0.145","439","","j","","","","","","","","","","","","","key","j","16.667000000000765","720","446","f","false","img/S_ambi40.png","自我","prac",""
"","","","","","html-keyboard-response","374","594220","0.0-8.4-0.4-1.145","null","<span style='color:red; font-size: 70px;'>错误! </span>","null","","","","","","","","","","","","","","","","","","","","","","","feedback_test"
"","","","","","psychophysics","375","595665","0.0-8.4-0.4-0.146","440","","f","","","","","","","","","","","","","key","f","16.66699999999959","720","446","f","true","img/C_ambi40.png","朋友","prac",""
"","","","","","html-keyboard-response","376","596170","0.0-8.4-0.4-1.146","null","<span style='color:GreenYellow; font-size: 70px;'>正确! </span>","null","","","","","","","","","","","","","","","","","","","","","","","feedback_test"
"","","","","","psychophysics","377","598142","0.0-8.4-0.4-0.147","964","","f","","","","","","","","","","","","","key","f","16.666999999999913","720","446","f","true","img/S_ambi40.png","自我","prac",""
"","","","","","html-keyboard-response","378","598651","0.0-8.4-0.4-1.147","null","<span style='color:GreenYellow; font-size: 70px;'>正确! </span>","null","","","","","","","","","","","","","","","","","","","","","","","feedback_test"
"","","","","","psychophysics","379","600638","0.0-8.4-0.4-0.148","979","","j","","","","","","","","","","","","","key","j","16.666949152542966","720","446","f","false","img/T_ambi40.png","をる","prac",""
"","","","","","html-keyboard-response","380","601144","0.0-8.4-0.4-1.148","null","<span style='color:red; font-size: 70px;'>错误! </span>","null","","","","","","","","","","","","","","","","","","","","","","","feedback_test"
"","","","","","psychophysics","381","602799","0.0-8.4-0.4-0.149","652","","f","","","","","","","","","","","","","key","f","16.66700000000039","720","446","f","true","img/T_ambi40.png","をる","prac",""
"","","","","","html-keyboard-response","382","603304","0.0-8.4-0.4-1.149","null","<span style='color:GreenYellow; font-size: 70px;'>正确! </span>","null","","","","","","","","","","","","","","","","","","","","","","","feedback_test"
"","","","","","psychophysics","383","605062","0.0-8.4-0.4-0.150","752","","f","","","","","","","","","","","","","key","f","16.66700000000031","720","446","f","true","img/H_ambi40.png","生人","prac",""
"","","","","","html-keyboard-response","384","605567","0.0-8.4-0.4-1.150","null","<span style='color:GreenYellow; font-size: 70px;'>正确! </span>","null","","","","","","","","","","","","","","","","","","","","","","","feedback_test"
"","","","","","psychophysics","385","607347","0.0-8.4-0.4-0.151","770","","f","","","","","","","","","","","","","key","f","16.667000000000456","720","446","f","true","img/T_ambi40.png","をる","prac",""
"","","","","","html-keyboard-response","386","607858","0.0-8.4-0.4-1.151","null","<span style='color:GreenYellow; font-size: 70px;'>正确! </span>","null","","","","","","","","","","","","","","","","","","","","","","","feedback_test"
"","","","","","psychophysics","387","609541","0.0-8.4-0.4-0.152","679","","f","","","","","","","","","","","","","key","f","16.66699999999937","720","446","j","false","img/H_ambi40.png","自我","prac",""
"","","","","","html-keyboard-response","388","610050","0.0-8.4-0.4-1.152","null","<span style='color:red; font-size: 70px;'>错误! </span>","null","","","","","","","","","","","","","","","","","","","","","","","feedback_test"
"","","","","","psychophysics","389","611700","0.0-8.4-0.4-0.153","641","","f","","","","","","","","","","","","","key","f","16.666999999999202","720","446","f","true","img/H_ambi40.png","生人","prac",""
"","","","","","html-keyboard-response","390","612212","0.0-8.4-0.4-1.153","null","<span style='color:GreenYellow; font-size: 70px;'>正确! </span>","null","","","","","","","","","","","","","","","","","","","","","","","feedback_test"
"","","","","","psychophysics","391","613755","0.0-8.4-0.4-0.154","542","","f","","","","","","","","","","","","","key","f","16.66700000000048","720","446","j","false","img/C_ambi40.png","自我","prac",""
"","","","","","html-keyboard-response","392","614265","0.0-8.4-0.4-1.154","null","<span style='color:red; font-size: 70px;'>错误! </span>","null","","","","","","","","","","","","","","","","","","","","","","","feedback_test"
"","","","","","psychophysics","393","616072","0.0-8.4-0.4-0.155","797","","f","","","","","","","","","","","","","key","f","16.667000000000602","720","446","j","false","img/S_ambi40.png","生人","prac",""
"","","","","","html-keyboard-response","394","616576","0.0-8.4-0.4-1.155","null","<span style='color:red; font-size: 70px;'>错误! </span>","null","","","","","","","","","","","","","","","","","","","","","","","feedback_test"
"","","","","","psychophysics","395","618314","0.0-8.4-0.4-0.156","736","","f","","","","","","","","","","","","","key","f","16.66699999999888","720","446","f","true","img/T_ambi40.png","をる","prac",""
"","","","","","html-keyboard-response","396","618826","0.0-8.4-0.4-1.156","null","<span style='color:GreenYellow; font-size: 70px;'>正确! </span>","null","","","","","","","","","","","","","","","","","","","","","","","feedback_test"
"","","","","","psychophysics","397","620915","0.0-8.4-0.4-0.157","1087","","j","","","","","","","","","","","","","key","j","16.667258064516055","720","446","j","true","img/S_ambi40.png","朋友","prac",""
"","","","","","html-keyboard-response","398","621423","0.0-8.4-0.4-1.157","null","<span style='color:GreenYellow; font-size: 70px;'>正确! </span>","null","","","","","","","","","","","","","","","","","","","","","","","feedback_test"
"","","","","","psychophysics","399","623146","0.0-8.4-0.4-0.158","718","","f","","","","","","","","","","","","","key","f","16.66700000000001","720","446","f","true","img/C_ambi40.png","朋友","prac",""
"","","","","","html-keyboard-response","400","623649","0.0-8.4-0.4-1.158","null","<span style='color:GreenYellow; font-size: 70px;'>正确! </span>","null","","","","","","","","","","","","","","","","","","","","","","","feedback_test"
"","","","","","psychophysics","401","625348","0.0-8.4-0.4-0.159","690","","f","","","","","","","","","","","","","key","f","16.666999999999696","720","446","j","false","img/C_ambi40.png","生人","prac",""
"","","","","","html-keyboard-response","402","625858","0.0-8.4-0.4-1.159","null","<span style='color:red; font-size: 70px;'>错误! </span>","null","","","","","","","","","","","","","","","","","","","","","","","feedback_test"
"","","","","","html-keyboard-response","403","628722","0.0-8.4-1.4-0.4","2859","<style>.context{color:white; font-size: 35px; line-height:40px}</style>                          <div><p class='context'>您正确回答了66% 的试次。</p ><p class='context'>您的平均反应时为729毫秒。</p >","arrowright","","","","","","","","","","","","","","","","","","","","","","",""
"","","","","","instructions","404","809074","0.0-8.4-1.4-1.4","180352","","","","","","","","","","","","","","[{""page_index"":0,""viewing_time"":3694},{""page_index"":1,""viewing_time"":173744},{""page_index"":2,""viewing_time"":2913}]","","","","","","","","","","",""
"","","","","","psychophysics","405","810569","0.0-8.5-0.5-0.160","492","","f","","","","","","","","","","","","","key","f","16.66699999999996","720","446","j","false","img/H_ambi40.png","朋友","prac",""
"","","","","","html-keyboard-response","406","811077","0.0-8.5-0.5-1.160","null","<span style='color:red; font-size: 70px;'>错误! </span>","null","","","","","","","","","","","","","","","","","","","","","","","feedback_test"
"","","","","","psychophysics","407","812397","0.0-8.5-0.5-0.161","319","","j","","","","","","","","","","","","","key","j","16.666999999999415","720","446","f","false","img/S_ambi40.png","自我","prac",""
"","","","","","html-keyboard-response","408","812900","0.0-8.5-0.5-1.161","null","<span style='color:red; font-size: 70px;'>错误! </span>","null","","","","","","","","","","","","","","","","","","","","","","","feedback_test"
"","","","","","psychophysics","409","814489","0.0-8.5-0.5-0.162","579","","f","","","","","","","","","","","","","key","f","16.66699999999973","720","446","f","true","img/C_ambi40.png","朋友","prac",""
"","","","","","html-keyboard-response","410","814995","0.0-8.5-0.5-1.162","null","<span style='color:GreenYellow; font-size: 70px;'>正确! </span>","null","","","","","","","","","","","","","","","","","","","","","","","feedback_test"
"","","","","","psychophysics","411","816440","0.0-8.5-0.5-0.163","437","","f","","","","","","","","","","","","","key","f","16.666611764706015","720","446","f","true","img/T_ambi40.png","をる","prac",""
"","","","","","html-keyboard-response","412","816947","0.0-8.5-0.5-1.163","null","<span style='color:GreenYellow; font-size: 70px;'>正确! </span>","null","","","","","","","","","","","","","","","","","","","","","","","feedback_test"
"","","","","","psychophysics","413","818418","0.0-8.5-0.5-0.164","460","","f","","","","","","","","","","","","","key","f","16.666999999999774","720","446","f","true","img/H_ambi40.png","生人","prac",""
"","","","","","html-keyboard-response","414","818926","0.0-8.5-0.5-1.164","null","<span style='color:GreenYellow; font-size: 70px;'>正确! </span>","null","","","","","","","","","","","","","","","","","","","","","","","feedback_test"
"","","","","","psychophysics","415","820290","0.0-8.5-0.5-0.165","362","","f","","","","","","","","","","","","","key","f","16.666999999999824","720","446","j","false","img/C_ambi40.png","自我","prac",""
"","","","","","html-keyboard-response","416","820798","0.0-8.5-0.5-1.165","null","<span style='color:red; font-size: 70px;'>错误! </span>","null","","","","","","","","","","","","","","","","","","","","","","","feedback_test"
"","","","","","psychophysics","417","822455","0.0-8.5-0.5-0.166","653","","f","","","","","","","","","","","","","key","f","16.666999999999202","720","446","f","true","img/T_ambi40.png","をる","prac",""
"","","","","","html-keyboard-response","418","822965","0.0-8.5-0.5-1.166","null","<span style='color:GreenYellow; font-size: 70px;'>正确! </span>","null","","","","","","","","","","","","","","","","","","","","","","","feedback_test"
"","","","","","psychophysics","419","824505","0.0-8.5-0.5-0.167","531","","f","","","","","","","","","","","","","key","f","16.66700000000048","720","446","f","true","img/T_ambi40.png","をる","prac",""
"","","","","","html-keyboard-response","420","825013","0.0-8.5-0.5-1.167","null","<span style='color:GreenYellow; font-size: 70px;'>正确! </span>","null","","","","","","","","","","","","","","","","","","","","","","","feedback_test"
"","","","","","psychophysics","421","826649","0.0-8.5-0.5-0.168","628","","j","","","","","","","","","","","","","key","j","16.66700000000023","720","446","f","false","img/S_ambi40.png","自我","prac",""
"","","","","","html-keyboard-response","422","827158","0.0-8.5-0.5-1.168","null","<span style='color:red; font-size: 70px;'>错误! </span>","null","","","","","","","","","","","","","","","","","","","","","","","feedback_test"
"","","","","","psychophysics","423","828938","0.0-8.5-0.5-0.169","776","","j","","","","","","","","","","","","","key","j","16.66700000000031","720","446","j","true","img/C_ambi40.png","生人","prac",""
"","","","","","html-keyboard-response","424","829443","0.0-8.5-0.5-1.169","null","<span style='color:GreenYellow; font-size: 70px;'>正确! </span>","null","","","","","","","","","","","","","","","","","","","","","","","feedback_test"
"","","","","","psychophysics","425","831228","0.0-8.5-0.5-0.170","783","","f","","","","","","","","","","","","","key","f","16.667000000000456","720","446","j","false","img/H_ambi40.png","自我","prac",""
"","","","","","html-keyboard-response","426","831731","0.0-8.5-0.5-1.170","null","<span style='color:red; font-size: 70px;'>错误! </span>","null","","","","","","","","","","","","","","","","","","","","","","","feedback_test"
"","","","","","psychophysics","427","833586","0.0-8.5-0.5-0.171","845","","f","","","","","","","","","","","","","key","f","16.66699999999996","720","446","j","false","img/S_ambi40.png","朋友","prac",""
"","","","","","html-keyboard-response","428","834091","0.0-8.5-0.5-1.171","null","<span style='color:red; font-size: 70px;'>错误! </span>","null","","","","","","","","","","","","","","","","","","","","","","","feedback_test"
"","","","","","psychophysics","429","835965","0.0-8.5-0.5-0.172","872","","f","","","","","","","","","","","","","key","f","16.667981981982578","720","446","f","true","img/T_ambi40.png","をる","prac",""
"","","","","","html-keyboard-response","430","836475","0.0-8.5-0.5-1.172","null","<span style='color:GreenYellow; font-size: 70px;'>正确! </span>","null","","","","","","","","","","","","","","","","","","","","","","","feedback_test"
"","","","","","psychophysics","431","838802","0.0-8.5-0.5-0.173","1326","","f","","","","","","","","","","","","","key","f","16.667000000000648","720","446","j","false","img/S_ambi40.png","生人","prac",""
"","","","","","html-keyboard-response","432","839306","0.0-8.5-0.5-1.173","null","<span style='color:red; font-size: 70px;'>错误! </span>","null","","","","","","","","","","","","","","","","","","","","","","","feedback_test"
"","","","","","psychophysics","433","841789","0.0-8.5-0.5-0.174","1480","","f","","","","","","","","","","","","","key","f","16.6670000000001","720","446","f","true","img/H_ambi40.png","生人","prac",""
"","","","","","html-keyboard-response","434","842300","0.0-8.5-0.5-1.174","null","<span style='color:GreenYellow; font-size: 70px;'>正确! </span>","null","","","","","","","","","","","","","","","","","","","","","","","feedback_test"
"","","","","","psychophysics","435","844186","0.0-8.5-0.5-0.175","876","","f","","","","","","","","","","","","","key","f","16.66700000000024","720","446","f","true","img/C_ambi40.png","朋友","prac",""
"","","","","","html-keyboard-response","436","844692","0.0-8.5-0.5-1.175","null","<span style='color:GreenYellow; font-size: 70px;'>正确! </span>","null","","","","","","","","","","","","","","","","","","","","","","","feedback_test"
"","","","","","psychophysics","437","847172","0.0-8.5-0.5-0.176","1477","","j","","","","","","","","","","","","","key","j","16.666999999999994","720","446","j","true","img/C_ambi40.png","自我","prac",""
"","","","","","html-keyboard-response","438","847677","0.0-8.5-0.5-1.176","null","<span style='color:GreenYellow; font-size: 70px;'>正确! </span>","null","","","","","","","","","","","","","","","","","","","","","","","feedback_test"
"","","","","","psychophysics","439","849736","0.0-8.5-0.5-0.177","1057","","j","","","","","","","","","","","","","key","j","16.66699999999961","720","446","j","true","img/S_ambi40.png","生人","prac",""
"","","","","","html-keyboard-response","440","850243","0.0-8.5-0.5-1.177","null","<span style='color:GreenYellow; font-size: 70px;'>正确! </span>","null","","","","","","","","","","","","","","","","","","","","","","","feedback_test"
"","","","","","psychophysics","441","852030","0.0-8.5-0.5-0.178","778","","j","","","","","","","","","","","","","key","j","16.667000000000456","720","446","f","false","img/S_ambi40.png","自我","prac",""
"","","","","","html-keyboard-response","442","852541","0.0-8.5-0.5-1.178","null","<span style='color:red; font-size: 70px;'>错误! </span>","null","","","","","","","","","","","","","","","","","","","","","","","feedback_test"
"","","","","","psychophysics","443","853992","0.0-8.5-0.5-0.179","449","","f","","","","","","","","","","","","","key","f","16.667000000000765","720","446","j","false","img/S_ambi40.png","朋友","prac",""
"","","","","","html-keyboard-response","444","854500","0.0-8.5-0.5-1.179","null","<span style='color:red; font-size: 70px;'>错误! </span>","null","","","","","","","","","","","","","","","","","","","","","","","feedback_test"
"","","","","","psychophysics","445","856568","0.0-8.5-0.5-0.180","1061","","f","","","","","","","","","","","","","key","f","16.667406504065163","720","446","f","true","img/C_ambi40.png","朋友","prac",""
"","","","","","html-keyboard-response","446","857075","0.0-8.5-0.5-1.180","null","<span style='color:GreenYellow; font-size: 70px;'>正确! </span>","null","","","","","","","","","","","","","","","","","","","","","","","feedback_test"
"","","","","","psychophysics","447","858696","0.0-8.5-0.5-0.181","619","","f","","","","","","","","","","","","","key","f","16.66700000000007","720","446","f","true","img/T_ambi40.png","をる","prac",""
"","","","","","html-keyboard-response","448","859202","0.0-8.5-0.5-1.181","null","<span style='color:GreenYellow; font-size: 70px;'>正确! </span>","null","","","","","","","","","","","","","","","","","","","","","","","feedback_test"
"","","","","","psychophysics","449","860982","0.0-8.5-0.5-0.182","772","","j","","","","","","","","","","","","","key","j","16.66699999999936","720","446","f","false","img/S_ambi40.png","自我","prac",""
"","","","","","html-keyboard-response","450","861492","0.0-8.5-0.5-1.182","null","<span style='color:red; font-size: 70px;'>错误! </span>","null","","","","","","","","","","","","","","","","","","","","","","","feedback_test"
"","","","","","psychophysics","451","863133","0.0-8.5-0.5-0.183","640","","f","","","","","","","","","","","","","key","f","16.66700000000023","720","446","f","true","img/C_ambi40.png","朋友","prac",""
"","","","","","html-keyboard-response","452","863645","0.0-8.5-0.5-1.183","null","<span style='color:GreenYellow; font-size: 70px;'>正确! </span>","null","","","","","","","","","","","","","","","","","","","","","","","feedback_test"
"","","","","","psychophysics","453","865513","0.0-8.5-0.5-0.184","862","","j","","","","","","","","","","","","","key","j","16.6670000000001","720","446","j","true","img/H_ambi40.png","自我","prac",""
"","","","","","html-keyboard-response","454","866020","0.0-8.5-0.5-1.184","null","<span style='color:GreenYellow; font-size: 70px;'>正确! </span>","null","","","","","","","","","","","","","","","","","","","","","","","feedback_test"
"","","","","","psychophysics","455","867929","0.0-8.5-0.5-0.185","905","","j","","","","","","","","","","","","","key","j","16.666999999999494","720","446","j","true","img/C_ambi40.png","生人","prac",""
"","","","","","html-keyboard-response","456","868436","0.0-8.5-0.5-1.185","null","<span style='color:GreenYellow; font-size: 70px;'>正确! </span>","null","","","","","","","","","","","","","","","","","","","","","","","feedback_test"
