"success","timeout","failed_images","failed_audio","failed_video","trial_type","trial_index","time_elapsed","internal_node_id","rt","stimulus","response","value","item_width_mm","item_height_mm","item_width_px","px2mm","view_dist_mm","item_width_deg","px2deg","scale_factor","win_width_deg","win_height_deg","view_history","response_type","key_press","avg_frame_time","center_x","center_y","correct_response","correct","Image","word","condition","screen_id"
"true","false","[]","[]","[]","preload","0","5794","0.0-0.0","","","","","","","","","","","","","","","","","","","","","","","","","",""
"","","","","","html-keyboard-response","1","9296","0.0-1.0","3502","
     <p>您好，欢迎参加本次实验。</p>
     <p>为充分保障您的权利，请确保您已经知晓并同意《参与实验同意书》以及《数据公开知情同意书》。</p>
     <p>如果您未见过上述内容，请咨询实验员。</p>
     <p>如果您选择继续实验，则表示您已经清楚两份知情同意书的内容并同意。</p>
     <p> <div style = ""color: green""><按任意键至下页></div> </p>
     "," ","","","","","","","","","","","","","","","","","","","","","","",""
"","","","","","html-keyboard-response","2","10314","0.0-2.0","1018","
     <p>本实验首先需要您填写一些基本个人信息。</p>
     <p> <div style = ""color: green""><按任意键至下页></div></p>
     "," ","","","","","","","","","","","","","","","","","","","","","","",""
"","","","","","call-function","3","10315","0.0-3.0-0.0","","","","","","","","","","","","","","","","","","","","","","","","","",""
"","","","","","survey-html-form","4","12880","0.0-3.0-1.0","2564","","{""Q0"":""5""}","","","","","","","","","","","","","","","","","","","","","","",""
"","","","","","html-button-response","5","18454","0.0-3.0-2.0","5574","<p style = 'color : white'>您的性别</p>","0","","","","","","","","","","","","","","","","","","","","","","",""
"","","","","","survey-html-form","6","22900","0.0-3.0-3.0","4444","","{""Q0"":""2003""}","","","","","","","","","","","","","","","","","","","","","","",""
"","","","","","survey-html-form","7","30283","0.0-3.0-4.0","7383","","{""Q0"":""5""}","","","","","","","","","","","","","","","","","","","","","","",""
"","","","","","virtual-chinrest","8","81614","0.0-4.0","51329","","","","85.6","53.98","320.7333740473495","3.744410852675425","763.78","6.41466748094699","50","1.321970316495362","33","18.96","","","","","","","","","","","",""
"true","","","","","fullscreen","9","84898","0.0-5.0","","","","","","","","","","","","","","","","","","","","","","","","","",""
"","","","","","instructions","10","150256","0.0-6.0","65358","","","","","","","","","","","","","","[{""page_index"":0,""viewing_time"":1212},{""page_index"":1,""viewing_time"":60866},{""page_index"":2,""viewing_time"":1857},{""page_index"":3,""viewing_time"":1423}]","","","","","","","","","","",""
"","","","","","psychophysics","11","152771","0.0-7.0-0.0","null","","null","","","","","","","","","","","","","key","null","8.50309523809525","853.3333333333334","529.3333333333334","j","false","img/S_ambi40.png","朋友","prac",""
"","","","","","html-keyboard-response","12","153286","0.0-7.0-1.0","null","<span class='add_' style='color:yellow; font-size: 70px;'> 太慢! </span>","null","","","","","","","","","","","","","","","","","","","","","","","feedback_test"
"","","","","","psychophysics","13","155793","0.0-7.0-0.1","null","","null","","","","","","","","","","","","","key","null","8.503689419795242","853.3333333333334","529.3333333333334","j","false","img/C_ambi40.png","生人","prac",""
"","","","","","html-keyboard-response","14","156308","0.0-7.0-1.1","null","<span class='add_' style='color:yellow; font-size: 70px;'> 太慢! </span>","null","","","","","","","","","","","","","","","","","","","","","","","feedback_test"
"","","","","","psychophysics","15","157867","0.0-7.0-0.2","554","","j","","","","","","","","","","","","","key","j","8.56303314917135","853.3333333333334","529.3333333333334","f","false","img/S_ambi40.png","自我","prac",""
"","","","","","html-keyboard-response","16","158370","0.0-7.0-1.2","null","<span style='color:red; font-size: 70px;'>错误! </span>","null","","","","","","","","","","","","","","","","","","","","","","","feedback_test"
"","","","","","psychophysics","17","159596","0.0-7.0-0.3","225","","f","","","","","","","","","","","","","key","f","8.328255172413654","853.3333333333334","529.3333333333334","f","true","img/T_ambi40.png","をる","prac",""
"","","","","","html-keyboard-response","18","160109","0.0-7.0-1.3","null","<span style='color:GreenYellow; font-size: 70px;'>正确! </span>","null","","","","","","","","","","","","","","","","","","","","","","","feedback_test"
"","","","","","psychophysics","19","161824","0.0-7.0-0.4","711","","f","","","","","","","","","","","","","key","f","8.333439024390294","853.3333333333334","529.3333333333334","j","false","img/H_ambi40.png","自我","prac",""
"","","","","","html-keyboard-response","20","162336","0.0-7.0-1.4","null","<span style='color:red; font-size: 70px;'>错误! </span>","null","","","","","","","","","","","","","","","","","","","","","","","feedback_test"
"","","","","","psychophysics","21","163737","0.0-7.0-0.5","400","","j","","","","","","","","","","","","","key","j","8.333664670658562","853.3333333333334","529.3333333333334","f","false","img/H_ambi40.png","生人","prac",""
"","","","","","html-keyboard-response","22","164251","0.0-7.0-1.5","null","<span style='color:red; font-size: 70px;'>错误! </span>","null","","","","","","","","","","","","","","","","","","","","","","","feedback_test"
"","","","","","psychophysics","23","165988","0.0-7.0-0.6","734","","f","","","","","","","","","","","","","key","f","8.414370731707299","853.3333333333334","529.3333333333334","f","true","img/C_ambi40.png","朋友","prac",""
"","","","","","html-keyboard-response","24","166497","0.0-7.0-1.6","null","<span style='color:GreenYellow; font-size: 70px;'>正确! </span>","null","","","","","","","","","","","","","","","","","","","","","","","feedback_test"
"","","","","","psychophysics","25","167824","0.0-7.0-0.7","322","","f","","","","","","","","","","","","","key","f","8.332436708860723","853.3333333333334","529.3333333333334","f","true","img/T_ambi40.png","をる","prac",""
"","","","","","html-keyboard-response","26","168329","0.0-7.0-1.7","null","<span style='color:GreenYellow; font-size: 70px;'>正确! </span>","null","","","","","","","","","","","","","","","","","","","","","","","feedback_test"
"","","","","","psychophysics","27","170836","0.0-7.0-0.8","null","","null","","","","","","","","","","","","","key","null","8.389037037037117","853.3333333333334","529.3333333333334","f","false","img/H_ambi40.png","朋友","prac",""
"","","","","","html-keyboard-response","28","171351","0.0-7.0-1.8","null","<span class='add_' style='color:yellow; font-size: 70px;'> 太慢! </span>","null","","","","","","","","","","","","","","","","","","","","","","","feedback_test"
"","","","","","psychophysics","29","173799","0.0-7.0-0.9","1447","","f","","","","","","","","","","","","","key","f","8.38903793103447","853.3333333333334","529.3333333333334","f","true","img/C_ambi40.png","自我","prac",""
"","","","","","html-keyboard-response","30","174302","0.0-7.0-1.9","null","<span style='color:GreenYellow; font-size: 70px;'>正确! </span>","null","","","","","","","","","","","","","","","","","","","","","","","feedback_test"
"","","","","","psychophysics","31","176806","0.0-7.0-0.10","null","","null","","","","","","","","","","","","","key","null","8.36159395973156","853.3333333333334","529.3333333333334","f","false","img/S_ambi40.png","生人","prac",""
"","","","","","html-keyboard-response","32","177309","0.0-7.0-1.10","null","<span class='add_' style='color:yellow; font-size: 70px;'> 太慢! </span>","null","","","","","","","","","","","","","","","","","","","","","","","feedback_test"
"","","","","","psychophysics","33","179206","0.0-7.0-0.11","894","","f","","","","","","","","","","","","","key","f","8.445067264573991","853.3333333333334","529.3333333333334","j","false","img/S_ambi40.png","朋友","prac",""
"","","","","","html-keyboard-response","34","179719","0.0-7.0-1.11","null","<span style='color:red; font-size: 70px;'>错误! </span>","null","","","","","","","","","","","","","","","","","","","","","","","feedback_test"
"","","","","","psychophysics","35","181585","0.0-7.0-0.12","865","","j","","","","","","","","","","","","","key","j","8.36729411764702","853.3333333333334","529.3333333333334","j","true","img/H_ambi40.png","自我","prac",""
"","","","","","html-keyboard-response","36","182096","0.0-7.0-1.12","null","<span style='color:GreenYellow; font-size: 70px;'>正确! </span>","null","","","","","","","","","","","","","","","","","","","","","","","feedback_test"
"","","","","","psychophysics","37","184244","0.0-7.0-0.13","1147","","j","","","","","","","","","","","","","key","j","8.431525691699632","853.3333333333334","529.3333333333334","j","true","img/C_ambi40.png","生人","prac",""
"","","","","","html-keyboard-response","38","184755","0.0-7.0-1.13","null","<span style='color:GreenYellow; font-size: 70px;'>正确! </span>","null","","","","","","","","","","","","","","","","","","","","","","","feedback_test"
"","","","","","psychophysics","39","186542","0.0-7.0-0.14","780","","f","","","","","","","","","","","","","key","f","8.332338028169016","853.3333333333334","529.3333333333334","f","true","img/T_ambi40.png","をる","prac",""
"","","","","","html-keyboard-response","40","187057","0.0-7.0-1.14","null","<span style='color:GreenYellow; font-size: 70px;'>正确! </span>","null","","","","","","","","","","","","","","","","","","","","","","","feedback_test"
"","","","","","psychophysics","41","188638","0.0-7.0-0.15","577","","f","","","","","","","","","","","","","key","f","8.333398936170232","853.3333333333334","529.3333333333334","f","true","img/T_ambi40.png","をる","prac",""
"","","","","","html-keyboard-response","42","189146","0.0-7.0-1.15","null","<span style='color:GreenYellow; font-size: 70px;'>正确! </span>","null","","","","","","","","","","","","","","","","","","","","","","","feedback_test"
"","","","","","psychophysics","43","190838","0.0-7.0-0.16","685","","j","","","","","","","","","","","","","key","j","8.332980198019886","853.3333333333334","529.3333333333334","j","true","img/H_ambi40.png","自我","prac",""
"","","","","","html-keyboard-response","44","191339","0.0-7.0-1.16","null","<span style='color:GreenYellow; font-size: 70px;'>正确! </span>","null","","","","","","","","","","","","","","","","","","","","","","","feedback_test"
"","","","","","psychophysics","45","192888","0.0-7.0-0.17","544","","f","","","","","","","","","","","","","key","f","8.332962162162152","853.3333333333334","529.3333333333334","f","true","img/T_ambi40.png","をる","prac",""
"","","","","","html-keyboard-response","46","193390","0.0-7.0-1.17","null","<span style='color:GreenYellow; font-size: 70px;'>正确! </span>","null","","","","","","","","","","","","","","","","","","","","","","","feedback_test"
"","","","","","psychophysics","47","195044","0.0-7.0-0.18","649","","j","","","","","","","","","","","","","key","j","8.332999999999975","853.3333333333334","529.3333333333334","j","true","img/H_ambi40.png","自我","prac",""
"","","","","","html-keyboard-response","48","195555","0.0-7.0-1.18","null","<span style='color:GreenYellow; font-size: 70px;'>正确! </span>","null","","","","","","","","","","","","","","","","","","","","","","","feedback_test"
"","","","","","psychophysics","49","197253","0.0-7.0-0.19","691","","j","","","","","","","","","","","","","key","j","8.332925742574204","853.3333333333334","529.3333333333334","j","true","img/C_ambi40.png","生人","prac",""
"","","","","","html-keyboard-response","50","197767","0.0-7.0-1.19","null","<span style='color:GreenYellow; font-size: 70px;'>正确! </span>","null","","","","","","","","","","","","","","","","","","","","","","","feedback_test"
"","","","","","psychophysics","51","199128","0.0-7.0-0.20","359","","j","","","","","","","","","","","","","key","j","8.333484662576733","853.3333333333334","529.3333333333334","j","true","img/C_ambi40.png","生人","prac",""
"","","","","","html-keyboard-response","52","199643","0.0-7.0-1.20","null","<span style='color:GreenYellow; font-size: 70px;'>正确! </span>","null","","","","","","","","","","","","","","","","","","","","","","","feedback_test"
"","","","","","psychophysics","53","201044","0.0-7.0-0.21","400","","j","","","","","","","","","","","","","key","j","8.325397590361465","853.3333333333334","529.3333333333334","f","false","img/C_ambi40.png","朋友","prac",""
"","","","","","html-keyboard-response","54","201546","0.0-7.0-1.21","null","<span style='color:red; font-size: 70px;'>错误! </span>","null","","","","","","","","","","","","","","","","","","","","","","","feedback_test"
"","","","","","psychophysics","55","203233","0.0-7.0-0.22","681","","f","","","","","","","","","","","","","key","f","8.417698492462327","853.3333333333334","529.3333333333334","f","true","img/S_ambi40.png","生人","prac",""
"","","","","","html-keyboard-response","56","203743","0.0-7.0-1.22","null","<span style='color:GreenYellow; font-size: 70px;'>正确! </span>","null","","","","","","","","","","","","","","","","","","","","","","","feedback_test"
"","","","","","psychophysics","57","205635","0.0-7.0-0.23","883","","j","","","","","","","","","","","","","key","j","8.332035555555615","853.3333333333334","529.3333333333334","j","true","img/S_ambi40.png","朋友","prac",""
"","","","","","html-keyboard-response","58","206146","0.0-7.0-1.23","null","<span style='color:GreenYellow; font-size: 70px;'>正确! </span>","null","","","","","","","","","","","","","","","","","","","","","","","feedback_test"
"","","","","","psychophysics","59","207554","0.0-7.0-0.24","402","","j","","","","","","","","","","","","","key","j","8.333303571428544","853.3333333333334","529.3333333333334","j","true","img/S_ambi40.png","朋友","prac",""
"","","","","","html-keyboard-response","60","208058","0.0-7.0-1.24","null","<span style='color:GreenYellow; font-size: 70px;'>正确! </span>","null","","","","","","","","","","","","","","","","","","","","","","","feedback_test"
"","","","","","psychophysics","61","209659","0.0-7.0-0.25","600","","f","","","","","","","","","","","","","key","f","8.467021390374402","853.3333333333334","529.3333333333334","f","true","img/S_ambi40.png","自我","prac",""
"","","","","","html-keyboard-response","62","210161","0.0-7.0-1.25","null","<span style='color:GreenYellow; font-size: 70px;'>正确! </span>","null","","","","","","","","","","","","","","","","","","","","","","","feedback_test"
"","","","","","psychophysics","63","211579","0.0-7.0-0.26","418","","j","","","","","","","","","","","","","key","j","8.332502958579877","853.3333333333334","529.3333333333334","f","false","img/C_ambi40.png","自我","prac",""
"","","","","","html-keyboard-response","64","212092","0.0-7.0-1.26","null","<span style='color:red; font-size: 70px;'>错误! </span>","null","","","","","","","","","","","","","","","","","","","","","","","feedback_test"
"","","","","","psychophysics","65","213586","0.0-7.0-0.27","492","","f","","","","","","","","","","","","","key","f","8.333033707865162","853.3333333333334","529.3333333333334","f","true","img/T_ambi40.png","をる","prac",""
"","","","","","html-keyboard-response","66","214099","0.0-7.0-1.27","null","<span style='color:GreenYellow; font-size: 70px;'>正确! </span>","null","","","","","","","","","","","","","","","","","","","","","","","feedback_test"
"","","","","","psychophysics","67","215684","0.0-7.0-0.28","582","","j","","","","","","","","","","","","","key","j","8.331328042328115","853.3333333333334","529.3333333333334","f","false","img/H_ambi40.png","生人","prac",""
"","","","","","html-keyboard-response","68","216189","0.0-7.0-1.28","null","<span style='color:red; font-size: 70px;'>错误! </span>","null","","","","","","","","","","","","","","","","","","","","","","","feedback_test"
"","","","","","psychophysics","69","217618","0.0-7.0-0.29","427","","j","","","","","","","","","","","","","key","j","8.585733333333382","853.3333333333334","529.3333333333334","f","false","img/T_ambi40.png","をる","prac",""
"","","","","","html-keyboard-response","70","218120","0.0-7.0-1.29","null","<span style='color:red; font-size: 70px;'>错误! </span>","null","","","","","","","","","","","","","","","","","","","","","","","feedback_test"
"","","","","","psychophysics","71","219671","0.0-7.0-0.30","548","","f","","","","","","","","","","","","","key","f","8.660904494382041","853.3333333333334","529.3333333333334","f","true","img/T_ambi40.png","をる","prac",""
"","","","","","html-keyboard-response","72","220180","0.0-7.0-1.30","null","<span style='color:GreenYellow; font-size: 70px;'>正确! </span>","null","","","","","","","","","","","","","","","","","","","","","","","feedback_test"
"","","","","","psychophysics","73","221670","0.0-7.0-0.31","485","","j","","","","","","","","","","","","","key","j","8.624023391812942","853.3333333333334","529.3333333333334","f","false","img/H_ambi40.png","朋友","prac",""
"","","","","","html-keyboard-response","74","222180","0.0-7.0-1.31","null","<span style='color:red; font-size: 70px;'>错误! </span>","null","","","","","","","","","","","","","","","","","","","","","","","feedback_test"
"","","","","","psychophysics","75","223806","0.0-8.0-0.0-0.0","621","","j","","","","","","","","","","","","","key","j","8.598117021276575","853.3333333333334","529.3333333333334","f","false","img/H_ambi40.png","生人","prac",""
"","","","","","html-keyboard-response","76","224313","0.0-8.0-0.0-1.0","null","<span style='color:red; font-size: 70px;'>错误! </span>","null","","","","","","","","","","","","","","","","","","","","","","","feedback_test"
"","","","","","psychophysics","77","225729","0.0-8.0-0.0-0.1","411","","j","","","","","","","","","","","","","key","j","8.432652694610761","853.3333333333334","529.3333333333334","j","true","img/C_ambi40.png","生人","prac",""
"","","","","","html-keyboard-response","78","226240","0.0-8.0-0.0-1.1","null","<span style='color:GreenYellow; font-size: 70px;'>正确! </span>","null","","","","","","","","","","","","","","","","","","","","","","","feedback_test"
"","","","","","psychophysics","79","227670","0.0-8.0-0.0-0.2","426","","f","","","","","","","","","","","","","key","f","8.53022155688635","853.3333333333334","529.3333333333334","f","true","img/S_ambi40.png","自我","prac",""
"","","","","","html-keyboard-response","80","228178","0.0-8.0-0.0-1.2","null","<span style='color:GreenYellow; font-size: 70px;'>正确! </span>","null","","","","","","","","","","","","","","","","","","","","","","","feedback_test"
"","","","","","psychophysics","81","229681","0.0-8.0-0.0-0.3","497","","j","","","","","","","","","","","","","key","j","8.427225988700599","853.3333333333334","529.3333333333334","f","false","img/C_ambi40.png","朋友","prac",""
"","","","","","html-keyboard-response","82","230193","0.0-8.0-0.0-1.3","null","<span style='color:red; font-size: 70px;'>错误! </span>","null","","","","","","","","","","","","","","","","","","","","","","","feedback_test"
"","","","","","psychophysics","83","231628","0.0-8.0-0.0-0.4","433","","j","","","","","","","","","","","","","key","j","8.687213414634199","853.3333333333334","529.3333333333334","f","false","img/T_ambi40.png","をる","prac",""
"","","","","","html-keyboard-response","84","232139","0.0-8.0-0.0-1.4","null","<span style='color:red; font-size: 70px;'>错误! </span>","null","","","","","","","","","","","","","","","","","","","","","","","feedback_test"
"","","","","","psychophysics","85","233589","0.0-8.0-0.0-0.5","447","","f","","","","","","","","","","","","","key","f","8.3826959064327","853.3333333333334","529.3333333333334","j","false","img/H_ambi40.png","自我","prac",""
"","","","","","html-keyboard-response","86","234091","0.0-8.0-0.0-1.5","null","<span style='color:red; font-size: 70px;'>错误! </span>","null","","","","","","","","","","","","","","","","","","","","","","","feedback_test"
"","","","","","psychophysics","87","235354","0.0-8.0-0.0-0.6","261","","j","","","","","","","","","","","","","key","j","8.44544295302003","853.3333333333334","529.3333333333334","f","false","img/T_ambi40.png","をる","prac",""
"","","","","","html-keyboard-response","88","235870","0.0-8.0-0.0-1.6","null","<span style='color:red; font-size: 70px;'>错误! </span>","null","","","","","","","","","","","","","","","","","","","","","","","feedback_test"
"","","","","","psychophysics","89","236942","0.0-8.0-0.0-0.7","66","","f","","","","","","","","","","","","","key","f","8.329118110236298","853.3333333333334","529.3333333333334","f","true","img/T_ambi40.png","をる","prac",""
"","","","","","html-keyboard-response","90","237457","0.0-8.0-0.0-1.7","null","<span style='color:yellow; font-size: 70px;'>过快! </span>","null","","","","","","","","","","","","","","","","","","","","","","","feedback_test"
"","","","","","psychophysics","91","238861","0.0-8.0-0.0-0.8","402","","j","","","","","","","","","","","","","key","j","8.333467065868167","853.3333333333334","529.3333333333334","j","true","img/S_ambi40.png","朋友","prac",""
"","","","","","html-keyboard-response","92","239374","0.0-8.0-0.0-1.8","null","<span style='color:GreenYellow; font-size: 70px;'>正确! </span>","null","","","","","","","","","","","","","","","","","","","","","","","feedback_test"
"","","","","","psychophysics","93","240960","0.0-8.0-0.0-0.9","584","","f","","","","","","","","","","","","","key","f","8.369422459893022","853.3333333333334","529.3333333333334","f","true","img/T_ambi40.png","をる","prac",""
"","","","","","html-keyboard-response","94","241466","0.0-8.0-0.0-1.9","null","<span style='color:GreenYellow; font-size: 70px;'>正确! </span>","null","","","","","","","","","","","","","","","","","","","","","","","feedback_test"
"","","","","","psychophysics","95","243287","0.0-8.0-0.0-0.10","820","","j","","","","","","","","","","","","","key","j","8.401934883720918","853.3333333333334","529.3333333333334","j","true","img/H_ambi40.png","自我","prac",""
"","","","","","html-keyboard-response","96","243801","0.0-8.0-0.0-1.10","null","<span style='color:GreenYellow; font-size: 70px;'>正确! </span>","null","","","","","","","","","","","","","","","","","","","","","","","feedback_test"
"","","","","","psychophysics","97","245978","0.0-8.0-0.0-0.11","1167","","j","","","","","","","","","","","","","key","j","8.33306563706562","853.3333333333334","529.3333333333334","f","false","img/S_ambi40.png","生人","prac",""
"","","","","","html-keyboard-response","98","246481","0.0-8.0-0.0-1.11","null","<span style='color:red; font-size: 70px;'>错误! </span>","null","","","","","","","","","","","","","","","","","","","","","","","feedback_test"
"","","","","","psychophysics","99","248196","0.0-8.0-0.0-0.12","713","","j","","","","","","","","","","","","","key","j","8.499089552238855","853.3333333333334","529.3333333333334","f","false","img/H_ambi40.png","朋友","prac",""
"","","","","","html-keyboard-response","100","248707","0.0-8.0-0.0-1.12","null","<span style='color:red; font-size: 70px;'>错误! </span>","null","","","","","","","","","","","","","","","","","","","","","","","feedback_test"
"","","","","","psychophysics","101","250899","0.0-8.0-0.0-0.13","1190","","j","","","","","","","","","","","","","key","j","8.333072796934868","853.3333333333334","529.3333333333334","j","true","img/S_ambi40.png","朋友","prac",""
"","","","","","html-keyboard-response","102","251403","0.0-8.0-0.0-1.13","null","<span style='color:GreenYellow; font-size: 70px;'>正确! </span>","null","","","","","","","","","","","","","","","","","","","","","","","feedback_test"
"","","","","","psychophysics","103","253424","0.0-8.0-0.0-0.14","1016","","j","","","","","","","","","","","","","key","j","8.332178423236485","853.3333333333334","529.3333333333334","j","true","img/C_ambi40.png","生人","prac",""
"","","","","","html-keyboard-response","104","253928","0.0-8.0-0.0-1.14","null","<span style='color:GreenYellow; font-size: 70px;'>正确! </span>","null","","","","","","","","","","","","","","","","","","","","","","","feedback_test"
"","","","","","psychophysics","105","256137","0.0-8.0-0.0-0.15","1207","","f","","","","","","","","","","","","","key","f","8.396786259542035","853.3333333333334","529.3333333333334","f","true","img/C_ambi40.png","自我","prac",""
"","","","","","html-keyboard-response","106","256640","0.0-8.0-0.0-1.15","null","<span style='color:GreenYellow; font-size: 70px;'>正确! </span>","null","","","","","","","","","","","","","","","","","","","","","","","feedback_test"
"","","","","","psychophysics","107","258685","0.0-8.0-0.0-0.16","1043","","f","","","","","","","","","","","","","key","f","8.396363636363569","853.3333333333334","529.3333333333334","f","true","img/H_ambi40.png","生人","prac",""
"","","","","","html-keyboard-response","108","259196","0.0-8.0-0.0-1.16","null","<span style='color:GreenYellow; font-size: 70px;'>正确! </span>","null","","","","","","","","","","","","","","","","","","","","","","","feedback_test"
"","","","","","psychophysics","109","260868","0.0-8.0-0.0-0.17","671","","j","","","","","","","","","","","","","key","j","8.3330799999999","853.3333333333334","529.3333333333334","f","false","img/C_ambi40.png","自我","prac",""
"","","","","","html-keyboard-response","110","261378","0.0-8.0-0.0-1.17","null","<span style='color:red; font-size: 70px;'>错误! </span>","null","","","","","","","","","","","","","","","","","","","","","","","feedback_test"
"","","","","","psychophysics","111","263587","0.0-8.0-0.0-0.18","1204","","j","","","","","","","","","","","","","key","j","8.331761363636222","853.3333333333334","529.3333333333334","j","true","img/H_ambi40.png","自我","prac",""
"","","","","","html-keyboard-response","112","264096","0.0-8.0-0.0-1.18","null","<span style='color:GreenYellow; font-size: 70px;'>正确! </span>","null","","","","","","","","","","","","","","","","","","","","","","","feedback_test"
"","","","","","psychophysics","113","265722","0.0-8.0-0.0-0.19","625","","f","","","","","","","","","","","","","key","f","8.33310824742279","853.3333333333334","529.3333333333334","f","true","img/T_ambi40.png","をる","prac",""
"","","","","","html-keyboard-response","114","266238","0.0-8.0-0.0-1.19","null","<span style='color:GreenYellow; font-size: 70px;'>正确! </span>","null","","","","","","","","","","","","","","","","","","","","","","","feedback_test"
"","","","","","psychophysics","115","268333","0.0-8.0-0.0-0.20","1092","","j","","","","","","","","","","","","","key","j","8.33177600000007","853.3333333333334","529.3333333333334","j","true","img/H_ambi40.png","自我","prac",""
"","","","","","html-keyboard-response","116","268835","0.0-8.0-0.0-1.20","null","<span style='color:GreenYellow; font-size: 70px;'>正确! </span>","null","","","","","","","","","","","","","","","","","","","","","","","feedback_test"
"","","","","","psychophysics","117","270730","0.0-8.0-0.0-0.21","889","","f","","","","","","","","","","","","","key","f","8.33284070796464","853.3333333333334","529.3333333333334","f","true","img/H_ambi40.png","朋友","prac",""
"","","","","","html-keyboard-response","118","271246","0.0-8.0-0.0-1.21","null","<span style='color:GreenYellow; font-size: 70px;'>正确! </span>","null","","","","","","","","","","","","","","","","","","","","","","","feedback_test"
"","","","","","psychophysics","119","272821","0.0-8.0-0.0-0.22","572","","j","","","","","","","","","","","","","key","j","8.33322872340424","853.3333333333334","529.3333333333334","f","false","img/S_ambi40.png","自我","prac",""
"","","","","","html-keyboard-response","120","273333","0.0-8.0-0.0-1.22","null","<span style='color:red; font-size: 70px;'>错误! </span>","null","","","","","","","","","","","","","","","","","","","","","","","feedback_test"
"","","","","","psychophysics","121","274906","0.0-8.0-0.0-0.23","566","","f","","","","","","","","","","","","","key","f","8.423205405405433","853.3333333333334","529.3333333333334","f","true","img/T_ambi40.png","をる","prac",""
"","","","","","html-keyboard-response","122","275407","0.0-8.0-0.0-1.23","null","<span style='color:GreenYellow; font-size: 70px;'>正确! </span>","null","","","","","","","","","","","","","","","","","","","","","","","feedback_test"
"","","","","","psychophysics","123","277909","0.0-8.0-0.0-0.24","null","","null","","","","","","","","","","","","","key","null","8.38920875420866","853.3333333333334","529.3333333333334","f","false","img/S_ambi40.png","生人","prac",""
"","","","","","html-keyboard-response","124","278415","0.0-8.0-0.0-1.24","null","<span class='add_' style='color:yellow; font-size: 70px;'> 太慢! </span>","null","","","","","","","","","","","","","","","","","","","","","","","feedback_test"
"","","","","","psychophysics","125","279977","0.0-8.0-0.0-0.25","560","","f","","","","","","","","","","","","","key","f","8.332016129032283","853.3333333333334","529.3333333333334","f","true","img/T_ambi40.png","をる","prac",""
"","","","","","html-keyboard-response","126","280488","0.0-8.0-0.0-1.25","null","<span style='color:GreenYellow; font-size: 70px;'>正确! </span>","null","","","","","","","","","","","","","","","","","","","","","","","feedback_test"
"","","","","","psychophysics","127","282373","0.0-8.0-0.0-0.26","883","","j","","","","","","","","","","","","","key","j","8.333244444444361","853.3333333333334","529.3333333333334","j","true","img/C_ambi40.png","生人","prac",""
"","","","","","html-keyboard-response","128","282885","0.0-8.0-0.0-1.26","null","<span style='color:GreenYellow; font-size: 70px;'>正确! </span>","null","","","","","","","","","","","","","","","","","","","","","","","feedback_test"
"","","","","","psychophysics","129","284566","0.0-8.0-0.0-0.27","676","","f","","","","","","","","","","","","","key","f","8.3325900000002","853.3333333333334","529.3333333333334","f","true","img/T_ambi40.png","をる","prac",""
"","","","","","html-keyboard-response","130","285069","0.0-8.0-0.0-1.27","null","<span style='color:GreenYellow; font-size: 70px;'>正确! </span>","null","","","","","","","","","","","","","","","","","","","","","","","feedback_test"
"","","","","","psychophysics","131","287087","0.0-8.0-0.0-0.28","1014","","j","","","","","","","","","","","","","key","j","8.402740585774078","853.3333333333334","529.3333333333334","j","true","img/S_ambi40.png","朋友","prac",""
"","","","","","html-keyboard-response","132","287600","0.0-8.0-0.0-1.28","null","<span style='color:GreenYellow; font-size: 70px;'>正确! </span>","null","","","","","","","","","","","","","","","","","","","","","","","feedback_test"
"","","","","","psychophysics","133","289860","0.0-8.0-0.0-0.29","1254","","j","","","","","","","","","","","","","key","j","8.394623134328432","853.3333333333334","529.3333333333334","j","true","img/C_ambi40.png","生人","prac",""
"","","","","","html-keyboard-response","134","290369","0.0-8.0-0.0-1.29","null","<span style='color:GreenYellow; font-size: 70px;'>正确! </span>","null","","","","","","","","","","","","","","","","","","","","","","","feedback_test"
"","","","","","psychophysics","135","292475","0.0-8.0-0.0-0.30","1102","","f","","","","","","","","","","","","","key","f","8.333337301587258","853.3333333333334","529.3333333333334","f","true","img/C_ambi40.png","朋友","prac",""
"","","","","","html-keyboard-response","136","292985","0.0-8.0-0.0-1.30","null","<span style='color:GreenYellow; font-size: 70px;'>正确! </span>","null","","","","","","","","","","","","","","","","","","","","","","","feedback_test"
"","","","","","psychophysics","137","295117","0.0-8.0-0.0-0.31","1128","","j","","","","","","","","","","","","","key","j","8.398766798418881","853.3333333333334","529.3333333333334","j","true","img/S_ambi40.png","朋友","prac",""
"","","","","","html-keyboard-response","138","295631","0.0-8.0-0.0-1.31","null","<span style='color:GreenYellow; font-size: 70px;'>正确! </span>","null","","","","","","","","","","","","","","","","","","","","","","","feedback_test"
"","","","","","html-keyboard-response","139","316430","0.0-8.0-1.0-0.0","20798","<style>.context{color:white; font-size: 35px; line-height:40px}</style>                          <div><p class='context'>您正确回答了69% 的试次。</p ><p class='context'>您的平均反应时为825毫秒。</p >"," ","","","","","","","","","","","","","","","","","","","","","","",""
"","","","","","instructions","140","338954","0.0-8.0-1.0-1.0","22523","","","","","","","","","","","","","","[{""page_index"":0,""viewing_time"":4882},{""page_index"":1,""viewing_time"":13075},{""page_index"":2,""viewing_time"":4566}]","","","","","","","","","","",""
"","","","","","psychophysics","141","341360","0.0-8.1-0.1-0.32","1401","","f","","","","","","","","","","","","","key","f","8.451116607773946","853.3333333333334","529.3333333333334","f","true","img/H_ambi40.png","生人","prac",""
"","","","","","html-keyboard-response","142","341861","0.0-8.1-0.1-1.32","null","<span style='color:GreenYellow; font-size: 70px;'>正确! </span>","null","","","","","","","","","","","","","","","","","","","","","","","feedback_test"
"","","","","","psychophysics","143","344135","0.0-8.1-0.1-0.33","1273","","f","","","","","","","","","","","","","key","f","8.330214022140266","853.3333333333334","529.3333333333334","f","true","img/C_ambi40.png","朋友","prac",""
"","","","","","html-keyboard-response","144","344643","0.0-8.1-0.1-1.33","null","<span style='color:GreenYellow; font-size: 70px;'>正确! </span>","null","","","","","","","","","","","","","","","","","","","","","","","feedback_test"
"","","","","","psychophysics","145","346275","0.0-8.1-0.1-0.34","630","","f","","","","","","","","","","","","","key","f","8.331425641025476","853.3333333333334","529.3333333333334","f","true","img/T_ambi40.png","をる","prac",""
"","","","","","html-keyboard-response","146","346790","0.0-8.1-0.1-1.34","null","<span style='color:GreenYellow; font-size: 70px;'>正确! </span>","null","","","","","","","","","","","","","","","","","","","","","","","feedback_test"
"","","","","","psychophysics","147","349021","0.0-8.1-0.1-0.35","1227","","f","","","","","","","","","","","","","key","f","8.394958333333223","853.3333333333334","529.3333333333334","f","true","img/S_ambi40.png","自我","prac",""
"","","","","","html-keyboard-response","148","349535","0.0-8.1-0.1-1.35","null","<span style='color:GreenYellow; font-size: 70px;'>正确! </span>","null","","","","","","","","","","","","","","","","","","","","","","","feedback_test"
"","","","","","psychophysics","149","351748","0.0-8.1-0.1-0.36","1212","","j","","","","","","","","","","","","","key","j","8.39293511450368","853.3333333333334","529.3333333333334","j","true","img/H_ambi40.png","自我","prac",""
"","","","","","html-keyboard-response","150","352261","0.0-8.1-0.1-1.36","null","<span style='color:GreenYellow; font-size: 70px;'>正确! </span>","null","","","","","","","","","","","","","","","","","","","","","","","feedback_test"
"","","","","","psychophysics","151","354321","0.0-8.1-0.1-0.37","1060","","f","","","","","","","","","","","","","key","f","8.364106557377067","853.3333333333334","529.3333333333334","j","false","img/C_ambi40.png","生人","prac",""
"","","","","","html-keyboard-response","152","354830","0.0-8.1-0.1-1.37","null","<span style='color:red; font-size: 70px;'>错误! </span>","null","","","","","","","","","","","","","","","","","","","","","","","feedback_test"
"","","","","","psychophysics","153","356451","0.0-8.1-0.1-0.38","613","","f","","","","","","","","","","","","","key","f","8.420209424083819","853.3333333333334","529.3333333333334","f","true","img/T_ambi40.png","をる","prac",""
"","","","","","html-keyboard-response","154","356962","0.0-8.1-0.1-1.38","null","<span style='color:GreenYellow; font-size: 70px;'>正确! </span>","null","","","","","","","","","","","","","","","","","","","","","","","feedback_test"
"","","","","","psychophysics","155","358916","0.0-8.1-0.1-0.39","954","","j","","","","","","","","","","","","","key","j","8.332669527896943","853.3333333333334","529.3333333333334","j","true","img/C_ambi40.png","生人","prac",""
"","","","","","html-keyboard-response","156","359420","0.0-8.1-0.1-1.39","null","<span style='color:GreenYellow; font-size: 70px;'>正确! </span>","null","","","","","","","","","","","","","","","","","","","","","","","feedback_test"
"","","","","","psychophysics","157","361066","0.0-8.1-0.1-0.40","645","","f","","","","","","","","","","","","","key","f","8.37563076923088","853.3333333333334","529.3333333333334","f","true","img/T_ambi40.png","をる","prac",""
"","","","","","html-keyboard-response","158","361575","0.0-8.1-0.1-1.40","null","<span style='color:GreenYellow; font-size: 70px;'>正确! </span>","null","","","","","","","","","","","","","","","","","","","","","","","feedback_test"
"","","","","","psychophysics","159","363392","0.0-8.1-0.1-0.41","814","","f","","","","","","","","","","","","","key","f","8.410181395348898","853.3333333333334","529.3333333333334","f","true","img/S_ambi40.png","生人","prac",""
"","","","","","html-keyboard-response","160","363902","0.0-8.1-0.1-1.41","null","<span style='color:GreenYellow; font-size: 70px;'>正确! </span>","null","","","","","","","","","","","","","","","","","","","","","","","feedback_test"
"","","","","","psychophysics","161","365922","0.0-8.1-0.1-0.42","1019","","j","","","","","","","","","","","","","key","j","8.431504201680566","853.3333333333334","529.3333333333334","j","true","img/H_ambi40.png","自我","prac",""
"","","","","","html-keyboard-response","162","366425","0.0-8.1-0.1-1.42","null","<span style='color:GreenYellow; font-size: 70px;'>正确! </span>","null","","","","","","","","","","","","","","","","","","","","","","","feedback_test"
"","","","","","psychophysics","163","368155","0.0-8.1-0.1-0.43","727","","j","","","","","","","","","","","","","key","j","8.497384236453405","853.3333333333334","529.3333333333334","j","true","img/S_ambi40.png","朋友","prac",""
"","","","","","html-keyboard-response","164","368655","0.0-8.1-0.1-1.43","null","<span style='color:GreenYellow; font-size: 70px;'>正确! </span>","null","","","","","","","","","","","","","","","","","","","","","","","feedback_test"
"","","","","","psychophysics","165","370329","0.0-8.1-0.1-0.44","669","","f","","","","","","","","","","","","","key","f","8.33328499999974","853.3333333333334","529.3333333333334","f","true","img/H_ambi40.png","朋友","prac",""
"","","","","","html-keyboard-response","166","370830","0.0-8.1-0.1-1.44","null","<span style='color:GreenYellow; font-size: 70px;'>正确! </span>","null","","","","","","","","","","","","","","","","","","","","","","","feedback_test"
"","","","","","psychophysics","167","373206","0.0-8.1-0.1-0.45","1370","","f","","","","","","","","","","","","","key","f","8.362625441696188","853.3333333333334","529.3333333333334","f","true","img/C_ambi40.png","自我","prac",""
"","","","","","html-keyboard-response","168","373721","0.0-8.1-0.1-1.45","null","<span style='color:GreenYellow; font-size: 70px;'>正确! </span>","null","","","","","","","","","","","","","","","","","","","","","","","feedback_test"
"","","","","","psychophysics","169","375262","0.0-8.1-0.1-0.46","536","","f","","","","","","","","","","","","","key","f","8.33280874316961","853.3333333333334","529.3333333333334","f","true","img/T_ambi40.png","をる","prac",""
"","","","","","html-keyboard-response","170","375774","0.0-8.1-0.1-1.46","null","<span style='color:GreenYellow; font-size: 70px;'>正确! </span>","null","","","","","","","","","","","","","","","","","","","","","","","feedback_test"
"","","","","","psychophysics","171","377797","0.0-8.1-0.1-0.47","1020","","j","","","","","","","","","","","","","key","j","8.367601659751054","853.3333333333334","529.3333333333334","j","true","img/S_ambi40.png","朋友","prac",""
"","","","","","html-keyboard-response","172","378313","0.0-8.1-0.1-1.47","null","<span style='color:GreenYellow; font-size: 70px;'>正确! </span>","null","","","","","","","","","","","","","","","","","","","","","","","feedback_test"
"","","","","","psychophysics","173","379917","0.0-8.1-0.1-0.48","599","","j","","","","","","","","","","","","","key","j","8.333219895287751","853.3333333333334","529.3333333333334","f","false","img/S_ambi40.png","自我","prac",""
"","","","","","html-keyboard-response","174","380428","0.0-8.1-0.1-1.48","null","<span style='color:red; font-size: 70px;'>错误! </span>","null","","","","","","","","","","","","","","","","","","","","","","","feedback_test"
"","","","","","psychophysics","175","382303","0.0-8.1-0.1-0.49","875","","f","","","","","","","","","","","","","key","f","8.364282511210961","853.3333333333334","529.3333333333334","f","true","img/C_ambi40.png","朋友","prac",""
"","","","","","html-keyboard-response","176","382812","0.0-8.1-0.1-1.49","null","<span style='color:GreenYellow; font-size: 70px;'>正确! </span>","null","","","","","","","","","","","","","","","","","","","","","","","feedback_test"
"","","","","","psychophysics","177","385042","0.0-8.1-0.1-0.50","1223","","j","","","","","","","","","","","","","key","j","8.333018796992421","853.3333333333334","529.3333333333334","f","false","img/H_ambi40.png","生人","prac",""
"","","","","","html-keyboard-response","178","385548","0.0-8.1-0.1-1.50","null","<span style='color:red; font-size: 70px;'>错误! </span>","null","","","","","","","","","","","","","","","","","","","","","","","feedback_test"
"","","","","","psychophysics","179","387091","0.0-8.1-0.1-0.51","540","","f","","","","","","","","","","","","","key","f","8.518722222222197","853.3333333333334","529.3333333333334","f","true","img/T_ambi40.png","をる","prac",""
"","","","","","html-keyboard-response","180","387602","0.0-8.1-0.1-1.51","null","<span style='color:GreenYellow; font-size: 70px;'>正确! </span>","null","","","","","","","","","","","","","","","","","","","","","","","feedback_test"
"","","","","","psychophysics","181","389106","0.0-8.1-0.1-0.52","503","","j","","","","","","","","","","","","","key","j","8.331865921787925","853.3333333333334","529.3333333333334","j","true","img/S_ambi40.png","朋友","prac",""
"","","","","","html-keyboard-response","182","389615","0.0-8.1-0.1-1.52","null","<span style='color:GreenYellow; font-size: 70px;'>正确! </span>","null","","","","","","","","","","","","","","","","","","","","","","","feedback_test"
"","","","","","psychophysics","183","391383","0.0-8.1-0.1-0.53","765","","f","","","","","","","","","","","","","key","f","8.372609523809626","853.3333333333334","529.3333333333334","f","true","img/S_ambi40.png","生人","prac",""
"","","","","","html-keyboard-response","184","391890","0.0-8.1-0.1-1.53","null","<span style='color:GreenYellow; font-size: 70px;'>正确! </span>","null","","","","","","","","","","","","","","","","","","","","","","","feedback_test"
"","","","","","psychophysics","185","394106","0.0-8.1-0.1-0.54","1212","","j","","","","","","","","","","","","","key","j","8.364553030303135","853.3333333333334","529.3333333333334","j","true","img/H_ambi40.png","自我","prac",""
"","","","","","html-keyboard-response","186","394616","0.0-8.1-0.1-1.54","null","<span style='color:GreenYellow; font-size: 70px;'>正确! </span>","null","","","","","","","","","","","","","","","","","","","","","","","feedback_test"
"","","","","","psychophysics","187","396106","0.0-8.1-0.1-0.55","489","","f","","","","","","","","","","","","","key","f","8.468034482758757","853.3333333333334","529.3333333333334","f","true","img/T_ambi40.png","をる","prac",""
"","","","","","html-keyboard-response","188","396615","0.0-8.1-0.1-1.55","null","<span style='color:GreenYellow; font-size: 70px;'>正确! </span>","null","","","","","","","","","","","","","","","","","","","","","","","feedback_test"
"","","","","","psychophysics","189","398389","0.0-8.1-0.1-0.56","771","","f","","","","","","","","","","","","","key","f","8.371433333333282","853.3333333333334","529.3333333333334","f","true","img/T_ambi40.png","をる","prac",""
"","","","","","html-keyboard-response","190","398905","0.0-8.1-0.1-1.56","null","<span style='color:GreenYellow; font-size: 70px;'>正确! </span>","null","","","","","","","","","","","","","","","","","","","","","","","feedback_test"
"","","","","","psychophysics","191","400515","0.0-8.1-0.1-0.57","606","","f","","","","","","","","","","","","","key","f","8.332656249999976","853.3333333333334","529.3333333333334","f","true","img/T_ambi40.png","をる","prac",""
"","","","","","html-keyboard-response","192","401022","0.0-8.1-0.1-1.57","null","<span style='color:GreenYellow; font-size: 70px;'>正确! </span>","null","","","","","","","","","","","","","","","","","","","","","","","feedback_test"
"","","","","","psychophysics","193","403310","0.0-8.1-0.1-0.58","1283","","f","","","","","","","","","","","","","key","f","8.33117883211685","853.3333333333334","529.3333333333334","f","true","img/C_ambi40.png","自我","prac",""
"","","","","","html-keyboard-response","194","403825","0.0-8.1-0.1-1.58","null","<span style='color:GreenYellow; font-size: 70px;'>正确! </span>","null","","","","","","","","","","","","","","","","","","","","","","","feedback_test"
"","","","","","psychophysics","195","405456","0.0-8.1-0.1-0.59","631","","j","","","","","","","","","","","","","key","j","8.37234536082467","853.3333333333334","529.3333333333334","j","true","img/S_ambi40.png","朋友","prac",""
"","","","","","html-keyboard-response","196","405963","0.0-8.1-0.1-1.59","null","<span style='color:GreenYellow; font-size: 70px;'>正确! </span>","null","","","","","","","","","","","","","","","","","","","","","","","feedback_test"
"","","","","","psychophysics","197","408033","0.0-8.1-0.1-0.60","1066","","j","","","","","","","","","","","","","key","j","8.333101214574949","853.3333333333334","529.3333333333334","j","true","img/H_ambi40.png","自我","prac",""
"","","","","","html-keyboard-response","198","408538","0.0-8.1-0.1-1.60","null","<span style='color:GreenYellow; font-size: 70px;'>正确! </span>","null","","","","","","","","","","","","","","","","","","","","","","","feedback_test"
"","","","","","psychophysics","199","410248","0.0-8.1-0.1-0.61","706","","f","","","","","","","","","","","","","key","f","8.416237623762168","853.3333333333334","529.3333333333334","f","true","img/H_ambi40.png","朋友","prac",""
"","","","","","html-keyboard-response","200","410761","0.0-8.1-0.1-1.61","null","<span style='color:GreenYellow; font-size: 70px;'>正确! </span>","null","","","","","","","","","","","","","","","","","","","","","","","feedback_test"
"","","","","","psychophysics","201","412597","0.0-8.1-0.1-0.62","830","","j","","","","","","","","","","","","","key","j","8.489500000000122","853.3333333333334","529.3333333333334","j","true","img/C_ambi40.png","生人","prac",""
"","","","","","html-keyboard-response","202","413112","0.0-8.1-0.1-1.62","null","<span style='color:GreenYellow; font-size: 70px;'>正确! </span>","null","","","","","","","","","","","","","","","","","","","","","","","feedback_test"
"","","","","","psychophysics","203","414714","0.0-8.1-0.1-0.63","598","","j","","","","","","","","","","","","","key","j","8.463500000000188","853.3333333333334","529.3333333333334","j","true","img/C_ambi40.png","生人","prac",""
"","","","","","html-keyboard-response","204","415226","0.0-8.1-0.1-1.63","null","<span style='color:GreenYellow; font-size: 70px;'>正确! </span>","null","","","","","","","","","","","","","","","","","","","","","","","feedback_test"
"","","","","","html-keyboard-response","205","423661","0.0-9.0","8435","<style>.context{color:white; font-size: 35px; line-height:40px}</style>                          <div><p class='context'>您正确回答了91% 的试次。</p ><p class='context'>您的平均反应时为862毫秒。</p ><p class='context'>恭喜您完成练习。按任意键进入正式实验。</p ><p class='footer' style='font-size: 35px; line-height:40px;'>请在进入正式实验实验之前将您的<span style='color: lightgreen;'>食指</span>放在电脑键盘的相应键位上进行按键。</p >"," ","","","","","","","","","","","","","","","","","","","","","","",""
"","","","","","psychophysics","206","426166","0.0-10.0-0.0-0.0-0.0-0.0","null","","null","","","","","","","","","","","","","key","null","8.36137919463104","853.3333333333334","529.3333333333334","j","false","img/H_ambi40.png","自我","same",""
"","","","","","html-keyboard-response","207","426676","0.0-10.0-0.0-0.0-0.0-1.0","null","<span class='add_' style='color:yellow; font-size: 70px;'> 太慢! </span>","null","","","","","","","","","","","","","","","","","","","","","","","feedback_test"
"","","","","","psychophysics","208","428377","0.0-10.0-0.0-0.0-0.0-0.1","700","","f","","","","","","","","","","","","","key","f","8.416194029850596","853.3333333333334","529.3333333333334","f","true","img/H_ambi40.png","朋友","same",""
"","","","","","html-keyboard-response","209","428886","0.0-10.0-0.0-0.0-0.0-1.1","null","<span style='color:GreenYellow; font-size: 70px;'>正确! </span>","null","","","","","","","","","","","","","","","","","","","","","","","feedback_test"
"","","","","","psychophysics","210","431008","0.0-10.0-0.0-0.0-0.0-0.2","1118","","j","","","","","","","","","","","","","key","j","8.466491999999853","853.3333333333334","529.3333333333334","j","true","img/H_ambi40.png","自我","same",""
"","","","","","html-keyboard-response","211","431522","0.0-10.0-0.0-0.0-0.0-1.2","null","<span style='color:GreenYellow; font-size: 70px;'>正确! </span>","null","","","","","","","","","","","","","","","","","","","","","","","feedback_test"
"","","","","","psychophysics","212","433573","0.0-10.0-0.0-0.0-0.0-0.3","1050","","j","","","","","","","","","","","","","key","j","8.361267489711937","853.3333333333334","529.3333333333334","j","true","img/H_ambi40.png","自我","same",""
"","","","","","html-keyboard-response","213","434079","0.0-10.0-0.0-0.0-0.0-1.3","null","<span style='color:GreenYellow; font-size: 70px;'>正确! </span>","null","","","","","","","","","","","","","","","","","","","","","","","feedback_test"
"","","","","","psychophysics","214","436360","0.0-10.0-0.0-0.0-0.0-0.4","1278","","j","","","","","","","","","","","","","key","j","8.454486988847737","853.3333333333334","529.3333333333334","j","true","img/S_ambi40.png","朋友","same",""
"","","","","","html-keyboard-response","215","436863","0.0-10.0-0.0-0.0-0.0-1.4","null","<span style='color:GreenYellow; font-size: 70px;'>正确! </span>","null","","","","","","","","","","","","","","","","","","","","","","","feedback_test"
"","","","","","psychophysics","216","439021","0.0-10.0-0.0-0.0-0.0-0.5","1155","","f","","","","","","","","","","","","","key","f","8.45667984189715","853.3333333333334","529.3333333333334","f","true","img/C_ambi40.png","朋友","same",""
"","","","","","html-keyboard-response","217","439532","0.0-10.0-0.0-0.0-0.0-1.5","null","<span style='color:GreenYellow; font-size: 70px;'>正确! </span>","null","","","","","","","","","","","","","","","","","","","","","","","feedback_test"
"","","","","","psychophysics","218","441043","0.0-10.0-0.0-0.0-0.0-0.6","509","","f","","","","","","","","","","","","","key","f","8.331711111111023","853.3333333333334","529.3333333333334","f","true","img/T_ambi40.png","をる","same",""
"","","","","","html-keyboard-response","219","441546","0.0-10.0-0.0-0.0-0.0-1.6","null","<span style='color:GreenYellow; font-size: 70px;'>正确! </span>","null","","","","","","","","","","","","","","","","","","","","","","","feedback_test"
"","","","","","psychophysics","220","443497","0.0-10.0-0.0-0.0-0.0-0.7","949","","f","","","","","","","","","","","","","key","f","8.333025751072842","853.3333333333334","529.3333333333334","j","false","img/C_ambi40.png","生人","same",""
"","","","","","html-keyboard-response","221","444011","0.0-10.0-0.0-0.0-0.0-1.7","null","<span style='color:red; font-size: 70px;'>错误! </span>","null","","","","","","","","","","","","","","","","","","","","","","","feedback_test"
"","","","","","psychophysics","222","445713","0.0-10.0-0.0-0.0-0.0-0.8","698","","f","","","","","","","","","","","","","key","f","8.33305418719205","853.3333333333334","529.3333333333334","f","true","img/C_ambi40.png","自我","same",""
"","","","","","html-keyboard-response","223","446216","0.0-10.0-0.0-0.0-0.0-1.8","null","<span style='color:GreenYellow; font-size: 70px;'>正确! </span>","null","","","","","","","","","","","","","","","","","","","","","","","feedback_test"
"","","","","","psychophysics","224","447703","0.0-10.0-0.0-0.0-0.0-0.9","486","","j","","","","","","","","","","","","","key","j","8.332158192090485","853.3333333333334","529.3333333333334","j","true","img/C_ambi40.png","生人","same",""
"","","","","","html-keyboard-response","225","448217","0.0-10.0-0.0-0.0-0.0-1.9","null","<span style='color:GreenYellow; font-size: 70px;'>正确! </span>","null","","","","","","","","","","","","","","","","","","","","","","","feedback_test"
"","","","","","psychophysics","226","449715","0.0-10.0-0.0-0.0-0.0-0.10","493","","f","","","","","","","","","","","","","key","f","8.332865921787945","853.3333333333334","529.3333333333334","j","false","img/S_ambi40.png","朋友","same",""
"","","","","","html-keyboard-response","227","450227","0.0-10.0-0.0-0.0-0.0-1.10","null","<span style='color:red; font-size: 70px;'>错误! </span>","null","","","","","","","","","","","","","","","","","","","","","","","feedback_test"
"","","","","","psychophysics","228","451963","0.0-10.0-0.0-0.0-0.0-0.11","733","","f","","","","","","","","","","","","","key","f","8.33319323671507","853.3333333333334","529.3333333333334","f","true","img/S_ambi40.png","生人","same",""
"","","","","","html-keyboard-response","229","452475","0.0-10.0-0.0-0.0-0.0-1.11","null","<span style='color:GreenYellow; font-size: 70px;'>正确! </span>","null","","","","","","","","","","","","","","","","","","","","","","","feedback_test"
"","","","","","psychophysics","230","454762","0.0-10.0-0.0-0.0-0.0-0.12","1281","","j","","","","","","","","","","","","","key","j","8.425522222222234","853.3333333333334","529.3333333333334","j","true","img/C_ambi40.png","生人","same",""
"","","","","","html-keyboard-response","231","455277","0.0-10.0-0.0-0.0-0.0-1.12","null","<span style='color:GreenYellow; font-size: 70px;'>正确! </span>","null","","","","","","","","","","","","","","","","","","","","","","","feedback_test"
"","","","","","psychophysics","232","456796","0.0-10.0-0.0-0.0-0.0-0.13","518","","f","","","","","","","","","","","","","key","f","8.379427777777892","853.3333333333334","529.3333333333334","f","true","img/T_ambi40.png","をる","same",""
"","","","","","html-keyboard-response","233","457305","0.0-10.0-0.0-0.0-0.0-1.13","null","<span style='color:GreenYellow; font-size: 70px;'>正确! </span>","null","","","","","","","","","","","","","","","","","","","","","","","feedback_test"
"","","","","","psychophysics","234","459520","0.0-10.0-0.0-0.0-0.0-0.14","1214","","f","","","","","","","","","","","","","key","f","8.333344696969796","853.3333333333334","529.3333333333334","f","true","img/S_ambi40.png","自我","same",""
"","","","","","html-keyboard-response","235","460030","0.0-10.0-0.0-0.0-0.0-1.14","null","<span style='color:GreenYellow; font-size: 70px;'>正确! </span>","null","","","","","","","","","","","","","","","","","","","","","","","feedback_test"
"","","","","","psychophysics","236","461427","0.0-10.0-0.0-0.0-0.0-0.15","395","","j","","","","","","","","","","","","","key","j","8.3312771084339","853.3333333333334","529.3333333333334","j","true","img/S_ambi40.png","朋友","same",""
"","","","","","html-keyboard-response","237","461933","0.0-10.0-0.0-0.0-0.0-1.15","null","<span style='color:GreenYellow; font-size: 70px;'>正确! </span>","null","","","","","","","","","","","","","","","","","","","","","","","feedback_test"
"","","","","","psychophysics","238","463371","0.0-10.0-0.0-0.0-0.0-0.16","432","","f","","","","","","","","","","","","","key","f","8.43113017751499","853.3333333333334","529.3333333333334","f","true","img/T_ambi40.png","をる","same",""
"","","","","","html-keyboard-response","239","463879","0.0-10.0-0.0-0.0-0.0-1.16","null","<span style='color:GreenYellow; font-size: 70px;'>正确! </span>","null","","","","","","","","","","","","","","","","","","","","","","","feedback_test"
"","","","","","psychophysics","240","466052","0.0-10.0-0.0-0.0-0.0-0.17","1171","","j","","","","","","","","","","","","","key","j","8.427855468750067","853.3333333333334","529.3333333333334","f","false","img/H_ambi40.png","生人","same",""
"","","","","","html-keyboard-response","241","466562","0.0-10.0-0.0-0.0-0.0-1.17","null","<span style='color:red; font-size: 70px;'>错误! </span>","null","","","","","","","","","","","","","","","","","","","","","","","feedback_test"
"","","","","","psychophysics","242","468567","0.0-10.0-0.0-0.0-0.0-0.18","1003","","j","","","","","","","","","","","","","key","j","8.32580753138058","853.3333333333334","529.3333333333334","j","true","img/H_ambi40.png","自我","same",""
"","","","","","html-keyboard-response","243","469082","0.0-10.0-0.0-0.0-0.0-1.18","null","<span style='color:GreenYellow; font-size: 70px;'>正确! </span>","null","","","","","","","","","","","","","","","","","","","","","","","feedback_test"
"","","","","","psychophysics","244","470574","0.0-10.0-0.0-0.0-0.0-0.19","486","","f","","","","","","","","","","","","","key","f","8.37846892655368","853.3333333333334","529.3333333333334","f","true","img/T_ambi40.png","をる","same",""
"","","","","","html-keyboard-response","245","471091","0.0-10.0-0.0-0.0-0.0-1.19","null","<span style='color:GreenYellow; font-size: 70px;'>正确! </span>","null","","","","","","","","","","","","","","","","","","","","","","","feedback_test"
"","","","","","psychophysics","246","473249","0.0-10.0-0.0-0.0-0.0-0.20","1152","","f","","","","","","","","","","","","","key","f","8.463999999999885","853.3333333333334","529.3333333333334","f","true","img/H_ambi40.png","朋友","same",""
"","","","","","html-keyboard-response","247","473760","0.0-10.0-0.0-0.0-0.0-1.20","null","<span style='color:GreenYellow; font-size: 70px;'>正确! </span>","null","","","","","","","","","","","","","","","","","","","","","","","feedback_test"
"","","","","","psychophysics","248","475989","0.0-10.0-0.0-0.0-0.0-0.21","1226","","j","","","","","","","","","","","","","key","j","8.396212121212033","853.3333333333334","529.3333333333334","j","true","img/C_ambi40.png","生人","same",""
"","","","","","html-keyboard-response","249","476499","0.0-10.0-0.0-0.0-0.0-1.21","null","<span style='color:GreenYellow; font-size: 70px;'>正确! </span>","null","","","","","","","","","","","","","","","","","","","","","","","feedback_test"
"","","","","","psychophysics","250","478172","0.0-10.0-0.0-0.0-0.0-0.22","667","","j","","","","","","","","","","","","","key","j","8.328402010050318","853.3333333333334","529.3333333333334","j","true","img/C_ambi40.png","生人","same",""
"","","","","","html-keyboard-response","251","478677","0.0-10.0-0.0-0.0-0.0-1.22","null","<span style='color:GreenYellow; font-size: 70px;'>正确! </span>","null","","","","","","","","","","","","","","","","","","","","","","","feedback_test"
"","","","","","psychophysics","252","480307","0.0-10.0-0.0-0.0-0.0-0.23","628","","f","","","","","","","","","","","","","key","f","8.33308717948713","853.3333333333334","529.3333333333334","j","false","img/S_ambi40.png","朋友","same",""
"","","","","","html-keyboard-response","253","480824","0.0-10.0-0.0-0.0-0.0-1.23","null","<span style='color:red; font-size: 70px;'>错误! </span>","null","","","","","","","","","","","","","","","","","","","","","","","feedback_test"
"","","","","","psychophysics","254","482381","0.0-10.0-0.0-0.0-0.0-0.24","553","","f","","","","","","","","","","","","","key","f","8.33261827957004","853.3333333333334","529.3333333333334","f","true","img/T_ambi40.png","をる","same",""
"","","","","","html-keyboard-response","255","482889","0.0-10.0-0.0-0.0-0.0-1.24","null","<span style='color:GreenYellow; font-size: 70px;'>正确! </span>","null","","","","","","","","","","","","","","","","","","","","","","","feedback_test"
"","","","","","psychophysics","256","484597","0.0-10.0-0.0-0.0-0.0-0.25","707","","j","","","","","","","","","","","","","key","j","8.330497536945886","853.3333333333334","529.3333333333334","j","true","img/H_ambi40.png","自我","same",""
"","","","","","html-keyboard-response","257","485100","0.0-10.0-0.0-0.0-0.0-1.25","null","<span style='color:GreenYellow; font-size: 70px;'>正确! </span>","null","","","","","","","","","","","","","","","","","","","","","","","feedback_test"
"","","","","","psychophysics","258","486575","0.0-10.0-0.0-0.0-0.0-0.26","470","","j","","","","","","","","","","","","","key","j","8.478017341040715","853.3333333333334","529.3333333333334","j","true","img/S_ambi40.png","朋友","same",""
"","","","","","html-keyboard-response","259","487083","0.0-10.0-0.0-0.0-0.0-1.26","null","<span style='color:GreenYellow; font-size: 70px;'>正确! </span>","null","","","","","","","","","","","","","","","","","","","","","","","feedback_test"
"","","","","","psychophysics","260","488931","0.0-10.0-0.0-0.0-0.0-0.27","843","","j","","","","","","","","","","","","","key","j","8.371159090909218","853.3333333333334","529.3333333333334","j","true","img/H_ambi40.png","自我","same",""
"","","","","","html-keyboard-response","261","489438","0.0-10.0-0.0-0.0-0.0-1.27","null","<span style='color:GreenYellow; font-size: 70px;'>正确! </span>","null","","","","","","","","","","","","","","","","","","","","","","","feedback_test"
"","","","","","psychophysics","262","491253","0.0-10.0-0.0-0.0-0.0-0.28","814","","j","","","","","","","","","","","","","key","j","8.332439814814684","853.3333333333334","529.3333333333334","f","false","img/S_ambi40.png","自我","same",""
"","","","","","html-keyboard-response","263","491761","0.0-10.0-0.0-0.0-0.0-1.28","null","<span style='color:red; font-size: 70px;'>错误! </span>","null","","","","","","","","","","","","","","","","","","","","","","","feedback_test"
"","","","","","psychophysics","264","493333","0.0-10.0-0.0-0.0-0.0-0.29","571","","f","","","","","","","","","","","","","key","f","8.333872340425435","853.3333333333334","529.3333333333334","f","true","img/T_ambi40.png","をる","same",""
"","","","","","html-keyboard-response","265","493838","0.0-10.0-0.0-0.0-0.0-1.29","null","<span style='color:GreenYellow; font-size: 70px;'>正确! </span>","null","","","","","","","","","","","","","","","","","","","","","","","feedback_test"
"","","","","","psychophysics","266","495735","0.0-10.0-0.0-0.0-0.0-0.30","897","","j","","","","","","","","","","","","","key","j","8.332778761062134","853.3333333333334","529.3333333333334","j","true","img/S_ambi40.png","朋友","same",""
"","","","","","html-keyboard-response","267","496250","0.0-10.0-0.0-0.0-0.0-1.30","null","<span style='color:GreenYellow; font-size: 70px;'>正确! </span>","null","","","","","","","","","","","","","","","","","","","","","","","feedback_test"
"","","","","","psychophysics","268","498198","0.0-10.0-0.0-0.0-0.0-0.31","944","","f","","","","","","","","","","","","","key","f","8.367521551724199","853.3333333333334","529.3333333333334","f","true","img/C_ambi40.png","朋友","same",""
"","","","","","html-keyboard-response","269","498708","0.0-10.0-0.0-0.0-0.0-1.31","null","<span style='color:GreenYellow; font-size: 70px;'>正确! </span>","null","","","","","","","","","","","","","","","","","","","","","","","feedback_test"
"","","","","","psychophysics","270","501213","0.0-10.0-0.0-0.0-0.0-0.32","null","","null","","","","","","","","","","","","","key","null","8.36039799331091","853.3333333333334","529.3333333333334","f","false","img/C_ambi40.png","自我","same",""
"","","","","","html-keyboard-response","271","501728","0.0-10.0-0.0-0.0-0.0-1.32","null","<span class='add_' style='color:yellow; font-size: 70px;'> 太慢! </span>","null","","","","","","","","","","","","","","","","","","","","","","","feedback_test"
"","","","","","psychophysics","272","503918","0.0-10.0-0.0-0.0-0.0-0.33","1187","","f","","","","","","","","","","","","","key","f","8.36515769230766","853.3333333333334","529.3333333333334","f","true","img/S_ambi40.png","生人","same",""
"","","","","","html-keyboard-response","273","504420","0.0-10.0-0.0-0.0-0.0-1.33","null","<span style='color:GreenYellow; font-size: 70px;'>正确! </span>","null","","","","","","","","","","","","","","","","","","","","","","","feedback_test"
"","","","","","psychophysics","274","506276","0.0-10.0-0.0-0.0-0.0-0.34","855","","j","","","","","","","","","","","","","key","j","8.333361990950271","853.3333333333334","529.3333333333334","j","true","img/C_ambi40.png","生人","same",""
"","","","","","html-keyboard-response","275","506789","0.0-10.0-0.0-0.0-0.0-1.34","null","<span style='color:GreenYellow; font-size: 70px;'>正确! </span>","null","","","","","","","","","","","","","","","","","","","","","","","feedback_test"
"","","","","","psychophysics","276","509072","0.0-10.0-0.0-0.0-0.0-0.35","1276","","f","","","","","","","","","","","","","key","f","8.32987912087923","853.3333333333334","529.3333333333334","f","true","img/H_ambi40.png","生人","same",""
"","","","","","html-keyboard-response","277","509583","0.0-10.0-0.0-0.0-0.0-1.35","null","<span style='color:GreenYellow; font-size: 70px;'>正确! </span>","null","","","","","","","","","","","","","","","","","","","","","","","feedback_test"
"","","","","","psychophysics","278","511141","0.0-10.0-0.0-0.0-0.0-0.36","556","","f","","","","","","","","","","","","","key","f","8.378556756756733","853.3333333333334","529.3333333333334","f","true","img/T_ambi40.png","をる","same",""
"","","","","","html-keyboard-response","279","511651","0.0-10.0-0.0-0.0-0.0-1.36","null","<span style='color:GreenYellow; font-size: 70px;'>正确! </span>","null","","","","","","","","","","","","","","","","","","","","","","","feedback_test"
"","","","","","psychophysics","280","513234","0.0-10.0-0.0-0.0-0.0-0.37","580","","f","","","","","","","","","","","","","key","f","8.377851063829903","853.3333333333334","529.3333333333334","f","true","img/T_ambi40.png","をる","same",""
"","","","","","html-keyboard-response","281","513743","0.0-10.0-0.0-0.0-0.0-1.37","null","<span style='color:GreenYellow; font-size: 70px;'>正确! </span>","null","","","","","","","","","","","","","","","","","","","","","","","feedback_test"
"","","","","","psychophysics","282","515697","0.0-10.0-0.0-0.0-0.0-0.38","952","","j","","","","","","","","","","","","","key","j","8.331128205128191","853.3333333333334","529.3333333333334","j","true","img/S_ambi40.png","朋友","same",""
"","","","","","html-keyboard-response","283","516206","0.0-10.0-0.0-0.0-0.0-1.38","null","<span style='color:GreenYellow; font-size: 70px;'>正确! </span>","null","","","","","","","","","","","","","","","","","","","","","","","feedback_test"
"","","","","","psychophysics","284","517663","0.0-10.0-0.0-0.0-0.0-0.39","451","","j","","","","","","","","","","","","","key","j","8.332942528735469","853.3333333333334","529.3333333333334","j","true","img/S_ambi40.png","朋友","same",""
"","","","","","html-keyboard-response","285","518165","0.0-10.0-0.0-0.0-0.0-1.39","null","<span style='color:GreenYellow; font-size: 70px;'>正确! </span>","null","","","","","","","","","","","","","","","","","","","","","","","feedback_test"
"","","","","","psychophysics","286","519726","0.0-10.0-0.0-0.0-0.0-0.40","556","","f","","","","","","","","","","","","","key","f","8.332940860214876","853.3333333333334","529.3333333333334","f","true","img/C_ambi40.png","朋友","same",""
"","","","","","html-keyboard-response","287","520237","0.0-10.0-0.0-0.0-0.0-1.40","null","<span style='color:GreenYellow; font-size: 70px;'>正确! </span>","null","","","","","","","","","","","","","","","","","","","","","","","feedback_test"
"","","","","","psychophysics","288","521848","0.0-10.0-0.0-0.0-0.0-0.41","604","","j","","","","","","","","","","","","","key","j","8.333078125000005","853.3333333333334","529.3333333333334","f","false","img/C_ambi40.png","自我","same",""
"","","","","","html-keyboard-response","289","522355","0.0-10.0-0.0-0.0-0.0-1.41","null","<span style='color:red; font-size: 70px;'>错误! </span>","null","","","","","","","","","","","","","","","","","","","","","","","feedback_test"
"","","","","","psychophysics","290","524170","0.0-10.0-0.0-0.0-0.0-0.42","809","","f","","","","","","","","","","","","","key","f","8.332930875575698","853.3333333333334","529.3333333333334","f","true","img/S_ambi40.png","自我","same",""
"","","","","","html-keyboard-response","291","524678","0.0-10.0-0.0-0.0-0.0-1.42","null","<span style='color:GreenYellow; font-size: 70px;'>正确! </span>","null","","","","","","","","","","","","","","","","","","","","","","","feedback_test"
"","","","","","psychophysics","292","526340","0.0-10.0-0.0-0.0-0.0-0.43","662","","j","","","","","","","","","","","","","key","j","8.41839285714288","853.3333333333334","529.3333333333334","j","true","img/C_ambi40.png","生人","same",""
"","","","","","html-keyboard-response","293","526847","0.0-10.0-0.0-0.0-0.0-1.43","null","<span style='color:GreenYellow; font-size: 70px;'>正确! </span>","null","","","","","","","","","","","","","","","","","","","","","","","feedback_test"
"","","","","","psychophysics","294","528748","0.0-10.0-0.0-0.0-0.0-0.44","895","","f","","","","","","","","","","","","","key","f","8.332687224669685","853.3333333333334","529.3333333333334","j","false","img/S_ambi40.png","朋友","same",""
"","","","","","html-keyboard-response","295","529263","0.0-10.0-0.0-0.0-0.0-1.44","null","<span style='color:red; font-size: 70px;'>错误! </span>","null","","","","","","","","","","","","","","","","","","","","","","","feedback_test"
"","","","","","psychophysics","296","531083","0.0-10.0-0.0-0.0-0.0-0.45","819","","j","","","","","","","","","","","","","key","j","8.332990783409961","853.3333333333334","529.3333333333334","j","true","img/C_ambi40.png","生人","same",""
"","","","","","html-keyboard-response","297","531597","0.0-10.0-0.0-0.0-0.0-1.45","null","<span style='color:GreenYellow; font-size: 70px;'>正确! </span>","null","","","","","","","","","","","","","","","","","","","","","","","feedback_test"
"","","","","","psychophysics","298","533528","0.0-10.0-0.0-0.0-0.0-0.46","926","","j","","","","","","","","","","","","","key","j","8.441429824561183","853.3333333333334","529.3333333333334","j","true","img/H_ambi40.png","自我","same",""
"","","","","","html-keyboard-response","299","534037","0.0-10.0-0.0-0.0-0.0-1.46","null","<span style='color:GreenYellow; font-size: 70px;'>正确! </span>","null","","","","","","","","","","","","","","","","","","","","","","","feedback_test"
"","","","","","psychophysics","300","536460","0.0-10.0-0.0-0.0-0.0-0.47","1417","","f","","","","","","","","","","","","","key","f","8.332013840830214","853.3333333333334","529.3333333333334","f","true","img/S_ambi40.png","生人","same",""
"","","","","","html-keyboard-response","301","536969","0.0-10.0-0.0-0.0-0.0-1.47","null","<span style='color:GreenYellow; font-size: 70px;'>正确! </span>","null","","","","","","","","","","","","","","","","","","","","","","","feedback_test"
"","","","","","psychophysics","302","538719","0.0-10.0-0.0-0.0-0.0-0.48","749","","j","","","","","","","","","","","","","key","j","8.331019230769016","853.3333333333334","529.3333333333334","j","true","img/H_ambi40.png","自我","same",""
"","","","","","html-keyboard-response","303","539224","0.0-10.0-0.0-0.0-0.0-1.48","null","<span style='color:GreenYellow; font-size: 70px;'>正确! </span>","null","","","","","","","","","","","","","","","","","","","","","","","feedback_test"
"","","","","","psychophysics","304","540820","0.0-10.0-0.0-0.0-0.0-0.49","593","","f","","","","","","","","","","","","","key","f","8.333251308900895","853.3333333333334","529.3333333333334","f","true","img/T_ambi40.png","をる","same",""
"","","","","","html-keyboard-response","305","541334","0.0-10.0-0.0-0.0-0.0-1.49","null","<span style='color:GreenYellow; font-size: 70px;'>正确! </span>","null","","","","","","","","","","","","","","","","","","","","","","","feedback_test"
"","","","","","psychophysics","306","543515","0.0-10.0-0.0-0.0-0.0-0.50","1179","","f","","","","","","","","","","","","","key","f","8.332126923076935","853.3333333333334","529.3333333333334","f","true","img/H_ambi40.png","生人","same",""
"","","","","","html-keyboard-response","307","544021","0.0-10.0-0.0-0.0-0.0-1.50","null","<span style='color:GreenYellow; font-size: 70px;'>正确! </span>","null","","","","","","","","","","","","","","","","","","","","","","","feedback_test"
"","","","","","psychophysics","308","546253","0.0-10.0-0.0-0.0-0.0-0.51","1225","","f","","","","","","","","","","","","","key","f","8.332936090225953","853.3333333333334","529.3333333333334","f","true","img/H_ambi40.png","朋友","same",""
"","","","","","html-keyboard-response","309","546764","0.0-10.0-0.0-0.0-0.0-1.51","null","<span style='color:GreenYellow; font-size: 70px;'>正确! </span>","null","","","","","","","","","","","","","","","","","","","","","","","feedback_test"
"","","","","","psychophysics","310","548859","0.0-10.0-0.0-0.0-0.0-0.52","1091","","j","","","","","","","","","","","","","key","j","8.332887999999803","853.3333333333334","529.3333333333334","j","true","img/C_ambi40.png","生人","same",""
"","","","","","html-keyboard-response","311","549365","0.0-10.0-0.0-0.0-0.0-1.52","null","<span style='color:GreenYellow; font-size: 70px;'>正确! </span>","null","","","","","","","","","","","","","","","","","","","","","","","feedback_test"
"","","","","","psychophysics","312","551686","0.0-10.0-0.0-0.0-0.0-0.53","1318","","j","","","","","","","","","","","","","key","j","8.333845323741038","853.3333333333334","529.3333333333334","j","true","img/H_ambi40.png","自我","same",""
"","","","","","html-keyboard-response","313","552190","0.0-10.0-0.0-0.0-0.0-1.53","null","<span style='color:GreenYellow; font-size: 70px;'>正确! </span>","null","","","","","","","","","","","","","","","","","","","","","","","feedback_test"
"","","","","","psychophysics","314","553882","0.0-10.0-0.0-0.0-0.0-0.54","691","","f","","","","","","","","","","","","","key","f","8.501106060606267","853.3333333333334","529.3333333333334","f","true","img/S_ambi40.png","自我","same",""
"","","","","","html-keyboard-response","315","554387","0.0-10.0-0.0-0.0-0.0-1.54","null","<span style='color:GreenYellow; font-size: 70px;'>正确! </span>","null","","","","","","","","","","","","","","","","","","","","","","","feedback_test"
"","","","","","psychophysics","316","555996","0.0-10.0-0.0-0.0-0.0-0.55","603","","f","","","","","","","","","","","","","key","f","8.376424083769619","853.3333333333334","529.3333333333334","f","true","img/T_ambi40.png","をる","same",""
"","","","","","html-keyboard-response","317","556507","0.0-10.0-0.0-0.0-0.0-1.55","null","<span style='color:GreenYellow; font-size: 70px;'>正确! </span>","null","","","","","","","","","","","","","","","","","","","","","","","feedback_test"
"","","","","","psychophysics","318","558068","0.0-10.0-0.0-0.0-0.0-0.56","559","","f","","","","","","","","","","","","","key","f","8.420071038251484","853.3333333333334","529.3333333333334","f","true","img/T_ambi40.png","をる","same",""
"","","","","","html-keyboard-response","319","558576","0.0-10.0-0.0-0.0-0.0-1.56","null","<span style='color:GreenYellow; font-size: 70px;'>正确! </span>","null","","","","","","","","","","","","","","","","","","","","","","","feedback_test"
"","","","","","psychophysics","320","560131","0.0-10.0-0.0-0.0-0.0-0.57","554","","j","","","","","","","","","","","","","key","j","8.332421621621737","853.3333333333334","529.3333333333334","f","false","img/S_ambi40.png","生人","same",""
"","","","","","html-keyboard-response","321","560632","0.0-10.0-0.0-0.0-0.0-1.57","null","<span style='color:red; font-size: 70px;'>错误! </span>","null","","","","","","","","","","","","","","","","","","","","","","","feedback_test"
"","","","","","psychophysics","322","562626","0.0-10.0-0.0-0.0-0.0-0.58","991","","j","","","","","","","","","","","","","key","j","8.333621848739504","853.3333333333334","529.3333333333334","f","false","img/H_ambi40.png","生人","same",""
"","","","","","html-keyboard-response","323","563131","0.0-10.0-0.0-0.0-0.0-1.58","null","<span style='color:red; font-size: 70px;'>错误! </span>","null","","","","","","","","","","","","","","","","","","","","","","","feedback_test"
"","","","","","psychophysics","324","564764","0.0-10.0-0.0-0.0-0.0-0.59","630","","j","","","","","","","","","","","","","key","j","8.419761658030914","853.3333333333334","529.3333333333334","j","true","img/S_ambi40.png","朋友","same",""
"","","","","","html-keyboard-response","325","565280","0.0-10.0-0.0-0.0-0.0-1.59","null","<span style='color:GreenYellow; font-size: 70px;'>正确! </span>","null","","","","","","","","","","","","","","","","","","","","","","","feedback_test"
"","","","","","psychophysics","326","567032","0.0-10.0-0.0-0.0-0.0-0.60","748","","j","","","","","","","","","","","","","key","j","8.412845410628172","853.3333333333334","529.3333333333334","j","true","img/H_ambi40.png","自我","same",""
"","","","","","html-keyboard-response","327","567536","0.0-10.0-0.0-0.0-0.0-1.60","null","<span style='color:GreenYellow; font-size: 70px;'>正确! </span>","null","","","","","","","","","","","","","","","","","","","","","","","feedback_test"
"","","","","","psychophysics","328","569086","0.0-10.0-0.0-0.0-0.0-0.61","543","","j","","","","","","","","","","","","","key","j","8.3337513513517","853.3333333333334","529.3333333333334","j","true","img/S_ambi40.png","朋友","same",""
"","","","","","html-keyboard-response","329","569588","0.0-10.0-0.0-0.0-0.0-1.61","null","<span style='color:GreenYellow; font-size: 70px;'>正确! </span>","null","","","","","","","","","","","","","","","","","","","","","","","feedback_test"
"","","","","","psychophysics","330","570949","0.0-10.0-0.0-0.0-0.0-0.62","358","","j","","","","","","","","","","","","","key","j","8.33356790123493","853.3333333333334","529.3333333333334","f","false","img/C_ambi40.png","朋友","same",""
"","","","","","html-keyboard-response","331","571463","0.0-10.0-0.0-0.0-0.0-1.62","null","<span style='color:red; font-size: 70px;'>错误! </span>","null","","","","","","","","","","","","","","","","","","","","","","","feedback_test"
"","","","","","psychophysics","332","573007","0.0-10.0-0.0-0.0-0.0-0.63","541","","j","","","","","","","","","","","","","key","j","8.37859562841496","853.3333333333334","529.3333333333334","j","true","img/S_ambi40.png","朋友","same",""
"","","","","","html-keyboard-response","333","573508","0.0-10.0-0.0-0.0-0.0-1.63","null","<span style='color:GreenYellow; font-size: 70px;'>正确! </span>","null","","","","","","","","","","","","","","","","","","","","","","","feedback_test"
"","","","","","psychophysics","334","575179","0.0-10.0-0.0-0.0-0.0-0.64","669","","f","","","","","","","","","","","","","key","f","8.373257575757718","853.3333333333334","529.3333333333334","j","false","img/H_ambi40.png","自我","same",""
"","","","","","html-keyboard-response","335","575690","0.0-10.0-0.0-0.0-0.0-1.64","null","<span style='color:red; font-size: 70px;'>错误! </span>","null","","","","","","","","","","","","","","","","","","","","","","","feedback_test"
"","","","","","psychophysics","336","577513","0.0-10.0-0.0-0.0-0.0-0.65","822","","j","","","","","","","","","","","","","key","j","8.482727699530498","853.3333333333334","529.3333333333334","j","true","img/C_ambi40.png","生人","same",""
"","","","","","html-keyboard-response","337","578017","0.0-10.0-0.0-0.0-0.0-1.65","null","<span style='color:GreenYellow; font-size: 70px;'>正确! </span>","null","","","","","","","","","","","","","","","","","","","","","","","feedback_test"
"","","","","","psychophysics","338","580220","0.0-10.0-0.0-0.0-0.0-0.66","1202","","j","","","","","","","","","","","","","key","j","8.39691954022996","853.3333333333334","529.3333333333334","j","true","img/H_ambi40.png","自我","same",""
"","","","","","html-keyboard-response","339","580728","0.0-10.0-0.0-0.0-0.0-1.66","null","<span style='color:GreenYellow; font-size: 70px;'>正确! </span>","null","","","","","","","","","","","","","","","","","","","","","","","feedback_test"
"","","","","","psychophysics","340","582240","0.0-10.0-0.0-0.0-0.0-0.67","506","","f","","","","","","","","","","","","","key","f","8.333105555555731","853.3333333333334","529.3333333333334","f","true","img/T_ambi40.png","をる","same",""
"","","","","","html-keyboard-response","341","582755","0.0-10.0-0.0-0.0-0.0-1.67","null","<span style='color:GreenYellow; font-size: 70px;'>正确! </span>","null","","","","","","","","","","","","","","","","","","","","","","","feedback_test"
"","","","","","psychophysics","342","584940","0.0-10.0-0.0-0.0-0.0-0.68","1183","","f","","","","","","","","","","","","","key","f","8.333164750957875","853.3333333333334","529.3333333333334","f","true","img/C_ambi40.png","自我","same",""
"","","","","","html-keyboard-response","343","585449","0.0-10.0-0.0-0.0-0.0-1.68","null","<span style='color:GreenYellow; font-size: 70px;'>正确! </span>","null","","","","","","","","","","","","","","","","","","","","","","","feedback_test"
"","","","","","psychophysics","344","587204","0.0-10.0-0.0-0.0-0.0-0.69","754","","j","","","","","","","","","","","","","key","j","8.332588516746684","853.3333333333334","529.3333333333334","j","true","img/C_ambi40.png","生人","same",""
"","","","","","html-keyboard-response","345","587707","0.0-10.0-0.0-0.0-0.0-1.69","null","<span style='color:GreenYellow; font-size: 70px;'>正确! </span>","null","","","","","","","","","","","","","","","","","","","","","","","feedback_test"
"","","","","","psychophysics","346","589243","0.0-10.0-0.0-0.0-0.0-0.70","534","","j","","","","","","","","","","","","","key","j","8.32292896174874","853.3333333333334","529.3333333333334","j","true","img/C_ambi40.png","生人","same",""
"","","","","","html-keyboard-response","347","589744","0.0-10.0-0.0-0.0-0.0-1.70","null","<span style='color:GreenYellow; font-size: 70px;'>正确! </span>","null","","","","","","","","","","","","","","","","","","","","","","","feedback_test"
"","","","","","psychophysics","348","592160","0.0-10.0-0.0-0.0-0.0-0.71","1414","","f","","","","","","","","","","","","","key","f","8.361930555555672","853.3333333333334","529.3333333333334","f","true","img/H_ambi40.png","朋友","same",""
"","","","","","html-keyboard-response","349","592661","0.0-10.0-0.0-0.0-0.0-1.71","null","<span style='color:GreenYellow; font-size: 70px;'>正确! </span>","null","","","","","","","","","","","","","","","","","","","","","","","feedback_test"
"","","","","","psychophysics","350","594061","0.0-10.0-0.0-0.0-0.0-0.72","395","","j","","","","","","","","","","","","","key","j","8.330832335329056","853.3333333333334","529.3333333333334","j","true","img/S_ambi40.png","朋友","same",""
"","","","","","html-keyboard-response","351","594576","0.0-10.0-0.0-0.0-0.0-1.72","null","<span style='color:GreenYellow; font-size: 70px;'>正确! </span>","null","","","","","","","","","","","","","","","","","","","","","","","feedback_test"
"","","","","","psychophysics","352","596054","0.0-10.0-0.0-0.0-0.0-0.73","472","","f","","","","","","","","","","","","","key","f","8.33303977272722","853.3333333333334","529.3333333333334","f","true","img/T_ambi40.png","をる","same",""
"","","","","","html-keyboard-response","353","596556","0.0-10.0-0.0-0.0-0.0-1.73","null","<span style='color:GreenYellow; font-size: 70px;'>正确! </span>","null","","","","","","","","","","","","","","","","","","","","","","","feedback_test"
"","","","","","psychophysics","354","598244","0.0-10.0-0.0-0.0-0.0-0.74","686","","j","","","","","","","","","","","","","key","j","8.330875621890227","853.3333333333334","529.3333333333334","j","true","img/H_ambi40.png","自我","same",""
"","","","","","html-keyboard-response","355","598746","0.0-10.0-0.0-0.0-0.0-1.74","null","<span style='color:GreenYellow; font-size: 70px;'>正确! </span>","null","","","","","","","","","","","","","","","","","","","","","","","feedback_test"
"","","","","","psychophysics","356","600547","0.0-10.0-0.0-0.0-0.0-0.75","799","","f","","","","","","","","","","","","","key","f","8.333134883720708","853.3333333333334","529.3333333333334","f","true","img/C_ambi40.png","自我","same",""
"","","","","","html-keyboard-response","357","601061","0.0-10.0-0.0-0.0-0.0-1.75","null","<span style='color:GreenYellow; font-size: 70px;'>正确! </span>","null","","","","","","","","","","","","","","","","","","","","","","","feedback_test"
"","","","","","psychophysics","358","602533","0.0-10.0-0.0-0.0-0.0-0.76","468","","j","","","","","","","","","","","","","key","j","8.332551136363525","853.3333333333334","529.3333333333334","j","true","img/S_ambi40.png","朋友","same",""
"","","","","","html-keyboard-response","359","603046","0.0-10.0-0.0-0.0-0.0-1.76","null","<span style='color:GreenYellow; font-size: 70px;'>正确! </span>","null","","","","","","","","","","","","","","","","","","","","","","","feedback_test"
"","","","","","psychophysics","360","605442","0.0-10.0-0.0-0.0-0.0-0.77","1393","","j","","","","","","","","","","","","","key","j","8.331634146341477","853.3333333333334","529.3333333333334","j","true","img/C_ambi40.png","生人","same",""
"","","","","","html-keyboard-response","361","605951","0.0-10.0-0.0-0.0-0.0-1.77","null","<span style='color:GreenYellow; font-size: 70px;'>正确! </span>","null","","","","","","","","","","","","","","","","","","","","","","","feedback_test"
"","","","","","psychophysics","362","607603","0.0-10.0-0.0-0.0-0.0-0.78","646","","j","","","","","","","","","","","","","key","j","8.329238578680132","853.3333333333334","529.3333333333334","f","false","img/S_ambi40.png","自我","same",""
"","","","","","html-keyboard-response","363","608115","0.0-10.0-0.0-0.0-0.0-1.78","null","<span style='color:red; font-size: 70px;'>错误! </span>","null","","","","","","","","","","","","","","","","","","","","","","","feedback_test"
"","","","","","psychophysics","364","609792","0.0-10.0-0.0-0.0-0.0-0.79","668","","j","","","","","","","","","","","","","key","j","8.332660000000033","853.3333333333334","529.3333333333334","j","true","img/C_ambi40.png","生人","same",""
"","","","","","html-keyboard-response","365","610297","0.0-10.0-0.0-0.0-0.0-1.79","null","<span style='color:GreenYellow; font-size: 70px;'>正确! </span>","null","","","","","","","","","","","","","","","","","","","","","","","feedback_test"
"","","","","","psychophysics","366","612165","0.0-10.0-0.0-0.0-0.0-0.80","866","","f","","","","","","","","","","","","","key","f","8.524778801843219","853.3333333333334","529.3333333333334","f","true","img/H_ambi40.png","朋友","same",""
"","","","","","html-keyboard-response","367","612681","0.0-10.0-0.0-0.0-0.0-1.80","null","<span style='color:GreenYellow; font-size: 70px;'>正确! </span>","null","","","","","","","","","","","","","","","","","","","","","","","feedback_test"
"","","","","","psychophysics","368","614192","0.0-10.0-0.0-0.0-0.0-0.81","509","","j","","","","","","","","","","","","","key","j","8.523439999999745","853.3333333333334","529.3333333333334","j","true","img/C_ambi40.png","生人","same",""
"","","","","","html-keyboard-response","369","614703","0.0-10.0-0.0-0.0-0.0-1.81","null","<span style='color:GreenYellow; font-size: 70px;'>正确! </span>","null","","","","","","","","","","","","","","","","","","","","","","","feedback_test"
"","","","","","psychophysics","370","616259","0.0-10.0-0.0-0.0-0.0-0.82","552","","f","","","","","","","","","","","","","key","f","8.41865027322411","853.3333333333334","529.3333333333334","f","true","img/T_ambi40.png","をる","same",""
"","","","","","html-keyboard-response","371","616761","0.0-10.0-0.0-0.0-0.0-1.82","null","<span style='color:GreenYellow; font-size: 70px;'>正确! </span>","null","","","","","","","","","","","","","","","","","","","","","","","feedback_test"
"","","","","","psychophysics","372","618921","0.0-10.0-0.0-0.0-0.0-0.83","1156","","f","","","","","","","","","","","","","key","f","8.565458167330881","853.3333333333334","529.3333333333334","j","false","img/S_ambi40.png","朋友","same",""
"","","","","","html-keyboard-response","373","619421","0.0-10.0-0.0-0.0-0.0-1.83","null","<span style='color:red; font-size: 70px;'>错误! </span>","null","","","","","","","","","","","","","","","","","","","","","","","feedback_test"
"","","","","","psychophysics","374","621113","0.0-10.0-0.0-0.0-0.0-0.84","691","","f","","","","","","","","","","","","","key","f","8.325248756218905","853.3333333333334","529.3333333333334","j","false","img/H_ambi40.png","自我","same",""
"","","","","","html-keyboard-response","375","621621","0.0-10.0-0.0-0.0-0.0-1.84","null","<span style='color:red; font-size: 70px;'>错误! </span>","null","","","","","","","","","","","","","","","","","","","","","","","feedback_test"
"","","","","","psychophysics","376","623602","0.0-10.0-0.0-0.0-0.0-0.85","979","","f","","","","","","","","","","","","","key","f","8.43744635193153","853.3333333333334","529.3333333333334","j","false","img/H_ambi40.png","自我","same",""
"","","","","","html-keyboard-response","377","624117","0.0-10.0-0.0-0.0-0.0-1.85","null","<span style='color:red; font-size: 70px;'>错误! </span>","null","","","","","","","","","","","","","","","","","","","","","","","feedback_test"
"","","","","","psychophysics","378","626354","0.0-10.0-0.0-0.0-0.0-0.86","1232","","f","","","","","","","","","","","","","key","f","8.363954887218174","853.3333333333334","529.3333333333334","f","true","img/S_ambi40.png","生人","same",""
"","","","","","html-keyboard-response","379","626866","0.0-10.0-0.0-0.0-0.0-1.86","null","<span style='color:GreenYellow; font-size: 70px;'>正确! </span>","null","","","","","","","","","","","","","","","","","","","","","","","feedback_test"
"","","","","","psychophysics","380","628398","0.0-10.0-0.0-0.0-0.0-0.87","526","","f","","","","","","","","","","","","","key","f","8.51910614525098","853.3333333333334","529.3333333333334","f","true","img/T_ambi40.png","をる","same",""
"","","","","","html-keyboard-response","381","628911","0.0-10.0-0.0-0.0-0.0-1.87","null","<span style='color:GreenYellow; font-size: 70px;'>正确! </span>","null","","","","","","","","","","","","","","","","","","","","","","","feedback_test"
"","","","","","psychophysics","382","630767","0.0-10.0-0.0-0.0-0.0-0.88","854","","j","","","","","","","","","","","","","key","j","8.564796296295956","853.3333333333334","529.3333333333334","f","false","img/H_ambi40.png","生人","same",""
"","","","","","html-keyboard-response","383","631279","0.0-10.0-0.0-0.0-0.0-1.88","null","<span style='color:red; font-size: 70px;'>错误! </span>","null","","","","","","","","","","","","","","","","","","","","","","","feedback_test"
"","","","","","psychophysics","384","633782","0.0-10.0-0.0-0.0-0.0-0.89","null","","null","","","","","","","","","","","","","key","null","8.38365993266008","853.3333333333334","529.3333333333334","f","false","img/C_ambi40.png","朋友","same",""
"","","","","","html-keyboard-response","385","634285","0.0-10.0-0.0-0.0-0.0-1.89","null","<span class='add_' style='color:yellow; font-size: 70px;'> 太慢! </span>","null","","","","","","","","","","","","","","","","","","","","","","","feedback_test"
"","","","","","psychophysics","386","636005","0.0-10.0-0.0-0.0-0.0-0.90","717","","j","","","","","","","","","","","","","key","j","8.333643902439011","853.3333333333334","529.3333333333334","j","true","img/C_ambi40.png","生人","same",""
"","","","","","html-keyboard-response","387","636508","0.0-10.0-0.0-0.0-0.0-1.90","null","<span style='color:GreenYellow; font-size: 70px;'>正确! </span>","null","","","","","","","","","","","","","","","","","","","","","","","feedback_test"
"","","","","","psychophysics","388","638659","0.0-10.0-0.0-0.0-0.0-0.91","1145","","j","","","","","","","","","","","","","key","j","8.39870078740119","853.3333333333334","529.3333333333334","j","true","img/H_ambi40.png","自我","same",""
"","","","","","html-keyboard-response","389","639172","0.0-10.0-0.0-0.0-0.0-1.91","null","<span style='color:GreenYellow; font-size: 70px;'>正确! </span>","null","","","","","","","","","","","","","","","","","","","","","","","feedback_test"
"","","","","","psychophysics","390","640921","0.0-10.0-0.0-0.0-0.0-0.92","742","","j","","","","","","","","","","","","","key","j","8.333144230769204","853.3333333333334","529.3333333333334","j","true","img/S_ambi40.png","朋友","same",""
"","","","","","html-keyboard-response","391","641433","0.0-10.0-0.0-0.0-0.0-1.92","null","<span style='color:GreenYellow; font-size: 70px;'>正确! </span>","null","","","","","","","","","","","","","","","","","","","","","","","feedback_test"
"","","","","","psychophysics","392","643267","0.0-10.0-0.0-0.0-0.0-0.93","828","","j","","","","","","","","","","","","","key","j","8.333105022831369","853.3333333333334","529.3333333333334","j","true","img/C_ambi40.png","生人","same",""
"","","","","","html-keyboard-response","393","643768","0.0-10.0-0.0-0.0-0.0-1.93","null","<span style='color:GreenYellow; font-size: 70px;'>正确! </span>","null","","","","","","","","","","","","","","","","","","","","","","","feedback_test"
"","","","","","psychophysics","394","645543","0.0-10.0-0.0-0.0-0.0-0.94","772","","f","","","","","","","","","","","","","key","f","8.333080188679302","853.3333333333334","529.3333333333334","j","false","img/S_ambi40.png","朋友","same",""
"","","","","","html-keyboard-response","395","646055","0.0-10.0-0.0-0.0-0.0-1.94","null","<span style='color:red; font-size: 70px;'>错误! </span>","null","","","","","","","","","","","","","","","","","","","","","","","feedback_test"
"","","","","","psychophysics","396","648041","0.0-10.0-0.0-0.0-0.0-0.95","978","","f","","","","","","","","","","","","","key","f","8.332742616033697","853.3333333333334","529.3333333333334","f","true","img/C_ambi40.png","朋友","same",""
"","","","","","html-keyboard-response","397","648548","0.0-10.0-0.0-0.0-0.0-1.95","null","<span style='color:GreenYellow; font-size: 70px;'>正确! </span>","null","","","","","","","","","","","","","","","","","","","","","","","feedback_test"
"","","","","","psychophysics","398","650335","0.0-10.0-0.0-0.0-0.0-0.96","780","","j","","","","","","","","","","","","","key","j","8.371221698113313","853.3333333333334","529.3333333333334","j","true","img/H_ambi40.png","自我","same",""
"","","","","","html-keyboard-response","399","650846","0.0-10.0-0.0-0.0-0.0-1.96","null","<span style='color:GreenYellow; font-size: 70px;'>正确! </span>","null","","","","","","","","","","","","","","","","","","","","","","","feedback_test"
"","","","","","psychophysics","400","653043","0.0-10.0-0.0-0.0-0.0-0.97","1197","","f","","","","","","","","","","","","","key","f","8.333530534350736","853.3333333333334","529.3333333333334","f","true","img/C_ambi40.png","自我","same",""
"","","","","","html-keyboard-response","401","653556","0.0-10.0-0.0-0.0-0.0-1.97","null","<span style='color:GreenYellow; font-size: 70px;'>正确! </span>","null","","","","","","","","","","","","","","","","","","","","","","","feedback_test"
"","","","","","psychophysics","402","655706","0.0-10.0-0.0-0.0-0.0-0.98","1147","","f","","","","","","","","","","","","","key","f","8.498499999999897","853.3333333333334","529.3333333333334","f","true","img/H_ambi40.png","朋友","same",""
"","","","","","html-keyboard-response","403","656212","0.0-10.0-0.0-0.0-0.0-1.98","null","<span style='color:GreenYellow; font-size: 70px;'>正确! </span>","null","","","","","","","","","","","","","","","","","","","","","","","feedback_test"
"","","","","","psychophysics","404","657964","0.0-10.0-0.0-0.0-0.0-0.99","752","","j","","","","","","","","","","","","","key","j","8.332746411483226","853.3333333333334","529.3333333333334","f","false","img/S_ambi40.png","自我","same",""
"","","","","","html-keyboard-response","405","658479","0.0-10.0-0.0-0.0-0.0-1.99","null","<span style='color:red; font-size: 70px;'>错误! </span>","null","","","","","","","","","","","","","","","","","","","","","","","feedback_test"
"","","","","","psychophysics","406","659997","0.0-10.0-0.0-0.0-0.0-0.100","518","","f","","","","","","","","","","","","","key","f","8.332607734806254","853.3333333333334","529.3333333333334","f","true","img/T_ambi40.png","をる","same",""
"","","","","","html-keyboard-response","407","660500","0.0-10.0-0.0-0.0-0.0-1.100","null","<span style='color:GreenYellow; font-size: 70px;'>正确! </span>","null","","","","","","","","","","","","","","","","","","","","","","","feedback_test"
"","","","","","psychophysics","408","662115","0.0-10.0-0.0-0.0-0.0-0.101","611","","j","","","","","","","","","","","","","key","j","8.376557291666662","853.3333333333334","529.3333333333334","j","true","img/C_ambi40.png","生人","same",""
"","","","","","html-keyboard-response","409","662616","0.0-10.0-0.0-0.0-0.0-1.101","null","<span style='color:GreenYellow; font-size: 70px;'>正确! </span>","null","","","","","","","","","","","","","","","","","","","","","","","feedback_test"
"","","","","","psychophysics","410","664408","0.0-10.0-0.0-0.0-0.0-0.102","789","","f","","","","","","","","","","","","","key","f","8.333238317757392","853.3333333333334","529.3333333333334","f","true","img/H_ambi40.png","生人","same",""
"","","","","","html-keyboard-response","411","664924","0.0-10.0-0.0-0.0-0.0-1.102","null","<span style='color:GreenYellow; font-size: 70px;'>正确! </span>","null","","","","","","","","","","","","","","","","","","","","","","","feedback_test"
"","","","","","psychophysics","412","667044","0.0-10.0-0.0-0.0-0.0-0.103","1116","","j","","","","","","","","","","","","","key","j","8.332656126482258","853.3333333333334","529.3333333333334","f","false","img/T_ambi40.png","をる","same",""
"","","","","","html-keyboard-response","413","667545","0.0-10.0-0.0-0.0-0.0-1.103","null","<span style='color:red; font-size: 70px;'>错误! </span>","null","","","","","","","","","","","","","","","","","","","","","","","feedback_test"
"","","","","","psychophysics","414","669880","0.0-10.0-0.0-0.0-0.0-0.104","1327","","f","","","","","","","","","","","","","key","f","8.332752688172002","853.3333333333334","529.3333333333334","j","false","img/H_ambi40.png","自我","same",""
"","","","","","html-keyboard-response","415","670382","0.0-10.0-0.0-0.0-0.0-1.104","null","<span style='color:red; font-size: 70px;'>错误! </span>","null","","","","","","","","","","","","","","","","","","","","","","","feedback_test"
"","","","","","psychophysics","416","671972","0.0-10.0-0.0-0.0-0.0-0.105","587","","f","","","","","","","","","","","","","key","f","8.421537234042919","853.3333333333334","529.3333333333334","f","true","img/T_ambi40.png","をる","same",""
"","","","","","html-keyboard-response","417","672481","0.0-10.0-0.0-0.0-0.0-1.105","null","<span style='color:GreenYellow; font-size: 70px;'>正确! </span>","null","","","","","","","","","","","","","","","","","","","","","","","feedback_test"
"","","","","","psychophysics","418","674123","0.0-10.0-0.0-0.0-0.0-0.106","640","","j","","","","","","","","","","","","","key","j","8.375757731958748","853.3333333333334","529.3333333333334","j","true","img/S_ambi40.png","朋友","same",""
"","","","","","html-keyboard-response","419","674638","0.0-10.0-0.0-0.0-0.0-1.106","null","<span style='color:GreenYellow; font-size: 70px;'>正确! </span>","null","","","","","","","","","","","","","","","","","","","","","","","feedback_test"
"","","","","","psychophysics","420","676255","0.0-10.0-0.0-0.0-0.0-0.107","611","","j","","","","","","","","","","","","","key","j","8.327792746113817","853.3333333333334","529.3333333333334","f","false","img/S_ambi40.png","生人","same",""
"","","","","","html-keyboard-response","421","676757","0.0-10.0-0.0-0.0-0.0-1.107","null","<span style='color:red; font-size: 70px;'>错误! </span>","null","","","","","","","","","","","","","","","","","","","","","","","feedback_test"
"","","","","","html-keyboard-response","422","683150","0.0-10.0-0.0-0.0-1.0","6392","<style>.context{color:white; font-size: 35px; line-height:40px}</style>                          <div><p class='context'>您正确回答了78% 的试次。</p><p class='context'>您的平均反应时为813毫秒。</p><p class='context'>请按任意键进入休息</p></div>"," ","","","","","","","","","","","","","","","","","","","","","","",""
