"success","timeout","failed_images","failed_audio","failed_video","trial_type","trial_index","time_elapsed","internal_node_id","rt","stimulus","response","value","item_width_mm","item_height_mm","item_width_px","px2mm","view_dist_mm","item_width_deg","px2deg","scale_factor","win_width_deg","win_height_deg","view_history","response_type","key_press","avg_frame_time","center_x","center_y","correct_response","correct","Image","word","condition","screen_id"
"true","false","[]","[]","[]","preload","0","980","0.0-0.0","","","","","","","","","","","","","","","","","","","","","","","","","",""
"","","","","","html-keyboard-response","1","8507","0.0-1.0","7526","
     <p>您好，欢迎参加本次实验。</p>
     <p>为充分保障您的权利，请确保您已经知晓并同意《参与实验同意书》以及《数据公开知情同意书》。</p>
     <p>如果您未见过上述内容，请咨询实验员。</p>
     <p>如果您选择继续实验，则表示您已经清楚两份知情同意书的内容并同意。</p>
     <p> <div style = ""color: green""><按任意键至下页></div> </p>
     ","arrowright","","","","","","","","","","","","","","","","","","","","","","",""
"","","","","","html-keyboard-response","2","15506","0.0-2.0","6998","
     <p>本实验首先需要您填写一些基本个人信息。</p>
     <p> <div style = ""color: green""><按任意键至下页></div></p>
     ","arrowright","","","","","","","","","","","","","","","","","","","","","","",""
"","","","","","call-function","3","15508","0.0-3.0-0.0","","","","","","","","","","","","","","","","","","","","","","","","","",""
"","","","","","survey-html-form","4","77723","0.0-3.0-1.0","62212","","{""Q0"":""13""}","","","","","","","","","","","","","","","","","","","","","","",""
"","","","","","html-button-response","5","80562","0.0-3.0-2.0","2836","<p style = 'color : white'>您的性别</p>","1","","","","","","","","","","","","","","","","","","","","","","",""
"","","","","","survey-html-form","6","84359","0.0-3.0-3.0","3796","","{""Q0"":""2004""}","","","","","","","","","","","","","","","","","","","","","","",""
"","","","","","survey-html-form","7","88158","0.0-3.0-4.0","3798","","{""Q0"":""5""}","","","","","","","","","","","","","","","","","","","","","","",""
"","","","","","virtual-chinrest","8","160187","0.0-4.0","72026","","","","85.6","53.98","465.3339000593074","5.4401354499687145","525.83","9.306678001186148","50","0.8896837302144442","29.88","15.62","","","","","","","","","","","",""
"true","","","","","fullscreen","9","169142","0.0-5.0","","","","","","","","","","","","","","","","","","","","","","","","","",""
"","","","","","instructions","10","280059","0.0-6.0","110916","","","","","","","","","","","","","","[{""page_index"":0,""viewing_time"":4591},{""page_index"":1,""viewing_time"":100682},{""page_index"":2,""viewing_time"":3320},{""page_index"":3,""viewing_time"":2321}]","","","","","","","","","","",""
"","","","","","psychophysics","11","282585","0.0-7.0-0.0","null","","null","","","","","","","","","","","","","key","null","16.66574666666682","747","463","j","false","img/S_ambi40.png","生人","prac",""
"","","","","","html-keyboard-response","12","283096","0.0-7.0-1.0","null","<span class='add_' style='color:yellow; font-size: 70px;'> 太慢! </span>","null","","","","","","","","","","","","","","","","","","","","","","","feedback_test"
"","","","","","psychophysics","13","285600","0.0-7.0-0.1","null","","null","","","","","","","","","","","","","key","null","16.666852348993125","747","463","f","false","img/S_ambi40.png","自我","prac",""
"","","","","","html-keyboard-response","14","286108","0.0-7.0-1.1","null","<span class='add_' style='color:yellow; font-size: 70px;'> 太慢! </span>","null","","","","","","","","","","","","","","","","","","","","","","","feedback_test"
"","","","","","psychophysics","15","287439","0.0-7.0-0.2","328","","f","","","","","","","","","","","","","key","f","16.670316455695673","747","463","j","false","img/T_ambi40.png","をる","prac",""
"","","","","","html-keyboard-response","16","287945","0.0-7.0-1.2","null","<span style='color:red; font-size: 70px;'>错误! </span>","null","","","","","","","","","","","","","","","","","","","","","","","feedback_test"
"","","","","","psychophysics","17","289870","0.0-7.0-0.3","920","","f","","","","","","","","","","","","","key","f","16.666817391303915","747","463","f","true","img/H_ambi40.png","生人","prac",""
"","","","","","html-keyboard-response","18","290373","0.0-7.0-1.3","null","<span style='color:GreenYellow; font-size: 70px;'>正确! </span>","null","","","","","","","","","","","","","","","","","","","","","","","feedback_test"
"","","","","","psychophysics","19","292097","0.0-7.0-0.4","721","","j","","","","","","","","","","","","","key","j","16.666529411764465","747","463","j","true","img/T_ambi40.png","をる","prac",""
"","","","","","html-keyboard-response","20","292612","0.0-7.0-1.4","null","<span style='color:GreenYellow; font-size: 70px;'>正确! </span>","null","","","","","","","","","","","","","","","","","","","","","","","feedback_test"
"","","","","","psychophysics","21","295119","0.0-7.0-0.5","null","","null","","","","","","","","","","","","","key","null","16.66891333333333","747","463","f","false","img/C_ambi40.png","生人","prac",""
"","","","","","html-keyboard-response","22","295632","0.0-7.0-1.5","null","<span class='add_' style='color:yellow; font-size: 70px;'> 太慢! </span>","null","","","","","","","","","","","","","","","","","","","","","","","feedback_test"
"","","","","","psychophysics","23","297206","0.0-7.0-0.6","572","","f","","","","","","","","","","","","","key","f","16.528817204301","747","463","f","true","img/C_ambi40.png","朋友","prac",""
"","","","","","html-keyboard-response","24","297720","0.0-7.0-1.6","null","<span style='color:GreenYellow; font-size: 70px;'>正确! </span>","null","","","","","","","","","","","","","","","","","","","","","","","feedback_test"
"","","","","","psychophysics","25","299485","0.0-7.0-0.7","762","","j","","","","","","","","","","","","","key","j","16.666752380952573","747","463","f","false","img/S_ambi40.png","朋友","prac",""
"","","","","","html-keyboard-response","26","299989","0.0-7.0-1.7","null","<span style='color:red; font-size: 70px;'>错误! </span>","null","","","","","","","","","","","","","","","","","","","","","","","feedback_test"
"","","","","","psychophysics","27","302258","0.0-7.0-0.8","1267","","j","","","","","","","","","","","","","key","j","16.66682962963004","747","463","f","false","img/H_ambi40.png","自我","prac",""
"","","","","","html-keyboard-response","28","302759","0.0-7.0-1.8","null","<span style='color:red; font-size: 70px;'>错误! </span>","null","","","","","","","","","","","","","","","","","","","","","","","feedback_test"
"","","","","","psychophysics","29","305266","0.0-7.0-0.9","null","","null","","","","","","","","","","","","","key","null","16.66656375838906","747","463","j","false","img/T_ambi40.png","をる","prac",""
"","","","","","html-keyboard-response","30","305768","0.0-7.0-1.9","null","<span class='add_' style='color:yellow; font-size: 70px;'> 太慢! </span>","null","","","","","","","","","","","","","","","","","","","","","","","feedback_test"
"","","","","","psychophysics","31","308154","0.0-7.0-0.10","1383","","j","","","","","","","","","","","","","key","j","16.66661971830968","747","463","j","true","img/S_ambi40.png","生人","prac",""
"","","","","","html-keyboard-response","32","308657","0.0-7.0-1.10","null","<span style='color:GreenYellow; font-size: 70px;'>正确! </span>","null","","","","","","","","","","","","","","","","","","","","","","","feedback_test"
"","","","","","psychophysics","33","311083","0.0-7.0-0.11","1424","","f","","","","","","","","","","","","","key","f","16.666881944444565","747","463","j","false","img/T_ambi40.png","をる","prac",""
"","","","","","html-keyboard-response","34","311593","0.0-7.0-1.11","null","<span style='color:red; font-size: 70px;'>错误! </span>","null","","","","","","","","","","","","","","","","","","","","","","","feedback_test"
"","","","","","psychophysics","35","312916","0.0-7.0-0.12","321","","f","","","","","","","","","","","","","key","f","16.667051282050895","747","463","j","false","img/C_ambi40.png","自我","prac",""
"","","","","","html-keyboard-response","36","313425","0.0-7.0-1.12","null","<span style='color:red; font-size: 70px;'>错误! </span>","null","","","","","","","","","","","","","","","","","","","","","","","feedback_test"
"","","","","","psychophysics","37","315474","0.0-7.0-0.13","1047","","f","","","","","","","","","","","","","key","f","16.66659016393461","747","463","j","false","img/H_ambi40.png","朋友","prac",""
"","","","","","html-keyboard-response","38","315975","0.0-7.0-1.13","null","<span style='color:red; font-size: 70px;'>错误! </span>","null","","","","","","","","","","","","","","","","","","","","","","","feedback_test"
"","","","","","psychophysics","39","317495","0.0-7.0-0.14","517","","j","","","","","","","","","","","","","key","j","16.666411111111262","747","463","j","true","img/C_ambi40.png","自我","prac",""
"","","","","","html-keyboard-response","40","318011","0.0-7.0-1.14","null","<span style='color:GreenYellow; font-size: 70px;'>正确! </span>","null","","","","","","","","","","","","","","","","","","","","","","","feedback_test"
"","","","","","psychophysics","41","319925","0.0-7.0-0.15","908","","j","","","","","","","","","","","","","key","j","16.66658771929807","747","463","j","true","img/H_ambi40.png","朋友","prac",""
"","","","","","html-keyboard-response","42","320436","0.0-7.0-1.15","null","<span style='color:GreenYellow; font-size: 70px;'>正确! </span>","null","","","","","","","","","","","","","","","","","","","","","","","feedback_test"
"","","","","","psychophysics","43","322099","0.0-7.0-0.16","659","","f","","","","","","","","","","","","","key","f","16.66661224489775","747","463","j","false","img/S_ambi40.png","生人","prac",""
"","","","","","html-keyboard-response","44","322600","0.0-7.0-1.16","null","<span style='color:red; font-size: 70px;'>错误! </span>","null","","","","","","","","","","","","","","","","","","","","","","","feedback_test"
"","","","","","psychophysics","45","324726","0.0-7.0-0.17","1125","","j","","","","","","","","","","","","","key","j","16.663563492063467","747","463","j","true","img/T_ambi40.png","をる","prac",""
"","","","","","html-keyboard-response","46","325232","0.0-7.0-1.17","null","<span style='color:GreenYellow; font-size: 70px;'>正确! </span>","null","","","","","","","","","","","","","","","","","","","","","","","feedback_test"
"","","","","","psychophysics","47","327735","0.0-7.0-0.18","null","","null","","","","","","","","","","","","","key","null","16.57514093959729","747","463","f","false","img/C_ambi40.png","朋友","prac",""
"","","","","","html-keyboard-response","48","328249","0.0-7.0-1.18","null","<span class='add_' style='color:yellow; font-size: 70px;'> 太慢! </span>","null","","","","","","","","","","","","","","","","","","","","","","","feedback_test"
"","","","","","psychophysics","49","330149","0.0-7.0-0.19","898","","f","","","","","","","","","","","","","key","f","16.54193749999987","747","463","f","true","img/H_ambi40.png","生人","prac",""
"","","","","","html-keyboard-response","50","330664","0.0-7.0-1.19","null","<span style='color:GreenYellow; font-size: 70px;'>正确! </span>","null","","","","","","","","","","","","","","","","","","","","","","","feedback_test"
"","","","","","psychophysics","51","333031","0.0-7.0-0.20","1364","","j","","","","","","","","","","","","","key","j","16.66733333333321","747","463","j","true","img/T_ambi40.png","をる","prac",""
"","","","","","html-keyboard-response","52","333546","0.0-7.0-1.20","null","<span style='color:GreenYellow; font-size: 70px;'>正确! </span>","null","","","","","","","","","","","","","","","","","","","","","","","feedback_test"
"","","","","","psychophysics","53","334886","0.0-7.0-0.21","336","","f","","","","","","","","","","","","","key","f","16.666849999999975","747","463","j","false","img/C_ambi40.png","自我","prac",""
"","","","","","html-keyboard-response","54","335392","0.0-7.0-1.21","null","<span style='color:red; font-size: 70px;'>错误! </span>","null","","","","","","","","","","","","","","","","","","","","","","","feedback_test"
"","","","","","psychophysics","55","337262","0.0-7.0-0.22","869","","f","","","","","","","","","","","","","key","f","16.667036036036276","747","463","f","true","img/H_ambi40.png","自我","prac",""
"","","","","","html-keyboard-response","56","337769","0.0-7.0-1.22","null","<span style='color:GreenYellow; font-size: 70px;'>正确! </span>","null","","","","","","","","","","","","","","","","","","","","","","","feedback_test"
"","","","","","psychophysics","57","340199","0.0-7.0-0.23","1428","","f","","","","","","","","","","","","","key","f","16.666666666666668","747","463","f","true","img/S_ambi40.png","朋友","prac",""
"","","","","","html-keyboard-response","58","340702","0.0-7.0-1.23","null","<span style='color:GreenYellow; font-size: 70px;'>正确! </span>","null","","","","","","","","","","","","","","","","","","","","","","","feedback_test"
"","","","","","psychophysics","59","343207","0.0-7.0-0.24","null","","null","","","","","","","","","","","","","key","null","16.66697315436213","747","463","j","false","img/H_ambi40.png","朋友","prac",""
"","","","","","html-keyboard-response","60","343709","0.0-7.0-1.24","null","<span class='add_' style='color:yellow; font-size: 70px;'> 太慢! </span>","null","","","","","","","","","","","","","","","","","","","","","","","feedback_test"
"","","","","","psychophysics","61","346218","0.0-7.0-0.25","null","","null","","","","","","","","","","","","","key","null","16.6663533333332","747","463","j","false","img/T_ambi40.png","をる","prac",""
"","","","","","html-keyboard-response","62","346720","0.0-7.0-1.25","null","<span class='add_' style='color:yellow; font-size: 70px;'> 太慢! </span>","null","","","","","","","","","","","","","","","","","","","","","","","feedback_test"
"","","","","","psychophysics","63","349224","0.0-7.0-0.26","null","","null","","","","","","","","","","","","","key","null","16.6670268456375","747","462.3333333333333","j","false","img/S_ambi40.png","生人","prac",""
"","","","","","html-keyboard-response","64","349737","0.0-7.0-1.26","null","<span class='add_' style='color:yellow; font-size: 70px;'> 太慢! </span>","null","","","","","","","","","","","","","","","","","","","","","","","feedback_test"
"","","","","","psychophysics","65","352243","0.0-7.0-0.27","null","","null","","","","","","","","","","","","","key","null","16.666302013423078","747","463","f","false","img/C_ambi40.png","生人","prac",""
"","","","","","html-keyboard-response","66","352746","0.0-7.0-1.27","null","<span class='add_' style='color:yellow; font-size: 70px;'> 太慢! </span>","null","","","","","","","","","","","","","","","","","","","","","","","feedback_test"
"","","","","","psychophysics","67","355249","0.0-7.0-0.28","null","","null","","","","","","","","","","","","","key","null","16.66420134228198","747","463","j","false","img/T_ambi40.png","をる","prac",""
"","","","","","html-keyboard-response","68","355752","0.0-7.0-1.28","null","<span class='add_' style='color:yellow; font-size: 70px;'> 太慢! </span>","null","","","","","","","","","","","","","","","","","","","","","","","feedback_test"
"","","","","","psychophysics","69","358256","0.0-7.0-0.29","null","","null","","","","","","","","","","","","","key","null","16.666469798657744","747","463","j","false","img/C_ambi40.png","自我","prac",""
"","","","","","html-keyboard-response","70","358758","0.0-7.0-1.29","null","<span class='add_' style='color:yellow; font-size: 70px;'> 太慢! </span>","null","","","","","","","","","","","","","","","","","","","","","","","feedback_test"
"","","","","","psychophysics","71","360711","0.0-7.0-0.30","952","","f","","","","","","","","","","","","","key","f","16.666939655172335","747","463","f","true","img/S_ambi40.png","自我","prac",""
"","","","","","html-keyboard-response","72","361219","0.0-7.0-1.30","null","<span style='color:GreenYellow; font-size: 70px;'>正确! </span>","null","","","","","","","","","","","","","","","","","","","","","","","feedback_test"
"","","","","","psychophysics","73","363108","0.0-7.0-0.31","887","","j","","","","","","","","","","","","","key","j","16.66640178571418","747","463","j","true","img/H_ambi40.png","朋友","prac",""
"","","","","","html-keyboard-response","74","363613","0.0-7.0-1.31","null","<span style='color:GreenYellow; font-size: 70px;'>正确! </span>","null","","","","","","","","","","","","","","","","","","","","","","","feedback_test"
"","","","","","psychophysics","75","365562","0.0-8.0-0.0-0.0","948","","j","","","","","","","","","","","","","key","j","16.66687068965483","747","463","j","true","img/T_ambi40.png","をる","prac",""
"","","","","","html-keyboard-response","76","366068","0.0-8.0-0.0-1.0","null","<span style='color:GreenYellow; font-size: 70px;'>正确! </span>","null","","","","","","","","","","","","","","","","","","","","","","","feedback_test"
"","","","","","psychophysics","77","368028","0.0-8.0-0.0-0.1","957","","j","","","","","","","","","","","","","key","j","16.66638793103429","747","463","j","true","img/T_ambi40.png","をる","prac",""
"","","","","","html-keyboard-response","78","368530","0.0-8.0-0.0-1.1","null","<span style='color:GreenYellow; font-size: 70px;'>正确! </span>","null","","","","","","","","","","","","","","","","","","","","","","","feedback_test"
"","","","","","psychophysics","79","370302","0.0-8.0-0.0-0.2","770","","j","","","","","","","","","","","","","key","j","16.667283018867547","747","463","j","true","img/T_ambi40.png","をる","prac",""
"","","","","","html-keyboard-response","80","370815","0.0-8.0-0.0-1.2","null","<span style='color:GreenYellow; font-size: 70px;'>正确! </span>","null","","","","","","","","","","","","","","","","","","","","","","","feedback_test"
"","","","","","psychophysics","81","372702","0.0-8.0-0.0-0.3","885","","f","","","","","","","","","","","","","key","f","16.667159292035617","747","463","j","false","img/H_ambi40.png","朋友","prac",""
"","","","","","html-keyboard-response","82","373207","0.0-8.0-0.0-1.3","null","<span style='color:red; font-size: 70px;'>错误! </span>","null","","","","","","","","","","","","","","","","","","","","","","","feedback_test"
"","","","","","psychophysics","83","375305","0.0-8.0-0.0-0.4","1096","","j","","","","","","","","","","","","","key","j","16.66665599999996","747","463","j","true","img/C_ambi40.png","自我","prac",""
"","","","","","html-keyboard-response","84","375814","0.0-8.0-0.0-1.4","null","<span style='color:GreenYellow; font-size: 70px;'>正确! </span>","null","","","","","","","","","","","","","","","","","","","","","","","feedback_test"
"","","","","","psychophysics","85","378009","0.0-8.0-0.0-0.5","1193","","f","","","","","","","","","","","","","key","f","16.66658778625935","747","463","j","false","img/S_ambi40.png","生人","prac",""
"","","","","","html-keyboard-response","86","378521","0.0-8.0-0.0-1.5","null","<span style='color:red; font-size: 70px;'>错误! </span>","null","","","","","","","","","","","","","","","","","","","","","","","feedback_test"
"","","","","","psychophysics","87","380567","0.0-8.0-0.0-0.6","1044","","j","","","","","","","","","","","","","key","j","16.6666639344261","747","463","j","true","img/H_ambi40.png","朋友","prac",""
"","","","","","html-keyboard-response","88","381073","0.0-8.0-0.0-1.6","null","<span style='color:GreenYellow; font-size: 70px;'>正确! </span>","null","","","","","","","","","","","","","","","","","","","","","","","feedback_test"
"","","","","","psychophysics","89","382893","0.0-8.0-0.0-0.7","819","","j","","","","","","","","","","","","","key","j","16.66668518518499","747","463","j","true","img/S_ambi40.png","生人","prac",""
"","","","","","html-keyboard-response","90","383409","0.0-8.0-0.0-1.7","null","<span style='color:GreenYellow; font-size: 70px;'>正确! </span>","null","","","","","","","","","","","","","","","","","","","","","","","feedback_test"
"","","","","","psychophysics","91","385621","0.0-8.0-0.0-0.8","1210","","f","","","","","","","","","","","","","key","f","16.66681818181832","747","463","f","true","img/C_ambi40.png","生人","prac",""
"","","","","","html-keyboard-response","92","386137","0.0-8.0-0.0-1.8","null","<span style='color:GreenYellow; font-size: 70px;'>正确! </span>","null","","","","","","","","","","","","","","","","","","","","","","","feedback_test"
"","","","","","psychophysics","93","388177","0.0-8.0-0.0-0.9","1037","","f","","","","","","","","","","","","","key","f","16.666247933884133","747","463","f","true","img/S_ambi40.png","朋友","prac",""
"","","","","","html-keyboard-response","94","388684","0.0-8.0-0.0-1.9","null","<span style='color:GreenYellow; font-size: 70px;'>正确! </span>","null","","","","","","","","","","","","","","","","","","","","","","","feedback_test"
"","","","","","psychophysics","95","391127","0.0-8.0-0.0-0.10","1439","","j","","","","","","","","","","","","","key","j","16.666668965516948","747","463","f","false","img/S_ambi40.png","自我","prac",""
"","","","","","html-keyboard-response","96","391639","0.0-8.0-0.0-1.10","null","<span style='color:red; font-size: 70px;'>错误! </span>","null","","","","","","","","","","","","","","","","","","","","","","","feedback_test"
"","","","","","psychophysics","97","393472","0.0-8.0-0.0-0.11","832","","f","","","","","","","","","","","","","key","f","16.666513761468103","747","463","j","false","img/T_ambi40.png","をる","prac",""
"","","","","","html-keyboard-response","98","393987","0.0-8.0-0.0-1.11","null","<span style='color:red; font-size: 70px;'>错误! </span>","null","","","","","","","","","","","","","","","","","","","","","","","feedback_test"
"","","","","","psychophysics","99","396072","0.0-8.0-0.0-0.12","1082","","j","","","","","","","","","","","","","key","j","16.665943548387016","747","463","f","false","img/C_ambi40.png","朋友","prac",""
"","","","","","html-keyboard-response","100","396578","0.0-8.0-0.0-1.12","null","<span style='color:red; font-size: 70px;'>错误! </span>","null","","","","","","","","","","","","","","","","","","","","","","","feedback_test"
"","","","","","psychophysics","101","399096","0.0-8.0-0.0-0.13","null","","null","","","","","","","","","","","","","key","null","16.66683333333349","747","463","f","false","img/H_ambi40.png","自我","prac",""
"","","","","","html-keyboard-response","102","399607","0.0-8.0-0.0-1.13","null","<span class='add_' style='color:yellow; font-size: 70px;'> 太慢! </span>","null","","","","","","","","","","","","","","","","","","","","","","","feedback_test"
"","","","","","psychophysics","103","401675","0.0-8.0-0.0-0.14","1066","","j","","","","","","","","","","","","","key","j","16.666780487805077","747","463","j","true","img/C_ambi40.png","自我","prac",""
"","","","","","html-keyboard-response","104","402191","0.0-8.0-0.0-1.14","null","<span style='color:GreenYellow; font-size: 70px;'>正确! </span>","null","","","","","","","","","","","","","","","","","","","","","","","feedback_test"
"","","","","","psychophysics","105","403905","0.0-8.0-0.0-0.15","712","","f","","","","","","","","","","","","","key","f","16.66697058823546","747","463","f","true","img/H_ambi40.png","生人","prac",""
"","","","","","html-keyboard-response","106","404409","0.0-8.0-0.0-1.15","null","<span style='color:GreenYellow; font-size: 70px;'>正确! </span>","null","","","","","","","","","","","","","","","","","","","","","","","feedback_test"
"","","","","","psychophysics","107","406413","0.0-8.0-0.0-0.16","1001","","f","","","","","","","","","","","","","key","f","16.666882352941148","747","463","j","false","img/S_ambi40.png","生人","prac",""
"","","","","","html-keyboard-response","108","406928","0.0-8.0-0.0-1.16","null","<span style='color:red; font-size: 70px;'>错误! </span>","null","","","","","","","","","","","","","","","","","","","","","","","feedback_test"
"","","","","","psychophysics","109","408650","0.0-8.0-0.0-0.17","717","","j","","","","","","","","","","","","","key","j","16.666872549019686","747","463","j","true","img/T_ambi40.png","をる","prac",""
"","","","","","html-keyboard-response","110","409166","0.0-8.0-0.0-1.17","null","<span style='color:GreenYellow; font-size: 70px;'>正确! </span>","null","","","","","","","","","","","","","","","","","","","","","","","feedback_test"
"","","","","","psychophysics","111","411158","0.0-8.0-0.0-0.18","990","","f","","","","","","","","","","","","","key","f","16.666974576271013","747","463","f","true","img/C_ambi40.png","生人","prac",""
"","","","","","html-keyboard-response","112","411673","0.0-8.0-0.0-1.18","null","<span style='color:GreenYellow; font-size: 70px;'>正确! </span>","null","","","","","","","","","","","","","","","","","","","","","","","feedback_test"
"","","","","","psychophysics","113","413427","0.0-8.0-0.0-0.19","753","","j","","","","","","","","","","","","","key","j","16.666846153846283","747","463","j","true","img/T_ambi40.png","をる","prac",""
"","","","","","html-keyboard-response","114","413930","0.0-8.0-0.0-1.19","null","<span style='color:GreenYellow; font-size: 70px;'>正确! </span>","null","","","","","","","","","","","","","","","","","","","","","","","feedback_test"
"","","","","","psychophysics","115","415487","0.0-8.0-0.0-0.20","555","","f","","","","","","","","","","","","","key","f","16.667247311827996","747","463","j","false","img/S_ambi40.png","生人","prac",""
"","","","","","html-keyboard-response","116","415994","0.0-8.0-0.0-1.20","null","<span style='color:red; font-size: 70px;'>错误! </span>","null","","","","","","","","","","","","","","","","","","","","","","","feedback_test"
"","","","","","psychophysics","117","417647","0.0-8.0-0.0-0.21","648","","j","","","","","","","","","","","","","key","j","16.66670408163265","747","463","j","true","img/H_ambi40.png","朋友","prac",""
"","","","","","html-keyboard-response","118","418154","0.0-8.0-0.0-1.21","null","<span style='color:GreenYellow; font-size: 70px;'>正确! </span>","null","","","","","","","","","","","","","","","","","","","","","","","feedback_test"
"","","","","","psychophysics","119","419669","0.0-8.0-0.0-0.22","514","","j","","","","","","","","","","","","","key","j","16.666577777777437","747","463","j","true","img/C_ambi40.png","自我","prac",""
"","","","","","html-keyboard-response","120","420183","0.0-8.0-0.0-1.22","null","<span style='color:GreenYellow; font-size: 70px;'>正确! </span>","null","","","","","","","","","","","","","","","","","","","","","","","feedback_test"
"","","","","","psychophysics","121","421674","0.0-8.0-0.0-0.23","489","","j","","","","","","","","","","","","","key","j","16.666579545454375","747","463","f","false","img/S_ambi40.png","自我","prac",""
"","","","","","html-keyboard-response","122","422185","0.0-8.0-0.0-1.23","null","<span style='color:red; font-size: 70px;'>错误! </span>","null","","","","","","","","","","","","","","","","","","","","","","","feedback_test"
"","","","","","psychophysics","123","423768","0.0-8.0-0.0-0.24","580","","j","","","","","","","","","","","","","key","j","16.66694680851032","747","463","f","false","img/H_ambi40.png","生人","prac",""
"","","","","","html-keyboard-response","124","424283","0.0-8.0-0.0-1.24","null","<span style='color:red; font-size: 70px;'>错误! </span>","null","","","","","","","","","","","","","","","","","","","","","","","feedback_test"
"","","","","","psychophysics","125","425906","0.0-8.0-0.0-0.25","622","","j","","","","","","","","","","","","","key","j","16.666645833333558","747","463","j","true","img/C_ambi40.png","自我","prac",""
"","","","","","html-keyboard-response","126","426420","0.0-8.0-0.0-1.25","null","<span style='color:GreenYellow; font-size: 70px;'>正确! </span>","null","","","","","","","","","","","","","","","","","","","","","","","feedback_test"
"","","","","","psychophysics","127","428088","0.0-8.0-0.0-0.26","665","","f","","","","","","","","","","","","","key","f","16.667121212121046","747","463","f","true","img/S_ambi40.png","朋友","prac",""
"","","","","","html-keyboard-response","128","428594","0.0-8.0-0.0-1.26","null","<span style='color:GreenYellow; font-size: 70px;'>正确! </span>","null","","","","","","","","","","","","","","","","","","","","","","","feedback_test"
"","","","","","psychophysics","129","430510","0.0-8.0-0.0-0.27","910","","j","","","","","","","","","","","","","key","j","16.66679824561365","747","463","f","false","img/C_ambi40.png","朋友","prac",""
"","","","","","html-keyboard-response","130","431025","0.0-8.0-0.0-1.27","null","<span style='color:red; font-size: 70px;'>错误! </span>","null","","","","","","","","","","","","","","","","","","","","","","","feedback_test"
"","","","","","psychophysics","131","432988","0.0-8.0-0.0-0.28","961","","j","","","","","","","","","","","","","key","j","16.662213675213607","747","463","j","true","img/H_ambi40.png","朋友","prac",""
"","","","","","html-keyboard-response","132","433491","0.0-8.0-0.0-1.28","null","<span style='color:GreenYellow; font-size: 70px;'>正确! </span>","null","","","","","","","","","","","","","","","","","","","","","","","feedback_test"
"","","","","","psychophysics","133","435155","0.0-8.0-0.0-0.29","662","","j","","","","","","","","","","","","","key","j","16.666535353534996","747","463","j","true","img/T_ambi40.png","をる","prac",""
"","","","","","html-keyboard-response","134","435665","0.0-8.0-0.0-1.29","null","<span style='color:GreenYellow; font-size: 70px;'>正确! </span>","null","","","","","","","","","","","","","","","","","","","","","","","feedback_test"
"","","","","","psychophysics","135","437290","0.0-8.0-0.0-0.30","623","","j","","","","","","","","","","","","","key","j","16.53995833333344","747","463","j","true","img/T_ambi40.png","をる","prac",""
"","","","","","html-keyboard-response","136","437804","0.0-8.0-0.0-1.30","null","<span style='color:GreenYellow; font-size: 70px;'>正确! </span>","null","","","","","","","","","","","","","","","","","","","","","","","feedback_test"
"","","","","","psychophysics","137","439898","0.0-8.0-0.0-0.31","1091","","j","","","","","","","","","","","","","key","j","16.666717741935564","747","463","f","false","img/H_ambi40.png","自我","prac",""
"","","","","","html-keyboard-response","138","440402","0.0-8.0-0.0-1.31","null","<span style='color:red; font-size: 70px;'>错误! </span>","null","","","","","","","","","","","","","","","","","","","","","","","feedback_test"
"","","","","","html-keyboard-response","139","442295","0.0-8.0-1.0-0.0","1891","<style>.context{color:white; font-size: 35px; line-height:40px}</style>                          <div><p class='context'>您正确回答了63% 的试次。</p ><p class='context'>您的平均反应时为841毫秒。</p >","meta","","","","","","","","","","","","","","","","","","","","","","",""
"","","","","","instructions","140","461298","0.0-8.0-1.0-1.0","18997","","","","","","","","","","","","","","[{""page_index"":0,""viewing_time"":5136},{""page_index"":1,""viewing_time"":11626},{""page_index"":2,""viewing_time"":2235}]","","","","","","","","","","",""
"","","","","","psychophysics","141","462821","0.0-8.1-0.1-0.32","520","","j","","","","","","","","","","","","","key","j","16.666747252747243","747","463","j","true","img/C_ambi40.png","自我","prac",""
"","","","","","html-keyboard-response","142","463329","0.0-8.1-0.1-1.32","null","<span style='color:GreenYellow; font-size: 70px;'>正确! </span>","null","","","","","","","","","","","","","","","","","","","","","","","feedback_test"
"","","","","","psychophysics","143","464823","0.0-8.1-0.1-0.33","490","","j","","","","","","","","","","","","","key","j","16.666988764044547","747","463","f","false","img/H_ambi40.png","自我","prac",""
"","","","","","html-keyboard-response","144","465334","0.0-8.1-0.1-1.33","null","<span style='color:red; font-size: 70px;'>错误! </span>","null","","","","","","","","","","","","","","","","","","","","","","","feedback_test"
"","","","","","psychophysics","145","466898","0.0-8.1-0.1-0.34","562","","j","","","","","","","","","","","","","key","j","16.666467391304373","747","463","j","true","img/H_ambi40.png","朋友","prac",""
"","","","","","html-keyboard-response","146","467414","0.0-8.1-0.1-1.34","null","<span style='color:GreenYellow; font-size: 70px;'>正确! </span>","null","","","","","","","","","","","","","","","","","","","","","","","feedback_test"
"","","","","","psychophysics","147","469211","0.0-8.1-0.1-0.35","795","","f","","","","","","","","","","","","","key","f","16.66654205607483","747","463","f","true","img/C_ambi40.png","生人","prac",""
"","","","","","html-keyboard-response","148","469719","0.0-8.1-0.1-1.35","null","<span style='color:GreenYellow; font-size: 70px;'>正确! </span>","null","","","","","","","","","","","","","","","","","","","","","","","feedback_test"
"","","","","","psychophysics","149","471736","0.0-8.1-0.1-0.36","1014","","f","","","","","","","","","","","","","key","f","16.66710833333297","747","463","f","true","img/H_ambi40.png","生人","prac",""
"","","","","","html-keyboard-response","150","472250","0.0-8.1-0.1-1.36","null","<span style='color:GreenYellow; font-size: 70px;'>正确! </span>","null","","","","","","","","","","","","","","","","","","","","","","","feedback_test"
"","","","","","psychophysics","151","473869","0.0-8.1-0.1-0.37","617","","j","","","","","","","","","","","","","key","j","16.666770833332823","747","463","j","true","img/T_ambi40.png","をる","prac",""
"","","","","","html-keyboard-response","152","474373","0.0-8.1-0.1-1.37","null","<span style='color:GreenYellow; font-size: 70px;'>正确! </span>","null","","","","","","","","","","","","","","","","","","","","","","","feedback_test"
"","","","","","psychophysics","153","476068","0.0-8.1-0.1-0.38","693","","j","","","","","","","","","","","","","key","j","16.666752475247566","747","463","j","true","img/S_ambi40.png","生人","prac",""
"","","","","","html-keyboard-response","154","476570","0.0-8.1-0.1-1.38","null","<span style='color:GreenYellow; font-size: 70px;'>正确! </span>","null","","","","","","","","","","","","","","","","","","","","","","","feedback_test"
"","","","","","psychophysics","155","478240","0.0-8.1-0.1-0.39","669","","j","","","","","","","","","","","","","key","j","16.666232323232272","747","463","f","false","img/C_ambi40.png","朋友","prac",""
"","","","","","html-keyboard-response","156","478745","0.0-8.1-0.1-1.39","null","<span style='color:red; font-size: 70px;'>错误! </span>","null","","","","","","","","","","","","","","","","","","","","","","","feedback_test"
"","","","","","psychophysics","157","480774","0.0-8.1-0.1-0.40","1026","","j","","","","","","","","","","","","","key","j","16.66695867768635","747","463","j","true","img/H_ambi40.png","朋友","prac",""
"","","","","","html-keyboard-response","158","481289","0.0-8.1-0.1-1.40","null","<span style='color:GreenYellow; font-size: 70px;'>正确! </span>","null","","","","","","","","","","","","","","","","","","","","","","","feedback_test"
"","","","","","psychophysics","159","482932","0.0-8.1-0.1-0.41","640","","f","","","","","","","","","","","","","key","f","16.6641649484536","747","463","j","false","img/S_ambi40.png","生人","prac",""
"","","","","","html-keyboard-response","160","483441","0.0-8.1-0.1-1.41","null","<span style='color:red; font-size: 70px;'>错误! </span>","null","","","","","","","","","","","","","","","","","","","","","","","feedback_test"
"","","","","","psychophysics","161","484866","0.0-8.1-0.1-0.42","422","","j","","","","","","","","","","","","","key","j","16.667035714285227","747","463","j","true","img/T_ambi40.png","をる","prac",""
"","","","","","html-keyboard-response","162","485368","0.0-8.1-0.1-1.42","null","<span style='color:GreenYellow; font-size: 70px;'>正确! </span>","null","","","","","","","","","","","","","","","","","","","","","","","feedback_test"
"","","","","","psychophysics","163","486912","0.0-8.1-0.1-0.43","541","","j","","","","","","","","","","","","","key","j","16.66691208791223","747","463","f","false","img/S_ambi40.png","朋友","prac",""
"","","","","","html-keyboard-response","164","487417","0.0-8.1-0.1-1.43","null","<span style='color:red; font-size: 70px;'>错误! </span>","null","","","","","","","","","","","","","","","","","","","","","","","feedback_test"
"","","","","","psychophysics","165","488964","0.0-8.1-0.1-0.44","545","","j","","","","","","","","","","","","","key","j","16.66654945054964","747","463","j","true","img/T_ambi40.png","をる","prac",""
"","","","","","html-keyboard-response","166","489465","0.0-8.1-0.1-1.44","null","<span style='color:GreenYellow; font-size: 70px;'>正确! </span>","null","","","","","","","","","","","","","","","","","","","","","","","feedback_test"
"","","","","","psychophysics","167","491323","0.0-8.1-0.1-0.45","856","","j","","","","","","","","","","","","","key","j","16.552445454545722","747","463","j","true","img/T_ambi40.png","をる","prac",""
"","","","","","html-keyboard-response","168","491830","0.0-8.1-0.1-1.45","null","<span style='color:GreenYellow; font-size: 70px;'>正确! </span>","null","","","","","","","","","","","","","","","","","","","","","","","feedback_test"
"","","","","","psychophysics","169","493421","0.0-8.1-0.1-0.46","588","","f","","","","","","","","","","","","","key","f","16.66697894736855","747","463","f","true","img/S_ambi40.png","自我","prac",""
"","","","","","html-keyboard-response","170","493927","0.0-8.1-0.1-1.46","null","<span style='color:GreenYellow; font-size: 70px;'>正确! </span>","null","","","","","","","","","","","","","","","","","","","","","","","feedback_test"
"","","","","","psychophysics","171","495456","0.0-8.1-0.1-0.47","528","","j","","","","","","","","","","","","","key","j","16.665417582417103","747","463","j","true","img/C_ambi40.png","自我","prac",""
"","","","","","html-keyboard-response","172","495966","0.0-8.1-0.1-1.47","null","<span style='color:GreenYellow; font-size: 70px;'>正确! </span>","null","","","","","","","","","","","","","","","","","","","","","","","feedback_test"
"","","","","","psychophysics","173","497700","0.0-8.1-0.1-0.48","729","","f","","","","","","","","","","","","","key","f","16.66669607843106","747","463","f","true","img/H_ambi40.png","自我","prac",""
"","","","","","html-keyboard-response","174","498204","0.0-8.1-0.1-1.48","null","<span style='color:GreenYellow; font-size: 70px;'>正确! </span>","null","","","","","","","","","","","","","","","","","","","","","","","feedback_test"
"","","","","","psychophysics","175","499728","0.0-8.1-0.1-0.49","522","","j","","","","","","","","","","","","","key","j","16.666399999999623","747","463","j","true","img/T_ambi40.png","をる","prac",""
"","","","","","html-keyboard-response","176","500242","0.0-8.1-0.1-1.49","null","<span style='color:GreenYellow; font-size: 70px;'>正确! </span>","null","","","","","","","","","","","","","","","","","","","","","","","feedback_test"
"","","","","","psychophysics","177","501943","0.0-8.1-0.1-0.50","699","","f","","","","","","","","","","","","","key","f","16.66702970297025","747","463","f","true","img/C_ambi40.png","生人","prac",""
"","","","","","html-keyboard-response","178","502451","0.0-8.1-0.1-1.50","null","<span style='color:GreenYellow; font-size: 70px;'>正确! </span>","null","","","","","","","","","","","","","","","","","","","","","","","feedback_test"
"","","","","","psychophysics","179","504297","0.0-8.1-0.1-0.51","845","","j","","","","","","","","","","","","","key","j","16.66652293577993","747","463","j","true","img/H_ambi40.png","朋友","prac",""
"","","","","","html-keyboard-response","180","504799","0.0-8.1-0.1-1.51","null","<span style='color:GreenYellow; font-size: 70px;'>正确! </span>","null","","","","","","","","","","","","","","","","","","","","","","","feedback_test"
"","","","","","psychophysics","181","506491","0.0-8.1-0.1-0.52","690","","j","","","","","","","","","","","","","key","j","16.532970000000205","747","463","j","true","img/T_ambi40.png","をる","prac",""
"","","","","","html-keyboard-response","182","506993","0.0-8.1-0.1-1.52","null","<span style='color:GreenYellow; font-size: 70px;'>正确! </span>","null","","","","","","","","","","","","","","","","","","","","","","","feedback_test"
"","","","","","psychophysics","183","508605","0.0-8.1-0.1-0.53","610","","f","","","","","","","","","","","","","key","f","16.666895833333303","747","463","j","false","img/S_ambi40.png","生人","prac",""
"","","","","","html-keyboard-response","184","509122","0.0-8.1-0.1-1.53","null","<span style='color:red; font-size: 70px;'>错误! </span>","null","","","","","","","","","","","","","","","","","","","","","","","feedback_test"
"","","","","","psychophysics","185","510959","0.0-8.1-0.1-0.54","835","","j","","","","","","","","","","","","","key","j","16.666724770641757","747","463","f","false","img/S_ambi40.png","自我","prac",""
"","","","","","html-keyboard-response","186","511467","0.0-8.1-0.1-1.54","null","<span style='color:red; font-size: 70px;'>错误! </span>","null","","","","","","","","","","","","","","","","","","","","","","","feedback_test"
"","","","","","psychophysics","187","513038","0.0-8.1-0.1-0.55","570","","j","","","","","","","","","","","","","key","j","16.666516129031994","747","463","j","true","img/T_ambi40.png","をる","prac",""
"","","","","","html-keyboard-response","188","513555","0.0-8.1-0.1-1.55","null","<span style='color:GreenYellow; font-size: 70px;'>正确! </span>","null","","","","","","","","","","","","","","","","","","","","","","","feedback_test"
"","","","","","psychophysics","189","515097","0.0-8.1-0.1-0.56","540","","j","","","","","","","","","","","","","key","j","16.667010989010713","747","463","j","true","img/T_ambi40.png","をる","prac",""
"","","","","","html-keyboard-response","190","515605","0.0-8.1-0.1-1.56","null","<span style='color:GreenYellow; font-size: 70px;'>正确! </span>","null","","","","","","","","","","","","","","","","","","","","","","","feedback_test"
"","","","","","psychophysics","191","517354","0.0-8.1-0.1-0.57","748","","j","","","","","","","","","","","","","key","j","16.66702884615426","747","463","j","true","img/S_ambi40.png","生人","prac",""
"","","","","","html-keyboard-response","192","517870","0.0-8.1-0.1-1.57","null","<span style='color:GreenYellow; font-size: 70px;'>正确! </span>","null","","","","","","","","","","","","","","","","","","","","","","","feedback_test"
"","","","","","psychophysics","193","519646","0.0-8.1-0.1-0.58","773","","f","","","","","","","","","","","","","key","f","16.666666666666668","747","463","f","true","img/S_ambi40.png","朋友","prac",""
"","","","","","html-keyboard-response","194","520153","0.0-8.1-0.1-1.58","null","<span style='color:GreenYellow; font-size: 70px;'>正确! </span>","null","","","","","","","","","","","","","","","","","","","","","","","feedback_test"
"","","","","","psychophysics","195","521831","0.0-8.1-0.1-0.59","675","","j","","","","","","","","","","","","","key","j","16.666656565657263","747","463","j","true","img/C_ambi40.png","自我","prac",""
"","","","","","html-keyboard-response","196","522344","0.0-8.1-0.1-1.59","null","<span style='color:GreenYellow; font-size: 70px;'>正确! </span>","null","","","","","","","","","","","","","","","","","","","","","","","feedback_test"
"","","","","","psychophysics","197","524204","0.0-8.1-0.1-0.60","859","","j","","","","","","","","","","","","","key","j","16.66633333333323","747","463","f","false","img/H_ambi40.png","生人","prac",""
"","","","","","html-keyboard-response","198","524717","0.0-8.1-0.1-1.60","null","<span style='color:red; font-size: 70px;'>错误! </span>","null","","","","","","","","","","","","","","","","","","","","","","","feedback_test"
"","","","","","psychophysics","199","526475","0.0-8.1-0.1-0.61","756","","j","","","","","","","","","","","","","key","j","16.6669038461528","747","463","j","true","img/H_ambi40.png","朋友","prac",""
"","","","","","html-keyboard-response","200","526988","0.0-8.1-0.1-1.61","null","<span style='color:GreenYellow; font-size: 70px;'>正确! </span>","null","","","","","","","","","","","","","","","","","","","","","","","feedback_test"
"","","","","","psychophysics","201","528674","0.0-8.1-0.1-0.62","683","","j","","","","","","","","","","","","","key","j","16.666940000000178","747","463","j","true","img/C_ambi40.png","自我","prac",""
"","","","","","html-keyboard-response","202","529183","0.0-8.1-0.1-1.62","null","<span style='color:GreenYellow; font-size: 70px;'>正确! </span>","null","","","","","","","","","","","","","","","","","","","","","","","feedback_test"
"","","","","","psychophysics","203","531075","0.0-8.1-0.1-0.63","890","","j","","","","","","","","","","","","","key","j","16.666669642857283","747","463","f","false","img/C_ambi40.png","朋友","prac",""
"","","","","","html-keyboard-response","204","531579","0.0-8.1-0.1-1.63","null","<span style='color:red; font-size: 70px;'>错误! </span>","null","","","","","","","","","","","","","","","","","","","","","","","feedback_test"
"","","","","","html-keyboard-response","205","537555","0.0-9.0","5973","<style>.context{color:white; font-size: 35px; line-height:40px}</style>                          <div><p class='context'>您正确回答了75% 的试次。</p ><p class='context'>您的平均反应时为683毫秒。</p ><p class='context'>恭喜您完成练习。按任意键进入正式实验。</p ><p class='footer' style='font-size: 35px; line-height:40px;'>请在进入正式实验实验之前将您的<span style='color: lightgreen;'>食指</span>放在电脑键盘的相应键位上进行按键。</p >","j","","","","","","","","","","","","","","","","","","","","","","",""
"","","","","","psychophysics","206","539994","0.0-10.0-0.0-0.0-0.0-0.0","1432","","j","","","","","","","","","","","","","key","j","16.666703448276003","747","463","j","true","img/S_ambi40.png","生人","same",""
"","","","","","html-keyboard-response","207","540497","0.0-10.0-0.0-0.0-0.0-1.0","null","<span style='color:GreenYellow; font-size: 70px;'>正确! </span>","null","","","","","","","","","","","","","","","","","","","","","","","feedback_test"
"","","","","","psychophysics","208","542309","0.0-10.0-0.0-0.0-0.0-0.1","809","","j","","","","","","","","","","","","","key","j","16.66725925925938","747","463","j","true","img/H_ambi40.png","朋友","same",""
"","","","","","html-keyboard-response","209","542821","0.0-10.0-0.0-0.0-0.0-1.1","null","<span style='color:GreenYellow; font-size: 70px;'>正确! </span>","null","","","","","","","","","","","","","","","","","","","","","","","feedback_test"
"","","","","","psychophysics","210","544798","0.0-10.0-0.0-0.0-0.0-0.2","975","","f","","","","","","","","","","","","","key","f","16.66657264957316","747","463","f","true","img/H_ambi40.png","自我","same",""
"","","","","","html-keyboard-response","211","545303","0.0-10.0-0.0-0.0-0.0-1.2","null","<span style='color:GreenYellow; font-size: 70px;'>正确! </span>","null","","","","","","","","","","","","","","","","","","","","","","","feedback_test"
"","","","","","psychophysics","212","547170","0.0-10.0-0.0-0.0-0.0-0.3","863","","j","","","","","","","","","","","","","key","j","16.666603603603754","747","463","f","false","img/C_ambi40.png","生人","same",""
"","","","","","html-keyboard-response","213","547685","0.0-10.0-0.0-0.0-0.0-1.3","null","<span style='color:red; font-size: 70px;'>错误! </span>","null","","","","","","","","","","","","","","","","","","","","","","","feedback_test"
"","","","","","psychophysics","214","550190","0.0-10.0-0.0-0.0-0.0-0.4","null","","null","","","","","","","","","","","","","key","null","16.666046979866028","747","463","f","false","img/S_ambi40.png","自我","same",""
"","","","","","html-keyboard-response","215","550695","0.0-10.0-0.0-0.0-0.0-1.4","null","<span class='add_' style='color:yellow; font-size: 70px;'> 太慢! </span>","null","","","","","","","","","","","","","","","","","","","","","","","feedback_test"
"","","","","","psychophysics","216","552507","0.0-10.0-0.0-0.0-0.0-0.5","807","","j","","","","","","","","","","","","","key","j","16.666620370370328","747","463","j","true","img/C_ambi40.png","自我","same",""
"","","","","","html-keyboard-response","217","553021","0.0-10.0-0.0-0.0-0.0-1.5","null","<span style='color:GreenYellow; font-size: 70px;'>正确! </span>","null","","","","","","","","","","","","","","","","","","","","","","","feedback_test"
"","","","","","psychophysics","218","554976","0.0-10.0-0.0-0.0-0.0-0.6","952","","f","","","","","","","","","","","","","key","f","16.66671551724169","747","463","f","true","img/C_ambi40.png","朋友","same",""
"","","","","","html-keyboard-response","219","555485","0.0-10.0-0.0-0.0-0.0-1.6","null","<span style='color:GreenYellow; font-size: 70px;'>正确! </span>","null","","","","","","","","","","","","","","","","","","","","","","","feedback_test"
"","","","","","psychophysics","220","557330","0.0-10.0-0.0-0.0-0.0-0.7","843","","f","","","","","","","","","","","","","key","f","16.666055045871346","747","463","j","false","img/H_ambi40.png","朋友","same",""
"","","","","","html-keyboard-response","221","557837","0.0-10.0-0.0-0.0-0.0-1.7","null","<span style='color:red; font-size: 70px;'>错误! </span>","null","","","","","","","","","","","","","","","","","","","","","","","feedback_test"
"","","","","","psychophysics","222","559737","0.0-10.0-0.0-0.0-0.0-0.8","898","","f","","","","","","","","","","","","","key","f","16.66685840707948","747","463","f","true","img/S_ambi40.png","朋友","same",""
"","","","","","html-keyboard-response","223","560251","0.0-10.0-0.0-0.0-0.0-1.8","null","<span style='color:GreenYellow; font-size: 70px;'>正确! </span>","null","","","","","","","","","","","","","","","","","","","","","","","feedback_test"
"","","","","","psychophysics","224","562188","0.0-10.0-0.0-0.0-0.0-0.9","936","","f","","","","","","","","","","","","","key","f","16.667530434783142","747","463","f","true","img/C_ambi40.png","生人","same",""
"","","","","","html-keyboard-response","225","562701","0.0-10.0-0.0-0.0-0.0-1.9","null","<span style='color:GreenYellow; font-size: 70px;'>正确! </span>","null","","","","","","","","","","","","","","","","","","","","","","","feedback_test"
"","","","","","psychophysics","226","564346","0.0-10.0-0.0-0.0-0.0-0.10","643","","j","","","","","","","","","","","","","key","j","16.666536082474025","747","463","j","true","img/T_ambi40.png","をる","same",""
"","","","","","html-keyboard-response","227","564847","0.0-10.0-0.0-0.0-0.0-1.10","null","<span style='color:GreenYellow; font-size: 70px;'>正确! </span>","null","","","","","","","","","","","","","","","","","","","","","","","feedback_test"
"","","","","","psychophysics","228","566689","0.0-10.0-0.0-0.0-0.0-0.11","839","","j","","","","","","","","","","","","","key","j","16.669854545454623","747","463","f","false","img/H_ambi40.png","生人","same",""
"","","","","","html-keyboard-response","229","567197","0.0-10.0-0.0-0.0-0.0-1.11","null","<span style='color:red; font-size: 70px;'>错误! </span>","null","","","","","","","","","","","","","","","","","","","","","","","feedback_test"
"","","","","","psychophysics","230","568953","0.0-10.0-0.0-0.0-0.0-0.12","755","","j","","","","","","","","","","","","","key","j","16.666904761904984","747","463","j","true","img/T_ambi40.png","をる","same",""
"","","","","","html-keyboard-response","231","569461","0.0-10.0-0.0-0.0-0.0-1.12","null","<span style='color:GreenYellow; font-size: 70px;'>正确! </span>","null","","","","","","","","","","","","","","","","","","","","","","","feedback_test"
"","","","","","psychophysics","232","571250","0.0-10.0-0.0-0.0-0.0-0.13","783","","j","","","","","","","","","","","","","key","j","16.666566037735464","747","463","f","false","img/S_ambi40.png","朋友","same",""
"","","","","","html-keyboard-response","233","571763","0.0-10.0-0.0-0.0-0.0-1.13","null","<span style='color:red; font-size: 70px;'>错误! </span>","null","","","","","","","","","","","","","","","","","","","","","","","feedback_test"
"","","","","","psychophysics","234","573524","0.0-10.0-0.0-0.0-0.0-0.14","759","","j","","","","","","","","","","","","","key","j","16.667019047618044","747","463","j","true","img/S_ambi40.png","生人","same",""
"","","","","","html-keyboard-response","235","574032","0.0-10.0-0.0-0.0-0.0-1.14","null","<span style='color:GreenYellow; font-size: 70px;'>正确! </span>","null","","","","","","","","","","","","","","","","","","","","","","","feedback_test"
"","","","","","psychophysics","236","575831","0.0-10.0-0.0-0.0-0.0-0.15","798","","j","","","","","","","","","","","","","key","j","16.666738317757147","747","463","j","true","img/C_ambi40.png","自我","same",""
"","","","","","html-keyboard-response","237","576343","0.0-10.0-0.0-0.0-0.0-1.15","null","<span style='color:GreenYellow; font-size: 70px;'>正确! </span>","null","","","","","","","","","","","","","","","","","","","","","","","feedback_test"
"","","","","","psychophysics","238","578464","0.0-10.0-0.0-0.0-0.0-0.16","1119","","f","","","","","","","","","","","","","key","f","16.666579365078913","747","463","f","true","img/H_ambi40.png","自我","same",""
"","","","","","html-keyboard-response","239","578968","0.0-10.0-0.0-0.0-0.0-1.16","null","<span style='color:GreenYellow; font-size: 70px;'>正确! </span>","null","","","","","","","","","","","","","","","","","","","","","","","feedback_test"
"","","","","","psychophysics","240","580581","0.0-10.0-0.0-0.0-0.0-0.17","611","","j","","","","","","","","","","","","","key","j","16.667094736841605","747","463","j","true","img/T_ambi40.png","をる","same",""
"","","","","","html-keyboard-response","241","581092","0.0-10.0-0.0-0.0-0.0-1.17","null","<span style='color:GreenYellow; font-size: 70px;'>正确! </span>","null","","","","","","","","","","","","","","","","","","","","","","","feedback_test"
"","","","","","psychophysics","242","583062","0.0-10.0-0.0-0.0-0.0-0.18","967","","j","","","","","","","","","","","","","key","j","16.66649572649557","747","463","j","true","img/H_ambi40.png","朋友","same",""
"","","","","","html-keyboard-response","243","583568","0.0-10.0-0.0-0.0-0.0-1.18","null","<span style='color:GreenYellow; font-size: 70px;'>正确! </span>","null","","","","","","","","","","","","","","","","","","","","","","","feedback_test"
"","","","","","psychophysics","244","585527","0.0-10.0-0.0-0.0-0.0-0.19","956","","f","","","","","","","","","","","","","key","f","16.663646551724202","747","463","f","true","img/C_ambi40.png","朋友","same",""
"","","","","","html-keyboard-response","245","586035","0.0-10.0-0.0-0.0-0.0-1.19","null","<span style='color:GreenYellow; font-size: 70px;'>正确! </span>","null","","","","","","","","","","","","","","","","","","","","","","","feedback_test"
"","","","","","psychophysics","246","587639","0.0-10.0-0.0-0.0-0.0-0.20","603","","j","","","","","","","","","","","","","key","j","16.66673684210492","747","463","j","true","img/T_ambi40.png","をる","same",""
"","","","","","html-keyboard-response","247","588142","0.0-10.0-0.0-0.0-0.0-1.20","null","<span style='color:GreenYellow; font-size: 70px;'>正确! </span>","null","","","","","","","","","","","","","","","","","","","","","","","feedback_test"
"","","","","","psychophysics","248","589876","0.0-10.0-0.0-0.0-0.0-0.21","732","","j","","","","","","","","","","","","","key","j","16.666446601941466","747","463","j","true","img/S_ambi40.png","生人","same",""
"","","","","","html-keyboard-response","249","590393","0.0-10.0-0.0-0.0-0.0-1.21","null","<span style='color:GreenYellow; font-size: 70px;'>正确! </span>","null","","","","","","","","","","","","","","","","","","","","","","","feedback_test"
"","","","","","psychophysics","250","592125","0.0-10.0-0.0-0.0-0.0-0.22","730","","f","","","","","","","","","","","","","key","f","16.666796116504223","747","463","f","true","img/S_ambi40.png","自我","same",""
"","","","","","html-keyboard-response","251","592630","0.0-10.0-0.0-0.0-0.0-1.22","null","<span style='color:GreenYellow; font-size: 70px;'>正确! </span>","null","","","","","","","","","","","","","","","","","","","","","","","feedback_test"
"","","","","","psychophysics","252","594347","0.0-10.0-0.0-0.0-0.0-0.23","713","","j","","","","","","","","","","","","","key","j","16.666647058823738","747","463","f","false","img/H_ambi40.png","生人","same",""
"","","","","","html-keyboard-response","253","594858","0.0-10.0-0.0-0.0-0.0-1.23","null","<span style='color:red; font-size: 70px;'>错误! </span>","null","","","","","","","","","","","","","","","","","","","","","","","feedback_test"
"","","","","","psychophysics","254","596942","0.0-10.0-0.0-0.0-0.0-0.24","1082","","f","","","","","","","","","","","","","key","f","16.666483870967507","747","463","f","true","img/H_ambi40.png","自我","same",""
"","","","","","html-keyboard-response","255","597444","0.0-10.0-0.0-0.0-0.0-1.24","null","<span style='color:GreenYellow; font-size: 70px;'>正确! </span>","null","","","","","","","","","","","","","","","","","","","","","","","feedback_test"
"","","","","","psychophysics","256","599222","0.0-10.0-0.0-0.0-0.0-0.25","777","","f","","","","","","","","","","","","","key","f","16.66774528301848","747","463","f","true","img/C_ambi40.png","生人","same",""
"","","","","","html-keyboard-response","257","599728","0.0-10.0-0.0-0.0-0.0-1.25","null","<span style='color:GreenYellow; font-size: 70px;'>正确! </span>","null","","","","","","","","","","","","","","","","","","","","","","","feedback_test"
"","","","","","psychophysics","258","601696","0.0-10.0-0.0-0.0-0.0-0.26","966","","f","","","","","","","","","","","","","key","f","16.667589743589808","747","463","f","true","img/C_ambi40.png","生人","same",""
"","","","","","html-keyboard-response","259","602203","0.0-10.0-0.0-0.0-0.0-1.26","null","<span style='color:GreenYellow; font-size: 70px;'>正确! </span>","null","","","","","","","","","","","","","","","","","","","","","","","feedback_test"
"","","","","","psychophysics","260","603998","0.0-10.0-0.0-0.0-0.0-0.27","793","","j","","","","","","","","","","","","","key","j","16.666518867924097","747","463","j","true","img/C_ambi40.png","自我","same",""
"","","","","","html-keyboard-response","261","604508","0.0-10.0-0.0-0.0-0.0-1.27","null","<span style='color:GreenYellow; font-size: 70px;'>正确! </span>","null","","","","","","","","","","","","","","","","","","","","","","","feedback_test"
"","","","","","psychophysics","262","606485","0.0-10.0-0.0-0.0-0.0-0.28","976","","f","","","","","","","","","","","","","key","f","16.666949152541978","747","463","f","true","img/S_ambi40.png","朋友","same",""
"","","","","","html-keyboard-response","263","606987","0.0-10.0-0.0-0.0-0.0-1.28","null","<span style='color:GreenYellow; font-size: 70px;'>正确! </span>","null","","","","","","","","","","","","","","","","","","","","","","","feedback_test"
"","","","","","psychophysics","264","609170","0.0-10.0-0.0-0.0-0.0-0.29","1181","","f","","","","","","","","","","","","","key","f","16.6674769230769","747","463","f","true","img/H_ambi40.png","自我","same",""
"","","","","","html-keyboard-response","265","609675","0.0-10.0-0.0-0.0-0.0-1.29","null","<span style='color:GreenYellow; font-size: 70px;'>正确! </span>","null","","","","","","","","","","","","","","","","","","","","","","","feedback_test"
"","","","","","psychophysics","266","611908","0.0-10.0-0.0-0.0-0.0-0.30","1231","","j","","","","","","","","","","","","","key","j","16.667293233082706","747","463","j","true","img/S_ambi40.png","生人","same",""
"","","","","","html-keyboard-response","267","612414","0.0-10.0-0.0-0.0-0.0-1.30","null","<span style='color:GreenYellow; font-size: 70px;'>正确! </span>","null","","","","","","","","","","","","","","","","","","","","","","","feedback_test"
"","","","","","psychophysics","268","614087","0.0-10.0-0.0-0.0-0.0-0.31","670","","j","","","","","","","","","","","","","key","j","16.66652000000002","747","463","j","true","img/T_ambi40.png","をる","same",""
"","","","","","html-keyboard-response","269","614590","0.0-10.0-0.0-0.0-0.0-1.31","null","<span style='color:GreenYellow; font-size: 70px;'>正确! </span>","null","","","","","","","","","","","","","","","","","","","","","","","feedback_test"
"","","","","","psychophysics","270","616519","0.0-10.0-0.0-0.0-0.0-0.32","926","","j","","","","","","","","","","","","","key","j","16.666530434782214","747","463","j","true","img/T_ambi40.png","をる","same",""
"","","","","","html-keyboard-response","271","617023","0.0-10.0-0.0-0.0-0.0-1.32","null","<span style='color:GreenYellow; font-size: 70px;'>正确! </span>","null","","","","","","","","","","","","","","","","","","","","","","","feedback_test"
"","","","","","psychophysics","272","618819","0.0-10.0-0.0-0.0-0.0-0.33","795","","j","","","","","","","","","","","","","key","j","16.666448598130277","747","463","j","true","img/C_ambi40.png","自我","same",""
"","","","","","html-keyboard-response","273","619335","0.0-10.0-0.0-0.0-0.0-1.33","null","<span style='color:GreenYellow; font-size: 70px;'>正确! </span>","null","","","","","","","","","","","","","","","","","","","","","","","feedback_test"
"","","","","","psychophysics","274","621147","0.0-10.0-0.0-0.0-0.0-0.34","811","","j","","","","","","","","","","","","","key","j","16.666551401869125","747","463","j","true","img/H_ambi40.png","朋友","same",""
"","","","","","html-keyboard-response","275","621659","0.0-10.0-0.0-0.0-0.0-1.34","null","<span style='color:GreenYellow; font-size: 70px;'>正确! </span>","null","","","","","","","","","","","","","","","","","","","","","","","feedback_test"
"","","","","","psychophysics","276","623351","0.0-10.0-0.0-0.0-0.0-0.35","689","","f","","","","","","","","","","","","","key","f","16.66731000000029","747","463","f","true","img/S_ambi40.png","朋友","same",""
"","","","","","html-keyboard-response","277","623860","0.0-10.0-0.0-0.0-0.0-1.35","null","<span style='color:GreenYellow; font-size: 70px;'>正确! </span>","null","","","","","","","","","","","","","","","","","","","","","","","feedback_test"
"","","","","","psychophysics","278","625600","0.0-10.0-0.0-0.0-0.0-0.36","736","","j","","","","","","","","","","","","","key","j","16.666776699029832","747","463","f","false","img/H_ambi40.png","生人","same",""
"","","","","","html-keyboard-response","279","626115","0.0-10.0-0.0-0.0-0.0-1.36","null","<span style='color:red; font-size: 70px;'>错误! </span>","null","","","","","","","","","","","","","","","","","","","","","","","feedback_test"
"","","","","","psychophysics","280","628097","0.0-10.0-0.0-0.0-0.0-0.37","980","","f","","","","","","","","","","","","","key","f","16.667279661017453","747","463","f","true","img/C_ambi40.png","朋友","same",""
"","","","","","html-keyboard-response","281","628608","0.0-10.0-0.0-0.0-0.0-1.37","null","<span style='color:GreenYellow; font-size: 70px;'>正确! </span>","null","","","","","","","","","","","","","","","","","","","","","","","feedback_test"
"","","","","","psychophysics","282","630441","0.0-10.0-0.0-0.0-0.0-0.38","831","","j","","","","","","","","","","","","","key","j","16.66731192660518","747","463","j","true","img/S_ambi40.png","生人","same",""
"","","","","","html-keyboard-response","283","630950","0.0-10.0-0.0-0.0-0.0-1.38","null","<span style='color:GreenYellow; font-size: 70px;'>正确! </span>","null","","","","","","","","","","","","","","","","","","","","","","","feedback_test"
"","","","","","psychophysics","284","633116","0.0-10.0-0.0-0.0-0.0-0.39","1164","","j","","","","","","","","","","","","","key","j","16.561109374999432","747","463","j","true","img/H_ambi40.png","朋友","same",""
"","","","","","html-keyboard-response","285","633633","0.0-10.0-0.0-0.0-0.0-1.39","null","<span style='color:GreenYellow; font-size: 70px;'>正确! </span>","null","","","","","","","","","","","","","","","","","","","","","","","feedback_test"
"","","","","","psychophysics","286","635360","0.0-10.0-0.0-0.0-0.0-0.40","726","","f","","","","","","","","","","","","","key","f","16.528000000000283","747","463","f","true","img/S_ambi40.png","朋友","same",""
"","","","","","html-keyboard-response","287","635873","0.0-10.0-0.0-0.0-0.0-1.40","null","<span style='color:GreenYellow; font-size: 70px;'>正确! </span>","null","","","","","","","","","","","","","","","","","","","","","","","feedback_test"
"","","","","","psychophysics","288","637916","0.0-10.0-0.0-0.0-0.0-0.41","1042","","f","","","","","","","","","","","","","key","f","16.666421487603206","747","463","f","true","img/C_ambi40.png","生人","same",""
"","","","","","html-keyboard-response","289","638418","0.0-10.0-0.0-0.0-0.0-1.41","null","<span style='color:GreenYellow; font-size: 70px;'>正确! </span>","null","","","","","","","","","","","","","","","","","","","","","","","feedback_test"
"","","","","","psychophysics","290","640245","0.0-10.0-0.0-0.0-0.0-0.42","825","","f","","","","","","","","","","","","","key","f","16.666601851852008","747","463","f","true","img/S_ambi40.png","朋友","same",""
"","","","","","html-keyboard-response","291","640749","0.0-10.0-0.0-0.0-0.0-1.42","null","<span style='color:GreenYellow; font-size: 70px;'>正确! </span>","null","","","","","","","","","","","","","","","","","","","","","","","feedback_test"
"","","","","","psychophysics","292","642513","0.0-10.0-0.0-0.0-0.0-0.43","762","","j","","","","","","","","","","","","","key","j","16.667371428570533","747","463","j","true","img/S_ambi40.png","生人","same",""
"","","","","","html-keyboard-response","293","643015","0.0-10.0-0.0-0.0-0.0-1.43","null","<span style='color:GreenYellow; font-size: 70px;'>正确! </span>","null","","","","","","","","","","","","","","","","","","","","","","","feedback_test"
"","","","","","psychophysics","294","644830","0.0-10.0-0.0-0.0-0.0-0.44","812","","f","","","","","","","","","","","","","key","f","16.666777777777664","747","463","j","false","img/H_ambi40.png","朋友","same",""
"","","","","","html-keyboard-response","295","645342","0.0-10.0-0.0-0.0-0.0-1.44","null","<span style='color:red; font-size: 70px;'>错误! </span>","null","","","","","","","","","","","","","","","","","","","","","","","feedback_test"
"","","","","","psychophysics","296","647141","0.0-10.0-0.0-0.0-0.0-0.45","797","","f","","","","","","","","","","","","","key","f","16.666766355139483","747","463","f","true","img/H_ambi40.png","自我","same",""
"","","","","","html-keyboard-response","297","647646","0.0-10.0-0.0-0.0-0.0-1.45","null","<span style='color:GreenYellow; font-size: 70px;'>正确! </span>","null","","","","","","","","","","","","","","","","","","","","","","","feedback_test"
"","","","","","psychophysics","298","649293","0.0-10.0-0.0-0.0-0.0-0.46","645","","j","","","","","","","","","","","","","key","j","16.666989795918273","747","463","j","true","img/T_ambi40.png","をる","same",""
"","","","","","html-keyboard-response","299","649795","0.0-10.0-0.0-0.0-0.0-1.46","null","<span style='color:GreenYellow; font-size: 70px;'>正确! </span>","null","","","","","","","","","","","","","","","","","","","","","","","feedback_test"
"","","","","","psychophysics","300","651557","0.0-10.0-0.0-0.0-0.0-0.47","756","","j","","","","","","","","","","","","","key","j","16.66742857142817","747","463","j","true","img/C_ambi40.png","自我","same",""
"","","","","","html-keyboard-response","301","652064","0.0-10.0-0.0-0.0-0.0-1.47","null","<span style='color:GreenYellow; font-size: 70px;'>正确! </span>","null","","","","","","","","","","","","","","","","","","","","","","","feedback_test"
"","","","","","psychophysics","302","653881","0.0-10.0-0.0-0.0-0.0-0.48","813","","j","","","","","","","","","","","","","key","j","16.66657407407399","747","463","j","true","img/C_ambi40.png","自我","same",""
"","","","","","html-keyboard-response","303","654384","0.0-10.0-0.0-0.0-0.0-1.48","null","<span style='color:GreenYellow; font-size: 70px;'>正确! </span>","null","","","","","","","","","","","","","","","","","","","","","","","feedback_test"
"","","","","","psychophysics","304","656138","0.0-10.0-0.0-0.0-0.0-0.49","752","","j","","","","","","","","","","","","","key","j","16.66936538461484","747","463","j","true","img/T_ambi40.png","をる","same",""
"","","","","","html-keyboard-response","305","656652","0.0-10.0-0.0-0.0-0.0-1.49","null","<span style='color:GreenYellow; font-size: 70px;'>正确! </span>","null","","","","","","","","","","","","","","","","","","","","","","","feedback_test"
"","","","","","psychophysics","306","658591","0.0-10.0-0.0-0.0-0.0-0.50","937","","f","","","","","","","","","","","","","key","f","16.668173913043194","747","463","f","true","img/H_ambi40.png","自我","same",""
"","","","","","html-keyboard-response","307","659094","0.0-10.0-0.0-0.0-0.0-1.50","null","<span style='color:GreenYellow; font-size: 70px;'>正确! </span>","null","","","","","","","","","","","","","","","","","","","","","","","feedback_test"
"","","","","","psychophysics","308","661024","0.0-10.0-0.0-0.0-0.0-0.51","927","","f","","","","","","","","","","","","","key","f","16.666660869565955","747","463","f","true","img/S_ambi40.png","自我","same",""
"","","","","","html-keyboard-response","309","661534","0.0-10.0-0.0-0.0-0.0-1.51","null","<span style='color:GreenYellow; font-size: 70px;'>正确! </span>","null","","","","","","","","","","","","","","","","","","","","","","","feedback_test"
"","","","","","psychophysics","310","663346","0.0-10.0-0.0-0.0-0.0-0.52","810","","j","","","","","","","","","","","","","key","j","16.66653271028054","747","463","j","true","img/T_ambi40.png","をる","same",""
"","","","","","html-keyboard-response","311","663848","0.0-10.0-0.0-0.0-0.0-1.52","null","<span style='color:GreenYellow; font-size: 70px;'>正确! </span>","null","","","","","","","","","","","","","","","","","","","","","","","feedback_test"
"","","","","","psychophysics","312","665982","0.0-10.0-0.0-0.0-0.0-0.53","1131","","f","","","","","","","","","","","","","key","f","16.666692913386157","747","463","f","true","img/C_ambi40.png","生人","same",""
"","","","","","html-keyboard-response","313","666484","0.0-10.0-0.0-0.0-0.0-1.53","null","<span style='color:GreenYellow; font-size: 70px;'>正确! </span>","null","","","","","","","","","","","","","","","","","","","","","","","feedback_test"
"","","","","","psychophysics","314","668931","0.0-10.0-0.0-0.0-0.0-0.54","1443","","f","","","","","","","","","","","","","key","f","16.665668965517224","747","463","f","true","img/H_ambi40.png","生人","same",""
"","","","","","html-keyboard-response","315","669442","0.0-10.0-0.0-0.0-0.0-1.54","null","<span style='color:GreenYellow; font-size: 70px;'>正确! </span>","null","","","","","","","","","","","","","","","","","","","","","","","feedback_test"
"","","","","","psychophysics","316","671185","0.0-10.0-0.0-0.0-0.0-0.55","740","","j","","","","","","","","","","","","","key","j","16.666528846154016","747","463","j","true","img/H_ambi40.png","朋友","same",""
"","","","","","html-keyboard-response","317","671687","0.0-10.0-0.0-0.0-0.0-1.55","null","<span style='color:GreenYellow; font-size: 70px;'>正确! </span>","null","","","","","","","","","","","","","","","","","","","","","","","feedback_test"
"","","","","","psychophysics","318","673719","0.0-10.0-0.0-0.0-0.0-0.56","1030","","j","","","","","","","","","","","","","key","j","16.666586776859557","747","463","j","true","img/S_ambi40.png","生人","same",""
"","","","","","html-keyboard-response","319","674234","0.0-10.0-0.0-0.0-0.0-1.56","null","<span style='color:GreenYellow; font-size: 70px;'>正确! </span>","null","","","","","","","","","","","","","","","","","","","","","","","feedback_test"
"","","","","","psychophysics","320","676100","0.0-10.0-0.0-0.0-0.0-0.57","865","","f","","","","","","","","","","","","","key","f","16.666072727273093","747","463","f","true","img/C_ambi40.png","朋友","same",""
"","","","","","html-keyboard-response","321","676601","0.0-10.0-0.0-0.0-0.0-1.57","null","<span style='color:GreenYellow; font-size: 70px;'>正确! </span>","null","","","","","","","","","","","","","","","","","","","","","","","feedback_test"
"","","","","","psychophysics","322","678328","0.0-10.0-0.0-0.0-0.0-0.58","725","","j","","","","","","","","","","","","","key","j","16.667156862745554","747","463","j","true","img/T_ambi40.png","をる","same",""
"","","","","","html-keyboard-response","323","678835","0.0-10.0-0.0-0.0-0.0-1.58","null","<span style='color:GreenYellow; font-size: 70px;'>正确! </span>","null","","","","","","","","","","","","","","","","","","","","","","","feedback_test"
"","","","","","psychophysics","324","681246","0.0-10.0-0.0-0.0-0.0-0.59","1409","","f","","","","","","","","","","","","","key","f","16.666356643356572","747","463","j","false","img/C_ambi40.png","自我","same",""
"","","","","","html-keyboard-response","325","681750","0.0-10.0-0.0-0.0-0.0-1.59","null","<span style='color:red; font-size: 70px;'>错误! </span>","null","","","","","","","","","","","","","","","","","","","","","","","feedback_test"
"","","","","","psychophysics","326","683373","0.0-10.0-0.0-0.0-0.0-0.60","622","","j","","","","","","","","","","","","","key","j","16.666864583333034","747","463","j","true","img/T_ambi40.png","をる","same",""
"","","","","","html-keyboard-response","327","683884","0.0-10.0-0.0-0.0-0.0-1.60","null","<span style='color:GreenYellow; font-size: 70px;'>正确! </span>","null","","","","","","","","","","","","","","","","","","","","","","","feedback_test"
"","","","","","psychophysics","328","685983","0.0-10.0-0.0-0.0-0.0-0.61","1096","","f","","","","","","","","","","","","","key","f","16.66654838709679","747","463","f","true","img/S_ambi40.png","朋友","same",""
"","","","","","html-keyboard-response","329","686498","0.0-10.0-0.0-0.0-0.0-1.61","null","<span style='color:GreenYellow; font-size: 70px;'>正确! </span>","null","","","","","","","","","","","","","","","","","","","","","","","feedback_test"
"","","","","","psychophysics","330","688348","0.0-10.0-0.0-0.0-0.0-0.62","848","","j","","","","","","","","","","","","","key","j","16.666645454545506","747","463","f","false","img/C_ambi40.png","生人","same",""
"","","","","","html-keyboard-response","331","688850","0.0-10.0-0.0-0.0-0.0-1.62","null","<span style='color:red; font-size: 70px;'>错误! </span>","null","","","","","","","","","","","","","","","","","","","","","","","feedback_test"
"","","","","","psychophysics","332","690784","0.0-10.0-0.0-0.0-0.0-0.63","933","","f","","","","","","","","","","","","","key","f","16.666469565218154","747","463","f","true","img/H_ambi40.png","自我","same",""
"","","","","","html-keyboard-response","333","691296","0.0-10.0-0.0-0.0-0.0-1.63","null","<span style='color:GreenYellow; font-size: 70px;'>正确! </span>","null","","","","","","","","","","","","","","","","","","","","","","","feedback_test"
"","","","","","psychophysics","334","692967","0.0-10.0-0.0-0.0-0.0-0.64","668","","j","","","","","","","","","","","","","key","j","16.66688888888886","747","463","j","true","img/T_ambi40.png","をる","same",""
"","","","","","html-keyboard-response","335","693474","0.0-10.0-0.0-0.0-0.0-1.64","null","<span style='color:GreenYellow; font-size: 70px;'>正确! </span>","null","","","","","","","","","","","","","","","","","","","","","","","feedback_test"
"","","","","","psychophysics","336","695663","0.0-10.0-0.0-0.0-0.0-0.65","1188","","j","","","","","","","","","","","","","key","j","16.665623076922763","747","463","j","true","img/H_ambi40.png","朋友","same",""
"","","","","","html-keyboard-response","337","696173","0.0-10.0-0.0-0.0-0.0-1.65","null","<span style='color:GreenYellow; font-size: 70px;'>正确! </span>","null","","","","","","","","","","","","","","","","","","","","","","","feedback_test"
"","","","","","psychophysics","338","697990","0.0-10.0-0.0-0.0-0.0-0.66","816","","f","","","","","","","","","","","","","key","f","16.666175925926332","747","463","f","true","img/H_ambi40.png","自我","same",""
"","","","","","html-keyboard-response","339","698501","0.0-10.0-0.0-0.0-0.0-1.66","null","<span style='color:GreenYellow; font-size: 70px;'>正确! </span>","null","","","","","","","","","","","","","","","","","","","","","","","feedback_test"
"","","","","","psychophysics","340","700608","0.0-10.0-0.0-0.0-0.0-0.67","1106","","f","","","","","","","","","","","","","key","f","16.666512000000104","747","463","f","true","img/S_ambi40.png","自我","same",""
"","","","","","html-keyboard-response","341","701110","0.0-10.0-0.0-0.0-0.0-1.67","null","<span style='color:GreenYellow; font-size: 70px;'>正确! </span>","null","","","","","","","","","","","","","","","","","","","","","","","feedback_test"
"","","","","","psychophysics","342","702878","0.0-10.0-0.0-0.0-0.0-0.68","766","","f","","","","","","","","","","","","","key","f","16.66689523809501","747","463","f","true","img/S_ambi40.png","朋友","same",""
"","","","","","html-keyboard-response","343","703385","0.0-10.0-0.0-0.0-0.0-1.68","null","<span style='color:GreenYellow; font-size: 70px;'>正确! </span>","null","","","","","","","","","","","","","","","","","","","","","","","feedback_test"
"","","","","","psychophysics","344","705532","0.0-10.0-0.0-0.0-0.0-0.69","1145","","j","","","","","","","","","","","","","key","j","16.66597637795297","747","463","j","true","img/S_ambi40.png","生人","same",""
"","","","","","html-keyboard-response","345","706043","0.0-10.0-0.0-0.0-0.0-1.69","null","<span style='color:GreenYellow; font-size: 70px;'>正确! </span>","null","","","","","","","","","","","","","","","","","","","","","","","feedback_test"
"","","","","","psychophysics","346","707878","0.0-10.0-0.0-0.0-0.0-0.70","833","","j","","","","","","","","","","","","","key","j","16.666577981651436","747","463","j","true","img/C_ambi40.png","自我","same",""
"","","","","","html-keyboard-response","347","708390","0.0-10.0-0.0-0.0-0.0-1.70","null","<span style='color:GreenYellow; font-size: 70px;'>正确! </span>","null","","","","","","","","","","","","","","","","","","","","","","","feedback_test"
"","","","","","psychophysics","348","710273","0.0-10.0-0.0-0.0-0.0-0.71","880","","f","","","","","","","","","","","","","key","f","16.666669642857283","747","463","f","true","img/C_ambi40.png","生人","same",""
"","","","","","html-keyboard-response","349","710784","0.0-10.0-0.0-0.0-0.0-1.71","null","<span style='color:GreenYellow; font-size: 70px;'>正确! </span>","null","","","","","","","","","","","","","","","","","","","","","","","feedback_test"
"","","","","","psychophysics","350","712514","0.0-10.0-0.0-0.0-0.0-0.72","728","","j","","","","","","","","","","","","","key","j","16.667000000000996","747","463","j","true","img/T_ambi40.png","をる","same",""
"","","","","","html-keyboard-response","351","713022","0.0-10.0-0.0-0.0-0.0-1.72","null","<span style='color:GreenYellow; font-size: 70px;'>正确! </span>","null","","","","","","","","","","","","","","","","","","","","","","","feedback_test"
"","","","","","psychophysics","352","714866","0.0-10.0-0.0-0.0-0.0-0.73","842","","j","","","","","","","","","","","","","key","j","16.666577981651436","747","463","j","true","img/T_ambi40.png","をる","same",""
"","","","","","html-keyboard-response","353","715375","0.0-10.0-0.0-0.0-0.0-1.73","null","<span style='color:GreenYellow; font-size: 70px;'>正确! </span>","null","","","","","","","","","","","","","","","","","","","","","","","feedback_test"
"","","","","","psychophysics","354","717513","0.0-10.0-0.0-0.0-0.0-0.74","1136","","f","","","","","","","","","","","","","key","f","16.666755905511465","747","463","f","true","img/S_ambi40.png","朋友","same",""
"","","","","","html-keyboard-response","355","718026","0.0-10.0-0.0-0.0-0.0-1.74","null","<span style='color:GreenYellow; font-size: 70px;'>正确! </span>","null","","","","","","","","","","","","","","","","","","","","","","","feedback_test"
"","","","","","psychophysics","356","719784","0.0-10.0-0.0-0.0-0.0-0.75","757","","j","","","","","","","","","","","","","key","j","16.6664519230768","747","463","j","true","img/C_ambi40.png","自我","same",""
"","","","","","html-keyboard-response","357","720299","0.0-10.0-0.0-0.0-0.0-1.75","null","<span style='color:GreenYellow; font-size: 70px;'>正确! </span>","null","","","","","","","","","","","","","","","","","","","","","","","feedback_test"
"","","","","","psychophysics","358","722184","0.0-10.0-0.0-0.0-0.0-0.76","884","","f","","","","","","","","","","","","","key","f","16.556910714286328","747","463","f","true","img/C_ambi40.png","生人","same",""
"","","","","","html-keyboard-response","359","722696","0.0-10.0-0.0-0.0-0.0-1.76","null","<span style='color:GreenYellow; font-size: 70px;'>正确! </span>","null","","","","","","","","","","","","","","","","","","","","","","","feedback_test"
"","","","","","psychophysics","360","724480","0.0-10.0-0.0-0.0-0.0-0.77","780","","j","","","","","","","","","","","","","key","j","16.6668113207539","747","463","j","true","img/C_ambi40.png","自我","same",""
"","","","","","html-keyboard-response","361","724992","0.0-10.0-0.0-0.0-0.0-1.77","null","<span style='color:GreenYellow; font-size: 70px;'>正确! </span>","null","","","","","","","","","","","","","","","","","","","","","","","feedback_test"
"","","","","","psychophysics","362","726688","0.0-10.0-0.0-0.0-0.0-0.78","695","","f","","","","","","","","","","","","","key","f","16.666673267327045","747","463","f","true","img/C_ambi40.png","生人","same",""
"","","","","","html-keyboard-response","363","727198","0.0-10.0-0.0-0.0-0.0-1.78","null","<span style='color:GreenYellow; font-size: 70px;'>正确! </span>","null","","","","","","","","","","","","","","","","","","","","","","","feedback_test"
"","","","","","psychophysics","364","728907","0.0-10.0-0.0-0.0-0.0-0.79","707","","j","","","","","","","","","","","","","key","j","16.66696078431286","747","463","j","true","img/H_ambi40.png","朋友","same",""
"","","","","","html-keyboard-response","365","729419","0.0-10.0-0.0-0.0-0.0-1.79","null","<span style='color:GreenYellow; font-size: 70px;'>正确! </span>","null","","","","","","","","","","","","","","","","","","","","","","","feedback_test"
"","","","","","psychophysics","366","731117","0.0-10.0-0.0-0.0-0.0-0.80","695","","f","","","","","","","","","","","","","key","f","16.667129999999887","747","463","j","false","img/S_ambi40.png","生人","same",""
"","","","","","html-keyboard-response","367","731626","0.0-10.0-0.0-0.0-0.0-1.80","null","<span style='color:red; font-size: 70px;'>错误! </span>","null","","","","","","","","","","","","","","","","","","","","","","","feedback_test"
"","","","","","psychophysics","368","733425","0.0-10.0-0.0-0.0-0.0-0.81","797","","f","","","","","","","","","","","","","key","f","16.666542056074288","747","463","f","true","img/C_ambi40.png","朋友","same",""
"","","","","","html-keyboard-response","369","733940","0.0-10.0-0.0-0.0-0.0-1.81","null","<span style='color:GreenYellow; font-size: 70px;'>正确! </span>","null","","","","","","","","","","","","","","","","","","","","","","","feedback_test"
"","","","","","psychophysics","370","735983","0.0-10.0-0.0-0.0-0.0-0.82","1041","","f","","","","","","","","","","","","","key","f","16.666115702479146","747","463","f","true","img/H_ambi40.png","生人","same",""
"","","","","","html-keyboard-response","371","736488","0.0-10.0-0.0-0.0-0.0-1.82","null","<span style='color:GreenYellow; font-size: 70px;'>正确! </span>","null","","","","","","","","","","","","","","","","","","","","","","","feedback_test"
"","","","","","psychophysics","372","738447","0.0-10.0-0.0-0.0-0.0-0.83","956","","f","","","","","","","","","","","","","key","f","16.666577586207683","747","463","f","true","img/H_ambi40.png","自我","same",""
"","","","","","html-keyboard-response","373","738963","0.0-10.0-0.0-0.0-0.0-1.83","null","<span style='color:GreenYellow; font-size: 70px;'>正确! </span>","null","","","","","","","","","","","","","","","","","","","","","","","feedback_test"
"","","","","","psychophysics","374","740645","0.0-10.0-0.0-0.0-0.0-0.84","680","","j","","","","","","","","","","","","","key","j","16.667129999999887","747","463","j","true","img/H_ambi40.png","朋友","same",""
"","","","","","html-keyboard-response","375","741159","0.0-10.0-0.0-0.0-0.0-1.84","null","<span style='color:GreenYellow; font-size: 70px;'>正确! </span>","null","","","","","","","","","","","","","","","","","","","","","","","feedback_test"
"","","","","","psychophysics","376","743115","0.0-10.0-0.0-0.0-0.0-0.85","954","","j","","","","","","","","","","","","","key","j","16.666681034482437","747","463","j","true","img/T_ambi40.png","をる","same",""
"","","","","","html-keyboard-response","377","743629","0.0-10.0-0.0-0.0-0.0-1.85","null","<span style='color:GreenYellow; font-size: 70px;'>正确! </span>","null","","","","","","","","","","","","","","","","","","","","","","","feedback_test"
"","","","","","psychophysics","378","745718","0.0-10.0-0.0-0.0-0.0-0.86","1086","","f","","","","","","","","","","","","","key","f","16.666564516128876","747","463","f","true","img/H_ambi40.png","自我","same",""
"","","","","","html-keyboard-response","379","746222","0.0-10.0-0.0-0.0-0.0-1.86","null","<span style='color:GreenYellow; font-size: 70px;'>正确! </span>","null","","","","","","","","","","","","","","","","","","","","","","","feedback_test"
"","","","","","psychophysics","380","748027","0.0-10.0-0.0-0.0-0.0-0.87","804","","j","","","","","","","","","","","","","key","j","16.666644859813136","747","463","j","true","img/S_ambi40.png","生人","same",""
"","","","","","html-keyboard-response","381","748540","0.0-10.0-0.0-0.0-0.0-1.87","null","<span style='color:GreenYellow; font-size: 70px;'>正确! </span>","null","","","","","","","","","","","","","","","","","","","","","","","feedback_test"
"","","","","","psychophysics","382","750306","0.0-10.0-0.0-0.0-0.0-0.88","763","","f","","","","","","","","","","","","","key","f","16.666095238095814","747","463","f","true","img/S_ambi40.png","自我","same",""
"","","","","","html-keyboard-response","383","750820","0.0-10.0-0.0-0.0-0.0-1.88","null","<span style='color:GreenYellow; font-size: 70px;'>正确! </span>","null","","","","","","","","","","","","","","","","","","","","","","","feedback_test"
"","","","","","psychophysics","384","752694","0.0-10.0-0.0-0.0-0.0-0.89","872","","f","","","","","","","","","","","","","key","f","16.665135135134758","747","463","f","true","img/S_ambi40.png","朋友","same",""
"","","","","","html-keyboard-response","385","753207","0.0-10.0-0.0-0.0-0.0-1.89","null","<span style='color:GreenYellow; font-size: 70px;'>正确! </span>","null","","","","","","","","","","","","","","","","","","","","","","","feedback_test"
"","","","","","psychophysics","386","755102","0.0-10.0-0.0-0.0-0.0-0.90","893","","f","","","","","","","","","","","","","key","f","16.666752212389323","747","463","f","true","img/S_ambi40.png","朋友","same",""
"","","","","","html-keyboard-response","387","755618","0.0-10.0-0.0-0.0-0.0-1.90","null","<span style='color:GreenYellow; font-size: 70px;'>正确! </span>","null","","","","","","","","","","","","","","","","","","","","","","","feedback_test"
"","","","","","psychophysics","388","757675","0.0-10.0-0.0-0.0-0.0-0.91","1055","","f","","","","","","","","","","","","","key","f","16.666106557377162","747","463","f","true","img/S_ambi40.png","自我","same",""
"","","","","","html-keyboard-response","389","758180","0.0-10.0-0.0-0.0-0.0-1.91","null","<span style='color:GreenYellow; font-size: 70px;'>正确! </span>","null","","","","","","","","","","","","","","","","","","","","","","","feedback_test"
"","","","","","psychophysics","390","759914","0.0-10.0-0.0-0.0-0.0-0.92","732","","j","","","","","","","","","","","","","key","j","16.665912621359578","747","463","f","false","img/H_ambi40.png","自我","same",""
"","","","","","html-keyboard-response","391","760423","0.0-10.0-0.0-0.0-0.0-1.92","null","<span style='color:red; font-size: 70px;'>错误! </span>","null","","","","","","","","","","","","","","","","","","","","","","","feedback_test"
"","","","","","psychophysics","392","762431","0.0-10.0-0.0-0.0-0.0-0.93","1006","","f","","","","","","","","","","","","","key","f","16.666857142857385","747","463","f","true","img/H_ambi40.png","生人","same",""
"","","","","","html-keyboard-response","393","762937","0.0-10.0-0.0-0.0-0.0-1.93","null","<span style='color:GreenYellow; font-size: 70px;'>正确! </span>","null","","","","","","","","","","","","","","","","","","","","","","","feedback_test"
"","","","","","psychophysics","394","764631","0.0-10.0-0.0-0.0-0.0-0.94","691","","j","","","","","","","","","","","","","key","j","16.666570000000064","747","463","j","true","img/T_ambi40.png","をる","same",""
"","","","","","html-keyboard-response","395","765140","0.0-10.0-0.0-0.0-0.0-1.94","null","<span style='color:GreenYellow; font-size: 70px;'>正确! </span>","null","","","","","","","","","","","","","","","","","","","","","","","feedback_test"
"","","","","","psychophysics","396","766802","0.0-10.0-0.0-0.0-0.0-0.95","660","","j","","","","","","","","","","","","","key","j","16.666747474747787","747","463","j","true","img/C_ambi40.png","自我","same",""
"","","","","","html-keyboard-response","397","767315","0.0-10.0-0.0-0.0-0.0-1.95","null","<span style='color:GreenYellow; font-size: 70px;'>正确! </span>","null","","","","","","","","","","","","","","","","","","","","","","","feedback_test"
"","","","","","psychophysics","398","769063","0.0-10.0-0.0-0.0-0.0-0.96","745","","j","","","","","","","","","","","","","key","j","16.66662500000026","747","463","j","true","img/T_ambi40.png","をる","same",""
"","","","","","html-keyboard-response","399","769574","0.0-10.0-0.0-0.0-0.0-1.96","null","<span style='color:GreenYellow; font-size: 70px;'>正确! </span>","null","","","","","","","","","","","","","","","","","","","","","","","feedback_test"
"","","","","","psychophysics","400","771899","0.0-10.0-0.0-0.0-0.0-0.97","1323","","f","","","","","","","","","","","","","key","f","16.667036231883895","747","463","f","true","img/H_ambi40.png","自我","same",""
"","","","","","html-keyboard-response","401","772402","0.0-10.0-0.0-0.0-0.0-1.97","null","<span style='color:GreenYellow; font-size: 70px;'>正确! </span>","null","","","","","","","","","","","","","","","","","","","","","","","feedback_test"
"","","","","","psychophysics","402","774203","0.0-10.0-0.0-0.0-0.0-0.98","799","","f","","","","","","","","","","","","","key","f","16.667009345794348","747","463","f","true","img/S_ambi40.png","朋友","same",""
"","","","","","html-keyboard-response","403","774714","0.0-10.0-0.0-0.0-0.0-1.98","null","<span style='color:GreenYellow; font-size: 70px;'>正确! </span>","null","","","","","","","","","","","","","","","","","","","","","","","feedback_test"
"","","","","","psychophysics","404","776626","0.0-10.0-0.0-0.0-0.0-0.99","908","","f","","","","","","","","","","","","","key","f","16.667657894736948","747","463","f","true","img/C_ambi40.png","生人","same",""
"","","","","","html-keyboard-response","405","777131","0.0-10.0-0.0-0.0-0.0-1.99","null","<span style='color:GreenYellow; font-size: 70px;'>正确! </span>","null","","","","","","","","","","","","","","","","","","","","","","","feedback_test"
"","","","","","psychophysics","406","778957","0.0-10.0-0.0-0.0-0.0-0.100","822","","f","","","","","","","","","","","","","key","f","16.666972477063794","747","463","f","true","img/C_ambi40.png","朋友","same",""
"","","","","","html-keyboard-response","407","779465","0.0-10.0-0.0-0.0-0.0-1.100","null","<span style='color:GreenYellow; font-size: 70px;'>正确! </span>","null","","","","","","","","","","","","","","","","","","","","","","","feedback_test"
"","","","","","psychophysics","408","781973","0.0-10.0-0.0-0.0-0.0-0.101","null","","null","","","","","","","","","","","","","key","null","16.66585333333273","747","463","j","false","img/S_ambi40.png","生人","same",""
"","","","","","html-keyboard-response","409","782487","0.0-10.0-0.0-0.0-0.0-1.101","null","<span class='add_' style='color:yellow; font-size: 70px;'> 太慢! </span>","null","","","","","","","","","","","","","","","","","","","","","","","feedback_test"
"","","","","","psychophysics","410","784458","0.0-10.0-0.0-0.0-0.0-0.102","968","","j","","","","","","","","","","","","","key","j","16.666829059828814","747","463","j","true","img/H_ambi40.png","朋友","same",""
"","","","","","html-keyboard-response","411","784967","0.0-10.0-0.0-0.0-0.0-1.102","null","<span style='color:GreenYellow; font-size: 70px;'>正确! </span>","null","","","","","","","","","","","","","","","","","","","","","","","feedback_test"
"","","","","","psychophysics","412","786914","0.0-10.0-0.0-0.0-0.0-0.103","945","","f","","","","","","","","","","","","","key","f","16.552330434782956","747","463","f","true","img/C_ambi40.png","生人","same",""
"","","","","","html-keyboard-response","413","787424","0.0-10.0-0.0-0.0-0.0-1.103","null","<span style='color:GreenYellow; font-size: 70px;'>正确! </span>","null","","","","","","","","","","","","","","","","","","","","","","","feedback_test"
"","","","","","psychophysics","414","789052","0.0-10.0-0.0-0.0-0.0-0.104","626","","j","","","","","","","","","","","","","key","j","16.666556701030505","747","463","j","true","img/C_ambi40.png","自我","same",""
"","","","","","html-keyboard-response","415","789555","0.0-10.0-0.0-0.0-0.0-1.104","null","<span style='color:GreenYellow; font-size: 70px;'>正确! </span>","null","","","","","","","","","","","","","","","","","","","","","","","feedback_test"
"","","","","","psychophysics","416","791286","0.0-10.0-0.0-0.0-0.0-0.105","727","","f","","","","","","","","","","","","","key","f","16.666708737863814","747","463","j","false","img/H_ambi40.png","朋友","same",""
"","","","","","html-keyboard-response","417","791798","0.0-10.0-0.0-0.0-0.0-1.105","null","<span style='color:red; font-size: 70px;'>错误! </span>","null","","","","","","","","","","","","","","","","","","","","","","","feedback_test"
"","","","","","psychophysics","418","793685","0.0-10.0-0.0-0.0-0.0-0.106","884","","j","","","","","","","","","","","","","key","j","16.66752212389426","747","463","j","true","img/S_ambi40.png","生人","same",""
"","","","","","html-keyboard-response","419","794194","0.0-10.0-0.0-0.0-0.0-1.106","null","<span style='color:GreenYellow; font-size: 70px;'>正确! </span>","null","","","","","","","","","","","","","","","","","","","","","","","feedback_test"
"","","","","","psychophysics","420","795784","0.0-10.0-0.0-0.0-0.0-0.107","588","","j","","","","","","","","","","","","","key","j","16.666382978723554","747","463","j","true","img/T_ambi40.png","をる","same",""
"","","","","","html-keyboard-response","421","796296","0.0-10.0-0.0-0.0-0.0-1.107","null","<span style='color:GreenYellow; font-size: 70px;'>正确! </span>","null","","","","","","","","","","","","","","","","","","","","","","","feedback_test"
"","","","","","html-keyboard-response","422","798460","0.0-10.0-0.0-0.0-1.0","2161","<style>.context{color:white; font-size: 35px; line-height:40px}</style>                          <div><p class='context'>您正确回答了87% 的试次。</p><p class='context'>您的平均反应时为878毫秒。</p><p class='context'>请按任意键进入休息</p></div>","j","","","","","","","","","","","","","","","","","","","","","","",""
"","","","","","html-button-response","423","807647","0.0-10.0-0.0-0.0-2.0","9182","
                    <p>您当前还剩余5组实验</p>
                    <p>现在是休息时间，当您结束休息后，您可以点击 结束休息 按钮 继续</p>
                    <p>建议休息时间还剩余<span id=""iii"">60</span>秒</p>","0","","","","","","","","","","","","","","","","","","","","","","",""
"","","","","","psychophysics","424","810151","0.0-10.0-0.0-0.0-0.1-0.108","null","","null","","","","","","","","","","","","","key","null","16.6666375838928","747","463","f","false","img/H_ambi40.png","生人","same",""
"","","","","","html-keyboard-response","425","810656","0.0-10.0-0.0-0.0-0.1-1.108","null","<span class='add_' style='color:yellow; font-size: 70px;'> 太慢! </span>","null","","","","","","","","","","","","","","","","","","","","","","","feedback_test"
"","","","","","psychophysics","426","812249","0.0-10.0-0.0-0.0-0.1-0.109","590","","j","","","","","","","","","","","","","key","j","16.66652127659627","747","463","j","true","img/T_ambi40.png","をる","same",""
"","","","","","html-keyboard-response","427","812765","0.0-10.0-0.0-0.0-0.1-1.109","null","<span style='color:GreenYellow; font-size: 70px;'>正确! </span>","null","","","","","","","","","","","","","","","","","","","","","","","feedback_test"
"","","","","","psychophysics","428","814318","0.0-10.0-0.0-0.0-0.1-0.110","550","","j","","","","","","","","","","","","","key","j","16.66797826086986","747","463","f","false","img/H_ambi40.png","自我","same",""
"","","","","","html-keyboard-response","429","814833","0.0-10.0-0.0-0.0-0.1-1.110","null","<span style='color:red; font-size: 70px;'>错误! </span>","null","","","","","","","","","","","","","","","","","","","","","","","feedback_test"
"","","","","","psychophysics","430","816502","0.0-10.0-0.0-0.0-0.1-0.111","667","","j","","","","","","","","","","","","","key","j","16.54159595959613","747","463","j","true","img/C_ambi40.png","自我","same",""
"","","","","","html-keyboard-response","431","817008","0.0-10.0-0.0-0.0-0.1-1.111","null","<span style='color:GreenYellow; font-size: 70px;'>正确! </span>","null","","","","","","","","","","","","","","","","","","","","","","","feedback_test"
"","","","","","psychophysics","432","818779","0.0-10.0-0.0-0.0-0.1-0.112","769","","j","","","","","","","","","","","","","key","j","16.666228571428828","747","463","j","true","img/H_ambi40.png","朋友","same",""
"","","","","","html-keyboard-response","433","819280","0.0-10.0-0.0-0.0-0.1-1.112","null","<span style='color:GreenYellow; font-size: 70px;'>正确! </span>","null","","","","","","","","","","","","","","","","","","","","","","","feedback_test"
"","","","","","psychophysics","434","820992","0.0-10.0-0.0-0.0-0.1-0.113","708","","f","","","","","","","","","","","","","key","f","16.66643137254926","747","463","f","true","img/S_ambi40.png","朋友","same",""
"","","","","","html-keyboard-response","435","821507","0.0-10.0-0.0-0.0-0.1-1.113","null","<span style='color:GreenYellow; font-size: 70px;'>正确! </span>","null","","","","","","","","","","","","","","","","","","","","","","","feedback_test"
"","","","","","psychophysics","436","823740","0.0-10.0-0.0-0.0-0.1-0.114","1230","","f","","","","","","","","","","","","","key","f","16.66679699248039","747","463","f","true","img/S_ambi40.png","自我","same",""
"","","","","","html-keyboard-response","437","824251","0.0-10.0-0.0-0.0-0.1-1.114","null","<span style='color:GreenYellow; font-size: 70px;'>正确! </span>","null","","","","","","","","","","","","","","","","","","","","","","","feedback_test"
"","","","","","psychophysics","438","826213","0.0-10.0-0.0-0.0-0.1-0.115","961","","f","","","","","","","","","","","","","key","f","16.666931034483273","747","463","f","true","img/H_ambi40.png","自我","same",""
"","","","","","html-keyboard-response","439","826715","0.0-10.0-0.0-0.0-0.1-1.115","null","<span style='color:GreenYellow; font-size: 70px;'>正确! </span>","null","","","","","","","","","","","","","","","","","","","","","","","feedback_test"
"","","","","","psychophysics","440","828341","0.0-10.0-0.0-0.0-0.1-0.116","623","","j","","","","","","","","","","","","","key","j","16.66689690721663","747","463","j","true","img/T_ambi40.png","をる","same",""
"","","","","","html-keyboard-response","441","828857","0.0-10.0-0.0-0.0-0.1-1.116","null","<span style='color:GreenYellow; font-size: 70px;'>正确! </span>","null","","","","","","","","","","","","","","","","","","","","","","","feedback_test"
"","","","","","psychophysics","442","830890","0.0-10.0-0.0-0.0-0.1-0.117","1031","","j","","","","","","","","","","","","","key","j","16.666528925619065","747","463","j","true","img/S_ambi40.png","生人","same",""
"","","","","","html-keyboard-response","443","831402","0.0-10.0-0.0-0.0-0.1-1.117","null","<span style='color:GreenYellow; font-size: 70px;'>正确! </span>","null","","","","","","","","","","","","","","","","","","","","","","","feedback_test"
"","","","","","psychophysics","444","833066","0.0-10.0-0.0-0.0-0.1-0.118","663","","f","","","","","","","","","","","","","key","f","16.66638775510186","747","463","f","true","img/S_ambi40.png","朋友","same",""
"","","","","","html-keyboard-response","445","833568","0.0-10.0-0.0-0.0-0.1-1.118","null","<span style='color:GreenYellow; font-size: 70px;'>正确! </span>","null","","","","","","","","","","","","","","","","","","","","","","","feedback_test"
