"success","timeout","failed_images","failed_audio","failed_video","trial_type","trial_index","time_elapsed","internal_node_id","rt","stimulus","response","value","item_width_mm","item_height_mm","item_width_px","px2mm","view_dist_mm","item_width_deg","px2deg","scale_factor","win_width_deg","win_height_deg","view_history","response_type","key_press","avg_frame_time","center_x","center_y","correct_response","correct","Image","word","condition","screen_id"
"true","false","[]","[]","[]","preload","0","982","0.0-0.0","","","","","","","","","","","","","","","","","","","","","","","","","",""
"","","","","","html-keyboard-response","1","28831","0.0-1.0","27848","
     <p>您好，欢迎参加本次实验。</p>
     <p>为充分保障您的权利，请确保您已经知晓并同意《参与实验同意书》以及《数据公开知情同意书》。</p>
     <p>如果您未见过上述内容，请咨询实验员。</p>
     <p>如果您选择继续实验，则表示您已经清楚两份知情同意书的内容并同意。</p>
     <p> <div style = ""color: green""><按任意键至下页></div> </p>
     "," ","","","","","","","","","","","","","","","","","","","","","","",""
"","","","","","html-keyboard-response","2","31101","0.0-2.0","2269","
     <p>本实验首先需要您填写一些基本个人信息。</p>
     <p> <div style = ""color: green""><按任意键至下页></div></p>
     "," ","","","","","","","","","","","","","","","","","","","","","","",""
"","","","","","call-function","3","31101","0.0-3.0-0.0","","","","","","","","","","","","","","","","","","","","","","","","","",""
"","","","","","survey-html-form","4","35539","0.0-3.0-1.0","4436","","{""Q0"":""1""}","","","","","","","","","","","","","","","","","","","","","","",""
"","","","","","html-button-response","5","37195","0.0-3.0-2.0","1655","<p style = 'color : white'>您的性别</p>","1","","","","","","","","","","","","","","","","","","","","","","",""
"","","","","","survey-html-form","6","42931","0.0-3.0-3.0","5735","","{""Q0"":""2005""}","","","","","","","","","","","","","","","","","","","","","","",""
"","","","","","survey-html-form","7","50723","0.0-3.0-4.0","7791","","{""Q0"":""5""}","","","","","","","","","","","","","","","","","","","","","","",""
"","","","","","virtual-chinrest","8","182732","0.0-4.0","132007","","","","85.6","53.98","601.3998068492778","7.021578896721934","406.26","12.027996136985555","50","0.6351847733395373","29.58","14.28","","","","","","","","","","","",""
"true","","","","","fullscreen","9","187720","0.0-5.0","","","","","","","","","","","","","","","","","","","","","","","","","",""
"","","","","","instructions","10","267540","0.0-6.0","79820","","","","","","","","","","","","","","[{""page_index"":0,""viewing_time"":8875},{""page_index"":1,""viewing_time"":56680},{""page_index"":2,""viewing_time"":11504},{""page_index"":3,""viewing_time"":2762}]","","","","","","","","","","",""
"","","","","","psychophysics","11","270062","0.0-7.0-0.0","null","","null","","","","","","","","","","","","","key","null","16.66823489932912","768","428","f","false","img/H_ambi40.png","生人","prac",""
"","","","","","html-keyboard-response","12","270574","0.0-7.0-1.0","null","<span class='add_' style='color:yellow; font-size: 70px;'> 太慢! </span>","null","","","","","","","","","","","","","","","","","","","","","","","feedback_test"
"","","","","","psychophysics","13","273084","0.0-7.0-0.1","null","","null","","","","","","","","","","","","","key","null","16.66706711409384","768","428","f","false","img/T_ambi40.png","をる","prac",""
"","","","","","html-keyboard-response","14","273597","0.0-7.0-1.1","null","<span class='add_' style='color:yellow; font-size: 70px;'> 太慢! </span>","null","","","","","","","","","","","","","","","","","","","","","","","feedback_test"
"","","","","","psychophysics","15","274830","0.0-7.0-0.2","228","","f","","","","","","","","","","","","","key","f","16.667013698629876","768","428","f","true","img/S_ambi40.png","自我","prac",""
"","","","","","html-keyboard-response","16","275334","0.0-7.0-1.2","null","<span style='color:GreenYellow; font-size: 70px;'>正确! </span>","null","","","","","","","","","","","","","","","","","","","","","","","feedback_test"
"","","","","","psychophysics","17","277835","0.0-7.0-0.3","null","","null","","","","","","","","","","","","","key","null","16.669255033557324","768","428","j","false","img/H_ambi40.png","朋友","prac",""
"","","","","","html-keyboard-response","18","278341","0.0-7.0-1.3","null","<span class='add_' style='color:yellow; font-size: 70px;'> 太慢! </span>","null","","","","","","","","","","","","","","","","","","","","","","","feedback_test"
"","","","","","psychophysics","19","280228","0.0-7.0-0.4","877","","f","","","","","","","","","","","","","key","f","16.665562500000046","768","428","f","true","img/C_ambi40.png","生人","prac",""
"","","","","","html-keyboard-response","20","280739","0.0-7.0-1.4","null","<span style='color:GreenYellow; font-size: 70px;'>正确! </span>","null","","","","","","","","","","","","","","","","","","","","","","","feedback_test"
"","","","","","psychophysics","21","283248","0.0-7.0-0.5","null","","null","","","","","","","","","","","","","key","null","16.667208053691205","768","428","f","false","img/T_ambi40.png","をる","prac",""
"","","","","","html-keyboard-response","22","283762","0.0-7.0-1.5","null","<span class='add_' style='color:yellow; font-size: 70px;'> 太慢! </span>","null","","","","","","","","","","","","","","","","","","","","","","","feedback_test"
"","","","","","psychophysics","23","285824","0.0-7.0-0.6","1057","","f","","","","","","","","","","","","","key","f","16.665685483870835","768","428","f","true","img/S_ambi40.png","朋友","prac",""
"","","","","","html-keyboard-response","24","286327","0.0-7.0-1.6","null","<span style='color:GreenYellow; font-size: 70px;'>正确! </span>","null","","","","","","","","","","","","","","","","","","","","","","","feedback_test"
"","","","","","psychophysics","25","288160","0.0-7.0-0.7","824","","f","","","","","","","","","","","","","key","f","16.666357798165418","768","428","f","true","img/H_ambi40.png","自我","prac",""
"","","","","","html-keyboard-response","26","288662","0.0-7.0-1.7","null","<span style='color:GreenYellow; font-size: 70px;'>正确! </span>","null","","","","","","","","","","","","","","","","","","","","","","","feedback_test"
"","","","","","psychophysics","27","290662","0.0-7.0-0.8","994","","j","","","","","","","","","","","","","key","j","16.668680672268696","768","428","j","true","img/C_ambi40.png","自我","prac",""
"","","","","","html-keyboard-response","28","291168","0.0-7.0-1.8","null","<span style='color:GreenYellow; font-size: 70px;'>正确! </span>","null","","","","","","","","","","","","","","","","","","","","","","","feedback_test"
"","","","","","psychophysics","29","293222","0.0-7.0-0.9","1049","","f","","","","","","","","","","","","","key","f","16.66892682926822","768","428","f","true","img/T_ambi40.png","をる","prac",""
"","","","","","html-keyboard-response","30","293729","0.0-7.0-1.9","null","<span style='color:GreenYellow; font-size: 70px;'>正确! </span>","null","","","","","","","","","","","","","","","","","","","","","","","feedback_test"
"","","","","","psychophysics","31","295818","0.0-7.0-0.10","1082","","j","","","","","","","","","","","","","key","j","16.667822580645144","768","428","f","false","img/C_ambi40.png","朋友","prac",""
"","","","","","html-keyboard-response","32","296332","0.0-7.0-1.10","null","<span style='color:red; font-size: 70px;'>错误! </span>","null","","","","","","","","","","","","","","","","","","","","","","","feedback_test"
"","","","","","psychophysics","33","298450","0.0-7.0-0.11","1112","","j","","","","","","","","","","","","","key","j","16.666198412698346","768","428","j","true","img/S_ambi40.png","生人","prac",""
"","","","","","html-keyboard-response","34","298954","0.0-7.0-1.11","null","<span style='color:GreenYellow; font-size: 70px;'>正确! </span>","null","","","","","","","","","","","","","","","","","","","","","","","feedback_test"
"","","","","","psychophysics","35","300735","0.0-7.0-0.12","781","","f","","","","","","","","","","","","","key","f","16.66924761904714","768","428","j","false","img/C_ambi40.png","自我","prac",""
"","","","","","html-keyboard-response","36","301244","0.0-7.0-1.12","null","<span style='color:red; font-size: 70px;'>错误! </span>","null","","","","","","","","","","","","","","","","","","","","","","","feedback_test"
"","","","","","psychophysics","37","303753","0.0-7.0-0.13","null","","null","","","","","","","","","","","","","key","null","16.668382550335814","768","428","j","false","img/H_ambi40.png","朋友","prac",""
"","","","","","html-keyboard-response","38","304264","0.0-7.0-1.13","null","<span class='add_' style='color:yellow; font-size: 70px;'> 太慢! </span>","null","","","","","","","","","","","","","","","","","","","","","","","feedback_test"
"","","","","","psychophysics","39","306065","0.0-7.0-0.14","795","","f","","","","","","","","","","","","","key","f","16.66650467289712","768","428","j","false","img/S_ambi40.png","生人","prac",""
"","","","","","html-keyboard-response","40","306575","0.0-7.0-1.14","null","<span style='color:red; font-size: 70px;'>错误! </span>","null","","","","","","","","","","","","","","","","","","","","","","","feedback_test"
"","","","","","psychophysics","41","309068","0.0-7.0-0.15","1488","","j","","","","","","","","","","","","","key","j","16.667574324324175","768","428","f","false","img/T_ambi40.png","をる","prac",""
"","","","","","html-keyboard-response","42","309569","0.0-7.0-1.15","null","<span style='color:red; font-size: 70px;'>错误! </span>","null","","","","","","","","","","","","","","","","","","","","","","","feedback_test"
"","","","","","psychophysics","43","311790","0.0-7.0-0.16","1218","","f","","","","","","","","","","","","","key","f","16.668022556391044","768","428","f","true","img/H_ambi40.png","自我","prac",""
"","","","","","html-keyboard-response","44","312296","0.0-7.0-1.16","null","<span style='color:GreenYellow; font-size: 70px;'>正确! </span>","null","","","","","","","","","","","","","","","","","","","","","","","feedback_test"
"","","","","","psychophysics","45","314229","0.0-7.0-0.17","926","","f","","","","","","","","","","","","","key","f","16.666886956521573","768","428","f","true","img/S_ambi40.png","自我","prac",""
"","","","","","html-keyboard-response","46","314737","0.0-7.0-1.17","null","<span style='color:GreenYellow; font-size: 70px;'>正确! </span>","null","","","","","","","","","","","","","","","","","","","","","","","feedback_test"
"","","","","","psychophysics","47","316808","0.0-7.0-0.18","1067","","j","","","","","","","","","","","","","key","j","16.668645161290414","768","428","j","true","img/H_ambi40.png","朋友","prac",""
"","","","","","html-keyboard-response","48","317317","0.0-7.0-1.18","null","<span style='color:GreenYellow; font-size: 70px;'>正确! </span>","null","","","","","","","","","","","","","","","","","","","","","","","feedback_test"
"","","","","","psychophysics","49","319345","0.0-7.0-0.19","1024","","f","","","","","","","","","","","","","key","f","16.66653719008275","768","428","j","false","img/C_ambi40.png","自我","prac",""
"","","","","","html-keyboard-response","50","319847","0.0-7.0-1.19","null","<span style='color:red; font-size: 70px;'>错误! </span>","null","","","","","","","","","","","","","","","","","","","","","","","feedback_test"
"","","","","","psychophysics","51","321755","0.0-7.0-0.20","897","","f","","","","","","","","","","","","","key","f","16.66900000000008","768","428","f","true","img/C_ambi40.png","朋友","prac",""
"","","","","","html-keyboard-response","52","322259","0.0-7.0-1.20","null","<span style='color:GreenYellow; font-size: 70px;'>正确! </span>","null","","","","","","","","","","","","","","","","","","","","","","","feedback_test"
"","","","","","psychophysics","53","324151","0.0-7.0-0.21","891","","f","","","","","","","","","","","","","key","f","16.668500000000286","768","428","f","true","img/C_ambi40.png","生人","prac",""
"","","","","","html-keyboard-response","54","324657","0.0-7.0-1.21","null","<span style='color:GreenYellow; font-size: 70px;'>正确! </span>","null","","","","","","","","","","","","","","","","","","","","","","","feedback_test"
"","","","","","psychophysics","55","326552","0.0-7.0-0.22","894","","j","","","","","","","","","","","","","key","j","16.669732142857224","768","428","f","false","img/T_ambi40.png","をる","prac",""
"","","","","","html-keyboard-response","56","327058","0.0-7.0-1.22","null","<span style='color:red; font-size: 70px;'>错误! </span>","null","","","","","","","","","","","","","","","","","","","","","","","feedback_test"
"","","","","","psychophysics","57","329270","0.0-7.0-0.23","1206","","f","","","","","","","","","","","","","key","f","16.6670305343511","768","428","f","true","img/S_ambi40.png","朋友","prac",""
"","","","","","html-keyboard-response","58","329781","0.0-7.0-1.23","null","<span style='color:GreenYellow; font-size: 70px;'>正确! </span>","null","","","","","","","","","","","","","","","","","","","","","","","feedback_test"
"","","","","","psychophysics","59","331736","0.0-7.0-0.24","951","","f","","","","","","","","","","","","","key","f","16.66815517241374","768","428","f","true","img/H_ambi40.png","生人","prac",""
"","","","","","html-keyboard-response","60","332244","0.0-7.0-1.24","null","<span style='color:GreenYellow; font-size: 70px;'>正确! </span>","null","","","","","","","","","","","","","","","","","","","","","","","feedback_test"
"","","","","","psychophysics","61","334338","0.0-7.0-0.25","1084","","j","","","","","","","","","","","","","key","j","16.66883064516127","768","428","f","false","img/T_ambi40.png","をる","prac",""
"","","","","","html-keyboard-response","62","334850","0.0-7.0-1.25","null","<span style='color:red; font-size: 70px;'>错误! </span>","null","","","","","","","","","","","","","","","","","","","","","","","feedback_test"
"","","","","","psychophysics","63","336849","0.0-7.0-0.26","992","","f","","","","","","","","","","","","","key","f","16.665621848739274","768","428","j","false","img/S_ambi40.png","生人","prac",""
"","","","","","html-keyboard-response","64","337361","0.0-7.0-1.26","null","<span style='color:red; font-size: 70px;'>错误! </span>","null","","","","","","","","","","","","","","","","","","","","","","","feedback_test"
"","","","","","psychophysics","65","339752","0.0-7.0-0.27","1387","","j","","","","","","","","","","","","","key","j","16.669797202796918","768","428","f","false","img/T_ambi40.png","をる","prac",""
"","","","","","html-keyboard-response","66","340257","0.0-7.0-1.27","null","<span style='color:red; font-size: 70px;'>错误! </span>","null","","","","","","","","","","","","","","","","","","","","","","","feedback_test"
"","","","","","psychophysics","67","342333","0.0-7.0-0.28","1075","","j","","","","","","","","","","","","","key","j","16.66816260162561","768","428","j","true","img/C_ambi40.png","自我","prac",""
"","","","","","html-keyboard-response","68","342837","0.0-7.0-1.28","null","<span style='color:GreenYellow; font-size: 70px;'>正确! </span>","null","","","","","","","","","","","","","","","","","","","","","","","feedback_test"
"","","","","","psychophysics","69","344957","0.0-7.0-0.29","1117","","f","","","","","","","","","","","","","key","f","16.667841269841162","768","428","f","true","img/T_ambi40.png","をる","prac",""
"","","","","","html-keyboard-response","70","345466","0.0-7.0-1.29","null","<span style='color:GreenYellow; font-size: 70px;'>正确! </span>","null","","","","","","","","","","","","","","","","","","","","","","","feedback_test"
"","","","","","psychophysics","71","347387","0.0-7.0-0.30","917","","f","","","","","","","","","","","","","key","f","16.665669565217105","768","428","j","false","img/S_ambi40.png","生人","prac",""
"","","","","","html-keyboard-response","72","347896","0.0-7.0-1.30","null","<span style='color:red; font-size: 70px;'>错误! </span>","null","","","","","","","","","","","","","","","","","","","","","","","feedback_test"
"","","","","","psychophysics","73","350408","0.0-7.0-0.31","null","","null","","","","","","","","","","","","","key","null","16.666805369127463","768","428","j","false","img/H_ambi40.png","朋友","prac",""
"","","","","","html-keyboard-response","74","350919","0.0-7.0-1.31","null","<span class='add_' style='color:yellow; font-size: 70px;'> 太慢! </span>","null","","","","","","","","","","","","","","","","","","","","","","","feedback_test"
"","","","","","psychophysics","75","353052","0.0-8.0-0.0-0.0","1128","","f","","","","","","","","","","","","","key","f","16.667519685039096","768","428","f","true","img/H_ambi40.png","自我","prac",""
"","","","","","html-keyboard-response","76","353563","0.0-8.0-0.0-1.0","null","<span style='color:GreenYellow; font-size: 70px;'>正确! </span>","null","","","","","","","","","","","","","","","","","","","","","","","feedback_test"
"","","","","","psychophysics","77","355644","0.0-8.0-0.0-0.1","1076","","f","","","","","","","","","","","","","key","f","16.668669354838542","768","428","f","true","img/C_ambi40.png","朋友","prac",""
"","","","","","html-keyboard-response","78","356145","0.0-8.0-0.0-1.1","null","<span style='color:GreenYellow; font-size: 70px;'>正确! </span>","null","","","","","","","","","","","","","","","","","","","","","","","feedback_test"
"","","","","","psychophysics","79","358367","0.0-8.0-0.0-0.2","1209","","j","","","","","","","","","","","","","key","j","16.668083333333595","768","428","j","true","img/S_ambi40.png","生人","prac",""
"","","","","","html-keyboard-response","80","358880","0.0-8.0-0.0-1.2","null","<span style='color:GreenYellow; font-size: 70px;'>正确! </span>","null","","","","","","","","","","","","","","","","","","","","","","","feedback_test"
"","","","","","psychophysics","81","361078","0.0-8.0-0.0-0.3","1193","","f","","","","","","","","","","","","","key","f","16.667587786259748","768","428","f","true","img/T_ambi40.png","をる","prac",""
"","","","","","html-keyboard-response","82","361594","0.0-8.0-0.0-1.3","null","<span style='color:GreenYellow; font-size: 70px;'>正确! </span>","null","","","","","","","","","","","","","","","","","","","","","","","feedback_test"
"","","","","","psychophysics","83","363610","0.0-8.0-0.0-0.4","1006","","j","","","","","","","","","","","","","key","j","16.666741666666834","768","428","j","true","img/H_ambi40.png","朋友","prac",""
"","","","","","html-keyboard-response","84","364120","0.0-8.0-0.0-1.4","null","<span style='color:GreenYellow; font-size: 70px;'>正确! </span>","null","","","","","","","","","","","","","","","","","","","","","","","feedback_test"
"","","","","","psychophysics","85","366151","0.0-8.0-0.0-0.5","1024","","f","","","","","","","","","","","","","key","f","16.667975206611665","768","428","f","true","img/T_ambi40.png","をる","prac",""
"","","","","","html-keyboard-response","86","366667","0.0-8.0-0.0-1.5","null","<span style='color:GreenYellow; font-size: 70px;'>正确! </span>","null","","","","","","","","","","","","","","","","","","","","","","","feedback_test"
"","","","","","psychophysics","87","368637","0.0-8.0-0.0-0.6","965","","j","","","","","","","","","","","","","key","j","16.667700854700723","768","428","j","true","img/H_ambi40.png","朋友","prac",""
"","","","","","html-keyboard-response","88","369138","0.0-8.0-0.0-1.6","null","<span style='color:GreenYellow; font-size: 70px;'>正确! </span>","null","","","","","","","","","","","","","","","","","","","","","","","feedback_test"
"","","","","","psychophysics","89","371290","0.0-8.0-0.0-0.7","1148","","f","","","","","","","","","","","","","key","f","16.79784374999963","768","428","f","true","img/H_ambi40.png","生人","prac",""
"","","","","","html-keyboard-response","90","371800","0.0-8.0-0.0-1.7","null","<span style='color:GreenYellow; font-size: 70px;'>正确! </span>","null","","","","","","","","","","","","","","","","","","","","","","","feedback_test"
"","","","","","psychophysics","91","373897","0.0-8.0-0.0-0.8","1088","","f","","","","","","","","","","","","","key","f","16.666871999999973","768","428","f","true","img/S_ambi40.png","朋友","prac",""
"","","","","","html-keyboard-response","92","374407","0.0-8.0-0.0-1.8","null","<span style='color:GreenYellow; font-size: 70px;'>正确! </span>","null","","","","","","","","","","","","","","","","","","","","","","","feedback_test"
"","","","","","psychophysics","93","376349","0.0-8.0-0.0-0.9","939","","f","","","","","","","","","","","","","key","f","16.667431034482934","768","428","f","true","img/T_ambi40.png","をる","prac",""
"","","","","","html-keyboard-response","94","376850","0.0-8.0-0.0-1.9","null","<span style='color:GreenYellow; font-size: 70px;'>正确! </span>","null","","","","","","","","","","","","","","","","","","","","","","","feedback_test"
"","","","","","psychophysics","95","379061","0.0-8.0-0.0-0.10","1204","","f","","","","","","","","","","","","","key","f","16.66788636363609","768","428","f","true","img/S_ambi40.png","自我","prac",""
"","","","","","html-keyboard-response","96","379572","0.0-8.0-0.0-1.10","null","<span style='color:GreenYellow; font-size: 70px;'>正确! </span>","null","","","","","","","","","","","","","","","","","","","","","","","feedback_test"
"","","","","","psychophysics","97","381368","0.0-8.0-0.0-0.11","792","","f","","","","","","","","","","","","","key","f","16.669654205607394","768","428","f","true","img/C_ambi40.png","生人","prac",""
"","","","","","html-keyboard-response","98","381877","0.0-8.0-0.0-1.11","null","<span style='color:GreenYellow; font-size: 70px;'>正确! </span>","null","","","","","","","","","","","","","","","","","","","","","","","feedback_test"
"","","","","","psychophysics","99","383722","0.0-8.0-0.0-0.12","845","","j","","","","","","","","","","","","","key","j","16.667110091743353","768","428","j","true","img/C_ambi40.png","自我","prac",""
"","","","","","html-keyboard-response","100","384238","0.0-8.0-0.0-1.12","null","<span style='color:GreenYellow; font-size: 70px;'>正确! </span>","null","","","","","","","","","","","","","","","","","","","","","","","feedback_test"
"","","","","","psychophysics","101","386131","0.0-8.0-0.0-0.13","890","","f","","","","","","","","","","","","","key","f","16.670398230088022","768","428","f","true","img/T_ambi40.png","をる","prac",""
"","","","","","html-keyboard-response","102","386642","0.0-8.0-0.0-1.13","null","<span style='color:GreenYellow; font-size: 70px;'>正确! </span>","null","","","","","","","","","","","","","","","","","","","","","","","feedback_test"
"","","","","","psychophysics","103","388402","0.0-8.0-0.0-0.14","758","","j","","","","","","","","","","","","","key","j","16.54301923076967","768","428","j","true","img/C_ambi40.png","自我","prac",""
"","","","","","html-keyboard-response","104","388907","0.0-8.0-0.0-1.14","null","<span style='color:GreenYellow; font-size: 70px;'>正确! </span>","null","","","","","","","","","","","","","","","","","","","","","","","feedback_test"
"","","","","","psychophysics","105","391107","0.0-8.0-0.0-0.15","1199","","j","","","","","","","","","","","","","key","j","16.668679389313045","768","428","j","true","img/S_ambi40.png","生人","prac",""
"","","","","","html-keyboard-response","106","391623","0.0-8.0-0.0-1.15","null","<span style='color:GreenYellow; font-size: 70px;'>正确! </span>","null","","","","","","","","","","","","","","","","","","","","","","","feedback_test"
"","","","","","psychophysics","107","393870","0.0-8.0-0.0-0.16","1244","","f","","","","","","","","","","","","","key","f","16.668582089551997","768","428","f","true","img/H_ambi40.png","自我","prac",""
"","","","","","html-keyboard-response","108","394378","0.0-8.0-0.0-1.16","null","<span style='color:GreenYellow; font-size: 70px;'>正确! </span>","null","","","","","","","","","","","","","","","","","","","","","","","feedback_test"
"","","","","","psychophysics","109","396171","0.0-8.0-0.0-0.17","792","","j","","","","","","","","","","","","","key","j","16.66792452830178","768","428","j","true","img/C_ambi40.png","自我","prac",""
"","","","","","html-keyboard-response","110","396684","0.0-8.0-0.0-1.17","null","<span style='color:GreenYellow; font-size: 70px;'>正确! </span>","null","","","","","","","","","","","","","","","","","","","","","","","feedback_test"
"","","","","","psychophysics","111","398587","0.0-8.0-0.0-0.18","896","","j","","","","","","","","","","","","","key","j","16.6658672566368","768","428","j","true","img/H_ambi40.png","朋友","prac",""
"","","","","","html-keyboard-response","112","399099","0.0-8.0-0.0-1.18","null","<span style='color:GreenYellow; font-size: 70px;'>正确! </span>","null","","","","","","","","","","","","","","","","","","","","","","","feedback_test"
"","","","","","psychophysics","113","401395","0.0-8.0-0.0-0.19","1290","","f","","","","","","","","","","","","","key","f","16.66851824817518","768","428","f","true","img/S_ambi40.png","自我","prac",""
"","","","","","html-keyboard-response","114","401899","0.0-8.0-0.0-1.19","null","<span style='color:GreenYellow; font-size: 70px;'>正确! </span>","null","","","","","","","","","","","","","","","","","","","","","","","feedback_test"
"","","","","","psychophysics","115","404033","0.0-8.0-0.0-0.20","1121","","j","","","","","","","","","","","","","key","j","16.67006299212597","768","428","j","true","img/H_ambi40.png","朋友","prac",""
"","","","","","html-keyboard-response","116","404543","0.0-8.0-0.0-1.20","null","<span style='color:GreenYellow; font-size: 70px;'>正确! </span>","null","","","","","","","","","","","","","","","","","","","","","","","feedback_test"
"","","","","","psychophysics","117","406494","0.0-8.0-0.0-0.21","949","","j","","","","","","","","","","","","","key","j","16.66700000000014","768","428","j","true","img/C_ambi40.png","自我","prac",""
"","","","","","html-keyboard-response","118","407003","0.0-8.0-0.0-1.21","null","<span style='color:GreenYellow; font-size: 70px;'>正确! </span>","null","","","","","","","","","","","","","","","","","","","","","","","feedback_test"
"","","","","","psychophysics","119","408929","0.0-8.0-0.0-0.22","918","","j","","","","","","","","","","","","","key","j","16.66705217391313","768","428","j","true","img/S_ambi40.png","生人","prac",""
"","","","","","html-keyboard-response","120","409438","0.0-8.0-0.0-1.22","null","<span style='color:GreenYellow; font-size: 70px;'>正确! </span>","null","","","","","","","","","","","","","","","","","","","","","","","feedback_test"
"","","","","","psychophysics","121","411827","0.0-8.0-0.0-0.23","1382","","j","","","","","","","","","","","","","key","j","16.66566901408467","768","428","j","true","img/S_ambi40.png","生人","prac",""
"","","","","","html-keyboard-response","122","412339","0.0-8.0-0.0-1.23","null","<span style='color:GreenYellow; font-size: 70px;'>正确! </span>","null","","","","","","","","","","","","","","","","","","","","","","","feedback_test"
"","","","","","psychophysics","123","414143","0.0-8.0-0.0-0.24","797","","f","","","","","","","","","","","","","key","f","16.668411214953444","768","428","f","true","img/T_ambi40.png","をる","prac",""
"","","","","","html-keyboard-response","124","414651","0.0-8.0-0.0-1.24","null","<span style='color:GreenYellow; font-size: 70px;'>正确! </span>","null","","","","","","","","","","","","","","","","","","","","","","","feedback_test"
"","","","","","psychophysics","125","416455","0.0-8.0-0.0-0.25","799","","f","","","","","","","","","","","","","key","f","16.665841121495284","768","428","f","true","img/T_ambi40.png","をる","prac",""
"","","","","","html-keyboard-response","126","416969","0.0-8.0-0.0-1.25","null","<span style='color:GreenYellow; font-size: 70px;'>正确! </span>","null","","","","","","","","","","","","","","","","","","","","","","","feedback_test"
"","","","","","psychophysics","127","418705","0.0-8.0-0.0-0.26","727","","f","","","","","","","","","","","","","key","f","16.665718446602114","768","428","f","true","img/T_ambi40.png","をる","prac",""
"","","","","","html-keyboard-response","128","419212","0.0-8.0-0.0-1.26","null","<span style='color:GreenYellow; font-size: 70px;'>正确! </span>","null","","","","","","","","","","","","","","","","","","","","","","","feedback_test"
"","","","","","psychophysics","129","421007","0.0-8.0-0.0-0.27","789","","j","","","","","","","","","","","","","key","j","16.668858490566357","768","428","f","false","img/H_ambi40.png","生人","prac",""
"","","","","","html-keyboard-response","130","421517","0.0-8.0-0.0-1.27","null","<span style='color:red; font-size: 70px;'>错误! </span>","null","","","","","","","","","","","","","","","","","","","","","","","feedback_test"
"","","","","","psychophysics","131","423152","0.0-8.0-0.0-0.28","625","","j","","","","","","","","","","","","","key","j","16.666340206185662","768","428","f","false","img/C_ambi40.png","朋友","prac",""
"","","","","","html-keyboard-response","132","423656","0.0-8.0-0.0-1.28","null","<span style='color:red; font-size: 70px;'>错误! </span>","null","","","","","","","","","","","","","","","","","","","","","","","feedback_test"
"","","","","","psychophysics","133","425479","0.0-8.0-0.0-0.29","821","","f","","","","","","","","","","","","","key","f","16.667844036697097","768","428","f","true","img/T_ambi40.png","をる","prac",""
"","","","","","html-keyboard-response","134","425994","0.0-8.0-0.0-1.29","null","<span style='color:GreenYellow; font-size: 70px;'>正确! </span>","null","","","","","","","","","","","","","","","","","","","","","","","feedback_test"
"","","","","","psychophysics","135","428009","0.0-8.0-0.0-0.30","1013","","f","","","","","","","","","","","","","key","f","16.668235294117803","768","428","f","true","img/C_ambi40.png","生人","prac",""
"","","","","","html-keyboard-response","136","428519","0.0-8.0-0.0-1.30","null","<span style='color:GreenYellow; font-size: 70px;'>正确! </span>","null","","","","","","","","","","","","","","","","","","","","","","","feedback_test"
"","","","","","psychophysics","137","430548","0.0-8.0-0.0-0.31","1019","","j","","","","","","","","","","","","","key","j","16.671713114754283","768","428","f","false","img/S_ambi40.png","朋友","prac",""
"","","","","","html-keyboard-response","138","431062","0.0-8.0-0.0-1.31","null","<span style='color:red; font-size: 70px;'>错误! </span>","null","","","","","","","","","","","","","","","","","","","","","","","feedback_test"
"","","","","","html-keyboard-response","139","446292","0.0-9.0","15229","<style>.context{color:white; font-size: 35px; line-height:40px}</style>                          <div><p class='context'>您正确回答了91% 的试次。</p ><p class='context'>您的平均反应时为1007毫秒。</p ><p class='context'>恭喜您完成练习。按任意键进入正式实验。</p ><p class='footer' style='font-size: 35px; line-height:40px;'>请在进入正式实验实验之前将您的<span style='color: lightgreen;'>食指</span>放在电脑键盘的相应键位上进行按键。</p >"," ","","","","","","","","","","","","","","","","","","","","","","",""
"","","","","","psychophysics","140","448335","0.0-10.0-0.0-0.0-0.0-0.0","1022","","j","","","","","","","","","","","","","key","j","16.67012295081971","768","428","j","true","img/S_ambi40.png","生人","same",""
"","","","","","html-keyboard-response","141","448841","0.0-10.0-0.0-0.0-0.0-1.0","null","<span style='color:GreenYellow; font-size: 70px;'>正确! </span>","null","","","","","","","","","","","","","","","","","","","","","","","feedback_test"
"","","","","","psychophysics","142","450743","0.0-10.0-0.0-0.0-0.0-0.1","896","","f","","","","","","","","","","","","","key","f","16.668451327433402","768","428","f","true","img/S_ambi40.png","自我","same",""
"","","","","","html-keyboard-response","143","451244","0.0-10.0-0.0-0.0-0.0-1.1","null","<span style='color:GreenYellow; font-size: 70px;'>正确! </span>","null","","","","","","","","","","","","","","","","","","","","","","","feedback_test"
"","","","","","psychophysics","144","453270","0.0-10.0-0.0-0.0-0.0-0.2","1025","","f","","","","","","","","","","","","","key","f","16.667495867769013","768","428","f","true","img/C_ambi40.png","生人","same",""
"","","","","","html-keyboard-response","145","453771","0.0-10.0-0.0-0.0-0.0-1.2","null","<span style='color:GreenYellow; font-size: 70px;'>正确! </span>","null","","","","","","","","","","","","","","","","","","","","","","","feedback_test"
"","","","","","psychophysics","146","455534","0.0-10.0-0.0-0.0-0.0-0.3","752","","f","","","","","","","","","","","","","key","f","16.669358490565944","768","428","f","true","img/T_ambi40.png","をる","same",""
"","","","","","html-keyboard-response","147","456043","0.0-10.0-0.0-0.0-0.0-1.3","null","<span style='color:GreenYellow; font-size: 70px;'>正确! </span>","null","","","","","","","","","","","","","","","","","","","","","","","feedback_test"
"","","","","","psychophysics","148","457869","0.0-10.0-0.0-0.0-0.0-0.4","822","","j","","","","","","","","","","","","","key","j","16.667972477064296","768","428","j","true","img/C_ambi40.png","自我","same",""
"","","","","","html-keyboard-response","149","458378","0.0-10.0-0.0-0.0-0.0-1.4","null","<span style='color:GreenYellow; font-size: 70px;'>正确! </span>","null","","","","","","","","","","","","","","","","","","","","","","","feedback_test"
"","","","","","psychophysics","150","460335","0.0-10.0-0.0-0.0-0.0-0.5","955","","j","","","","","","","","","","","","","key","j","16.66959829059873","768","428","j","true","img/S_ambi40.png","生人","same",""
"","","","","","html-keyboard-response","151","460838","0.0-10.0-0.0-0.0-0.0-1.5","null","<span style='color:GreenYellow; font-size: 70px;'>正确! </span>","null","","","","","","","","","","","","","","","","","","","","","","","feedback_test"
"","","","","","psychophysics","152","462840","0.0-10.0-0.0-0.0-0.0-0.6","998","","f","","","","","","","","","","","","","key","f","16.668252100840313","768","428","f","true","img/C_ambi40.png","朋友","same",""
"","","","","","html-keyboard-response","153","463346","0.0-10.0-0.0-0.0-0.0-1.6","null","<span style='color:GreenYellow; font-size: 70px;'>正确! </span>","null","","","","","","","","","","","","","","","","","","","","","","","feedback_test"
"","","","","","psychophysics","154","465171","0.0-10.0-0.0-0.0-0.0-0.7","823","","j","","","","","","","","","","","","","key","j","16.669944444444372","768","428","j","true","img/H_ambi40.png","朋友","same",""
"","","","","","html-keyboard-response","155","465679","0.0-10.0-0.0-0.0-0.0-1.7","null","<span style='color:GreenYellow; font-size: 70px;'>正确! </span>","null","","","","","","","","","","","","","","","","","","","","","","","feedback_test"
"","","","","","psychophysics","156","467749","0.0-10.0-0.0-0.0-0.0-0.8","1069","","j","","","","","","","","","","","","","key","j","16.563390243902607","768","428","j","true","img/C_ambi40.png","自我","same",""
"","","","","","html-keyboard-response","157","468251","0.0-10.0-0.0-0.0-0.0-1.8","null","<span style='color:GreenYellow; font-size: 70px;'>正确! </span>","null","","","","","","","","","","","","","","","","","","","","","","","feedback_test"
"","","","","","psychophysics","158","470039","0.0-10.0-0.0-0.0-0.0-0.9","781","","j","","","","","","","","","","","","","key","j","16.666792452830123","768","428","j","true","img/H_ambi40.png","朋友","same",""
"","","","","","html-keyboard-response","159","470548","0.0-10.0-0.0-0.0-0.0-1.9","null","<span style='color:GreenYellow; font-size: 70px;'>正确! </span>","null","","","","","","","","","","","","","","","","","","","","","","","feedback_test"
"","","","","","psychophysics","160","472259","0.0-10.0-0.0-0.0-0.0-0.10","703","","f","","","","","","","","","","","","","key","f","16.668188118812107","768","428","f","true","img/T_ambi40.png","をる","same",""
"","","","","","html-keyboard-response","161","472767","0.0-10.0-0.0-0.0-0.0-1.10","null","<span style='color:GreenYellow; font-size: 70px;'>正确! </span>","null","","","","","","","","","","","","","","","","","","","","","","","feedback_test"
"","","","","","psychophysics","162","474480","0.0-10.0-0.0-0.0-0.0-0.11","704","","f","","","","","","","","","","","","","key","f","16.665059405940326","768","428","f","true","img/T_ambi40.png","をる","same",""
"","","","","","html-keyboard-response","163","474983","0.0-10.0-0.0-0.0-0.0-1.11","null","<span style='color:GreenYellow; font-size: 70px;'>正确! </span>","null","","","","","","","","","","","","","","","","","","","","","","","feedback_test"
"","","","","","psychophysics","164","476756","0.0-10.0-0.0-0.0-0.0-0.12","769","","j","","","","","","","","","","","","","key","j","16.66718095238099","768","428","j","true","img/C_ambi40.png","自我","same",""
"","","","","","html-keyboard-response","165","477270","0.0-10.0-0.0-0.0-0.0-1.12","null","<span style='color:GreenYellow; font-size: 70px;'>正确! </span>","null","","","","","","","","","","","","","","","","","","","","","","","feedback_test"
"","","","","","psychophysics","166","479187","0.0-10.0-0.0-0.0-0.0-0.13","912","","j","","","","","","","","","","","","","key","j","16.669219298245846","768","428","j","true","img/S_ambi40.png","生人","same",""
"","","","","","html-keyboard-response","167","479703","0.0-10.0-0.0-0.0-0.0-1.13","null","<span style='color:GreenYellow; font-size: 70px;'>正确! </span>","null","","","","","","","","","","","","","","","","","","","","","","","feedback_test"
"","","","","","psychophysics","168","481409","0.0-10.0-0.0-0.0-0.0-0.14","705","","j","","","","","","","","","","","","","key","j","16.66728712871295","768","428","j","true","img/H_ambi40.png","朋友","same",""
"","","","","","html-keyboard-response","169","481925","0.0-10.0-0.0-0.0-0.0-1.14","null","<span style='color:GreenYellow; font-size: 70px;'>正确! </span>","null","","","","","","","","","","","","","","","","","","","","","","","feedback_test"
"","","","","","psychophysics","170","483871","0.0-10.0-0.0-0.0-0.0-0.15","938","","f","","","","","","","","","","","","","key","f","16.668256410256298","768","428","f","true","img/H_ambi40.png","生人","same",""
"","","","","","html-keyboard-response","171","484387","0.0-10.0-0.0-0.0-0.0-1.15","null","<span style='color:GreenYellow; font-size: 70px;'>正确! </span>","null","","","","","","","","","","","","","","","","","","","","","","","feedback_test"
"","","","","","psychophysics","172","486322","0.0-10.0-0.0-0.0-0.0-0.16","934","","f","","","","","","","","","","","","","key","f","16.668652173913205","768","428","f","true","img/S_ambi40.png","朋友","same",""
"","","","","","html-keyboard-response","173","486830","0.0-10.0-0.0-0.0-0.0-1.16","null","<span style='color:GreenYellow; font-size: 70px;'>正确! </span>","null","","","","","","","","","","","","","","","","","","","","","","","feedback_test"
"","","","","","psychophysics","174","488819","0.0-10.0-0.0-0.0-0.0-0.17","988","","f","","","","","","","","","","","","","key","f","16.668235294117803","768","428","f","true","img/H_ambi40.png","自我","same",""
"","","","","","html-keyboard-response","175","489332","0.0-10.0-0.0-0.0-0.0-1.17","null","<span style='color:GreenYellow; font-size: 70px;'>正确! </span>","null","","","","","","","","","","","","","","","","","","","","","","","feedback_test"
"","","","","","psychophysics","176","491034","0.0-10.0-0.0-0.0-0.0-0.18","691","","f","","","","","","","","","","","","","key","f","16.66781188118834","768","428","f","true","img/T_ambi40.png","をる","same",""
"","","","","","html-keyboard-response","177","491547","0.0-10.0-0.0-0.0-0.0-1.18","null","<span style='color:GreenYellow; font-size: 70px;'>正确! </span>","null","","","","","","","","","","","","","","","","","","","","","","","feedback_test"
"","","","","","psychophysics","178","493737","0.0-10.0-0.0-0.0-0.0-0.19","1187","","j","","","","","","","","","","","","","key","j","16.668707692307475","768","428","j","true","img/S_ambi40.png","生人","same",""
"","","","","","html-keyboard-response","179","494251","0.0-10.0-0.0-0.0-0.0-1.19","null","<span style='color:GreenYellow; font-size: 70px;'>正确! </span>","null","","","","","","","","","","","","","","","","","","","","","","","feedback_test"
"","","","","","psychophysics","180","496432","0.0-10.0-0.0-0.0-0.0-0.20","1172","","f","","","","","","","","","","","","","key","f","16.666286821705434","768","428","f","true","img/S_ambi40.png","朋友","same",""
"","","","","","html-keyboard-response","181","496937","0.0-10.0-0.0-0.0-0.0-1.20","null","<span style='color:GreenYellow; font-size: 70px;'>正确! </span>","null","","","","","","","","","","","","","","","","","","","","","","","feedback_test"
"","","","","","psychophysics","182","498679","0.0-10.0-0.0-0.0-0.0-0.21","733","","j","","","","","","","","","","","","","key","j","16.666326923077015","768","428","j","true","img/H_ambi40.png","朋友","same",""
"","","","","","html-keyboard-response","183","499186","0.0-10.0-0.0-0.0-0.0-1.21","null","<span style='color:GreenYellow; font-size: 70px;'>正确! </span>","null","","","","","","","","","","","","","","","","","","","","","","","feedback_test"
"","","","","","psychophysics","184","501121","0.0-10.0-0.0-0.0-0.0-0.22","929","","f","","","","","","","","","","","","","key","f","16.67005217391289","768","428","f","true","img/C_ambi40.png","生人","same",""
"","","","","","html-keyboard-response","185","501625","0.0-10.0-0.0-0.0-0.0-1.22","null","<span style='color:GreenYellow; font-size: 70px;'>正确! </span>","null","","","","","","","","","","","","","","","","","","","","","","","feedback_test"
"","","","","","psychophysics","186","503345","0.0-10.0-0.0-0.0-0.0-0.23","713","","j","","","","","","","","","","","","","key","j","16.669715686274383","768","428","j","true","img/H_ambi40.png","朋友","same",""
"","","","","","html-keyboard-response","187","503857","0.0-10.0-0.0-0.0-0.0-1.23","null","<span style='color:GreenYellow; font-size: 70px;'>正确! </span>","null","","","","","","","","","","","","","","","","","","","","","","","feedback_test"
"","","","","","psychophysics","188","505538","0.0-10.0-0.0-0.0-0.0-0.24","674","","j","","","","","","","","","","","","","key","j","16.666359999999987","768","428","j","true","img/C_ambi40.png","自我","same",""
"","","","","","html-keyboard-response","189","506040","0.0-10.0-0.0-0.0-0.0-1.24","null","<span style='color:GreenYellow; font-size: 70px;'>正确! </span>","null","","","","","","","","","","","","","","","","","","","","","","","feedback_test"
"","","","","","psychophysics","190","507882","0.0-10.0-0.0-0.0-0.0-0.25","838","","f","","","","","","","","","","","","","key","f","16.667862385320756","768","428","f","true","img/H_ambi40.png","生人","same",""
"","","","","","html-keyboard-response","191","508395","0.0-10.0-0.0-0.0-0.0-1.25","null","<span style='color:GreenYellow; font-size: 70px;'>正确! </span>","null","","","","","","","","","","","","","","","","","","","","","","","feedback_test"
"","","","","","psychophysics","192","510319","0.0-10.0-0.0-0.0-0.0-0.26","919","","f","","","","","","","","","","","","","key","f","16.66742241379337","768","428","j","false","img/S_ambi40.png","生人","same",""
"","","","","","html-keyboard-response","193","510826","0.0-10.0-0.0-0.0-0.0-1.26","null","<span style='color:red; font-size: 70px;'>错误! </span>","null","","","","","","","","","","","","","","","","","","","","","","","feedback_test"
"","","","","","psychophysics","194","512615","0.0-10.0-0.0-0.0-0.0-0.27","781","","f","","","","","","","","","","","","","key","f","16.665518867924373","768","428","f","true","img/S_ambi40.png","自我","same",""
"","","","","","html-keyboard-response","195","513115","0.0-10.0-0.0-0.0-0.0-1.27","null","<span style='color:GreenYellow; font-size: 70px;'>正确! </span>","null","","","","","","","","","","","","","","","","","","","","","","","feedback_test"
"","","","","","psychophysics","196","514890","0.0-10.0-0.0-0.0-0.0-0.28","772","","j","","","","","","","","","","","","","key","j","16.54108571428584","768","428","j","true","img/H_ambi40.png","朋友","same",""
"","","","","","html-keyboard-response","197","515401","0.0-10.0-0.0-0.0-0.0-1.28","null","<span style='color:GreenYellow; font-size: 70px;'>正确! </span>","null","","","","","","","","","","","","","","","","","","","","","","","feedback_test"
"","","","","","psychophysics","198","517161","0.0-10.0-0.0-0.0-0.0-0.29","756","","j","","","","","","","","","","","","","key","j","16.668499999999767","768","428","j","true","img/C_ambi40.png","自我","same",""
"","","","","","html-keyboard-response","199","517676","0.0-10.0-0.0-0.0-0.0-1.29","null","<span style='color:GreenYellow; font-size: 70px;'>正确! </span>","null","","","","","","","","","","","","","","","","","","","","","","","feedback_test"
"","","","","","psychophysics","200","519307","0.0-10.0-0.0-0.0-0.0-0.30","626","","f","","","","","","","","","","","","","key","f","16.66537113402089","768","428","f","true","img/T_ambi40.png","をる","same",""
"","","","","","html-keyboard-response","201","519812","0.0-10.0-0.0-0.0-0.0-1.30","null","<span style='color:GreenYellow; font-size: 70px;'>正确! </span>","null","","","","","","","","","","","","","","","","","","","","","","","feedback_test"
"","","","","","psychophysics","202","521879","0.0-10.0-0.0-0.0-0.0-0.31","1061","","f","","","","","","","","","","","","","key","f","16.667349593496194","768","428","f","true","img/C_ambi40.png","朋友","same",""
"","","","","","html-keyboard-response","203","522383","0.0-10.0-0.0-0.0-0.0-1.31","null","<span style='color:GreenYellow; font-size: 70px;'>正确! </span>","null","","","","","","","","","","","","","","","","","","","","","","","feedback_test"
"","","","","","psychophysics","204","524265","0.0-10.0-0.0-0.0-0.0-0.32","879","","j","","","","","","","","","","","","","key","j","16.66704504504519","768","428","j","true","img/S_ambi40.png","生人","same",""
"","","","","","html-keyboard-response","205","524765","0.0-10.0-0.0-0.0-0.0-1.32","null","<span style='color:GreenYellow; font-size: 70px;'>正确! </span>","null","","","","","","","","","","","","","","","","","","","","","","","feedback_test"
"","","","","","psychophysics","206","526681","0.0-10.0-0.0-0.0-0.0-0.33","912","","f","","","","","","","","","","","","","key","f","16.668868421053048","768","428","f","true","img/H_ambi40.png","自我","same",""
"","","","","","html-keyboard-response","207","527188","0.0-10.0-0.0-0.0-0.0-1.33","null","<span style='color:GreenYellow; font-size: 70px;'>正确! </span>","null","","","","","","","","","","","","","","","","","","","","","","","feedback_test"
"","","","","","psychophysics","208","528859","0.0-10.0-0.0-0.0-0.0-0.34","667","","j","","","","","","","","","","","","","key","j","16.668060606059786","768","428","j","true","img/C_ambi40.png","自我","same",""
"","","","","","html-keyboard-response","209","529368","0.0-10.0-0.0-0.0-0.0-1.34","null","<span style='color:GreenYellow; font-size: 70px;'>正确! </span>","null","","","","","","","","","","","","","","","","","","","","","","","feedback_test"
"","","","","","psychophysics","210","530981","0.0-10.0-0.0-0.0-0.0-0.35","613","","f","","","","","","","","","","","","","key","f","16.668221052631882","768","428","f","true","img/T_ambi40.png","をる","same",""
"","","","","","html-keyboard-response","211","531488","0.0-10.0-0.0-0.0-0.0-1.35","null","<span style='color:GreenYellow; font-size: 70px;'>正确! </span>","null","","","","","","","","","","","","","","","","","","","","","","","feedback_test"
"","","","","","psychophysics","212","533308","0.0-10.0-0.0-0.0-0.0-0.36","814","","j","","","","","","","","","","","","","key","j","16.667888888888733","768","428","j","true","img/H_ambi40.png","朋友","same",""
"","","","","","html-keyboard-response","213","533823","0.0-10.0-0.0-0.0-0.0-1.36","null","<span style='color:GreenYellow; font-size: 70px;'>正确! </span>","null","","","","","","","","","","","","","","","","","","","","","","","feedback_test"
"","","","","","psychophysics","214","535524","0.0-10.0-0.0-0.0-0.0-0.37","700","","j","","","","","","","","","","","","","key","j","16.668940594059066","768","428","j","true","img/C_ambi40.png","自我","same",""
"","","","","","html-keyboard-response","215","536034","0.0-10.0-0.0-0.0-0.0-1.37","null","<span style='color:GreenYellow; font-size: 70px;'>正确! </span>","null","","","","","","","","","","","","","","","","","","","","","","","feedback_test"
"","","","","","psychophysics","216","538195","0.0-10.0-0.0-0.0-0.0-0.38","1160","","f","","","","","","","","","","","","","key","f","16.667507812499935","768","428","f","true","img/H_ambi40.png","生人","same",""
"","","","","","html-keyboard-response","217","538697","0.0-10.0-0.0-0.0-0.0-1.38","null","<span style='color:GreenYellow; font-size: 70px;'>正确! </span>","null","","","","","","","","","","","","","","","","","","","","","","","feedback_test"
"","","","","","psychophysics","218","540768","0.0-10.0-0.0-0.0-0.0-0.39","1066","","j","","","","","","","","","","","","","key","j","16.6664308943091","768","428","j","true","img/S_ambi40.png","生人","same",""
"","","","","","html-keyboard-response","219","541273","0.0-10.0-0.0-0.0-0.0-1.39","null","<span style='color:GreenYellow; font-size: 70px;'>正确! </span>","null","","","","","","","","","","","","","","","","","","","","","","","feedback_test"
"","","","","","psychophysics","220","543168","0.0-10.0-0.0-0.0-0.0-0.40","889","","j","","","","","","","","","","","","","key","j","16.665258928571088","768","428","j","true","img/H_ambi40.png","朋友","same",""
"","","","","","html-keyboard-response","221","543673","0.0-10.0-0.0-0.0-0.0-1.40","null","<span style='color:GreenYellow; font-size: 70px;'>正确! </span>","null","","","","","","","","","","","","","","","","","","","","","","","feedback_test"
"","","","","","psychophysics","222","545428","0.0-10.0-0.0-0.0-0.0-0.41","751","","f","","","","","","","","","","","","","key","f","16.668442307691574","768","428","f","true","img/S_ambi40.png","自我","same",""
"","","","","","html-keyboard-response","223","545943","0.0-10.0-0.0-0.0-0.0-1.41","null","<span style='color:GreenYellow; font-size: 70px;'>正确! </span>","null","","","","","","","","","","","","","","","","","","","","","","","feedback_test"
"","","","","","psychophysics","224","547624","0.0-10.0-0.0-0.0-0.0-0.42","677","","f","","","","","","","","","","","","","key","f","16.66941584158449","768","428","f","true","img/T_ambi40.png","をる","same",""
"","","","","","html-keyboard-response","225","548133","0.0-10.0-0.0-0.0-0.0-1.42","null","<span style='color:GreenYellow; font-size: 70px;'>正确! </span>","null","","","","","","","","","","","","","","","","","","","","","","","feedback_test"
"","","","","","psychophysics","226","549765","0.0-10.0-0.0-0.0-0.0-0.43","629","","j","","","","","","","","","","","","","key","j","16.66719587628859","768","428","f","false","img/C_ambi40.png","生人","same",""
"","","","","","html-keyboard-response","227","550282","0.0-10.0-0.0-0.0-0.0-1.43","null","<span style='color:red; font-size: 70px;'>错误! </span>","null","","","","","","","","","","","","","","","","","","","","","","","feedback_test"
"","","","","","psychophysics","228","552161","0.0-10.0-0.0-0.0-0.0-0.44","879","","j","","","","","","","","","","","","","key","j","16.667785714285856","768","428","j","true","img/S_ambi40.png","生人","same",""
"","","","","","html-keyboard-response","229","552662","0.0-10.0-0.0-0.0-0.0-1.44","null","<span style='color:GreenYellow; font-size: 70px;'>正确! </span>","null","","","","","","","","","","","","","","","","","","","","","","","feedback_test"
"","","","","","psychophysics","230","554382","0.0-10.0-0.0-0.0-0.0-0.45","712","","j","","","","","","","","","","","","","key","j","16.666833333333262","768","428","j","true","img/C_ambi40.png","自我","same",""
"","","","","","html-keyboard-response","231","554889","0.0-10.0-0.0-0.0-0.0-1.45","null","<span style='color:GreenYellow; font-size: 70px;'>正确! </span>","null","","","","","","","","","","","","","","","","","","","","","","","feedback_test"
"","","","","","psychophysics","232","556763","0.0-10.0-0.0-0.0-0.0-0.46","867","","j","","","","","","","","","","","","","key","j","16.667684684684794","768","428","j","true","img/S_ambi40.png","生人","same",""
"","","","","","html-keyboard-response","233","557273","0.0-10.0-0.0-0.0-0.0-1.46","null","<span style='color:GreenYellow; font-size: 70px;'>正确! </span>","null","","","","","","","","","","","","","","","","","","","","","","","feedback_test"
"","","","","","psychophysics","234","558919","0.0-10.0-0.0-0.0-0.0-0.47","642","","j","","","","","","","","","","","","","key","j","16.666183673469018","768","428","j","true","img/C_ambi40.png","自我","same",""
"","","","","","html-keyboard-response","235","559422","0.0-10.0-0.0-0.0-0.0-1.47","null","<span style='color:GreenYellow; font-size: 70px;'>正确! </span>","null","","","","","","","","","","","","","","","","","","","","","","","feedback_test"
"","","","","","psychophysics","236","561130","0.0-10.0-0.0-0.0-0.0-0.48","705","","f","","","","","","","","","","","","","key","f","16.667455445543983","768","428","f","true","img/H_ambi40.png","自我","same",""
"","","","","","html-keyboard-response","237","561642","0.0-10.0-0.0-0.0-0.0-1.48","null","<span style='color:GreenYellow; font-size: 70px;'>正确! </span>","null","","","","","","","","","","","","","","","","","","","","","","","feedback_test"
"","","","","","psychophysics","238","563306","0.0-10.0-0.0-0.0-0.0-0.49","661","","f","","","","","","","","","","","","","key","f","16.666343434343368","768","428","f","true","img/T_ambi40.png","をる","same",""
"","","","","","html-keyboard-response","239","563822","0.0-10.0-0.0-0.0-0.0-1.49","null","<span style='color:GreenYellow; font-size: 70px;'>正确! </span>","null","","","","","","","","","","","","","","","","","","","","","","","feedback_test"
"","","","","","psychophysics","240","565612","0.0-10.0-0.0-0.0-0.0-0.50","784","","j","","","","","","","","","","","","","key","j","16.666867924529075","768","428","j","true","img/H_ambi40.png","朋友","same",""
"","","","","","html-keyboard-response","241","566115","0.0-10.0-0.0-0.0-0.0-1.50","null","<span style='color:GreenYellow; font-size: 70px;'>正确! </span>","null","","","","","","","","","","","","","","","","","","","","","","","feedback_test"
"","","","","","psychophysics","242","568019","0.0-10.0-0.0-0.0-0.0-0.51","901","","j","","","","","","","","","","","","","key","j","16.668336283185816","768","428","f","false","img/S_ambi40.png","朋友","same",""
"","","","","","html-keyboard-response","243","568528","0.0-10.0-0.0-0.0-0.0-1.51","null","<span style='color:red; font-size: 70px;'>错误! </span>","null","","","","","","","","","","","","","","","","","","","","","","","feedback_test"
"","","","","","psychophysics","244","570324","0.0-10.0-0.0-0.0-0.0-0.52","785","","f","","","","","","","","","","","","","key","f","16.669878504673132","768","428","f","true","img/C_ambi40.png","朋友","same",""
"","","","","","html-keyboard-response","245","570827","0.0-10.0-0.0-0.0-0.0-1.52","null","<span style='color:GreenYellow; font-size: 70px;'>正确! </span>","null","","","","","","","","","","","","","","","","","","","","","","","feedback_test"
"","","","","","psychophysics","246","572440","0.0-10.0-0.0-0.0-0.0-0.53","611","","f","","","","","","","","","","","","","key","f","16.66732291666752","768","428","f","true","img/T_ambi40.png","をる","same",""
"","","","","","html-keyboard-response","247","572956","0.0-10.0-0.0-0.0-0.0-1.53","null","<span style='color:GreenYellow; font-size: 70px;'>正确! </span>","null","","","","","","","","","","","","","","","","","","","","","","","feedback_test"
"","","","","","psychophysics","248","574826","0.0-10.0-0.0-0.0-0.0-0.54","861","","j","","","","","","","","","","","","","key","j","16.66654954954923","768","428","f","false","img/S_ambi40.png","朋友","same",""
"","","","","","html-keyboard-response","249","575328","0.0-10.0-0.0-0.0-0.0-1.54","null","<span style='color:red; font-size: 70px;'>错误! </span>","null","","","","","","","","","","","","","","","","","","","","","","","feedback_test"
"","","","","","psychophysics","250","577041","0.0-10.0-0.0-0.0-0.0-0.55","704","","f","","","","","","","","","","","","","key","f","16.66643689320314","768","428","f","true","img/C_ambi40.png","生人","same",""
"","","","","","html-keyboard-response","251","577547","0.0-10.0-0.0-0.0-0.0-1.55","null","<span style='color:GreenYellow; font-size: 70px;'>正确! </span>","null","","","","","","","","","","","","","","","","","","","","","","","feedback_test"
"","","","","","psychophysics","252","579412","0.0-10.0-0.0-0.0-0.0-0.56","858","","j","","","","","","","","","","","","","key","j","16.667189189188836","768","428","j","true","img/S_ambi40.png","生人","same",""
"","","","","","html-keyboard-response","253","579927","0.0-10.0-0.0-0.0-0.0-1.56","null","<span style='color:GreenYellow; font-size: 70px;'>正确! </span>","null","","","","","","","","","","","","","","","","","","","","","","","feedback_test"
"","","","","","psychophysics","254","581593","0.0-10.0-0.0-0.0-0.0-0.57","661","","j","","","","","","","","","","","","","key","j","16.666979797979383","768","428","j","true","img/H_ambi40.png","朋友","same",""
"","","","","","html-keyboard-response","255","582094","0.0-10.0-0.0-0.0-0.0-1.57","null","<span style='color:GreenYellow; font-size: 70px;'>正确! </span>","null","","","","","","","","","","","","","","","","","","","","","","","feedback_test"
"","","","","","psychophysics","256","583762","0.0-10.0-0.0-0.0-0.0-0.58","661","","f","","","","","","","","","","","","","key","f","16.66960606060574","768","428","f","true","img/H_ambi40.png","自我","same",""
"","","","","","html-keyboard-response","257","584274","0.0-10.0-0.0-0.0-0.0-1.58","null","<span style='color:GreenYellow; font-size: 70px;'>正确! </span>","null","","","","","","","","","","","","","","","","","","","","","","","feedback_test"
"","","","","","psychophysics","258","585944","0.0-10.0-0.0-0.0-0.0-0.59","666","","j","","","","","","","","","","","","","key","j","16.67167999999947","768","428","j","true","img/H_ambi40.png","朋友","same",""
"","","","","","html-keyboard-response","259","586457","0.0-10.0-0.0-0.0-0.0-1.59","null","<span style='color:GreenYellow; font-size: 70px;'>正确! </span>","null","","","","","","","","","","","","","","","","","","","","","","","feedback_test"
"","","","","","psychophysics","260","588225","0.0-10.0-0.0-0.0-0.0-0.60","762","","f","","","","","","","","","","","","","key","f","16.665780952381013","768","428","f","true","img/T_ambi40.png","をる","same",""
"","","","","","html-keyboard-response","261","588732","0.0-10.0-0.0-0.0-0.0-1.60","null","<span style='color:GreenYellow; font-size: 70px;'>正确! </span>","null","","","","","","","","","","","","","","","","","","","","","","","feedback_test"
"","","","","","psychophysics","262","590334","0.0-10.0-0.0-0.0-0.0-0.61","600","","f","","","","","","","","","","","","","key","f","16.67065263157833","768","428","f","true","img/T_ambi40.png","をる","same",""
"","","","","","html-keyboard-response","263","590848","0.0-10.0-0.0-0.0-0.0-1.61","null","<span style='color:GreenYellow; font-size: 70px;'>正确! </span>","null","","","","","","","","","","","","","","","","","","","","","","","feedback_test"
"","","","","","psychophysics","264","592349","0.0-10.0-0.0-0.0-0.0-0.62","498","","j","","","","","","","","","","","","","key","j","16.667764044944928","768","428","j","true","img/C_ambi40.png","自我","same",""
"","","","","","html-keyboard-response","265","592860","0.0-10.0-0.0-0.0-0.0-1.62","null","<span style='color:GreenYellow; font-size: 70px;'>正确! </span>","null","","","","","","","","","","","","","","","","","","","","","","","feedback_test"
"","","","","","psychophysics","266","594676","0.0-10.0-0.0-0.0-0.0-0.63","812","","j","","","","","","","","","","","","","key","j","16.667055555555702","768","428","j","true","img/C_ambi40.png","自我","same",""
"","","","","","html-keyboard-response","267","595179","0.0-10.0-0.0-0.0-0.0-1.63","null","<span style='color:GreenYellow; font-size: 70px;'>正确! </span>","null","","","","","","","","","","","","","","","","","","","","","","","feedback_test"
"","","","","","psychophysics","268","596817","0.0-10.0-0.0-0.0-0.0-0.64","632","","f","","","","","","","","","","","","","key","f","16.66794845360792","768","428","j","false","img/S_ambi40.png","生人","same",""
"","","","","","html-keyboard-response","269","597323","0.0-10.0-0.0-0.0-0.0-1.64","null","<span style='color:red; font-size: 70px;'>错误! </span>","null","","","","","","","","","","","","","","","","","","","","","","","feedback_test"
"","","","","","psychophysics","270","598907","0.0-10.0-0.0-0.0-0.0-0.65","581","","j","","","","","","","","","","","","","key","j","16.667778947368557","768","428","j","true","img/C_ambi40.png","自我","same",""
"","","","","","html-keyboard-response","271","599411","0.0-10.0-0.0-0.0-0.0-1.65","null","<span style='color:GreenYellow; font-size: 70px;'>正确! </span>","null","","","","","","","","","","","","","","","","","","","","","","","feedback_test"
"","","","","","psychophysics","272","601237","0.0-10.0-0.0-0.0-0.0-0.66","823","","f","","","","","","","","","","","","","key","f","16.66714814814838","768","428","f","true","img/H_ambi40.png","生人","same",""
"","","","","","html-keyboard-response","273","601742","0.0-10.0-0.0-0.0-0.0-1.66","null","<span style='color:GreenYellow; font-size: 70px;'>正确! </span>","null","","","","","","","","","","","","","","","","","","","","","","","feedback_test"
"","","","","","psychophysics","274","603443","0.0-10.0-0.0-0.0-0.0-0.67","692","","j","","","","","","","","","","","","","key","j","16.6677623762378","768","428","j","true","img/H_ambi40.png","朋友","same",""
"","","","","","html-keyboard-response","275","603948","0.0-10.0-0.0-0.0-0.0-1.67","null","<span style='color:GreenYellow; font-size: 70px;'>正确! </span>","null","","","","","","","","","","","","","","","","","","","","","","","feedback_test"
"","","","","","psychophysics","276","605718","0.0-10.0-0.0-0.0-0.0-0.68","763","","f","","","","","","","","","","","","","key","f","16.668676190476287","768","428","f","true","img/C_ambi40.png","朋友","same",""
"","","","","","html-keyboard-response","277","606226","0.0-10.0-0.0-0.0-0.0-1.68","null","<span style='color:GreenYellow; font-size: 70px;'>正确! </span>","null","","","","","","","","","","","","","","","","","","","","","","","feedback_test"
"","","","","","psychophysics","278","607995","0.0-10.0-0.0-0.0-0.0-0.69","767","","j","","","","","","","","","","","","","key","j","16.666285714285358","768","428","j","true","img/S_ambi40.png","生人","same",""
"","","","","","html-keyboard-response","279","608498","0.0-10.0-0.0-0.0-0.0-1.69","null","<span style='color:GreenYellow; font-size: 70px;'>正确! </span>","null","","","","","","","","","","","","","","","","","","","","","","","feedback_test"
"","","","","","psychophysics","280","610145","0.0-10.0-0.0-0.0-0.0-0.70","643","","f","","","","","","","","","","","","","key","f","16.666530612244376","768","428","f","true","img/T_ambi40.png","をる","same",""
"","","","","","html-keyboard-response","281","610659","0.0-10.0-0.0-0.0-0.0-1.70","null","<span style='color:GreenYellow; font-size: 70px;'>正确! </span>","null","","","","","","","","","","","","","","","","","","","","","","","feedback_test"
"","","","","","psychophysics","282","612766","0.0-10.0-0.0-0.0-0.0-0.71","1102","","f","","","","","","","","","","","","","key","f","16.670190476190616","768","428","f","true","img/S_ambi40.png","自我","same",""
"","","","","","html-keyboard-response","283","613281","0.0-10.0-0.0-0.0-0.0-1.71","null","<span style='color:GreenYellow; font-size: 70px;'>正确! </span>","null","","","","","","","","","","","","","","","","","","","","","","","feedback_test"
"","","","","","psychophysics","284","615228","0.0-10.0-0.0-0.0-0.0-0.72","938","","f","","","","","","","","","","","","","key","f","16.66674137931088","768","428","f","true","img/S_ambi40.png","朋友","same",""
"","","","","","html-keyboard-response","285","615734","0.0-10.0-0.0-0.0-0.0-1.72","null","<span style='color:GreenYellow; font-size: 70px;'>正确! </span>","null","","","","","","","","","","","","","","","","","","","","","","","feedback_test"
"","","","","","psychophysics","286","617733","0.0-10.0-0.0-0.0-0.0-0.73","994","","f","","","","","","","","","","","","","key","f","16.66763025210063","768","428","j","false","img/S_ambi40.png","生人","same",""
"","","","","","html-keyboard-response","287","618243","0.0-10.0-0.0-0.0-0.0-1.73","null","<span style='color:red; font-size: 70px;'>错误! </span>","null","","","","","","","","","","","","","","","","","","","","","","","feedback_test"
"","","","","","psychophysics","288","620367","0.0-10.0-0.0-0.0-0.0-0.74","1118","","f","","","","","","","","","","","","","key","f","16.66770634920584","768","428","f","true","img/C_ambi40.png","朋友","same",""
"","","","","","html-keyboard-response","289","620871","0.0-10.0-0.0-0.0-0.0-1.74","null","<span style='color:GreenYellow; font-size: 70px;'>正确! </span>","null","","","","","","","","","","","","","","","","","","","","","","","feedback_test"
"","","","","","psychophysics","290","622796","0.0-10.0-0.0-0.0-0.0-0.75","924","","j","","","","","","","","","","","","","key","j","16.556491228070705","768","428","j","true","img/S_ambi40.png","生人","same",""
"","","","","","html-keyboard-response","291","623304","0.0-10.0-0.0-0.0-0.0-1.75","null","<span style='color:GreenYellow; font-size: 70px;'>正确! </span>","null","","","","","","","","","","","","","","","","","","","","","","","feedback_test"
"","","","","","psychophysics","292","624928","0.0-10.0-0.0-0.0-0.0-0.76","620","","f","","","","","","","","","","","","","key","f","16.670371134021348","768","428","f","true","img/T_ambi40.png","をる","same",""
"","","","","","html-keyboard-response","293","625437","0.0-10.0-0.0-0.0-0.0-1.76","null","<span style='color:GreenYellow; font-size: 70px;'>正确! </span>","null","","","","","","","","","","","","","","","","","","","","","","","feedback_test"
"","","","","","psychophysics","294","627152","0.0-10.0-0.0-0.0-0.0-0.77","713","","f","","","","","","","","","","","","","key","f","16.66915686274582","768","428","f","true","img/S_ambi40.png","自我","same",""
"","","","","","html-keyboard-response","295","627656","0.0-10.0-0.0-0.0-0.0-1.77","null","<span style='color:GreenYellow; font-size: 70px;'>正确! </span>","null","","","","","","","","","","","","","","","","","","","","","","","feedback_test"
"","","","","","psychophysics","296","629199","0.0-10.0-0.0-0.0-0.0-0.78","542","","j","","","","","","","","","","","","","key","j","16.666868131867467","768","428","j","true","img/C_ambi40.png","自我","same",""
"","","","","","html-keyboard-response","297","629702","0.0-10.0-0.0-0.0-0.0-1.78","null","<span style='color:GreenYellow; font-size: 70px;'>正确! </span>","null","","","","","","","","","","","","","","","","","","","","","","","feedback_test"
"","","","","","psychophysics","298","631629","0.0-10.0-0.0-0.0-0.0-0.79","926","","j","","","","","","","","","","","","","key","j","16.668391304347747","768","428","j","true","img/H_ambi40.png","朋友","same",""
"","","","","","html-keyboard-response","299","632132","0.0-10.0-0.0-0.0-0.0-1.79","null","<span style='color:GreenYellow; font-size: 70px;'>正确! </span>","null","","","","","","","","","","","","","","","","","","","","","","","feedback_test"
"","","","","","psychophysics","300","633965","0.0-10.0-0.0-0.0-0.0-0.80","831","","f","","","","","","","","","","","","","key","f","16.669890909091656","768","428","f","true","img/H_ambi40.png","生人","same",""
"","","","","","html-keyboard-response","301","634472","0.0-10.0-0.0-0.0-0.0-1.80","null","<span style='color:GreenYellow; font-size: 70px;'>正确! </span>","null","","","","","","","","","","","","","","","","","","","","","","","feedback_test"
"","","","","","psychophysics","302","636046","0.0-10.0-0.0-0.0-0.0-0.81","572","","j","","","","","","","","","","","","","key","j","16.522516129031448","768","428","j","true","img/C_ambi40.png","自我","same",""
"","","","","","html-keyboard-response","303","636558","0.0-10.0-0.0-0.0-0.0-1.81","null","<span style='color:GreenYellow; font-size: 70px;'>正确! </span>","null","","","","","","","","","","","","","","","","","","","","","","","feedback_test"
"","","","","","psychophysics","304","638211","0.0-10.0-0.0-0.0-0.0-0.82","653","","j","","","","","","","","","","","","","key","j","16.66928571428657","768","428","j","true","img/H_ambi40.png","朋友","same",""
"","","","","","html-keyboard-response","305","638727","0.0-10.0-0.0-0.0-0.0-1.82","null","<span style='color:GreenYellow; font-size: 70px;'>正确! </span>","null","","","","","","","","","","","","","","","","","","","","","","","feedback_test"
"","","","","","psychophysics","306","640356","0.0-10.0-0.0-0.0-0.0-0.83","620","","j","","","","","","","","","","","","","key","j","16.666697916666937","768","428","j","true","img/C_ambi40.png","自我","same",""
"","","","","","html-keyboard-response","307","640866","0.0-10.0-0.0-0.0-0.0-1.83","null","<span style='color:GreenYellow; font-size: 70px;'>正确! </span>","null","","","","","","","","","","","","","","","","","","","","","","","feedback_test"
"","","","","","psychophysics","308","642422","0.0-10.0-0.0-0.0-0.0-0.84","552","","f","","","","","","","","","","","","","key","f","16.66739130434808","768","428","f","true","img/T_ambi40.png","をる","same",""
"","","","","","html-keyboard-response","309","642935","0.0-10.0-0.0-0.0-0.0-1.84","null","<span style='color:GreenYellow; font-size: 70px;'>正确! </span>","null","","","","","","","","","","","","","","","","","","","","","","","feedback_test"
"","","","","","psychophysics","310","644858","0.0-10.0-0.0-0.0-0.0-0.85","916","","f","","","","","","","","","","","","","key","f","16.66594782608622","768","428","f","true","img/H_ambi40.png","自我","same",""
"","","","","","html-keyboard-response","311","645373","0.0-10.0-0.0-0.0-0.0-1.85","null","<span style='color:GreenYellow; font-size: 70px;'>正确! </span>","null","","","","","","","","","","","","","","","","","","","","","","","feedback_test"
"","","","","","psychophysics","312","646938","0.0-10.0-0.0-0.0-0.0-0.86","563","","f","","","","","","","","","","","","","key","f","16.667666666666598","768","428","f","true","img/T_ambi40.png","をる","same",""
"","","","","","html-keyboard-response","313","647448","0.0-10.0-0.0-0.0-0.0-1.86","null","<span style='color:GreenYellow; font-size: 70px;'>正确! </span>","null","","","","","","","","","","","","","","","","","","","","","","","feedback_test"
"","","","","","psychophysics","314","648994","0.0-10.0-0.0-0.0-0.0-0.87","540","","j","","","","","","","","","","","","","key","j","16.66731521739174","768","428","j","true","img/H_ambi40.png","朋友","same",""
"","","","","","html-keyboard-response","315","649503","0.0-10.0-0.0-0.0-0.0-1.87","null","<span style='color:GreenYellow; font-size: 70px;'>正确! </span>","null","","","","","","","","","","","","","","","","","","","","","","","feedback_test"
"","","","","","psychophysics","316","651049","0.0-10.0-0.0-0.0-0.0-0.88","541","","f","","","","","","","","","","","","","key","f","16.666891304348372","768","428","j","false","img/S_ambi40.png","生人","same",""
"","","","","","html-keyboard-response","317","651563","0.0-10.0-0.0-0.0-0.0-1.88","null","<span style='color:red; font-size: 70px;'>错误! </span>","null","","","","","","","","","","","","","","","","","","","","","","","feedback_test"
"","","","","","psychophysics","318","653214","0.0-10.0-0.0-0.0-0.0-0.89","648","","f","","","","","","","","","","","","","key","f","16.673121212120872","768","428","f","true","img/C_ambi40.png","生人","same",""
"","","","","","html-keyboard-response","319","653718","0.0-10.0-0.0-0.0-0.0-1.89","null","<span style='color:GreenYellow; font-size: 70px;'>正确! </span>","null","","","","","","","","","","","","","","","","","","","","","","","feedback_test"
"","","","","","psychophysics","320","655295","0.0-10.0-0.0-0.0-0.0-0.90","572","","j","","","","","","","","","","","","","key","j","16.668138297872886","768","428","j","true","img/H_ambi40.png","朋友","same",""
"","","","","","html-keyboard-response","321","655802","0.0-10.0-0.0-0.0-0.0-1.90","null","<span style='color:GreenYellow; font-size: 70px;'>正确! </span>","null","","","","","","","","","","","","","","","","","","","","","","","feedback_test"
"","","","","","psychophysics","322","657450","0.0-10.0-0.0-0.0-0.0-0.91","642","","f","","","","","","","","","","","","","key","f","16.66701020408132","768","428","j","false","img/S_ambi40.png","生人","same",""
"","","","","","html-keyboard-response","323","657955","0.0-10.0-0.0-0.0-0.0-1.91","null","<span style='color:red; font-size: 70px;'>错误! </span>","null","","","","","","","","","","","","","","","","","","","","","","","feedback_test"
"","","","","","psychophysics","324","659416","0.0-10.0-0.0-0.0-0.0-0.92","455","","j","","","","","","","","","","","","","key","j","16.66717241379304","768","428","j","true","img/C_ambi40.png","自我","same",""
"","","","","","html-keyboard-response","325","659919","0.0-10.0-0.0-0.0-0.0-1.92","null","<span style='color:GreenYellow; font-size: 70px;'>正确! </span>","null","","","","","","","","","","","","","","","","","","","","","","","feedback_test"
"","","","","","psychophysics","326","661531","0.0-10.0-0.0-0.0-0.0-0.93","609","","f","","","","","","","","","","","","","key","f","16.67005208333285","768","428","f","true","img/H_ambi40.png","自我","same",""
"","","","","","html-keyboard-response","327","662045","0.0-10.0-0.0-0.0-0.0-1.93","null","<span style='color:GreenYellow; font-size: 70px;'>正确! </span>","null","","","","","","","","","","","","","","","","","","","","","","","feedback_test"
"","","","","","psychophysics","328","663497","0.0-10.0-0.0-0.0-0.0-0.94","447","","j","","","","","","","","","","","","","key","j","16.666604651163905","768","428","f","false","img/S_ambi40.png","朋友","same",""
"","","","","","html-keyboard-response","329","664009","0.0-10.0-0.0-0.0-0.0-1.94","null","<span style='color:red; font-size: 70px;'>错误! </span>","null","","","","","","","","","","","","","","","","","","","","","","","feedback_test"
"","","","","","psychophysics","330","665566","0.0-10.0-0.0-0.0-0.0-0.95","557","","f","","","","","","","","","","","","","key","f","16.666836956522236","768","428","f","true","img/T_ambi40.png","をる","same",""
"","","","","","html-keyboard-response","331","666077","0.0-10.0-0.0-0.0-0.0-1.95","null","<span style='color:GreenYellow; font-size: 70px;'>正确! </span>","null","","","","","","","","","","","","","","","","","","","","","","","feedback_test"
"","","","","","psychophysics","332","667671","0.0-10.0-0.0-0.0-0.0-0.96","586","","j","","","","","","","","","","","","","key","j","16.66776595744577","768","428","j","true","img/H_ambi40.png","朋友","same",""
"","","","","","html-keyboard-response","333","668186","0.0-10.0-0.0-0.0-0.0-1.96","null","<span style='color:GreenYellow; font-size: 70px;'>正确! </span>","null","","","","","","","","","","","","","","","","","","","","","","","feedback_test"
"","","","","","psychophysics","334","669732","0.0-10.0-0.0-0.0-0.0-0.97","539","","f","","","","","","","","","","","","","key","f","16.669445652174307","768","428","f","true","img/T_ambi40.png","をる","same",""
"","","","","","html-keyboard-response","335","670247","0.0-10.0-0.0-0.0-0.0-1.97","null","<span style='color:GreenYellow; font-size: 70px;'>正确! </span>","null","","","","","","","","","","","","","","","","","","","","","","","feedback_test"
"","","","","","psychophysics","336","671651","0.0-10.0-0.0-0.0-0.0-0.98","401","","j","","","","","","","","","","","","","key","j","16.667602409638118","768","428","f","false","img/C_ambi40.png","朋友","same",""
"","","","","","html-keyboard-response","337","672164","0.0-10.0-0.0-0.0-0.0-1.98","null","<span style='color:red; font-size: 70px;'>错误! </span>","null","","","","","","","","","","","","","","","","","","","","","","","feedback_test"
"","","","","","psychophysics","338","673718","0.0-10.0-0.0-0.0-0.0-0.99","546","","f","","","","","","","","","","","","","key","f","16.66793478260819","768","428","f","true","img/H_ambi40.png","生人","same",""
"","","","","","html-keyboard-response","339","674228","0.0-10.0-0.0-0.0-0.0-1.99","null","<span style='color:GreenYellow; font-size: 70px;'>正确! </span>","null","","","","","","","","","","","","","","","","","","","","","","","feedback_test"
"","","","","","psychophysics","340","675737","0.0-10.0-0.0-0.0-0.0-0.100","505","","j","","","","","","","","","","","","","key","j","16.66617777777784","768","428","j","true","img/C_ambi40.png","自我","same",""
"","","","","","html-keyboard-response","341","676239","0.0-10.0-0.0-0.0-0.0-1.100","null","<span style='color:GreenYellow; font-size: 70px;'>正确! </span>","null","","","","","","","","","","","","","","","","","","","","","","","feedback_test"
"","","","","","psychophysics","342","677948","0.0-10.0-0.0-0.0-0.0-0.101","703","","j","","","","","","","","","","","","","key","j","16.667392156862963","768","428","j","true","img/H_ambi40.png","朋友","same",""
"","","","","","html-keyboard-response","343","678461","0.0-10.0-0.0-0.0-0.0-1.101","null","<span style='color:GreenYellow; font-size: 70px;'>正确! </span>","null","","","","","","","","","","","","","","","","","","","","","","","feedback_test"
"","","","","","psychophysics","344","680034","0.0-10.0-0.0-0.0-0.0-0.102","564","","f","","","","","","","","","","","","","key","f","16.66741935483816","768","428","f","true","img/S_ambi40.png","自我","same",""
"","","","","","html-keyboard-response","345","680540","0.0-10.0-0.0-0.0-0.0-1.102","null","<span style='color:GreenYellow; font-size: 70px;'>正确! </span>","null","","","","","","","","","","","","","","","","","","","","","","","feedback_test"
"","","","","","psychophysics","346","682098","0.0-10.0-0.0-0.0-0.0-0.103","554","","f","","","","","","","","","","","","","key","f","16.539619565217595","768","428","f","true","img/T_ambi40.png","をる","same",""
"","","","","","html-keyboard-response","347","682613","0.0-10.0-0.0-0.0-0.0-1.103","null","<span style='color:GreenYellow; font-size: 70px;'>正确! </span>","null","","","","","","","","","","","","","","","","","","","","","","","feedback_test"
"","","","","","psychophysics","348","684481","0.0-10.0-0.0-0.0-0.0-0.104","853","","j","","","","","","","","","","","","","key","j","16.66783783783788","768","428","j","true","img/S_ambi40.png","生人","same",""
"","","","","","html-keyboard-response","349","684991","0.0-10.0-0.0-0.0-0.0-1.104","null","<span style='color:GreenYellow; font-size: 70px;'>正确! </span>","null","","","","","","","","","","","","","","","","","","","","","","","feedback_test"
"","","","","","psychophysics","350","686517","0.0-10.0-0.0-0.0-0.0-0.105","522","","j","","","","","","","","","","","","","key","j","16.667901098902163","768","428","j","true","img/C_ambi40.png","自我","same",""
"","","","","","html-keyboard-response","351","687023","0.0-10.0-0.0-0.0-0.0-1.105","null","<span style='color:GreenYellow; font-size: 70px;'>正确! </span>","null","","","","","","","","","","","","","","","","","","","","","","","feedback_test"
"","","","","","psychophysics","352","688675","0.0-10.0-0.0-0.0-0.0-0.106","647","","f","","","","","","","","","","","","","key","f","16.83807142857077","768","428","f","true","img/C_ambi40.png","生人","same",""
"","","","","","html-keyboard-response","353","689188","0.0-10.0-0.0-0.0-0.0-1.106","null","<span style='color:GreenYellow; font-size: 70px;'>正确! </span>","null","","","","","","","","","","","","","","","","","","","","","","","feedback_test"
"","","","","","psychophysics","354","690963","0.0-10.0-0.0-0.0-0.0-0.107","770","","f","","","","","","","","","","","","","key","f","16.669556603773568","768","428","j","false","img/S_ambi40.png","生人","same",""
"","","","","","html-keyboard-response","355","691474","0.0-10.0-0.0-0.0-0.0-1.107","null","<span style='color:red; font-size: 70px;'>错误! </span>","null","","","","","","","","","","","","","","","","","","","","","","","feedback_test"
"","","","","","html-keyboard-response","356","694821","0.0-10.0-0.0-0.0-1.0","3345","<style>.context{color:white; font-size: 35px; line-height:40px}</style>                          <div><p class='context'>您正确回答了90% 的试次。</p><p class='context'>您的平均反应时为763毫秒。</p><p class='context'>请按任意键进入休息</p></div>"," ","","","","","","","","","","","","","","","","","","","","","","",""
"","","","","","html-button-response","357","753469","0.0-10.0-0.0-0.0-2.0","58647","
                    <p>您当前还剩余5组实验</p>
                    <p>现在是休息时间，当您结束休息后，您可以点击 结束休息 按钮 继续</p>
                    <p>建议休息时间还剩余<span id=""iii"">60</span>秒</p>","0","","","","","","","","","","","","","","","","","","","","","","",""
"","","","","","psychophysics","358","755733","0.0-10.0-0.0-0.0-0.1-0.108","1260","","j","","","","","","","","","","","","","key","j","16.668577777778005","768","428","j","true","img/H_ambi40.png","朋友","same",""
"","","","","","html-keyboard-response","359","756236","0.0-10.0-0.0-0.0-0.1-1.108","null","<span style='color:GreenYellow; font-size: 70px;'>正确! </span>","null","","","","","","","","","","","","","","","","","","","","","","","feedback_test"
"","","","","","psychophysics","360","758243","0.0-10.0-0.0-0.0-0.1-0.109","1000","","j","","","","","","","","","","","","","key","j","16.667067226890218","768","428","j","true","img/H_ambi40.png","朋友","same",""
"","","","","","html-keyboard-response","361","758755","0.0-10.0-0.0-0.0-0.1-1.109","null","<span style='color:GreenYellow; font-size: 70px;'>正确! </span>","null","","","","","","","","","","","","","","","","","","","","","","","feedback_test"
"","","","","","psychophysics","362","760479","0.0-10.0-0.0-0.0-0.1-0.110","718","","j","","","","","","","","","","","","","key","j","16.668019607843483","768","428","j","true","img/C_ambi40.png","自我","same",""
"","","","","","html-keyboard-response","363","760981","0.0-10.0-0.0-0.0-0.1-1.110","null","<span style='color:GreenYellow; font-size: 70px;'>正确! </span>","null","","","","","","","","","","","","","","","","","","","","","","","feedback_test"
"","","","","","psychophysics","364","763153","0.0-10.0-0.0-0.0-0.1-0.111","1171","","f","","","","","","","","","","","","","key","f","16.667612403100573","768","428","f","true","img/C_ambi40.png","朋友","same",""
"","","","","","html-keyboard-response","365","763665","0.0-10.0-0.0-0.0-0.1-1.111","null","<span style='color:GreenYellow; font-size: 70px;'>正确! </span>","null","","","","","","","","","","","","","","","","","","","","","","","feedback_test"
"","","","","","psychophysics","366","765448","0.0-10.0-0.0-0.0-0.1-0.112","774","","f","","","","","","","","","","","","","key","f","16.668057142857773","768","428","f","true","img/S_ambi40.png","朋友","same",""
"","","","","","html-keyboard-response","367","765958","0.0-10.0-0.0-0.0-0.1-1.112","null","<span style='color:GreenYellow; font-size: 70px;'>正确! </span>","null","","","","","","","","","","","","","","","","","","","","","","","feedback_test"
"","","","","","psychophysics","368","767548","0.0-10.0-0.0-0.0-0.1-0.113","588","","j","","","","","","","","","","","","","key","j","16.669223404255387","768","428","j","true","img/C_ambi40.png","自我","same",""
"","","","","","html-keyboard-response","369","768057","0.0-10.0-0.0-0.0-0.1-1.113","null","<span style='color:GreenYellow; font-size: 70px;'>正确! </span>","null","","","","","","","","","","","","","","","","","","","","","","","feedback_test"
"","","","","","psychophysics","370","769935","0.0-10.0-0.0-0.0-0.1-0.114","874","","f","","","","","","","","","","","","","key","f","16.66754464285727","768","428","f","true","img/H_ambi40.png","自我","same",""
"","","","","","html-keyboard-response","371","770443","0.0-10.0-0.0-0.0-0.1-1.114","null","<span style='color:GreenYellow; font-size: 70px;'>正确! </span>","null","","","","","","","","","","","","","","","","","","","","","","","feedback_test"
"","","","","","psychophysics","372","772114","0.0-10.0-0.0-0.0-0.1-0.115","668","","f","","","","","","","","","","","","","key","f","16.668424242424233","768","428","f","true","img/T_ambi40.png","をる","same",""
"","","","","","html-keyboard-response","373","772628","0.0-10.0-0.0-0.0-0.1-1.115","null","<span style='color:GreenYellow; font-size: 70px;'>正确! </span>","null","","","","","","","","","","","","","","","","","","","","","","","feedback_test"
"","","","","","psychophysics","374","774101","0.0-10.0-0.0-0.0-0.1-0.116","468","","f","","","","","","","","","","","","","key","f","16.668795454546025","768","428","f","true","img/T_ambi40.png","をる","same",""
"","","","","","html-keyboard-response","375","774610","0.0-10.0-0.0-0.0-0.1-1.116","null","<span style='color:GreenYellow; font-size: 70px;'>正确! </span>","null","","","","","","","","","","","","","","","","","","","","","","","feedback_test"
"","","","","","psychophysics","376","776129","0.0-10.0-0.0-0.0-0.1-0.117","512","","j","","","","","","","","","","","","","key","j","16.667472527472427","768","428","j","true","img/C_ambi40.png","自我","same",""
"","","","","","html-keyboard-response","377","776639","0.0-10.0-0.0-0.0-0.1-1.117","null","<span style='color:GreenYellow; font-size: 70px;'>正确! </span>","null","","","","","","","","","","","","","","","","","","","","","","","feedback_test"
"","","","","","psychophysics","378","778552","0.0-10.0-0.0-0.0-0.1-0.118","906","","j","","","","","","","","","","","","","key","j","16.669175438596174","768","428","j","true","img/S_ambi40.png","生人","same",""
"","","","","","html-keyboard-response","379","779068","0.0-10.0-0.0-0.0-0.1-1.118","null","<span style='color:GreenYellow; font-size: 70px;'>正确! </span>","null","","","","","","","","","","","","","","","","","","","","","","","feedback_test"
"","","","","","psychophysics","380","780822","0.0-10.0-0.0-0.0-0.1-0.119","748","","f","","","","","","","","","","","","","key","f","16.667509615385477","768","428","f","true","img/S_ambi40.png","自我","same",""
"","","","","","html-keyboard-response","381","781327","0.0-10.0-0.0-0.0-0.1-1.119","null","<span style='color:GreenYellow; font-size: 70px;'>正确! </span>","null","","","","","","","","","","","","","","","","","","","","","","","feedback_test"
"","","","","","psychophysics","382","783037","0.0-10.0-0.0-0.0-0.1-0.120","703","","j","","","","","","","","","","","","","key","j","16.666774509803336","768","428","j","true","img/H_ambi40.png","朋友","same",""
"","","","","","html-keyboard-response","383","783544","0.0-10.0-0.0-0.0-0.1-1.120","null","<span style='color:GreenYellow; font-size: 70px;'>正确! </span>","null","","","","","","","","","","","","","","","","","","","","","","","feedback_test"
"","","","","","psychophysics","384","785393","0.0-10.0-0.0-0.0-0.1-0.121","844","","j","","","","","","","","","","","","","key","j","16.666300000000575","768","428","j","true","img/S_ambi40.png","生人","same",""
"","","","","","html-keyboard-response","385","785907","0.0-10.0-0.0-0.0-0.1-1.121","null","<span style='color:GreenYellow; font-size: 70px;'>正确! </span>","null","","","","","","","","","","","","","","","","","","","","","","","feedback_test"
"","","","","","psychophysics","386","787755","0.0-10.0-0.0-0.0-0.1-0.122","840","","j","","","","","","","","","","","","","key","j","16.668100000000347","768","428","j","true","img/S_ambi40.png","生人","same",""
"","","","","","html-keyboard-response","387","788268","0.0-10.0-0.0-0.0-0.1-1.122","null","<span style='color:GreenYellow; font-size: 70px;'>正确! </span>","null","","","","","","","","","","","","","","","","","","","","","","","feedback_test"
"","","","","","psychophysics","388","789994","0.0-10.0-0.0-0.0-0.1-0.123","720","","j","","","","","","","","","","","","","key","j","16.667862745097782","768","428","f","false","img/H_ambi40.png","生人","same",""
"","","","","","html-keyboard-response","389","790498","0.0-10.0-0.0-0.0-0.1-1.123","null","<span style='color:red; font-size: 70px;'>错误! </span>","null","","","","","","","","","","","","","","","","","","","","","","","feedback_test"
"","","","","","psychophysics","390","792276","0.0-10.0-0.0-0.0-0.1-0.124","776","","f","","","","","","","","","","","","","key","f","16.665342857143177","768","428","f","true","img/C_ambi40.png","生人","same",""
"","","","","","html-keyboard-response","391","792786","0.0-10.0-0.0-0.0-0.1-1.124","null","<span style='color:GreenYellow; font-size: 70px;'>正确! </span>","null","","","","","","","","","","","","","","","","","","","","","","","feedback_test"
"","","","","","psychophysics","392","794386","0.0-10.0-0.0-0.0-0.1-0.125","597","","f","","","","","","","","","","","","","key","f","16.6651368421049","768","428","f","true","img/T_ambi40.png","をる","same",""
"","","","","","html-keyboard-response","393","794901","0.0-10.0-0.0-0.0-0.1-1.125","null","<span style='color:GreenYellow; font-size: 70px;'>正确! </span>","null","","","","","","","","","","","","","","","","","","","","","","","feedback_test"
"","","","","","psychophysics","394","796706","0.0-10.0-0.0-0.0-0.1-0.126","787","","f","","","","","","","","","","","","","key","f","16.667000000000602","768","428","f","true","img/S_ambi40.png","朋友","same",""
"","","","","","html-keyboard-response","395","797218","0.0-10.0-0.0-0.0-0.1-1.126","null","<span style='color:GreenYellow; font-size: 70px;'>正确! </span>","null","","","","","","","","","","","","","","","","","","","","","","","feedback_test"
"","","","","","psychophysics","396","798762","0.0-10.0-0.0-0.0-0.1-0.127","544","","j","","","","","","","","","","","","","key","j","16.66748913043462","768","428","j","true","img/C_ambi40.png","自我","same",""
"","","","","","html-keyboard-response","397","799275","0.0-10.0-0.0-0.0-0.1-1.127","null","<span style='color:GreenYellow; font-size: 70px;'>正确! </span>","null","","","","","","","","","","","","","","","","","","","","","","","feedback_test"
"","","","","","psychophysics","398","800838","0.0-10.0-0.0-0.0-0.1-0.128","559","","f","","","","","","","","","","","","","key","f","16.665085106383405","768","428","f","true","img/T_ambi40.png","をる","same",""
"","","","","","html-keyboard-response","399","801347","0.0-10.0-0.0-0.0-0.1-1.128","null","<span style='color:GreenYellow; font-size: 70px;'>正确! </span>","null","","","","","","","","","","","","","","","","","","","","","","","feedback_test"
"","","","","","psychophysics","400","802782","0.0-10.0-0.0-0.0-0.1-0.129","431","","f","","","","","","","","","","","","","key","f","16.669905882352033","768","428","f","true","img/T_ambi40.png","をる","same",""
"","","","","","html-keyboard-response","401","803288","0.0-10.0-0.0-0.0-0.1-1.129","null","<span style='color:GreenYellow; font-size: 70px;'>正确! </span>","null","","","","","","","","","","","","","","","","","","","","","","","feedback_test"
"","","","","","psychophysics","402","804839","0.0-10.0-0.0-0.0-0.1-0.130","547","","f","","","","","","","","","","","","","key","f","16.669641304348655","768","428","f","true","img/T_ambi40.png","をる","same",""
"","","","","","html-keyboard-response","403","805346","0.0-10.0-0.0-0.0-0.1-1.130","null","<span style='color:GreenYellow; font-size: 70px;'>正确! </span>","null","","","","","","","","","","","","","","","","","","","","","","","feedback_test"
"","","","","","psychophysics","404","806908","0.0-10.0-0.0-0.0-0.1-0.131","556","","j","","","","","","","","","","","","","key","j","16.668870967742738","768","428","j","true","img/H_ambi40.png","朋友","same",""
"","","","","","html-keyboard-response","405","807420","0.0-10.0-0.0-0.0-0.1-1.131","null","<span style='color:GreenYellow; font-size: 70px;'>正确! </span>","null","","","","","","","","","","","","","","","","","","","","","","","feedback_test"
"","","","","","psychophysics","406","809289","0.0-10.0-0.0-0.0-0.1-0.132","863","","f","","","","","","","","","","","","","key","f","16.668756756756395","768","428","f","true","img/H_ambi40.png","生人","same",""
"","","","","","html-keyboard-response","407","809790","0.0-10.0-0.0-0.0-0.1-1.132","null","<span style='color:GreenYellow; font-size: 70px;'>正确! </span>","null","","","","","","","","","","","","","","","","","","","","","","","feedback_test"
"","","","","","psychophysics","408","811460","0.0-10.0-0.0-0.0-0.1-0.133","666","","j","","","","","","","","","","","","","key","j","16.666494949495025","768","428","j","true","img/H_ambi40.png","朋友","same",""
"","","","","","html-keyboard-response","409","811974","0.0-10.0-0.0-0.0-0.1-1.133","null","<span style='color:GreenYellow; font-size: 70px;'>正确! </span>","null","","","","","","","","","","","","","","","","","","","","","","","feedback_test"
"","","","","","psychophysics","410","813625","0.0-10.0-0.0-0.0-0.1-0.134","643","","f","","","","","","","","","","","","","key","f","16.667306122449656","768","428","f","true","img/H_ambi40.png","自我","same",""
"","","","","","html-keyboard-response","411","814131","0.0-10.0-0.0-0.0-0.1-1.134","null","<span style='color:GreenYellow; font-size: 70px;'>正确! </span>","null","","","","","","","","","","","","","","","","","","","","","","","feedback_test"
"","","","","","psychophysics","412","815792","0.0-10.0-0.0-0.0-0.1-0.135","658","","f","","","","","","","","","","","","","key","f","16.669393939394126","768","428","f","true","img/C_ambi40.png","生人","same",""
"","","","","","html-keyboard-response","413","816306","0.0-10.0-0.0-0.0-0.1-1.135","null","<span style='color:GreenYellow; font-size: 70px;'>正确! </span>","null","","","","","","","","","","","","","","","","","","","","","","","feedback_test"
"","","","","","psychophysics","414","817972","0.0-10.0-0.0-0.0-0.1-0.136","662","","j","","","","","","","","","","","","","key","j","16.66820202020204","768","428","j","true","img/H_ambi40.png","朋友","same",""
"","","","","","html-keyboard-response","415","818486","0.0-10.0-0.0-0.0-0.1-1.136","null","<span style='color:GreenYellow; font-size: 70px;'>正确! </span>","null","","","","","","","","","","","","","","","","","","","","","","","feedback_test"
"","","","","","psychophysics","416","820343","0.0-10.0-0.0-0.0-0.1-0.137","844","","j","","","","","","","","","","","","","key","j","16.665836363636085","768","428","j","true","img/S_ambi40.png","生人","same",""
"","","","","","html-keyboard-response","417","820853","0.0-10.0-0.0-0.0-0.1-1.137","null","<span style='color:GreenYellow; font-size: 70px;'>正确! </span>","null","","","","","","","","","","","","","","","","","","","","","","","feedback_test"
"","","","","","psychophysics","418","822494","0.0-10.0-0.0-0.0-0.1-0.138","636","","j","","","","","","","","","","","","","key","j","16.668432989691805","768","428","j","true","img/C_ambi40.png","自我","same",""
"","","","","","html-keyboard-response","419","823003","0.0-10.0-0.0-0.0-0.1-1.138","null","<span style='color:GreenYellow; font-size: 70px;'>正确! </span>","null","","","","","","","","","","","","","","","","","","","","","","","feedback_test"
"","","","","","psychophysics","420","824991","0.0-10.0-0.0-0.0-0.1-0.139","974","","f","","","","","","","","","","","","","key","f","16.66783050847461","768","428","f","true","img/C_ambi40.png","朋友","same",""
"","","","","","html-keyboard-response","421","825502","0.0-10.0-0.0-0.0-0.1-1.139","null","<span style='color:GreenYellow; font-size: 70px;'>正确! </span>","null","","","","","","","","","","","","","","","","","","","","","","","feedback_test"
"","","","","","psychophysics","422","827532","0.0-10.0-0.0-0.0-0.1-0.140","1024","","f","","","","","","","","","","","","","key","f","16.673363636363266","768","428","j","false","img/C_ambi40.png","自我","same",""
"","","","","","html-keyboard-response","423","828046","0.0-10.0-0.0-0.0-0.1-1.140","null","<span style='color:red; font-size: 70px;'>错误! </span>","null","","","","","","","","","","","","","","","","","","","","","","","feedback_test"
"","","","","","psychophysics","424","830018","0.0-10.0-0.0-0.0-0.1-0.141","966","","f","","","","","","","","","","","","","key","f","16.666940170940226","768","428","f","true","img/S_ambi40.png","自我","same",""
"","","","","","html-keyboard-response","425","830530","0.0-10.0-0.0-0.0-0.1-1.141","null","<span style='color:GreenYellow; font-size: 70px;'>正确! </span>","null","","","","","","","","","","","","","","","","","","","","","","","feedback_test"
"","","","","","psychophysics","426","832610","0.0-10.0-0.0-0.0-0.1-0.142","1075","","j","","","","","","","","","","","","","key","j","16.668661290322497","768","428","j","true","img/S_ambi40.png","生人","same",""
"","","","","","html-keyboard-response","427","833118","0.0-10.0-0.0-0.0-0.1-1.142","null","<span style='color:GreenYellow; font-size: 70px;'>正确! </span>","null","","","","","","","","","","","","","","","","","","","","","","","feedback_test"
"","","","","","psychophysics","428","834885","0.0-10.0-0.0-0.0-0.1-0.143","766","","j","","","","","","","","","","","","","key","j","16.66777884615406","768","428","j","true","img/S_ambi40.png","生人","same",""
"","","","","","html-keyboard-response","429","835392","0.0-10.0-0.0-0.0-0.1-1.143","null","<span style='color:GreenYellow; font-size: 70px;'>正确! </span>","null","","","","","","","","","","","","","","","","","","","","","","","feedback_test"
"","","","","","psychophysics","430","837200","0.0-10.0-0.0-0.0-0.1-0.144","803","","f","","","","","","","","","","","","","key","f","16.66869158878548","768","428","f","true","img/H_ambi40.png","自我","same",""
"","","","","","html-keyboard-response","431","837710","0.0-10.0-0.0-0.0-0.1-1.144","null","<span style='color:GreenYellow; font-size: 70px;'>正确! </span>","null","","","","","","","","","","","","","","","","","","","","","","","feedback_test"
"","","","","","psychophysics","432","839280","0.0-10.0-0.0-0.0-0.1-0.145","569","","j","","","","","","","","","","","","","key","j","16.666849462365512","768","428","j","true","img/C_ambi40.png","自我","same",""
"","","","","","html-keyboard-response","433","839784","0.0-10.0-0.0-0.0-0.1-1.145","null","<span style='color:GreenYellow; font-size: 70px;'>正确! </span>","null","","","","","","","","","","","","","","","","","","","","","","","feedback_test"
"","","","","","psychophysics","434","841380","0.0-10.0-0.0-0.0-0.1-0.146","594","","j","","","","","","","","","","","","","key","j","16.6696382978723","768","428","j","true","img/H_ambi40.png","朋友","same",""
"","","","","","html-keyboard-response","435","841883","0.0-10.0-0.0-0.0-0.1-1.146","null","<span style='color:GreenYellow; font-size: 70px;'>正确! </span>","null","","","","","","","","","","","","","","","","","","","","","","","feedback_test"
"","","","","","psychophysics","436","843767","0.0-10.0-0.0-0.0-0.1-0.147","881","","j","","","","","","","","","","","","","key","j","16.668375000000065","768","428","j","true","img/C_ambi40.png","自我","same",""
"","","","","","html-keyboard-response","437","844274","0.0-10.0-0.0-0.0-0.1-1.147","null","<span style='color:GreenYellow; font-size: 70px;'>正确! </span>","null","","","","","","","","","","","","","","","","","","","","","","","feedback_test"
"","","","","","psychophysics","438","846003","0.0-10.0-0.0-0.0-0.1-0.148","724","","f","","","","","","","","","","","","","key","f","16.667735294118184","768","428","f","true","img/S_ambi40.png","自我","same",""
"","","","","","html-keyboard-response","439","846504","0.0-10.0-0.0-0.0-0.1-1.148","null","<span style='color:GreenYellow; font-size: 70px;'>正确! </span>","null","","","","","","","","","","","","","","","","","","","","","","","feedback_test"
"","","","","","psychophysics","440","848203","0.0-10.0-0.0-0.0-0.1-0.149","694","","j","","","","","","","","","","","","","key","j","16.665772277227887","768","428","j","true","img/H_ambi40.png","朋友","same",""
"","","","","","html-keyboard-response","441","848704","0.0-10.0-0.0-0.0-0.1-1.149","null","<span style='color:GreenYellow; font-size: 70px;'>正确! </span>","null","","","","","","","","","","","","","","","","","","","","","","","feedback_test"
"","","","","","psychophysics","442","850611","0.0-10.0-0.0-0.0-0.1-0.150","902","","j","","","","","","","","","","","","","key","j","16.66648672566444","768","428","j","true","img/S_ambi40.png","生人","same",""
"","","","","","html-keyboard-response","443","851120","0.0-10.0-0.0-0.0-0.1-1.150","null","<span style='color:GreenYellow; font-size: 70px;'>正确! </span>","null","","","","","","","","","","","","","","","","","","","","","","","feedback_test"
