"success","timeout","failed_images","failed_audio","failed_video","trial_type","trial_index","time_elapsed","internal_node_id","rt","stimulus","response","value","item_width_mm","item_height_mm","item_width_px","px2mm","view_dist_mm","item_width_deg","px2deg","scale_factor","win_width_deg","win_height_deg","view_history","response_type","key_press","avg_frame_time","center_x","center_y","correct_response","correct","Image","word","condition","screen_id"
"true","false","[]","[]","[]","preload","0","45","0.0-0.0","","","","","","","","","","","","","","","","","","","","","","","","","",""
"","","","","","html-keyboard-response","1","2971","0.0-1.0","2924","
     <p>您好，欢迎参加本次实验。</p>
     <p>为充分保障您的权利，请确保您已经知晓并同意《参与实验同意书》以及《数据公开知情同意书》。</p>
     <p>如果您未见过上述内容，请咨询实验员。</p>
     <p>如果您选择继续实验，则表示您已经清楚两份知情同意书的内容并同意。</p>
     <p> <div style = ""color: green""><按任意键至下页></div> </p>
     "," ","","","","","","","","","","","","","","","","","","","","","","",""
"","","","","","html-keyboard-response","2","3646","0.0-2.0","675","
     <p>本实验首先需要您填写一些基本个人信息。</p>
     <p> <div style = ""color: green""><按任意键至下页></div></p>
     "," ","","","","","","","","","","","","","","","","","","","","","","",""
"","","","","","call-function","3","3647","0.0-3.0-0.0","","","","","","","","","","","","","","","","","","","","","","","","","",""
"","","","","","survey-html-form","4","6515","0.0-3.0-1.0","2867","","{""Q0"":""9""}","","","","","","","","","","","","","","","","","","","","","","",""
"","","","","","html-button-response","5","7407","0.0-3.0-2.0","889","<p style = 'color : white'>您的性别</p>","0","","","","","","","","","","","","","","","","","","","","","","",""
"","","","","","survey-html-form","6","10464","0.0-3.0-3.0","3057","","{""Q0"":""2004""}","","","","","","","","","","","","","","","","","","","","","","",""
"","","","","","survey-html-form","7","12272","0.0-3.0-4.0","1807","","{""Q0"":""5""}","","","","","","","","","","","","","","","","","","","","","","",""
"","","","","","virtual-chinrest","8","52235","0.0-4.0","39960","","","","85.6","53.98","426.1304935703145","4.977114688682152","574.41","8.52260987140629","50","0.8940923162006296","30.6","14.24","","","","","","","","","","","",""
"true","","","","","fullscreen","9","54087","0.0-5.0","","","","","","","","","","","","","","","","","","","","","","","","","",""
"","","","","","instructions","10","142549","0.0-6.0","88450","","","","","","","","","","","","","","[{""page_index"":0,""viewing_time"":1498},{""page_index"":1,""viewing_time"":80554},{""page_index"":2,""viewing_time"":4441},{""page_index"":3,""viewing_time"":1957}]","","","","","","","","","","",""
"","","","","","psychophysics","11","145061","0.0-7.0-0.0","null","","null","","","","","","","","","","","","","key","null","16.666845637583798","768","428","j","false","img/C_ambi40.png","朋友","prac",""
"","","","","","html-keyboard-response","12","145563","0.0-7.0-1.0","null","<span class='add_' style='color:yellow; font-size: 70px;'> 太慢! </span>","null","","","","","","","","","","","","","","","","","","","","","","","feedback_test"
"","","","","","psychophysics","13","147599","0.0-7.0-0.1","1031","","f","","","","","","","","","","","","","key","f","16.667297520661055","768","428","f","true","img/T_ambi40.png","をる","prac",""
"","","","","","html-keyboard-response","14","148100","0.0-7.0-1.1","null","<span style='color:GreenYellow; font-size: 70px;'>正确! </span>","null","","","","","","","","","","","","","","","","","","","","","","","feedback_test"
"","","","","","psychophysics","15","149536","0.0-7.0-0.2","434","","j","","","","","","","","","","","","","key","j","16.667329411764683","768","428","j","true","img/H_ambi40.png","自我","prac",""
"","","","","","html-keyboard-response","16","150037","0.0-7.0-1.2","null","<span style='color:GreenYellow; font-size: 70px;'>正确! </span>","null","","","","","","","","","","","","","","","","","","","","","","","feedback_test"
"","","","","","psychophysics","17","151719","0.0-7.0-0.3","680","","f","","","","","","","","","","","","","key","f","16.667353535353527","768","428","f","true","img/T_ambi40.png","をる","prac",""
"","","","","","html-keyboard-response","18","152221","0.0-7.0-1.3","null","<span style='color:GreenYellow; font-size: 70px;'>正确! </span>","null","","","","","","","","","","","","","","","","","","","","","","","feedback_test"
"","","","","","psychophysics","19","154575","0.0-7.0-0.4","1352","","f","","","","","","","","","","","","","key","f","16.66702142857144","768","428","f","true","img/H_ambi40.png","朋友","prac",""
"","","","","","html-keyboard-response","20","155076","0.0-7.0-1.4","null","<span style='color:GreenYellow; font-size: 70px;'>正确! </span>","null","","","","","","","","","","","","","","","","","","","","","","","feedback_test"
"","","","","","psychophysics","21","157183","0.0-7.0-0.5","1105","","f","","","","","","","","","","","","","key","f","16.666935999999986","768","428","f","true","img/C_ambi40.png","生人","prac",""
"","","","","","html-keyboard-response","22","157698","0.0-7.0-1.5","null","<span style='color:GreenYellow; font-size: 70px;'>正确! </span>","null","","","","","","","","","","","","","","","","","","","","","","","feedback_test"
"","","","","","psychophysics","23","159956","0.0-7.0-0.6","1256","","j","","","","","","","","","","","","","key","j","16.66729104477602","768","428","j","true","img/C_ambi40.png","朋友","prac",""
"","","","","","html-keyboard-response","24","160457","0.0-7.0-1.6","null","<span style='color:GreenYellow; font-size: 70px;'>正确! </span>","null","","","","","","","","","","","","","","","","","","","","","","","feedback_test"
"","","","","","psychophysics","25","162397","0.0-7.0-0.7","937","","f","","","","","","","","","","","","","key","f","16.667060869565212","768","428","j","false","img/H_ambi40.png","自我","prac",""
"","","","","","html-keyboard-response","26","162898","0.0-7.0-1.7","null","<span style='color:red; font-size: 70px;'>错误! </span>","null","","","","","","","","","","","","","","","","","","","","","","","feedback_test"
"","","","","","psychophysics","27","164975","0.0-7.0-0.8","1074","","j","","","","","","","","","","","","","key","j","16.666782258064607","768","428","j","true","img/S_ambi40.png","生人","prac",""
"","","","","","html-keyboard-response","28","165477","0.0-7.0-1.8","null","<span style='color:GreenYellow; font-size: 70px;'>正确! </span>","null","","","","","","","","","","","","","","","","","","","","","","","feedback_test"
"","","","","","psychophysics","29","167669","0.0-7.0-0.9","1189","","j","","","","","","","","","","","","","key","j","16.667107692307596","768","428","f","false","img/C_ambi40.png","自我","prac",""
"","","","","","html-keyboard-response","30","168170","0.0-7.0-1.9","null","<span style='color:red; font-size: 70px;'>错误! </span>","null","","","","","","","","","","","","","","","","","","","","","","","feedback_test"
"","","","","","psychophysics","31","169885","0.0-7.0-0.10","713","","f","","","","","","","","","","","","","key","f","16.667059405940517","768","428","f","true","img/T_ambi40.png","をる","prac",""
"","","","","","html-keyboard-response","32","170386","0.0-7.0-1.10","null","<span style='color:GreenYellow; font-size: 70px;'>正确! </span>","null","","","","","","","","","","","","","","","","","","","","","","","feedback_test"
"","","","","","psychophysics","33","172889","0.0-7.0-0.11","null","","null","","","","","","","","","","","","","key","null","16.66756375838929","768","428","j","false","img/S_ambi40.png","生人","prac",""
"","","","","","html-keyboard-response","34","173390","0.0-7.0-1.11","null","<span class='add_' style='color:yellow; font-size: 70px;'> 太慢! </span>","null","","","","","","","","","","","","","","","","","","","","","","","feedback_test"
"","","","","","psychophysics","35","175362","0.0-7.0-0.12","970","","f","","","","","","","","","","","","","key","f","16.667102564102372","768","428","f","true","img/H_ambi40.png","生人","prac",""
"","","","","","html-keyboard-response","36","175864","0.0-7.0-1.12","null","<span style='color:GreenYellow; font-size: 70px;'>正确! </span>","null","","","","","","","","","","","","","","","","","","","","","","","feedback_test"
"","","","","","psychophysics","37","178367","0.0-7.0-0.13","null","","null","","","","","","","","","","","","","key","null","16.667234899328893","768","428","f","false","img/S_ambi40.png","自我","prac",""
"","","","","","html-keyboard-response","38","178869","0.0-7.0-1.13","null","<span class='add_' style='color:yellow; font-size: 70px;'> 太慢! </span>","null","","","","","","","","","","","","","","","","","","","","","","","feedback_test"
"","","","","","psychophysics","39","180601","0.0-7.0-0.14","730","","f","","","","","","","","","","","","","key","f","16.667398058252413","768","428","f","true","img/T_ambi40.png","をる","prac",""
"","","","","","html-keyboard-response","40","181102","0.0-7.0-1.14","null","<span style='color:GreenYellow; font-size: 70px;'>正确! </span>","null","","","","","","","","","","","","","","","","","","","","","","","feedback_test"
"","","","","","psychophysics","41","183112","0.0-7.0-0.15","1008","","f","","","","","","","","","","","","","key","f","16.666908333333414","768","428","f","true","img/S_ambi40.png","朋友","prac",""
"","","","","","html-keyboard-response","42","183614","0.0-7.0-1.15","null","<span style='color:GreenYellow; font-size: 70px;'>正确! </span>","null","","","","","","","","","","","","","","","","","","","","","","","feedback_test"
"","","","","","psychophysics","43","185362","0.0-7.0-0.16","744","","f","","","","","","","","","","","","","key","f","16.66666346153859","768","428","j","false","img/S_ambi40.png","生人","prac",""
"","","","","","html-keyboard-response","44","185865","0.0-7.0-1.16","null","<span style='color:red; font-size: 70px;'>错误! </span>","null","","","","","","","","","","","","","","","","","","","","","","","feedback_test"
"","","","","","psychophysics","45","187643","0.0-7.0-0.17","772","","f","","","","","","","","","","","","","key","f","16.666304761904758","768","428","f","true","img/T_ambi40.png","をる","prac",""
"","","","","","html-keyboard-response","46","188145","0.0-7.0-1.17","null","<span style='color:GreenYellow; font-size: 70px;'>正确! </span>","null","","","","","","","","","","","","","","","","","","","","","","","feedback_test"
"","","","","","psychophysics","47","189891","0.0-7.0-0.18","745","","j","","","","","","","","","","","","","key","j","16.66644660194175","768","428","j","true","img/H_ambi40.png","自我","prac",""
"","","","","","html-keyboard-response","48","190393","0.0-7.0-1.18","null","<span style='color:GreenYellow; font-size: 70px;'>正确! </span>","null","","","","","","","","","","","","","","","","","","","","","","","feedback_test"
"","","","","","psychophysics","49","192551","0.0-7.0-0.19","1157","","j","","","","","","","","","","","","","key","j","16.667273437499944","768","428","j","true","img/S_ambi40.png","生人","prac",""
"","","","","","html-keyboard-response","50","193053","0.0-7.0-1.19","null","<span style='color:GreenYellow; font-size: 70px;'>正确! </span>","null","","","","","","","","","","","","","","","","","","","","","","","feedback_test"
"","","","","","psychophysics","51","194720","0.0-7.0-0.20","665","","f","","","","","","","","","","","","","key","f","16.66724242424243","768","428","f","true","img/T_ambi40.png","をる","prac",""
"","","","","","html-keyboard-response","52","195221","0.0-7.0-1.20","null","<span style='color:GreenYellow; font-size: 70px;'>正确! </span>","null","","","","","","","","","","","","","","","","","","","","","","","feedback_test"
"","","","","","psychophysics","53","196936","0.0-7.0-0.21","712","","j","","","","","","","","","","","","","key","j","16.666784313725657","768","428","f","false","img/S_ambi40.png","自我","prac",""
"","","","","","html-keyboard-response","54","197438","0.0-7.0-1.21","null","<span style='color:red; font-size: 70px;'>错误! </span>","null","","","","","","","","","","","","","","","","","","","","","","","feedback_test"
"","","","","","psychophysics","55","199054","0.0-7.0-0.22","615","","j","","","","","","","","","","","","","key","j","16.667531249999836","768","428","j","true","img/H_ambi40.png","自我","prac",""
"","","","","","html-keyboard-response","56","199556","0.0-7.0-1.22","null","<span style='color:GreenYellow; font-size: 70px;'>正确! </span>","null","","","","","","","","","","","","","","","","","","","","","","","feedback_test"
"","","","","","psychophysics","57","201516","0.0-7.0-0.23","959","","j","","","","","","","","","","","","","key","j","16.667940170940213","768","428","f","false","img/C_ambi40.png","生人","prac",""
"","","","","","html-keyboard-response","58","202018","0.0-7.0-1.23","null","<span style='color:red; font-size: 70px;'>错误! </span>","null","","","","","","","","","","","","","","","","","","","","","","","feedback_test"
"","","","","","psychophysics","59","204086","0.0-7.0-0.24","1067","","f","","","","","","","","","","","","","key","f","16.667178861788575","768","428","f","true","img/S_ambi40.png","朋友","prac",""
"","","","","","html-keyboard-response","60","204588","0.0-7.0-1.24","null","<span style='color:GreenYellow; font-size: 70px;'>正确! </span>","null","","","","","","","","","","","","","","","","","","","","","","","feedback_test"
"","","","","","psychophysics","61","206277","0.0-7.0-0.25","687","","f","","","","","","","","","","","","","key","f","16.666469999999972","768","428","f","true","img/T_ambi40.png","をる","prac",""
"","","","","","html-keyboard-response","62","206778","0.0-7.0-1.25","null","<span style='color:GreenYellow; font-size: 70px;'>正确! </span>","null","","","","","","","","","","","","","","","","","","","","","","","feedback_test"
"","","","","","psychophysics","63","208971","0.0-7.0-0.26","1191","","f","","","","","","","","","","","","","key","f","16.66694615384622","768","428","j","false","img/C_ambi40.png","朋友","prac",""
"","","","","","html-keyboard-response","64","209472","0.0-7.0-1.26","null","<span style='color:red; font-size: 70px;'>错误! </span>","null","","","","","","","","","","","","","","","","","","","","","","","feedback_test"
"","","","","","psychophysics","65","211749","0.0-7.0-0.27","1275","","f","","","","","","","","","","","","","key","f","16.66666911764696","768","428","f","true","img/H_ambi40.png","朋友","prac",""
"","","","","","html-keyboard-response","66","212251","0.0-7.0-1.27","null","<span style='color:GreenYellow; font-size: 70px;'>正确! </span>","null","","","","","","","","","","","","","","","","","","","","","","","feedback_test"
"","","","","","psychophysics","67","214104","0.0-7.0-0.28","852","","j","","","","","","","","","","","","","key","j","16.666963636363718","768","428","j","true","img/C_ambi40.png","朋友","prac",""
"","","","","","html-keyboard-response","68","214609","0.0-7.0-1.28","null","<span style='color:GreenYellow; font-size: 70px;'>正确! </span>","null","","","","","","","","","","","","","","","","","","","","","","","feedback_test"
"","","","","","psychophysics","69","216927","0.0-7.0-0.29","1316","","j","","","","","","","","","","","","","key","j","16.667642335766455","768","428","f","false","img/C_ambi40.png","自我","prac",""
"","","","","","html-keyboard-response","70","217430","0.0-7.0-1.29","null","<span style='color:red; font-size: 70px;'>错误! </span>","null","","","","","","","","","","","","","","","","","","","","","","","feedback_test"
"","","","","","psychophysics","71","219373","0.0-7.0-0.30","941","","f","","","","","","","","","","","","","key","f","16.666391304347908","768","428","f","true","img/H_ambi40.png","生人","prac",""
"","","","","","html-keyboard-response","72","219881","0.0-7.0-1.30","null","<span style='color:GreenYellow; font-size: 70px;'>正确! </span>","null","","","","","","","","","","","","","","","","","","","","","","","feedback_test"
"","","","","","psychophysics","73","221520","0.0-7.0-0.31","638","","f","","","","","","","","","","","","","key","f","16.667329896907514","768","428","f","true","img/T_ambi40.png","をる","prac",""
"","","","","","html-keyboard-response","74","222034","0.0-7.0-1.31","null","<span style='color:GreenYellow; font-size: 70px;'>正确! </span>","null","","","","","","","","","","","","","","","","","","","","","","","feedback_test"
"","","","","","psychophysics","75","224480","0.0-8.0-0.0-0.0","1443","","j","","","","","","","","","","","","","key","j","16.66716438356176","768","428","j","true","img/C_ambi40.png","朋友","prac",""
"","","","","","html-keyboard-response","76","224981","0.0-8.0-0.0-1.0","null","<span style='color:GreenYellow; font-size: 70px;'>正确! </span>","null","","","","","","","","","","","","","","","","","","","","","","","feedback_test"
"","","","","","psychophysics","77","227205","0.0-8.0-0.0-0.1","1222","","j","","","","","","","","","","","","","key","j","16.667030303030376","768","428","f","false","img/S_ambi40.png","自我","prac",""
"","","","","","html-keyboard-response","78","227707","0.0-8.0-0.0-1.1","null","<span style='color:red; font-size: 70px;'>错误! </span>","null","","","","","","","","","","","","","","","","","","","","","","","feedback_test"
"","","","","","psychophysics","79","229532","0.0-8.0-0.0-0.2","823","","f","","","","","","","","","","","","","key","f","16.667385321100873","768","428","j","false","img/S_ambi40.png","生人","prac",""
"","","","","","html-keyboard-response","80","230035","0.0-8.0-0.0-1.2","null","<span style='color:red; font-size: 70px;'>错误! </span>","null","","","","","","","","","","","","","","","","","","","","","","","feedback_test"
"","","","","","psychophysics","81","232031","0.0-8.0-0.0-0.3","994","","f","","","","","","","","","","","","","key","f","16.665428571428706","768","428","f","true","img/C_ambi40.png","自我","prac",""
"","","","","","html-keyboard-response","82","232533","0.0-8.0-0.0-1.3","null","<span style='color:GreenYellow; font-size: 70px;'>正确! </span>","null","","","","","","","","","","","","","","","","","","","","","","","feedback_test"
"","","","","","psychophysics","83","234505","0.0-8.0-0.0-0.4","970","","f","","","","","","","","","","","","","key","f","16.666811965811902","768","428","f","true","img/C_ambi40.png","生人","prac",""
"","","","","","html-keyboard-response","84","235006","0.0-8.0-0.0-1.4","null","<span style='color:GreenYellow; font-size: 70px;'>正确! </span>","null","","","","","","","","","","","","","","","","","","","","","","","feedback_test"
"","","","","","psychophysics","85","237240","0.0-8.0-0.0-0.5","1233","","j","","","","","","","","","","","","","key","j","16.66681203007509","768","428","j","true","img/S_ambi40.png","生人","prac",""
"","","","","","html-keyboard-response","86","237743","0.0-8.0-0.0-1.5","null","<span style='color:GreenYellow; font-size: 70px;'>正确! </span>","null","","","","","","","","","","","","","","","","","","","","","","","feedback_test"
"","","","","","psychophysics","87","239584","0.0-8.0-0.0-0.6","839","","f","","","","","","","","","","","","","key","f","16.667165137614592","768","428","f","true","img/H_ambi40.png","生人","prac",""
"","","","","","html-keyboard-response","88","240086","0.0-8.0-0.0-1.6","null","<span style='color:GreenYellow; font-size: 70px;'>正确! </span>","null","","","","","","","","","","","","","","","","","","","","","","","feedback_test"
"","","","","","psychophysics","89","241945","0.0-8.0-0.0-0.7","858","","f","","","","","","","","","","","","","key","f","16.666545454545517","768","428","f","true","img/T_ambi40.png","をる","prac",""
"","","","","","html-keyboard-response","90","242446","0.0-8.0-0.0-1.7","null","<span style='color:GreenYellow; font-size: 70px;'>正确! </span>","null","","","","","","","","","","","","","","","","","","","","","","","feedback_test"
"","","","","","psychophysics","91","244296","0.0-8.0-0.0-0.8","849","","j","","","","","","","","","","","","","key","j","16.666908256880728","768","428","j","true","img/C_ambi40.png","朋友","prac",""
"","","","","","html-keyboard-response","92","244797","0.0-8.0-0.0-1.8","null","<span style='color:GreenYellow; font-size: 70px;'>正确! </span>","null","","","","","","","","","","","","","","","","","","","","","","","feedback_test"
"","","","","","psychophysics","93","246546","0.0-8.0-0.0-0.9","747","","j","","","","","","","","","","","","","key","j","16.66682524271835","768","428","j","true","img/H_ambi40.png","自我","prac",""
"","","","","","html-keyboard-response","94","247047","0.0-8.0-0.0-1.9","null","<span style='color:GreenYellow; font-size: 70px;'>正确! </span>","null","","","","","","","","","","","","","","","","","","","","","","","feedback_test"
"","","","","","psychophysics","95","248788","0.0-8.0-0.0-0.10","733","","f","","","","","","","","","","","","","key","f","16.667262135922357","768","428","f","true","img/S_ambi40.png","朋友","prac",""
"","","","","","html-keyboard-response","96","249289","0.0-8.0-0.0-1.10","null","<span style='color:GreenYellow; font-size: 70px;'>正确! </span>","null","","","","","","","","","","","","","","","","","","","","","","","feedback_test"
"","","","","","psychophysics","97","251494","0.0-8.0-0.0-0.11","1204","","f","","","","","","","","","","","","","key","f","16.666465648854967","768","428","f","true","img/H_ambi40.png","朋友","prac",""
"","","","","","html-keyboard-response","98","251996","0.0-8.0-0.0-1.11","null","<span style='color:GreenYellow; font-size: 70px;'>正确! </span>","null","","","","","","","","","","","","","","","","","","","","","","","feedback_test"
"","","","","","psychophysics","99","254060","0.0-8.0-0.0-0.12","1063","","f","","","","","","","","","","","","","key","f","16.6673902439025","768","428","j","false","img/H_ambi40.png","自我","prac",""
"","","","","","html-keyboard-response","100","254563","0.0-8.0-0.0-1.12","null","<span style='color:red; font-size: 70px;'>错误! </span>","null","","","","","","","","","","","","","","","","","","","","","","","feedback_test"
"","","","","","psychophysics","101","256199","0.0-8.0-0.0-0.13","634","","f","","","","","","","","","","","","","key","f","16.66688659793809","768","428","f","true","img/T_ambi40.png","をる","prac",""
"","","","","","html-keyboard-response","102","256701","0.0-8.0-0.0-1.13","null","<span style='color:GreenYellow; font-size: 70px;'>正确! </span>","null","","","","","","","","","","","","","","","","","","","","","","","feedback_test"
"","","","","","psychophysics","103","258479","0.0-8.0-0.0-0.14","777","","f","","","","","","","","","","","","","key","f","16.667161904761866","768","428","f","true","img/T_ambi40.png","をる","prac",""
"","","","","","html-keyboard-response","104","258980","0.0-8.0-0.0-1.14","null","<span style='color:GreenYellow; font-size: 70px;'>正确! </span>","null","","","","","","","","","","","","","","","","","","","","","","","feedback_test"
"","","","","","psychophysics","105","260604","0.0-8.0-0.0-0.15","623","","f","","","","","","","","","","","","","key","f","16.667907216494662","768","428","f","true","img/T_ambi40.png","をる","prac",""
"","","","","","html-keyboard-response","106","261106","0.0-8.0-0.0-1.15","null","<span style='color:GreenYellow; font-size: 70px;'>正确! </span>","null","","","","","","","","","","","","","","","","","","","","","","","feedback_test"
"","","","","","psychophysics","107","263236","0.0-8.0-0.0-0.16","1126","","j","","","","","","","","","","","","","key","j","16.667314960630005","768","428","j","true","img/H_ambi40.png","自我","prac",""
"","","","","","html-keyboard-response","108","263738","0.0-8.0-0.0-1.16","null","<span style='color:GreenYellow; font-size: 70px;'>正确! </span>","null","","","","","","","","","","","","","","","","","","","","","","","feedback_test"
"","","","","","psychophysics","109","265695","0.0-8.0-0.0-0.17","955","","j","","","","","","","","","","","","","key","j","16.667568965516946","768","428","j","true","img/C_ambi40.png","朋友","prac",""
"","","","","","html-keyboard-response","110","266197","0.0-8.0-0.0-1.17","null","<span style='color:GreenYellow; font-size: 70px;'>正确! </span>","null","","","","","","","","","","","","","","","","","","","","","","","feedback_test"
"","","","","","psychophysics","111","268579","0.0-8.0-0.0-0.18","1381","","f","","","","","","","","","","","","","key","f","16.66702816901404","768","428","f","true","img/S_ambi40.png","朋友","prac",""
"","","","","","html-keyboard-response","112","269080","0.0-8.0-0.0-1.18","null","<span style='color:GreenYellow; font-size: 70px;'>正确! </span>","null","","","","","","","","","","","","","","","","","","","","","","","feedback_test"
"","","","","","psychophysics","113","271085","0.0-8.0-0.0-0.19","1002","","j","","","","","","","","","","","","","key","j","16.6672100840335","768","428","j","true","img/S_ambi40.png","生人","prac",""
"","","","","","html-keyboard-response","114","271587","0.0-8.0-0.0-1.19","null","<span style='color:GreenYellow; font-size: 70px;'>正确! </span>","null","","","","","","","","","","","","","","","","","","","","","","","feedback_test"
"","","","","","psychophysics","115","273865","0.0-8.0-0.0-0.20","1276","","f","","","","","","","","","","","","","key","f","16.66660740740761","768","428","f","true","img/C_ambi40.png","自我","prac",""
"","","","","","html-keyboard-response","116","274366","0.0-8.0-0.0-1.20","null","<span style='color:GreenYellow; font-size: 70px;'>正确! </span>","null","","","","","","","","","","","","","","","","","","","","","","","feedback_test"
"","","","","","psychophysics","117","276245","0.0-8.0-0.0-0.21","878","","f","","","","","","","","","","","","","key","f","16.667180180179923","768","428","f","true","img/T_ambi40.png","をる","prac",""
"","","","","","html-keyboard-response","118","276746","0.0-8.0-0.0-1.21","null","<span style='color:GreenYellow; font-size: 70px;'>正确! </span>","null","","","","","","","","","","","","","","","","","","","","","","","feedback_test"
"","","","","","psychophysics","119","278755","0.0-8.0-0.0-0.22","1007","","f","","","","","","","","","","","","","key","f","16.666616666666233","768","428","f","true","img/T_ambi40.png","をる","prac",""
"","","","","","html-keyboard-response","120","279258","0.0-8.0-0.0-1.22","null","<span style='color:GreenYellow; font-size: 70px;'>正确! </span>","null","","","","","","","","","","","","","","","","","","","","","","","feedback_test"
"","","","","","psychophysics","121","281462","0.0-8.0-0.0-0.23","1203","","j","","","","","","","","","","","","","key","j","16.667068702290067","768","428","f","false","img/H_ambi40.png","生人","prac",""
"","","","","","html-keyboard-response","122","281963","0.0-8.0-0.0-1.23","null","<span style='color:red; font-size: 70px;'>错误! </span>","null","","","","","","","","","","","","","","","","","","","","","","","feedback_test"
"","","","","","psychophysics","123","283925","0.0-8.0-0.0-0.24","958","","f","","","","","","","","","","","","","key","f","16.6669482758624","768","428","f","true","img/T_ambi40.png","をる","prac",""
"","","","","","html-keyboard-response","124","284426","0.0-8.0-0.0-1.24","null","<span style='color:GreenYellow; font-size: 70px;'>正确! </span>","null","","","","","","","","","","","","","","","","","","","","","","","feedback_test"
"","","","","","psychophysics","125","286490","0.0-8.0-0.0-0.25","1062","","f","","","","","","","","","","","","","key","f","16.667138211381797","768","428","f","true","img/H_ambi40.png","朋友","prac",""
"","","","","","html-keyboard-response","126","286991","0.0-8.0-0.0-1.25","null","<span style='color:GreenYellow; font-size: 70px;'>正确! </span>","null","","","","","","","","","","","","","","","","","","","","","","","feedback_test"
"","","","","","psychophysics","127","288972","0.0-8.0-0.0-0.26","979","","j","","","","","","","","","","","","","key","j","16.667415254237326","768","428","j","true","img/H_ambi40.png","自我","prac",""
"","","","","","html-keyboard-response","128","289474","0.0-8.0-0.0-1.26","null","<span style='color:GreenYellow; font-size: 70px;'>正确! </span>","null","","","","","","","","","","","","","","","","","","","","","","","feedback_test"
"","","","","","psychophysics","129","291383","0.0-8.0-0.0-0.27","906","","f","","","","","","","","","","","","","key","f","16.667637168141844","768","428","f","true","img/T_ambi40.png","をる","prac",""
"","","","","","html-keyboard-response","130","291884","0.0-8.0-0.0-1.27","null","<span style='color:GreenYellow; font-size: 70px;'>正确! </span>","null","","","","","","","","","","","","","","","","","","","","","","","feedback_test"
"","","","","","psychophysics","131","294154","0.0-8.0-0.0-0.28","1268","","j","","","","","","","","","","","","","key","j","16.667022222221863","768","428","f","false","img/S_ambi40.png","自我","prac",""
"","","","","","html-keyboard-response","132","294656","0.0-8.0-0.0-1.28","null","<span style='color:red; font-size: 70px;'>错误! </span>","null","","","","","","","","","","","","","","","","","","","","","","","feedback_test"
"","","","","","psychophysics","133","296514","0.0-8.0-0.0-0.29","856","","j","","","","","","","","","","","","","key","j","16.6667363636365","768","428","j","true","img/S_ambi40.png","生人","prac",""
"","","","","","html-keyboard-response","134","297014","0.0-8.0-0.0-1.29","null","<span style='color:GreenYellow; font-size: 70px;'>正确! </span>","null","","","","","","","","","","","","","","","","","","","","","","","feedback_test"
"","","","","","psychophysics","135","298851","0.0-8.0-0.0-0.30","835","","f","","","","","","","","","","","","","key","f","16.66720370370388","768","428","f","true","img/C_ambi40.png","生人","prac",""
"","","","","","html-keyboard-response","136","299353","0.0-8.0-0.0-1.30","null","<span style='color:GreenYellow; font-size: 70px;'>正确! </span>","null","","","","","","","","","","","","","","","","","","","","","","","feedback_test"
"","","","","","psychophysics","137","301583","0.0-8.0-0.0-0.31","1227","","j","","","","","","","","","","","","","key","j","16.66643181818169","768","428","j","true","img/C_ambi40.png","朋友","prac",""
"","","","","","html-keyboard-response","138","302084","0.0-8.0-0.0-1.31","null","<span style='color:GreenYellow; font-size: 70px;'>正确! </span>","null","","","","","","","","","","","","","","","","","","","","","","","feedback_test"
"","","","","","html-keyboard-response","139","310825","0.0-9.0","8732","<style>.context{color:white; font-size: 35px; line-height:40px}</style>                          <div><p class='context'>您正确回答了84% 的试次。</p ><p class='context'>您的平均反应时为976毫秒。</p ><p class='context'>恭喜您完成练习。按任意键进入正式实验。</p ><p class='footer' style='font-size: 35px; line-height:40px;'>请在进入正式实验实验之前将您的<span style='color: lightgreen;'>食指</span>放在电脑键盘的相应键位上进行按键。</p >"," ","","","","","","","","","","","","","","","","","","","","","","",""
"","","","","","psychophysics","140","312614","0.0-10.0-0.0-0.0-0.0-0.0","784","","j","","","","","","","","","","","","","key","j","16.67512264150966","768","428","f","false","img/S_ambi40.png","朋友","same",""
"","","","","","html-keyboard-response","141","313115","0.0-10.0-0.0-0.0-0.0-1.0","null","<span style='color:red; font-size: 70px;'>错误! </span>","null","","","","","","","","","","","","","","","","","","","","","","","feedback_test"
"","","","","","psychophysics","142","314762","0.0-10.0-0.0-0.0-0.0-0.1","646","","f","","","","","","","","","","","","","key","f","16.66829591836752","768","428","f","true","img/T_ambi40.png","をる","same",""
"","","","","","html-keyboard-response","143","315263","0.0-10.0-0.0-0.0-0.0-1.1","null","<span style='color:GreenYellow; font-size: 70px;'>正确! </span>","null","","","","","","","","","","","","","","","","","","","","","","","feedback_test"
"","","","","","psychophysics","144","317642","0.0-10.0-0.0-0.0-0.0-0.2","1376","","j","","","","","","","","","","","","","key","j","16.667246478873317","768","428","j","true","img/C_ambi40.png","朋友","same",""
"","","","","","html-keyboard-response","145","318144","0.0-10.0-0.0-0.0-0.0-1.2","null","<span style='color:GreenYellow; font-size: 70px;'>正确! </span>","null","","","","","","","","","","","","","","","","","","","","","","","feedback_test"
"","","","","","psychophysics","146","320217","0.0-10.0-0.0-0.0-0.0-0.3","1070","","f","","","","","","","","","","","","","key","f","16.667081300812825","768","428","f","true","img/C_ambi40.png","生人","same",""
"","","","","","html-keyboard-response","147","320718","0.0-10.0-0.0-0.0-0.0-1.3","null","<span style='color:GreenYellow; font-size: 70px;'>正确! </span>","null","","","","","","","","","","","","","","","","","","","","","","","feedback_test"
"","","","","","psychophysics","148","322826","0.0-10.0-0.0-0.0-0.0-0.4","1107","","j","","","","","","","","","","","","","key","j","16.666999999999664","768","428","j","true","img/S_ambi40.png","生人","same",""
"","","","","","html-keyboard-response","149","323328","0.0-10.0-0.0-0.0-0.0-1.4","null","<span style='color:GreenYellow; font-size: 70px;'>正确! </span>","null","","","","","","","","","","","","","","","","","","","","","","","feedback_test"
"","","","","","psychophysics","150","325385","0.0-10.0-0.0-0.0-0.0-0.5","1055","","j","","","","","","","","","","","","","key","j","16.66613114754131","768","428","j","true","img/C_ambi40.png","朋友","same",""
"","","","","","html-keyboard-response","151","325888","0.0-10.0-0.0-0.0-0.0-1.5","null","<span style='color:GreenYellow; font-size: 70px;'>正确! </span>","null","","","","","","","","","","","","","","","","","","","","","","","feedback_test"
"","","","","","psychophysics","152","327636","0.0-10.0-0.0-0.0-0.0-0.6","746","","f","","","","","","","","","","","","","key","f","16.667145631068106","768","428","f","true","img/T_ambi40.png","をる","same",""
"","","","","","html-keyboard-response","153","328137","0.0-10.0-0.0-0.0-0.0-1.6","null","<span style='color:GreenYellow; font-size: 70px;'>正确! </span>","null","","","","","","","","","","","","","","","","","","","","","","","feedback_test"
"","","","","","psychophysics","154","329922","0.0-10.0-0.0-0.0-0.0-0.7","783","","j","","","","","","","","","","","","","key","j","16.66685714285732","768","428","j","true","img/C_ambi40.png","朋友","same",""
"","","","","","html-keyboard-response","155","330424","0.0-10.0-0.0-0.0-0.0-1.7","null","<span style='color:GreenYellow; font-size: 70px;'>正确! </span>","null","","","","","","","","","","","","","","","","","","","","","","","feedback_test"
"","","","","","psychophysics","156","332627","0.0-10.0-0.0-0.0-0.0-0.8","1201","","f","","","","","","","","","","","","","key","f","16.666458015267484","768","428","f","true","img/S_ambi40.png","自我","same",""
"","","","","","html-keyboard-response","157","333129","0.0-10.0-0.0-0.0-0.0-1.8","null","<span style='color:GreenYellow; font-size: 70px;'>正确! </span>","null","","","","","","","","","","","","","","","","","","","","","","","feedback_test"
"","","","","","psychophysics","158","335264","0.0-10.0-0.0-0.0-0.0-0.9","1134","","f","","","","","","","","","","","","","key","f","16.666818897637693","768","428","f","true","img/H_ambi40.png","生人","same",""
"","","","","","html-keyboard-response","159","335772","0.0-10.0-0.0-0.0-0.0-1.9","null","<span style='color:GreenYellow; font-size: 70px;'>正确! </span>","null","","","","","","","","","","","","","","","","","","","","","","","feedback_test"
"","","","","","psychophysics","160","337750","0.0-10.0-0.0-0.0-0.0-0.10","976","","f","","","","","","","","","","","","","key","f","16.666735042735304","768","428","f","true","img/C_ambi40.png","自我","same",""
"","","","","","html-keyboard-response","161","338252","0.0-10.0-0.0-0.0-0.0-1.10","null","<span style='color:GreenYellow; font-size: 70px;'>正确! </span>","null","","","","","","","","","","","","","","","","","","","","","","","feedback_test"
"","","","","","psychophysics","162","339950","0.0-10.0-0.0-0.0-0.0-0.11","696","","f","","","","","","","","","","","","","key","f","16.666831683168663","768","428","f","true","img/T_ambi40.png","をる","same",""
"","","","","","html-keyboard-response","163","340452","0.0-10.0-0.0-0.0-0.0-1.11","null","<span style='color:GreenYellow; font-size: 70px;'>正确! </span>","null","","","","","","","","","","","","","","","","","","","","","","","feedback_test"
"","","","","","psychophysics","164","342885","0.0-10.0-0.0-0.0-0.0-0.12","1431","","j","","","","","","","","","","","","","key","j","16.666979310345226","768","428","j","true","img/H_ambi40.png","自我","same",""
"","","","","","html-keyboard-response","165","343387","0.0-10.0-0.0-0.0-0.0-1.12","null","<span style='color:GreenYellow; font-size: 70px;'>正确! </span>","null","","","","","","","","","","","","","","","","","","","","","","","feedback_test"
"","","","","","psychophysics","166","345205","0.0-10.0-0.0-0.0-0.0-0.13","816","","j","","","","","","","","","","","","","key","j","16.66674766355144","768","428","j","true","img/H_ambi40.png","自我","same",""
"","","","","","html-keyboard-response","167","345708","0.0-10.0-0.0-0.0-0.0-1.13","null","<span style='color:GreenYellow; font-size: 70px;'>正确! </span>","null","","","","","","","","","","","","","","","","","","","","","","","feedback_test"
"","","","","","psychophysics","168","347369","0.0-10.0-0.0-0.0-0.0-0.14","659","","j","","","","","","","","","","","","","key","j","16.667510204081903","768","428","j","true","img/H_ambi40.png","自我","same",""
"","","","","","html-keyboard-response","169","347871","0.0-10.0-0.0-0.0-0.0-1.14","null","<span style='color:GreenYellow; font-size: 70px;'>正确! </span>","null","","","","","","","","","","","","","","","","","","","","","","","feedback_test"
"","","","","","psychophysics","170","349885","0.0-10.0-0.0-0.0-0.0-0.15","1012","","j","","","","","","","","","","","","","key","j","16.668521008403392","768","428","j","true","img/S_ambi40.png","生人","same",""
"","","","","","html-keyboard-response","171","350387","0.0-10.0-0.0-0.0-0.0-1.15","null","<span style='color:GreenYellow; font-size: 70px;'>正确! </span>","null","","","","","","","","","","","","","","","","","","","","","","","feedback_test"
"","","","","","psychophysics","172","352226","0.0-10.0-0.0-0.0-0.0-0.16","838","","j","","","","","","","","","","","","","key","j","16.66761467889872","768","428","j","true","img/S_ambi40.png","生人","same",""
"","","","","","html-keyboard-response","173","352727","0.0-10.0-0.0-0.0-0.0-1.16","null","<span style='color:GreenYellow; font-size: 70px;'>正确! </span>","null","","","","","","","","","","","","","","","","","","","","","","","feedback_test"
"","","","","","psychophysics","174","354593","0.0-10.0-0.0-0.0-0.0-0.17","864","","f","","","","","","","","","","","","","key","f","16.66687387387375","768","428","f","true","img/H_ambi40.png","朋友","same",""
"","","","","","html-keyboard-response","175","355095","0.0-10.0-0.0-0.0-0.0-1.17","null","<span style='color:GreenYellow; font-size: 70px;'>正确! </span>","null","","","","","","","","","","","","","","","","","","","","","","","feedback_test"
"","","","","","psychophysics","176","357126","0.0-10.0-0.0-0.0-0.0-0.18","1028","","j","","","","","","","","","","","","","key","j","16.666900826446337","768","428","j","true","img/H_ambi40.png","自我","same",""
"","","","","","html-keyboard-response","177","357628","0.0-10.0-0.0-0.0-0.0-1.18","null","<span style='color:GreenYellow; font-size: 70px;'>正确! </span>","null","","","","","","","","","","","","","","","","","","","","","","","feedback_test"
"","","","","","psychophysics","178","359262","0.0-10.0-0.0-0.0-0.0-0.19","632","","f","","","","","","","","","","","","","key","f","16.66680412371187","768","428","f","true","img/T_ambi40.png","をる","same",""
"","","","","","html-keyboard-response","179","359765","0.0-10.0-0.0-0.0-0.0-1.19","null","<span style='color:GreenYellow; font-size: 70px;'>正确! </span>","null","","","","","","","","","","","","","","","","","","","","","","","feedback_test"
"","","","","","psychophysics","180","361678","0.0-10.0-0.0-0.0-0.0-0.20","911","","j","","","","","","","","","","","","","key","j","16.66755263157916","768","428","j","true","img/C_ambi40.png","朋友","same",""
"","","","","","html-keyboard-response","181","362181","0.0-10.0-0.0-0.0-0.0-1.20","null","<span style='color:GreenYellow; font-size: 70px;'>正确! </span>","null","","","","","","","","","","","","","","","","","","","","","","","feedback_test"
"","","","","","psychophysics","182","363981","0.0-10.0-0.0-0.0-0.0-0.21","799","","f","","","","","","","","","","","","","key","f","16.66684112149545","768","428","f","true","img/H_ambi40.png","生人","same",""
"","","","","","html-keyboard-response","183","364483","0.0-10.0-0.0-0.0-0.0-1.21","null","<span style='color:GreenYellow; font-size: 70px;'>正确! </span>","null","","","","","","","","","","","","","","","","","","","","","","","feedback_test"
"","","","","","psychophysics","184","366227","0.0-10.0-0.0-0.0-0.0-0.22","743","","j","","","","","","","","","","","","","key","j","16.667586538461574","768","428","j","true","img/H_ambi40.png","自我","same",""
"","","","","","html-keyboard-response","185","366728","0.0-10.0-0.0-0.0-0.0-1.22","null","<span style='color:GreenYellow; font-size: 70px;'>正确! </span>","null","","","","","","","","","","","","","","","","","","","","","","","feedback_test"
"","","","","","psychophysics","186","368565","0.0-10.0-0.0-0.0-0.0-0.23","827","","f","","","","","","","","","","","","","key","f","16.6668348623853","768","428","f","true","img/C_ambi40.png","自我","same",""
"","","","","","html-keyboard-response","187","369067","0.0-10.0-0.0-0.0-0.0-1.23","null","<span style='color:GreenYellow; font-size: 70px;'>正确! </span>","null","","","","","","","","","","","","","","","","","","","","","","","feedback_test"
"","","","","","psychophysics","188","370993","0.0-10.0-0.0-0.0-0.0-0.24","924","","f","","","","","","","","","","","","","key","f","16.666894736842217","768","428","f","true","img/T_ambi40.png","をる","same",""
"","","","","","html-keyboard-response","189","371494","0.0-10.0-0.0-0.0-0.0-1.24","null","<span style='color:GreenYellow; font-size: 70px;'>正确! </span>","null","","","","","","","","","","","","","","","","","","","","","","","feedback_test"
"","","","","","psychophysics","190","373740","0.0-10.0-0.0-0.0-0.0-0.25","1244","","f","","","","","","","","","","","","","key","f","16.667248120300798","768","428","f","true","img/S_ambi40.png","朋友","same",""
"","","","","","html-keyboard-response","191","374241","0.0-10.0-0.0-0.0-0.0-1.25","null","<span style='color:GreenYellow; font-size: 70px;'>正确! </span>","null","","","","","","","","","","","","","","","","","","","","","","","feedback_test"
"","","","","","psychophysics","192","376038","0.0-10.0-0.0-0.0-0.0-0.26","795","","f","","","","","","","","","","","","","key","f","16.667196261682374","768","428","f","true","img/T_ambi40.png","をる","same",""
"","","","","","html-keyboard-response","193","376540","0.0-10.0-0.0-0.0-0.0-1.26","null","<span style='color:GreenYellow; font-size: 70px;'>正确! </span>","null","","","","","","","","","","","","","","","","","","","","","","","feedback_test"
"","","","","","psychophysics","194","379044","0.0-10.0-0.0-0.0-0.0-0.27","null","","null","","","","","","","","","","","","","key","null","16.666530201342443","768","428","j","false","img/S_ambi40.png","生人","same",""
"","","","","","html-keyboard-response","195","379546","0.0-10.0-0.0-0.0-0.0-1.27","null","<span class='add_' style='color:yellow; font-size: 70px;'> 太慢! </span>","null","","","","","","","","","","","","","","","","","","","","","","","feedback_test"
"","","","","","psychophysics","196","381508","0.0-10.0-0.0-0.0-0.0-0.28","961","","f","","","","","","","","","","","","","key","f","16.667025862068964","768","428","f","true","img/H_ambi40.png","朋友","same",""
"","","","","","html-keyboard-response","197","382009","0.0-10.0-0.0-0.0-0.0-1.28","null","<span style='color:GreenYellow; font-size: 70px;'>正确! </span>","null","","","","","","","","","","","","","","","","","","","","","","","feedback_test"
"","","","","","psychophysics","198","383849","0.0-10.0-0.0-0.0-0.0-0.29","837","","f","","","","","","","","","","","","","key","f","16.667192660550345","768","428","f","true","img/C_ambi40.png","生人","same",""
"","","","","","html-keyboard-response","199","384351","0.0-10.0-0.0-0.0-0.0-1.29","null","<span style='color:GreenYellow; font-size: 70px;'>正确! </span>","null","","","","","","","","","","","","","","","","","","","","","","","feedback_test"
"","","","","","psychophysics","200","386242","0.0-10.0-0.0-0.0-0.0-0.30","890","","j","","","","","","","","","","","","","key","j","16.666678571428616","768","428","j","true","img/C_ambi40.png","朋友","same",""
"","","","","","html-keyboard-response","201","386743","0.0-10.0-0.0-0.0-0.0-1.30","null","<span style='color:GreenYellow; font-size: 70px;'>正确! </span>","null","","","","","","","","","","","","","","","","","","","","","","","feedback_test"
"","","","","","psychophysics","202","389022","0.0-10.0-0.0-0.0-0.0-0.31","1278","","j","","","","","","","","","","","","","key","j","16.66709629629644","768","428","j","true","img/S_ambi40.png","生人","same",""
"","","","","","html-keyboard-response","203","389523","0.0-10.0-0.0-0.0-0.0-1.31","null","<span style='color:GreenYellow; font-size: 70px;'>正确! </span>","null","","","","","","","","","","","","","","","","","","","","","","","feedback_test"
"","","","","","psychophysics","204","391267","0.0-10.0-0.0-0.0-0.0-0.32","742","","f","","","","","","","","","","","","","key","f","16.66678846153865","768","428","f","true","img/S_ambi40.png","自我","same",""
"","","","","","html-keyboard-response","205","391770","0.0-10.0-0.0-0.0-0.0-1.32","null","<span style='color:GreenYellow; font-size: 70px;'>正确! </span>","null","","","","","","","","","","","","","","","","","","","","","","","feedback_test"
"","","","","","psychophysics","206","393825","0.0-10.0-0.0-0.0-0.0-0.33","1053","","j","","","","","","","","","","","","","key","j","16.666827868852483","768","428","j","true","img/S_ambi40.png","生人","same",""
"","","","","","html-keyboard-response","207","394327","0.0-10.0-0.0-0.0-0.0-1.33","null","<span style='color:GreenYellow; font-size: 70px;'>正确! </span>","null","","","","","","","","","","","","","","","","","","","","","","","feedback_test"
"","","","","","psychophysics","208","396385","0.0-10.0-0.0-0.0-0.0-0.34","1056","","j","","","","","","","","","","","","","key","j","16.66724590163966","768","428","j","true","img/C_ambi40.png","朋友","same",""
"","","","","","html-keyboard-response","209","396887","0.0-10.0-0.0-0.0-0.0-1.34","null","<span style='color:GreenYellow; font-size: 70px;'>正确! </span>","null","","","","","","","","","","","","","","","","","","","","","","","feedback_test"
"","","","","","psychophysics","210","398742","0.0-10.0-0.0-0.0-0.0-0.35","852","","j","","","","","","","","","","","","","key","j","16.666718181818514","768","428","j","true","img/H_ambi40.png","自我","same",""
"","","","","","html-keyboard-response","211","399243","0.0-10.0-0.0-0.0-0.0-1.35","null","<span style='color:GreenYellow; font-size: 70px;'>正确! </span>","null","","","","","","","","","","","","","","","","","","","","","","","feedback_test"
"","","","","","psychophysics","212","400828","0.0-10.0-0.0-0.0-0.0-0.36","582","","f","","","","","","","","","","","","","key","f","16.668107526881936","768","428","f","true","img/T_ambi40.png","をる","same",""
"","","","","","html-keyboard-response","213","401331","0.0-10.0-0.0-0.0-0.0-1.36","null","<span style='color:GreenYellow; font-size: 70px;'>正确! </span>","null","","","","","","","","","","","","","","","","","","","","","","","feedback_test"
"","","","","","psychophysics","214","403123","0.0-10.0-0.0-0.0-0.0-0.37","792","","f","","","","","","","","","","","","","key","f","16.666481132075447","768","428","j","false","img/C_ambi40.png","朋友","same",""
"","","","","","html-keyboard-response","215","403625","0.0-10.0-0.0-0.0-0.0-1.37","null","<span style='color:red; font-size: 70px;'>错误! </span>","null","","","","","","","","","","","","","","","","","","","","","","","feedback_test"
"","","","","","psychophysics","216","405486","0.0-10.0-0.0-0.0-0.0-0.38","860","","j","","","","","","","","","","","","","key","j","16.666963963963926","768","428","j","true","img/S_ambi40.png","生人","same",""
"","","","","","html-keyboard-response","217","405987","0.0-10.0-0.0-0.0-0.0-1.38","null","<span style='color:GreenYellow; font-size: 70px;'>正确! </span>","null","","","","","","","","","","","","","","","","","","","","","","","feedback_test"
"","","","","","psychophysics","218","407800","0.0-10.0-0.0-0.0-0.0-0.39","810","","f","","","","","","","","","","","","","key","f","16.667092592592343","768","428","f","true","img/S_ambi40.png","朋友","same",""
"","","","","","html-keyboard-response","219","408302","0.0-10.0-0.0-0.0-0.0-1.39","null","<span style='color:GreenYellow; font-size: 70px;'>正确! </span>","null","","","","","","","","","","","","","","","","","","","","","","","feedback_test"
"","","","","","psychophysics","220","410214","0.0-10.0-0.0-0.0-0.0-0.40","911","","f","","","","","","","","","","","","","key","f","16.667228070175554","768","428","f","true","img/C_ambi40.png","生人","same",""
"","","","","","html-keyboard-response","221","410715","0.0-10.0-0.0-0.0-0.0-1.40","null","<span style='color:GreenYellow; font-size: 70px;'>正确! </span>","null","","","","","","","","","","","","","","","","","","","","","","","feedback_test"
"","","","","","psychophysics","222","412602","0.0-10.0-0.0-0.0-0.0-0.41","884","","j","","","","","","","","","","","","","key","j","16.66693749999987","768","428","f","false","img/S_ambi40.png","自我","same",""
"","","","","","html-keyboard-response","223","413103","0.0-10.0-0.0-0.0-0.0-1.41","null","<span style='color:red; font-size: 70px;'>错误! </span>","null","","","","","","","","","","","","","","","","","","","","","","","feedback_test"
"","","","","","psychophysics","224","415183","0.0-10.0-0.0-0.0-0.0-0.42","1079","","f","","","","","","","","","","","","","key","f","16.667161290322603","768","428","f","true","img/C_ambi40.png","自我","same",""
"","","","","","html-keyboard-response","225","415686","0.0-10.0-0.0-0.0-0.0-1.42","null","<span style='color:GreenYellow; font-size: 70px;'>正确! </span>","null","","","","","","","","","","","","","","","","","","","","","","","feedback_test"
"","","","","","psychophysics","226","417420","0.0-10.0-0.0-0.0-0.0-0.43","733","","f","","","","","","","","","","","","","key","f","16.666213592232964","768","428","f","true","img/T_ambi40.png","をる","same",""
"","","","","","html-keyboard-response","227","417922","0.0-10.0-0.0-0.0-0.0-1.43","null","<span style='color:GreenYellow; font-size: 70px;'>正确! </span>","null","","","","","","","","","","","","","","","","","","","","","","","feedback_test"
"","","","","","psychophysics","228","419831","0.0-10.0-0.0-0.0-0.0-0.44","908","","f","","","","","","","","","","","","","key","f","16.666640350876964","768","428","f","true","img/H_ambi40.png","朋友","same",""
"","","","","","html-keyboard-response","229","420332","0.0-10.0-0.0-0.0-0.0-1.44","null","<span style='color:GreenYellow; font-size: 70px;'>正确! </span>","null","","","","","","","","","","","","","","","","","","","","","","","feedback_test"
"","","","","","psychophysics","230","422057","0.0-10.0-0.0-0.0-0.0-0.45","724","","j","","","","","","","","","","","","","key","j","16.667401960784428","768","428","j","true","img/S_ambi40.png","生人","same",""
"","","","","","html-keyboard-response","231","422558","0.0-10.0-0.0-0.0-0.0-1.45","null","<span style='color:GreenYellow; font-size: 70px;'>正确! </span>","null","","","","","","","","","","","","","","","","","","","","","","","feedback_test"
"","","","","","psychophysics","232","424409","0.0-10.0-0.0-0.0-0.0-0.46","849","","j","","","","","","","","","","","","","key","j","16.666718181817984","768","428","j","true","img/H_ambi40.png","自我","same",""
"","","","","","html-keyboard-response","233","424911","0.0-10.0-0.0-0.0-0.0-1.46","null","<span style='color:GreenYellow; font-size: 70px;'>正确! </span>","null","","","","","","","","","","","","","","","","","","","","","","","feedback_test"
"","","","","","psychophysics","234","426629","0.0-10.0-0.0-0.0-0.0-0.47","716","","f","","","","","","","","","","","","","key","f","16.66625742574273","768","428","f","true","img/T_ambi40.png","をる","same",""
"","","","","","html-keyboard-response","235","427131","0.0-10.0-0.0-0.0-0.0-1.47","null","<span style='color:GreenYellow; font-size: 70px;'>正确! </span>","null","","","","","","","","","","","","","","","","","","","","","","","feedback_test"
"","","","","","psychophysics","236","429439","0.0-10.0-0.0-0.0-0.0-0.48","1302","","f","","","","","","","","","","","","","key","f","16.666416058394155","768","428","f","true","img/H_ambi40.png","生人","same",""
"","","","","","html-keyboard-response","237","429941","0.0-10.0-0.0-0.0-0.0-1.48","null","<span style='color:GreenYellow; font-size: 70px;'>正确! </span>","null","","","","","","","","","","","","","","","","","","","","","","","feedback_test"
"","","","","","psychophysics","238","431825","0.0-10.0-0.0-0.0-0.0-0.49","883","","j","","","","","","","","","","","","","key","j","16.66683928571417","768","428","j","true","img/C_ambi40.png","朋友","same",""
"","","","","","html-keyboard-response","239","432326","0.0-10.0-0.0-0.0-0.0-1.49","null","<span style='color:GreenYellow; font-size: 70px;'>正确! </span>","null","","","","","","","","","","","","","","","","","","","","","","","feedback_test"
"","","","","","psychophysics","240","434379","0.0-10.0-0.0-0.0-0.0-0.50","1051","","f","","","","","","","","","","","","","key","f","16.66685245901615","768","428","j","false","img/S_ambi40.png","生人","same",""
"","","","","","html-keyboard-response","241","434882","0.0-10.0-0.0-0.0-0.0-1.50","null","<span style='color:red; font-size: 70px;'>错误! </span>","null","","","","","","","","","","","","","","","","","","","","","","","feedback_test"
"","","","","","psychophysics","242","436709","0.0-10.0-0.0-0.0-0.0-0.51","826","","j","","","","","","","","","","","","","key","j","16.665203703703742","768","428","j","true","img/C_ambi40.png","朋友","same",""
"","","","","","html-keyboard-response","243","437210","0.0-10.0-0.0-0.0-0.0-1.51","null","<span style='color:GreenYellow; font-size: 70px;'>正确! </span>","null","","","","","","","","","","","","","","","","","","","","","","","feedback_test"
"","","","","","psychophysics","244","438914","0.0-10.0-0.0-0.0-0.0-0.52","702","","j","","","","","","","","","","","","","key","j","16.667099009901353","768","428","j","true","img/H_ambi40.png","自我","same",""
"","","","","","html-keyboard-response","245","439416","0.0-10.0-0.0-0.0-0.0-1.52","null","<span style='color:GreenYellow; font-size: 70px;'>正确! </span>","null","","","","","","","","","","","","","","","","","","","","","","","feedback_test"
"","","","","","psychophysics","246","441165","0.0-10.0-0.0-0.0-0.0-0.53","747","","f","","","","","","","","","","","","","key","f","16.665902912621817","768","428","j","false","img/H_ambi40.png","自我","same",""
"","","","","","html-keyboard-response","247","441667","0.0-10.0-0.0-0.0-0.0-1.53","null","<span style='color:red; font-size: 70px;'>错误! </span>","null","","","","","","","","","","","","","","","","","","","","","","","feedback_test"
"","","","","","psychophysics","248","443600","0.0-10.0-0.0-0.0-0.0-0.54","932","","f","","","","","","","","","","","","","key","f","16.667017543859465","768","428","f","true","img/C_ambi40.png","生人","same",""
"","","","","","html-keyboard-response","249","444103","0.0-10.0-0.0-0.0-0.0-1.54","null","<span style='color:GreenYellow; font-size: 70px;'>正确! </span>","null","","","","","","","","","","","","","","","","","","","","","","","feedback_test"
"","","","","","psychophysics","250","445843","0.0-10.0-0.0-0.0-0.0-0.55","738","","f","","","","","","","","","","","","","key","f","16.667737864077687","768","428","f","true","img/T_ambi40.png","をる","same",""
"","","","","","html-keyboard-response","251","446344","0.0-10.0-0.0-0.0-0.0-1.55","null","<span style='color:GreenYellow; font-size: 70px;'>正确! </span>","null","","","","","","","","","","","","","","","","","","","","","","","feedback_test"
"","","","","","psychophysics","252","448431","0.0-10.0-0.0-0.0-0.0-0.56","1085","","f","","","","","","","","","","","","","key","f","16.66708870967728","768","428","f","true","img/S_ambi40.png","自我","same",""
"","","","","","html-keyboard-response","253","448932","0.0-10.0-0.0-0.0-0.0-1.56","null","<span style='color:GreenYellow; font-size: 70px;'>正确! </span>","null","","","","","","","","","","","","","","","","","","","","","","","feedback_test"
"","","","","","psychophysics","254","450747","0.0-10.0-0.0-0.0-0.0-0.57","813","","j","","","","","","","","","","","","","key","j","16.666570093457707","768","428","j","true","img/S_ambi40.png","生人","same",""
"","","","","","html-keyboard-response","255","451248","0.0-10.0-0.0-0.0-0.0-1.57","null","<span style='color:GreenYellow; font-size: 70px;'>正确! </span>","null","","","","","","","","","","","","","","","","","","","","","","","feedback_test"
"","","","","","psychophysics","256","453135","0.0-10.0-0.0-0.0-0.0-0.58","886","","j","","","","","","","","","","","","","key","j","16.666405405405058","768","428","j","true","img/H_ambi40.png","自我","same",""
"","","","","","html-keyboard-response","257","453636","0.0-10.0-0.0-0.0-0.0-1.58","null","<span style='color:GreenYellow; font-size: 70px;'>正确! </span>","null","","","","","","","","","","","","","","","","","","","","","","","feedback_test"
"","","","","","psychophysics","258","455396","0.0-10.0-0.0-0.0-0.0-0.59","758","","f","","","","","","","","","","","","","key","f","16.66724038461521","768","428","f","true","img/H_ambi40.png","生人","same",""
"","","","","","html-keyboard-response","259","455904","0.0-10.0-0.0-0.0-0.0-1.59","null","<span style='color:GreenYellow; font-size: 70px;'>正确! </span>","null","","","","","","","","","","","","","","","","","","","","","","","feedback_test"
"","","","","","psychophysics","260","458023","0.0-10.0-0.0-0.0-0.0-0.60","1117","","j","","","","","","","","","","","","","key","j","16.667087301587415","768","428","f","false","img/C_ambi40.png","自我","same",""
"","","","","","html-keyboard-response","261","458524","0.0-10.0-0.0-0.0-0.0-1.60","null","<span style='color:red; font-size: 70px;'>错误! </span>","null","","","","","","","","","","","","","","","","","","","","","","","feedback_test"
"","","","","","psychophysics","262","460274","0.0-10.0-0.0-0.0-0.0-0.61","748","","j","","","","","","","","","","","","","key","j","16.667144230769527","768","428","j","true","img/C_ambi40.png","朋友","same",""
"","","","","","html-keyboard-response","263","460789","0.0-10.0-0.0-0.0-0.0-1.61","null","<span style='color:GreenYellow; font-size: 70px;'>正确! </span>","null","","","","","","","","","","","","","","","","","","","","","","","feedback_test"
"","","","","","psychophysics","264","462873","0.0-10.0-0.0-0.0-0.0-0.62","1082","","j","","","","","","","","","","","","","key","j","16.66664516129024","768","428","j","true","img/S_ambi40.png","生人","same",""
"","","","","","html-keyboard-response","265","463374","0.0-10.0-0.0-0.0-0.0-1.62","null","<span style='color:GreenYellow; font-size: 70px;'>正确! </span>","null","","","","","","","","","","","","","","","","","","","","","","","feedback_test"
"","","","","","psychophysics","266","465089","0.0-10.0-0.0-0.0-0.0-0.63","713","","j","","","","","","","","","","","","","key","j","16.66667647058813","768","428","j","true","img/S_ambi40.png","生人","same",""
"","","","","","html-keyboard-response","267","465590","0.0-10.0-0.0-0.0-0.0-1.63","null","<span style='color:GreenYellow; font-size: 70px;'>正确! </span>","null","","","","","","","","","","","","","","","","","","","","","","","feedback_test"
"","","","","","psychophysics","268","467424","0.0-10.0-0.0-0.0-0.0-0.64","833","","j","","","","","","","","","","","","","key","j","16.66724770642238","768","428","j","true","img/C_ambi40.png","朋友","same",""
"","","","","","html-keyboard-response","269","467927","0.0-10.0-0.0-0.0-0.0-1.64","null","<span style='color:GreenYellow; font-size: 70px;'>正确! </span>","null","","","","","","","","","","","","","","","","","","","","","","","feedback_test"
"","","","","","psychophysics","270","469719","0.0-10.0-0.0-0.0-0.0-0.65","790","","f","","","","","","","","","","","","","key","f","16.666934579438923","768","428","f","true","img/S_ambi40.png","朋友","same",""
"","","","","","html-keyboard-response","271","470220","0.0-10.0-0.0-0.0-0.0-1.65","null","<span style='color:GreenYellow; font-size: 70px;'>正确! </span>","null","","","","","","","","","","","","","","","","","","","","","","","feedback_test"
"","","","","","psychophysics","272","472065","0.0-10.0-0.0-0.0-0.0-0.66","844","","j","","","","","","","","","","","","","key","j","16.66626605504607","768","428","j","true","img/H_ambi40.png","自我","same",""
"","","","","","html-keyboard-response","273","472567","0.0-10.0-0.0-0.0-0.0-1.66","null","<span style='color:GreenYellow; font-size: 70px;'>正确! </span>","null","","","","","","","","","","","","","","","","","","","","","","","feedback_test"
"","","","","","psychophysics","274","474541","0.0-10.0-0.0-0.0-0.0-0.67","973","","j","","","","","","","","","","","","","key","j","16.667547008547032","768","428","j","true","img/C_ambi40.png","朋友","same",""
"","","","","","html-keyboard-response","275","475042","0.0-10.0-0.0-0.0-0.0-1.67","null","<span style='color:GreenYellow; font-size: 70px;'>正确! </span>","null","","","","","","","","","","","","","","","","","","","","","","","feedback_test"
"","","","","","psychophysics","276","476958","0.0-10.0-0.0-0.0-0.0-0.68","914","","f","","","","","","","","","","","","","key","f","16.66671929824556","768","428","f","true","img/H_ambi40.png","朋友","same",""
"","","","","","html-keyboard-response","277","477459","0.0-10.0-0.0-0.0-0.0-1.68","null","<span style='color:GreenYellow; font-size: 70px;'>正确! </span>","null","","","","","","","","","","","","","","","","","","","","","","","feedback_test"
"","","","","","psychophysics","278","479299","0.0-10.0-0.0-0.0-0.0-0.69","838","","f","","","","","","","","","","","","","key","f","16.666981651376155","768","428","f","true","img/T_ambi40.png","をる","same",""
"","","","","","html-keyboard-response","279","479799","0.0-10.0-0.0-0.0-0.0-1.69","null","<span style='color:GreenYellow; font-size: 70px;'>正确! </span>","null","","","","","","","","","","","","","","","","","","","","","","","feedback_test"
"","","","","","psychophysics","280","481661","0.0-10.0-0.0-0.0-0.0-0.70","860","","j","","","","","","","","","","","","","key","j","16.666954545454463","768","428","j","true","img/H_ambi40.png","自我","same",""
"","","","","","html-keyboard-response","281","482164","0.0-10.0-0.0-0.0-0.0-1.70","null","<span style='color:GreenYellow; font-size: 70px;'>正确! </span>","null","","","","","","","","","","","","","","","","","","","","","","","feedback_test"
"","","","","","psychophysics","282","483924","0.0-10.0-0.0-0.0-0.0-0.71","759","","f","","","","","","","","","","","","","key","f","16.666190476190586","768","428","f","true","img/T_ambi40.png","をる","same",""
"","","","","","html-keyboard-response","283","484428","0.0-10.0-0.0-0.0-0.0-1.71","null","<span style='color:GreenYellow; font-size: 70px;'>正确! </span>","null","","","","","","","","","","","","","","","","","","","","","","","feedback_test"
"","","","","","psychophysics","284","486481","0.0-10.0-0.0-0.0-0.0-0.72","1050","","j","","","","","","","","","","","","","key","j","16.66731967213115","768","428","j","true","img/S_ambi40.png","生人","same",""
"","","","","","html-keyboard-response","285","486982","0.0-10.0-0.0-0.0-0.0-1.72","null","<span style='color:GreenYellow; font-size: 70px;'>正确! </span>","null","","","","","","","","","","","","","","","","","","","","","","","feedback_test"
"","","","","","psychophysics","286","488862","0.0-10.0-0.0-0.0-0.0-0.73","873","","f","","","","","","","","","","","","","key","f","16.666558558558666","768","428","f","true","img/C_ambi40.png","生人","same",""
"","","","","","html-keyboard-response","287","489366","0.0-10.0-0.0-0.0-0.0-1.73","null","<span style='color:GreenYellow; font-size: 70px;'>正确! </span>","null","","","","","","","","","","","","","","","","","","","","","","","feedback_test"
"","","","","","psychophysics","288","491519","0.0-10.0-0.0-0.0-0.0-0.74","1151","","j","","","","","","","","","","","","","key","j","16.66680468750019","768","428","j","true","img/S_ambi40.png","生人","same",""
"","","","","","html-keyboard-response","289","492021","0.0-10.0-0.0-0.0-0.0-1.74","null","<span style='color:GreenYellow; font-size: 70px;'>正确! </span>","null","","","","","","","","","","","","","","","","","","","","","","","feedback_test"
"","","","","","psychophysics","290","494524","0.0-10.0-0.0-0.0-0.0-0.75","null","","null","","","","","","","","","","","","","key","null","16.666885135134894","768","428","f","false","img/H_ambi40.png","朋友","same",""
"","","","","","html-keyboard-response","291","495025","0.0-10.0-0.0-0.0-0.0-1.75","null","<span class='add_' style='color:yellow; font-size: 70px;'> 太慢! </span>","null","","","","","","","","","","","","","","","","","","","","","","","feedback_test"
"","","","","","psychophysics","292","496708","0.0-10.0-0.0-0.0-0.0-0.76","681","","f","","","","","","","","","","","","","key","f","16.667540000000155","768","428","f","true","img/T_ambi40.png","をる","same",""
"","","","","","html-keyboard-response","293","497210","0.0-10.0-0.0-0.0-0.0-1.76","null","<span style='color:GreenYellow; font-size: 70px;'>正确! </span>","null","","","","","","","","","","","","","","","","","","","","","","","feedback_test"
"","","","","","psychophysics","294","498899","0.0-10.0-0.0-0.0-0.0-0.77","687","","j","","","","","","","","","","","","","key","j","16.66652000000002","768","428","j","true","img/H_ambi40.png","自我","same",""
"","","","","","html-keyboard-response","295","499402","0.0-10.0-0.0-0.0-0.0-1.77","null","<span style='color:GreenYellow; font-size: 70px;'>正确! </span>","null","","","","","","","","","","","","","","","","","","","","","","","feedback_test"
"","","","","","psychophysics","296","501347","0.0-10.0-0.0-0.0-0.0-0.78","942","","j","","","","","","","","","","","","","key","j","16.66714655172385","768","428","j","true","img/C_ambi40.png","朋友","same",""
"","","","","","html-keyboard-response","297","501850","0.0-10.0-0.0-0.0-0.0-1.78","null","<span style='color:GreenYellow; font-size: 70px;'>正确! </span>","null","","","","","","","","","","","","","","","","","","","","","","","feedback_test"
"","","","","","psychophysics","298","503822","0.0-10.0-0.0-0.0-0.0-0.79","970","","j","","","","","","","","","","","","","key","j","16.666435897435882","768","428","f","false","img/C_ambi40.png","自我","same",""
"","","","","","html-keyboard-response","299","504333","0.0-10.0-0.0-0.0-0.0-1.79","null","<span style='color:red; font-size: 70px;'>错误! </span>","null","","","","","","","","","","","","","","","","","","","","","","","feedback_test"
"","","","","","psychophysics","300","506267","0.0-10.0-0.0-0.0-0.0-0.80","933","","j","","","","","","","","","","","","","key","j","16.667095652174044","768","428","f","false","img/H_ambi40.png","生人","same",""
"","","","","","html-keyboard-response","301","506769","0.0-10.0-0.0-0.0-0.0-1.80","null","<span style='color:red; font-size: 70px;'>错误! </span>","null","","","","","","","","","","","","","","","","","","","","","","","feedback_test"
"","","","","","psychophysics","302","508442","0.0-10.0-0.0-0.0-0.0-0.81","671","","f","","","","","","","","","","","","","key","f","16.667282828283284","768","428","f","true","img/T_ambi40.png","をる","same",""
"","","","","","html-keyboard-response","303","508944","0.0-10.0-0.0-0.0-0.0-1.81","null","<span style='color:GreenYellow; font-size: 70px;'>正确! </span>","null","","","","","","","","","","","","","","","","","","","","","","","feedback_test"
"","","","","","psychophysics","304","510830","0.0-10.0-0.0-0.0-0.0-0.82","885","","j","","","","","","","","","","","","","key","j","16.66739285714305","768","428","j","true","img/C_ambi40.png","朋友","same",""
"","","","","","html-keyboard-response","305","511331","0.0-10.0-0.0-0.0-0.0-1.82","null","<span style='color:GreenYellow; font-size: 70px;'>正确! </span>","null","","","","","","","","","","","","","","","","","","","","","","","feedback_test"
"","","","","","psychophysics","306","513064","0.0-10.0-0.0-0.0-0.0-0.83","730","","f","","","","","","","","","","","","","key","f","16.66684466019415","768","428","f","true","img/T_ambi40.png","をる","same",""
"","","","","","html-keyboard-response","307","513566","0.0-10.0-0.0-0.0-0.0-1.83","null","<span style='color:GreenYellow; font-size: 70px;'>正确! </span>","null","","","","","","","","","","","","","","","","","","","","","","","feedback_test"
"","","","","","psychophysics","308","515608","0.0-10.0-0.0-0.0-0.0-0.84","1040","","f","","","","","","","","","","","","","key","f","16.666729508196365","768","428","f","true","img/S_ambi40.png","朋友","same",""
"","","","","","html-keyboard-response","309","516110","0.0-10.0-0.0-0.0-0.0-1.84","null","<span style='color:GreenYellow; font-size: 70px;'>正确! </span>","null","","","","","","","","","","","","","","","","","","","","","","","feedback_test"
"","","","","","psychophysics","310","518251","0.0-10.0-0.0-0.0-0.0-0.85","1139","","j","","","","","","","","","","","","","key","j","16.6666929133857","768","428","f","false","img/S_ambi40.png","自我","same",""
"","","","","","html-keyboard-response","311","518752","0.0-10.0-0.0-0.0-0.0-1.85","null","<span style='color:red; font-size: 70px;'>错误! </span>","null","","","","","","","","","","","","","","","","","","","","","","","feedback_test"
"","","","","","psychophysics","312","520392","0.0-10.0-0.0-0.0-0.0-0.86","638","","j","","","","","","","","","","","","","key","j","16.667040816326484","768","428","j","true","img/H_ambi40.png","自我","same",""
"","","","","","html-keyboard-response","313","520893","0.0-10.0-0.0-0.0-0.0-1.86","null","<span style='color:GreenYellow; font-size: 70px;'>正确! </span>","null","","","","","","","","","","","","","","","","","","","","","","","feedback_test"
"","","","","","psychophysics","314","522631","0.0-10.0-0.0-0.0-0.0-0.87","736","","j","","","","","","","","","","","","","key","j","16.666805825243113","768","428","j","true","img/S_ambi40.png","生人","same",""
"","","","","","html-keyboard-response","315","523133","0.0-10.0-0.0-0.0-0.0-1.87","null","<span style='color:GreenYellow; font-size: 70px;'>正确! </span>","null","","","","","","","","","","","","","","","","","","","","","","","feedback_test"
"","","","","","psychophysics","316","524973","0.0-10.0-0.0-0.0-0.0-0.88","840","","j","","","","","","","","","","","","","key","j","16.66674311926595","768","428","j","true","img/C_ambi40.png","朋友","same",""
"","","","","","html-keyboard-response","317","525474","0.0-10.0-0.0-0.0-0.0-1.88","null","<span style='color:GreenYellow; font-size: 70px;'>正确! </span>","null","","","","","","","","","","","","","","","","","","","","","","","feedback_test"
"","","","","","psychophysics","318","527204","0.0-10.0-0.0-0.0-0.0-0.89","729","","j","","","","","","","","","","","","","key","j","16.66691176470611","768","428","j","true","img/H_ambi40.png","自我","same",""
"","","","","","html-keyboard-response","319","527705","0.0-10.0-0.0-0.0-0.0-1.89","null","<span style='color:GreenYellow; font-size: 70px;'>正确! </span>","null","","","","","","","","","","","","","","","","","","","","","","","feedback_test"
"","","","","","psychophysics","320","529505","0.0-10.0-0.0-0.0-0.0-0.90","798","","j","","","","","","","","","","","","","key","j","16.666801886792285","768","428","j","true","img/C_ambi40.png","朋友","same",""
"","","","","","html-keyboard-response","321","530007","0.0-10.0-0.0-0.0-0.0-1.90","null","<span style='color:GreenYellow; font-size: 70px;'>正确! </span>","null","","","","","","","","","","","","","","","","","","","","","","","feedback_test"
"","","","","","psychophysics","322","531916","0.0-10.0-0.0-0.0-0.0-0.91","907","","f","","","","","","","","","","","","","key","f","16.66715044247819","768","428","f","true","img/C_ambi40.png","生人","same",""
"","","","","","html-keyboard-response","323","532417","0.0-10.0-0.0-0.0-0.0-1.91","null","<span style='color:GreenYellow; font-size: 70px;'>正确! </span>","null","","","","","","","","","","","","","","","","","","","","","","","feedback_test"
"","","","","","psychophysics","324","534274","0.0-10.0-0.0-0.0-0.0-0.92","856","","f","","","","","","","","","","","","","key","f","16.66666363636349","768","428","f","true","img/T_ambi40.png","をる","same",""
"","","","","","html-keyboard-response","325","534775","0.0-10.0-0.0-0.0-0.0-1.92","null","<span style='color:GreenYellow; font-size: 70px;'>正确! </span>","null","","","","","","","","","","","","","","","","","","","","","","","feedback_test"
"","","","","","psychophysics","326","537153","0.0-10.0-0.0-0.0-0.0-0.93","1376","","j","","","","","","","","","","","","","key","j","16.66721276595779","768","428","j","true","img/S_ambi40.png","生人","same",""
"","","","","","html-keyboard-response","327","537654","0.0-10.0-0.0-0.0-0.0-1.93","null","<span style='color:GreenYellow; font-size: 70px;'>正确! </span>","null","","","","","","","","","","","","","","","","","","","","","","","feedback_test"
"","","","","","psychophysics","328","539402","0.0-10.0-0.0-0.0-0.0-0.94","745","","j","","","","","","","","","","","","","key","j","16.66666019417445","768","428","j","true","img/S_ambi40.png","生人","same",""
"","","","","","html-keyboard-response","329","539903","0.0-10.0-0.0-0.0-0.0-1.94","null","<span style='color:GreenYellow; font-size: 70px;'>正确! </span>","null","","","","","","","","","","","","","","","","","","","","","","","feedback_test"
"","","","","","psychophysics","330","541649","0.0-10.0-0.0-0.0-0.0-0.95","745","","j","","","","","","","","","","","","","key","j","16.666815533980873","768","428","j","true","img/C_ambi40.png","朋友","same",""
"","","","","","html-keyboard-response","331","542151","0.0-10.0-0.0-0.0-0.0-1.95","null","<span style='color:GreenYellow; font-size: 70px;'>正确! </span>","null","","","","","","","","","","","","","","","","","","","","","","","feedback_test"
"","","","","","psychophysics","332","543780","0.0-10.0-0.0-0.0-0.0-0.96","627","","f","","","","","","","","","","","","","key","f","16.666814432989508","768","428","j","false","img/C_ambi40.png","朋友","same",""
"","","","","","html-keyboard-response","333","544281","0.0-10.0-0.0-0.0-0.0-1.96","null","<span style='color:red; font-size: 70px;'>错误! </span>","null","","","","","","","","","","","","","","","","","","","","","","","feedback_test"
"","","","","","psychophysics","334","546706","0.0-10.0-0.0-0.0-0.0-0.97","1423","","f","","","","","","","","","","","","","key","f","16.667069444444174","768","428","f","true","img/S_ambi40.png","自我","same",""
"","","","","","html-keyboard-response","335","547207","0.0-10.0-0.0-0.0-0.0-1.97","null","<span style='color:GreenYellow; font-size: 70px;'>正确! </span>","null","","","","","","","","","","","","","","","","","","","","","","","feedback_test"
"","","","","","psychophysics","336","549279","0.0-10.0-0.0-0.0-0.0-0.98","1067","","f","","","","","","","","","","","","","key","f","16.666886178861805","768","428","f","true","img/H_ambi40.png","朋友","same",""
"","","","","","html-keyboard-response","337","549781","0.0-10.0-0.0-0.0-0.0-1.98","null","<span style='color:GreenYellow; font-size: 70px;'>正确! </span>","null","","","","","","","","","","","","","","","","","","","","","","","feedback_test"
"","","","","","psychophysics","338","551991","0.0-10.0-0.0-0.0-0.0-0.99","1209","","j","","","","","","","","","","","","","key","j","16.667656488549532","768","428","j","true","img/S_ambi40.png","生人","same",""
"","","","","","html-keyboard-response","339","552492","0.0-10.0-0.0-0.0-0.0-1.99","null","<span style='color:GreenYellow; font-size: 70px;'>正确! </span>","null","","","","","","","","","","","","","","","","","","","","","","","feedback_test"
"","","","","","psychophysics","340","554486","0.0-10.0-0.0-0.0-0.0-0.100","992","","f","","","","","","","","","","","","","key","f","16.667779661017526","768","428","f","true","img/H_ambi40.png","生人","same",""
"","","","","","html-keyboard-response","341","554992","0.0-10.0-0.0-0.0-0.0-1.100","null","<span style='color:GreenYellow; font-size: 70px;'>正确! </span>","null","","","","","","","","","","","","","","","","","","","","","","","feedback_test"
"","","","","","psychophysics","342","556759","0.0-10.0-0.0-0.0-0.0-0.101","766","","j","","","","","","","","","","","","","key","j","16.66702884615426","768","428","j","true","img/H_ambi40.png","自我","same",""
"","","","","","html-keyboard-response","343","557261","0.0-10.0-0.0-0.0-0.0-1.101","null","<span style='color:GreenYellow; font-size: 70px;'>正确! </span>","null","","","","","","","","","","","","","","","","","","","","","","","feedback_test"
"","","","","","psychophysics","344","558918","0.0-10.0-0.0-0.0-0.0-0.102","657","","j","","","","","","","","","","","","","key","j","16.667040816326484","768","428","j","true","img/H_ambi40.png","自我","same",""
"","","","","","html-keyboard-response","345","559419","0.0-10.0-0.0-0.0-0.0-1.102","null","<span style='color:GreenYellow; font-size: 70px;'>正确! </span>","null","","","","","","","","","","","","","","","","","","","","","","","feedback_test"
"","","","","","psychophysics","346","561133","0.0-10.0-0.0-0.0-0.0-0.103","711","","f","","","","","","","","","","","","","key","f","16.666931372549037","768","428","f","true","img/T_ambi40.png","をる","same",""
"","","","","","html-keyboard-response","347","561635","0.0-10.0-0.0-0.0-0.0-1.103","null","<span style='color:GreenYellow; font-size: 70px;'>正确! </span>","null","","","","","","","","","","","","","","","","","","","","","","","feedback_test"
"","","","","","psychophysics","348","563204","0.0-10.0-0.0-0.0-0.0-0.104","567","","f","","","","","","","","","","","","","key","f","16.666827956989398","768","428","f","true","img/T_ambi40.png","をる","same",""
"","","","","","html-keyboard-response","349","563706","0.0-10.0-0.0-0.0-0.0-1.104","null","<span style='color:GreenYellow; font-size: 70px;'>正确! </span>","null","","","","","","","","","","","","","","","","","","","","","","","feedback_test"
"","","","","","psychophysics","350","565427","0.0-10.0-0.0-0.0-0.0-0.105","720","","j","","","","","","","","","","","","","key","j","16.66787254901982","768","428","f","false","img/C_ambi40.png","自我","same",""
"","","","","","html-keyboard-response","351","565929","0.0-10.0-0.0-0.0-0.0-1.105","null","<span style='color:red; font-size: 70px;'>错误! </span>","null","","","","","","","","","","","","","","","","","","","","","","","feedback_test"
"","","","","","psychophysics","352","567624","0.0-10.0-0.0-0.0-0.0-0.106","693","","j","","","","","","","","","","","","","key","j","16.666779999999562","768","428","j","true","img/H_ambi40.png","自我","same",""
"","","","","","html-keyboard-response","353","568125","0.0-10.0-0.0-0.0-0.0-1.106","null","<span style='color:GreenYellow; font-size: 70px;'>正确! </span>","null","","","","","","","","","","","","","","","","","","","","","","","feedback_test"
"","","","","","psychophysics","354","569642","0.0-10.0-0.0-0.0-0.0-0.107","516","","f","","","","","","","","","","","","","key","f","16.66620224719119","768","428","f","true","img/S_ambi40.png","朋友","same",""
"","","","","","html-keyboard-response","355","570143","0.0-10.0-0.0-0.0-0.0-1.107","null","<span style='color:GreenYellow; font-size: 70px;'>正确! </span>","null","","","","","","","","","","","","","","","","","","","","","","","feedback_test"
"","","","","","html-keyboard-response","356","576235","0.0-10.0-0.0-0.0-1.0","6090","<style>.context{color:white; font-size: 35px; line-height:40px}</style>                          <div><p class='context'>您正确回答了88% 的试次。</p><p class='context'>您的平均反应时为885毫秒。</p><p class='context'>请按任意键进入休息</p></div>"," ","","","","","","","","","","","","","","","","","","","","","","",""
"","","","","","html-button-response","357","593909","0.0-10.0-0.0-0.0-2.0","17669","
                    <p>您当前还剩余5组实验</p>
                    <p>现在是休息时间，当您结束休息后，您可以点击 结束休息 按钮 继续</p>
                    <p>建议休息时间还剩余<span id=""iii"">60</span>秒</p>","0","","","","","","","","","","","","","","","","","","","","","","",""
"","","","","","psychophysics","358","596253","0.0-10.0-0.0-0.0-0.1-0.108","1341","","j","","","","","","","","","","","","","key","j","16.666071942446273","768","428","j","true","img/H_ambi40.png","自我","same",""
"","","","","","html-keyboard-response","359","596754","0.0-10.0-0.0-0.0-0.1-1.108","null","<span style='color:GreenYellow; font-size: 70px;'>正确! </span>","null","","","","","","","","","","","","","","","","","","","","","","","feedback_test"
"","","","","","psychophysics","360","598885","0.0-10.0-0.0-0.0-0.1-0.109","1129","","j","","","","","","","","","","","","","key","j","16.66637795275594","768","428","f","false","img/S_ambi40.png","朋友","same",""
"","","","","","html-keyboard-response","361","599387","0.0-10.0-0.0-0.0-0.1-1.109","null","<span style='color:red; font-size: 70px;'>错误! </span>","null","","","","","","","","","","","","","","","","","","","","","","","feedback_test"
"","","","","","psychophysics","362","601034","0.0-10.0-0.0-0.0-0.1-0.110","645","","f","","","","","","","","","","","","","key","f","16.667775510204482","768","428","f","true","img/T_ambi40.png","をる","same",""
"","","","","","html-keyboard-response","363","601536","0.0-10.0-0.0-0.0-0.1-1.110","null","<span style='color:GreenYellow; font-size: 70px;'>正确! </span>","null","","","","","","","","","","","","","","","","","","","","","","","feedback_test"
"","","","","","psychophysics","364","603040","0.0-10.0-0.0-0.0-0.1-0.111","503","","f","","","","","","","","","","","","","key","f","16.666820224718546","768","428","f","true","img/T_ambi40.png","をる","same",""
"","","","","","html-keyboard-response","365","603542","0.0-10.0-0.0-0.0-0.1-1.111","null","<span style='color:GreenYellow; font-size: 70px;'>正确! </span>","null","","","","","","","","","","","","","","","","","","","","","","","feedback_test"
"","","","","","psychophysics","366","605521","0.0-10.0-0.0-0.0-0.1-0.112","978","","f","","","","","","","","","","","","","key","f","16.66696581196609","768","428","f","true","img/C_ambi40.png","自我","same",""
"","","","","","html-keyboard-response","367","606022","0.0-10.0-0.0-0.0-0.1-1.112","null","<span style='color:GreenYellow; font-size: 70px;'>正确! </span>","null","","","","","","","","","","","","","","","","","","","","","","","feedback_test"
"","","","","","psychophysics","368","607991","0.0-10.0-0.0-0.0-0.1-0.113","968","","j","","","","","","","","","","","","","key","j","16.666837606837767","768","428","j","true","img/C_ambi40.png","朋友","same",""
"","","","","","html-keyboard-response","369","608499","0.0-10.0-0.0-0.0-0.1-1.113","null","<span style='color:GreenYellow; font-size: 70px;'>正确! </span>","null","","","","","","","","","","","","","","","","","","","","","","","feedback_test"
"","","","","","psychophysics","370","610420","0.0-10.0-0.0-0.0-0.1-0.114","920","","j","","","","","","","","","","","","","key","j","16.66692105263141","768","428","j","true","img/S_ambi40.png","生人","same",""
"","","","","","html-keyboard-response","371","610923","0.0-10.0-0.0-0.0-0.1-1.114","null","<span style='color:GreenYellow; font-size: 70px;'>正确! </span>","null","","","","","","","","","","","","","","","","","","","","","","","feedback_test"
"","","","","","psychophysics","372","612679","0.0-10.0-0.0-0.0-0.1-0.115","754","","f","","","","","","","","","","","","","key","f","16.666932692308016","768","428","f","true","img/C_ambi40.png","生人","same",""
"","","","","","html-keyboard-response","373","613180","0.0-10.0-0.0-0.0-0.1-1.115","null","<span style='color:GreenYellow; font-size: 70px;'>正确! </span>","null","","","","","","","","","","","","","","","","","","","","","","","feedback_test"
"","","","","","psychophysics","374","615483","0.0-10.0-0.0-0.0-0.1-0.116","1301","","f","","","","","","","","","","","","","key","f","16.666576642335738","768","428","f","true","img/S_ambi40.png","自我","same",""
"","","","","","html-keyboard-response","375","615985","0.0-10.0-0.0-0.0-0.1-1.116","null","<span style='color:GreenYellow; font-size: 70px;'>正确! </span>","null","","","","","","","","","","","","","","","","","","","","","","","feedback_test"
"","","","","","psychophysics","376","617662","0.0-10.0-0.0-0.0-0.1-0.117","676","","j","","","","","","","","","","","","","key","j","16.66689898989944","768","428","j","true","img/C_ambi40.png","朋友","same",""
"","","","","","html-keyboard-response","377","618163","0.0-10.0-0.0-0.0-0.1-1.117","null","<span style='color:GreenYellow; font-size: 70px;'>正确! </span>","null","","","","","","","","","","","","","","","","","","","","","","","feedback_test"
"","","","","","psychophysics","378","620299","0.0-10.0-0.0-0.0-0.1-0.118","1135","","f","","","","","","","","","","","","","key","f","16.667338582677914","768","428","j","false","img/H_ambi40.png","自我","same",""
"","","","","","html-keyboard-response","379","620802","0.0-10.0-0.0-0.0-0.1-1.118","null","<span style='color:red; font-size: 70px;'>错误! </span>","null","","","","","","","","","","","","","","","","","","","","","","","feedback_test"
"","","","","","psychophysics","380","622386","0.0-10.0-0.0-0.0-0.1-0.119","583","","j","","","","","","","","","","","","","key","j","16.666627659573855","768","428","j","true","img/H_ambi40.png","自我","same",""
"","","","","","html-keyboard-response","381","622887","0.0-10.0-0.0-0.0-0.1-1.119","null","<span style='color:GreenYellow; font-size: 70px;'>正确! </span>","null","","","","","","","","","","","","","","","","","","","","","","","feedback_test"
"","","","","","psychophysics","382","624316","0.0-10.0-0.0-0.0-0.1-0.120","427","","j","","","","","","","","","","","","","key","j","16.667214285713964","768","428","f","false","img/H_ambi40.png","朋友","same",""
"","","","","","html-keyboard-response","383","624818","0.0-10.0-0.0-0.0-0.1-1.120","null","<span style='color:red; font-size: 70px;'>错误! </span>","null","","","","","","","","","","","","","","","","","","","","","","","feedback_test"
"","","","","","psychophysics","384","626894","0.0-10.0-0.0-0.0-0.1-0.121","1076","","j","","","","","","","","","","","","","key","j","16.666243902439767","768","428","j","true","img/S_ambi40.png","生人","same",""
"","","","","","html-keyboard-response","385","627395","0.0-10.0-0.0-0.0-0.1-1.121","null","<span style='color:GreenYellow; font-size: 70px;'>正确! </span>","null","","","","","","","","","","","","","","","","","","","","","","","feedback_test"
"","","","","","psychophysics","386","629074","0.0-10.0-0.0-0.0-0.1-0.122","676","","f","","","","","","","","","","","","","key","f","16.667129999999887","768","428","f","true","img/T_ambi40.png","をる","same",""
"","","","","","html-keyboard-response","387","629576","0.0-10.0-0.0-0.0-0.1-1.122","null","<span style='color:GreenYellow; font-size: 70px;'>正确! </span>","null","","","","","","","","","","","","","","","","","","","","","","","feedback_test"
"","","","","","psychophysics","388","631854","0.0-10.0-0.0-0.0-0.1-0.123","1276","","f","","","","","","","","","","","","","key","f","16.666882352941148","768","428","f","true","img/H_ambi40.png","生人","same",""
"","","","","","html-keyboard-response","389","632355","0.0-10.0-0.0-0.0-0.1-1.123","null","<span style='color:GreenYellow; font-size: 70px;'>正确! </span>","null","","","","","","","","","","","","","","","","","","","","","","","feedback_test"
"","","","","","psychophysics","390","634312","0.0-10.0-0.0-0.0-0.1-0.124","955","","j","","","","","","","","","","","","","key","j","16.666913793104147","768","428","j","true","img/C_ambi40.png","朋友","same",""
"","","","","","html-keyboard-response","391","634813","0.0-10.0-0.0-0.0-0.1-1.124","null","<span style='color:GreenYellow; font-size: 70px;'>正确! </span>","null","","","","","","","","","","","","","","","","","","","","","","","feedback_test"
"","","","","","psychophysics","392","636677","0.0-10.0-0.0-0.0-0.1-0.125","863","","f","","","","","","","","","","","","","key","f","16.667522522522273","768","428","j","false","img/S_ambi40.png","生人","same",""
"","","","","","html-keyboard-response","393","637178","0.0-10.0-0.0-0.0-0.1-1.125","null","<span style='color:red; font-size: 70px;'>错误! </span>","null","","","","","","","","","","","","","","","","","","","","","","","feedback_test"
"","","","","","psychophysics","394","639154","0.0-10.0-0.0-0.0-0.1-0.126","973","","f","","","","","","","","","","","","","key","f","16.666923728812943","768","428","f","true","img/S_ambi40.png","自我","same",""
"","","","","","html-keyboard-response","395","639655","0.0-10.0-0.0-0.0-0.1-1.126","null","<span style='color:GreenYellow; font-size: 70px;'>正确! </span>","null","","","","","","","","","","","","","","","","","","","","","","","feedback_test"
"","","","","","psychophysics","396","641302","0.0-10.0-0.0-0.0-0.1-0.127","646","","j","","","","","","","","","","","","","key","j","16.667469387755215","768","428","j","true","img/H_ambi40.png","自我","same",""
"","","","","","html-keyboard-response","397","641816","0.0-10.0-0.0-0.0-0.1-1.127","null","<span style='color:GreenYellow; font-size: 70px;'>正确! </span>","null","","","","","","","","","","","","","","","","","","","","","","","feedback_test"
"","","","","","psychophysics","398","643591","0.0-10.0-0.0-0.0-0.1-0.128","773","","j","","","","","","","","","","","","","key","j","16.666942857142672","768","428","j","true","img/S_ambi40.png","生人","same",""
"","","","","","html-keyboard-response","399","644092","0.0-10.0-0.0-0.0-0.1-1.128","null","<span style='color:GreenYellow; font-size: 70px;'>正确! </span>","null","","","","","","","","","","","","","","","","","","","","","","","feedback_test"
"","","","","","psychophysics","400","645706","0.0-10.0-0.0-0.0-0.1-0.129","612","","f","","","","","","","","","","","","","key","f","16.666343750000426","768","428","f","true","img/T_ambi40.png","をる","same",""
"","","","","","html-keyboard-response","401","646208","0.0-10.0-0.0-0.0-0.1-1.129","null","<span style='color:GreenYellow; font-size: 70px;'>正确! </span>","null","","","","","","","","","","","","","","","","","","","","","","","feedback_test"
"","","","","","psychophysics","402","647994","0.0-10.0-0.0-0.0-0.1-0.130","785","","j","","","","","","","","","","","","","key","j","16.667415094338928","768","428","j","true","img/S_ambi40.png","生人","same",""
"","","","","","html-keyboard-response","403","648496","0.0-10.0-0.0-0.0-0.1-1.130","null","<span style='color:GreenYellow; font-size: 70px;'>正确! </span>","null","","","","","","","","","","","","","","","","","","","","","","","feedback_test"
"","","","","","psychophysics","404","650060","0.0-10.0-0.0-0.0-0.1-0.131","562","","f","","","","","","","","","","","","","key","f","16.667494623655184","768","428","f","true","img/T_ambi40.png","をる","same",""
"","","","","","html-keyboard-response","405","650561","0.0-10.0-0.0-0.0-0.1-1.131","null","<span style='color:GreenYellow; font-size: 70px;'>正确! </span>","null","","","","","","","","","","","","","","","","","","","","","","","feedback_test"
"","","","","","psychophysics","406","652281","0.0-10.0-0.0-0.0-0.1-0.132","719","","j","","","","","","","","","","","","","key","j","16.6662352941177","768","428","j","true","img/H_ambi40.png","自我","same",""
"","","","","","html-keyboard-response","407","652783","0.0-10.0-0.0-0.0-0.1-1.132","null","<span style='color:GreenYellow; font-size: 70px;'>正确! </span>","null","","","","","","","","","","","","","","","","","","","","","","","feedback_test"
"","","","","","psychophysics","408","654565","0.0-10.0-0.0-0.0-0.1-0.133","781","","j","","","","","","","","","","","","","key","j","16.666847619047346","768","428","j","true","img/H_ambi40.png","自我","same",""
"","","","","","html-keyboard-response","409","655066","0.0-10.0-0.0-0.0-0.1-1.133","null","<span style='color:GreenYellow; font-size: 70px;'>正确! </span>","null","","","","","","","","","","","","","","","","","","","","","","","feedback_test"
"","","","","","psychophysics","410","656714","0.0-10.0-0.0-0.0-0.1-0.134","646","","j","","","","","","","","","","","","","key","j","16.667123711340313","768","428","j","true","img/C_ambi40.png","朋友","same",""
"","","","","","html-keyboard-response","411","657216","0.0-10.0-0.0-0.0-0.1-1.134","null","<span style='color:GreenYellow; font-size: 70px;'>正确! </span>","null","","","","","","","","","","","","","","","","","","","","","","","feedback_test"
"","","","","","psychophysics","412","658683","0.0-10.0-0.0-0.0-0.1-0.135","466","","j","","","","","","","","","","","","","key","j","16.66695348837218","768","428","j","true","img/C_ambi40.png","朋友","same",""
"","","","","","html-keyboard-response","413","659184","0.0-10.0-0.0-0.0-0.1-1.135","null","<span style='color:GreenYellow; font-size: 70px;'>正确! </span>","null","","","","","","","","","","","","","","","","","","","","","","","feedback_test"
"","","","","","psychophysics","414","660611","0.0-10.0-0.0-0.0-0.1-0.136","426","","j","","","","","","","","","","","","","key","j","16.671619047620055","768","428","f","false","img/S_ambi40.png","朋友","same",""
"","","","","","html-keyboard-response","415","661113","0.0-10.0-0.0-0.0-0.1-1.136","null","<span style='color:red; font-size: 70px;'>错误! </span>","null","","","","","","","","","","","","","","","","","","","","","","","feedback_test"
"","","","","","psychophysics","416","662950","0.0-10.0-0.0-0.0-0.1-0.137","835","","j","","","","","","","","","","","","","key","j","16.666825688073473","768","428","j","true","img/S_ambi40.png","生人","same",""
"","","","","","html-keyboard-response","417","663451","0.0-10.0-0.0-0.0-0.1-1.137","null","<span style='color:GreenYellow; font-size: 70px;'>正确! </span>","null","","","","","","","","","","","","","","","","","","","","","","","feedback_test"
"","","","","","psychophysics","418","665203","0.0-10.0-0.0-0.0-0.1-0.138","751","","j","","","","","","","","","","","","","key","j","16.66700000000016","768","428","j","true","img/C_ambi40.png","朋友","same",""
"","","","","","html-keyboard-response","419","665705","0.0-10.0-0.0-0.0-0.1-1.138","null","<span style='color:GreenYellow; font-size: 70px;'>正确! </span>","null","","","","","","","","","","","","","","","","","","","","","","","feedback_test"
"","","","","","psychophysics","420","667749","0.0-10.0-0.0-0.0-0.1-0.139","1042","","f","","","","","","","","","","","","","key","f","16.66603305785097","768","428","f","true","img/H_ambi40.png","生人","same",""
"","","","","","html-keyboard-response","421","668251","0.0-10.0-0.0-0.0-0.1-1.139","null","<span style='color:GreenYellow; font-size: 70px;'>正确! </span>","null","","","","","","","","","","","","","","","","","","","","","","","feedback_test"
"","","","","","psychophysics","422","670271","0.0-10.0-0.0-0.0-0.1-0.140","1013","","f","","","","","","","","","","","","","key","f","16.667008403360946","768","428","f","true","img/H_ambi40.png","朋友","same",""
"","","","","","html-keyboard-response","423","670772","0.0-10.0-0.0-0.0-0.1-1.140","null","<span style='color:GreenYellow; font-size: 70px;'>正确! </span>","null","","","","","","","","","","","","","","","","","","","","","","","feedback_test"
"","","","","","psychophysics","424","672278","0.0-10.0-0.0-0.0-0.1-0.141","504","","j","","","","","","","","","","","","","key","j","16.667146067414954","768","428","f","false","img/C_ambi40.png","自我","same",""
"","","","","","html-keyboard-response","425","672781","0.0-10.0-0.0-0.0-0.1-1.141","null","<span style='color:red; font-size: 70px;'>错误! </span>","null","","","","","","","","","","","","","","","","","","","","","","","feedback_test"
"","","","","","psychophysics","426","674513","0.0-10.0-0.0-0.0-0.1-0.142","730","","f","","","","","","","","","","","","","key","f","16.667281553397878","768","428","f","true","img/T_ambi40.png","をる","same",""
"","","","","","html-keyboard-response","427","675014","0.0-10.0-0.0-0.0-0.1-1.142","null","<span style='color:GreenYellow; font-size: 70px;'>正确! </span>","null","","","","","","","","","","","","","","","","","","","","","","","feedback_test"
"","","","","","psychophysics","428","676743","0.0-10.0-0.0-0.0-0.1-0.143","727","","j","","","","","","","","","","","","","key","j","16.666883495145758","768","428","f","false","img/C_ambi40.png","生人","same",""
"","","","","","html-keyboard-response","429","677245","0.0-10.0-0.0-0.0-0.1-1.143","null","<span style='color:red; font-size: 70px;'>错误! </span>","null","","","","","","","","","","","","","","","","","","","","","","","feedback_test"
"","","","","","psychophysics","430","679171","0.0-10.0-0.0-0.0-0.1-0.144","924","","j","","","","","","","","","","","","","key","j","16.667350877192803","768","428","j","true","img/C_ambi40.png","朋友","same",""
"","","","","","html-keyboard-response","431","679672","0.0-10.0-0.0-0.0-0.1-1.144","null","<span style='color:GreenYellow; font-size: 70px;'>正确! </span>","null","","","","","","","","","","","","","","","","","","","","","","","feedback_test"
"","","","","","psychophysics","432","681861","0.0-10.0-0.0-0.0-0.1-0.145","1187","","j","","","","","","","","","","","","","key","j","16.667261538461137","768","428","j","true","img/H_ambi40.png","自我","same",""
"","","","","","html-keyboard-response","433","682363","0.0-10.0-0.0-0.0-0.1-1.145","null","<span style='color:GreenYellow; font-size: 70px;'>正确! </span>","null","","","","","","","","","","","","","","","","","","","","","","","feedback_test"
"","","","","","psychophysics","434","684431","0.0-10.0-0.0-0.0-0.1-0.146","1066","","f","","","","","","","","","","","","","key","f","16.667804878048894","768","428","f","true","img/S_ambi40.png","朋友","same",""
"","","","","","html-keyboard-response","435","684933","0.0-10.0-0.0-0.0-0.1-1.146","null","<span style='color:GreenYellow; font-size: 70px;'>正确! </span>","null","","","","","","","","","","","","","","","","","","","","","","","feedback_test"
"","","","","","psychophysics","436","686550","0.0-10.0-0.0-0.0-0.1-0.147","616","","f","","","","","","","","","","","","","key","f","16.666468750000302","768","428","f","true","img/T_ambi40.png","をる","same",""
"","","","","","html-keyboard-response","437","687052","0.0-10.0-0.0-0.0-0.1-1.147","null","<span style='color:GreenYellow; font-size: 70px;'>正确! </span>","null","","","","","","","","","","","","","","","","","","","","","","","feedback_test"
"","","","","","psychophysics","438","689066","0.0-10.0-0.0-0.0-0.1-0.148","1013","","f","","","","","","","","","","","","","key","f","16.66707563025196","768","428","f","true","img/S_ambi40.png","自我","same",""
"","","","","","html-keyboard-response","439","689568","0.0-10.0-0.0-0.0-0.1-1.148","null","<span style='color:GreenYellow; font-size: 70px;'>正确! </span>","null","","","","","","","","","","","","","","","","","","","","","","","feedback_test"
"","","","","","psychophysics","440","691420","0.0-10.0-0.0-0.0-0.1-0.149","851","","j","","","","","","","","","","","","","key","j","16.666563636362977","768","428","j","true","img/C_ambi40.png","朋友","same",""
"","","","","","html-keyboard-response","441","691922","0.0-10.0-0.0-0.0-0.1-1.149","null","<span style='color:GreenYellow; font-size: 70px;'>正确! </span>","null","","","","","","","","","","","","","","","","","","","","","","","feedback_test"
"","","","","","psychophysics","442","693713","0.0-10.0-0.0-0.0-0.1-0.150","789","","f","","","","","","","","","","","","","key","f","16.667462264150295","768","428","f","true","img/H_ambi40.png","朋友","same",""
"","","","","","html-keyboard-response","443","694214","0.0-10.0-0.0-0.0-0.1-1.150","null","<span style='color:GreenYellow; font-size: 70px;'>正确! </span>","null","","","","","","","","","","","","","","","","","","","","","","","feedback_test"
