"success","timeout","failed_images","failed_audio","failed_video","trial_type","trial_index","time_elapsed","internal_node_id","rt","stimulus","response","value","item_width_mm","item_height_mm","item_width_px","px2mm","view_dist_mm","item_width_deg","px2deg","scale_factor","win_width_deg","win_height_deg","view_history","response_type","key_press","avg_frame_time","center_x","center_y","correct_response","correct","Image","word","condition","screen_id"
"true","false","[]","[]","[]","preload","0","3340","0.0-0.0","","","","","","","","","","","","","","","","","","","","","","","","","",""
"","","","","","html-keyboard-response","1","67768","0.0-1.0","64427","
     <p>您好，欢迎参加本次实验。</p>
     <p>为充分保障您的权利，请确保您已经知晓并同意《参与实验同意书》以及《数据公开知情同意书》。</p>
     <p>如果您未见过上述内容，请咨询实验员。</p>
     <p>如果您选择继续实验，则表示您已经清楚两份知情同意书的内容并同意。</p>
     <p> <div style = ""color: green""><按任意键至下页></div> </p>
     "," ","","","","","","","","","","","","","","","","","","","","","","",""
"","","","","","html-keyboard-response","2","69215","0.0-2.0","1447","
     <p>本实验首先需要您填写一些基本个人信息。</p>
     <p> <div style = ""color: green""><按任意键至下页></div></p>
     "," ","","","","","","","","","","","","","","","","","","","","","","",""
"","","","","","call-function","3","69216","0.0-3.0-0.0","","","","","","","","","","","","","","","","","","","","","","","","","",""
"","","","","","survey-html-form","4","76340","0.0-3.0-1.0","7122","","{""Q0"":""12""}","","","","","","","","","","","","","","","","","","","","","","",""
"","","","","","html-button-response","5","77328","0.0-3.0-2.0","987","<p style = 'color : white'>您的性别</p>","1","","","","","","","","","","","","","","","","","","","","","","",""
"","","","","","survey-html-form","6","81416","0.0-3.0-3.0","4087","","{""Q0"":""2004""}","","","","","","","","","","","","","","","","","","","","","","",""
"","","","","","survey-html-form","7","84182","0.0-3.0-4.0","2765","","{""Q0"":""5""}","","","","","","","","","","","","","","","","","","","","","","",""
"","","","","","virtual-chinrest","8","234668","0.0-4.0","150485","","","","85.6","53.98","509.88852245637725","5.962188543008432","479.67","10.197770449127546","50","0.7413385148953597","30.72","14.92","","","","","","","","","","","",""
"true","","","","","fullscreen","9","237406","0.0-5.0","","","","","","","","","","","","","","","","","","","","","","","","","",""
"","","","","","instructions","10","297158","0.0-6.0","59750","","","","","","","","","","","","","","[{""page_index"":0,""viewing_time"":3674},{""page_index"":1,""viewing_time"":37986},{""page_index"":2,""viewing_time"":2477},{""page_index"":3,""viewing_time"":5821},{""page_index"":2,""viewing_time"":632},{""page_index"":1,""viewing_time"":7378},{""page_index"":2,""viewing_time"":1205},{""page_index"":3,""viewing_time"":577}]","","","","","","","","","","",""
"","","","","","psychophysics","11","299670","0.0-7.0-0.0","null","","null","","","","","","","","","","","","","key","null","16.666013422819017","768","428","j","false","img/H_ambi40.png","朋友","prac",""
"","","","","","html-keyboard-response","12","300192","0.0-7.0-1.0","null","<span class='add_' style='color:yellow; font-size: 70px;'> 太慢! </span>","null","","","","","","","","","","","","","","","","","","","","","","","feedback_test"
"","","","","","psychophysics","13","302700","0.0-7.0-0.1","null","","null","","","","","","","","","","","","","key","null","16.665724832214956","768","428","f","false","img/H_ambi40.png","生人","prac",""
"","","","","","html-keyboard-response","14","303215","0.0-7.0-1.1","null","<span class='add_' style='color:yellow; font-size: 70px;'> 太慢! </span>","null","","","","","","","","","","","","","","","","","","","","","","","feedback_test"
"","","","","","psychophysics","15","304610","0.0-7.0-0.2","391","","j","","","","","","","","","","","","","key","j","16.667120481927526","768","428","f","false","img/C_ambi40.png","自我","prac",""
"","","","","","html-keyboard-response","16","305114","0.0-7.0-1.2","null","<span style='color:red; font-size: 70px;'>错误! </span>","null","","","","","","","","","","","","","","","","","","","","","","","feedback_test"
"","","","","","psychophysics","17","306555","0.0-7.0-0.3","437","","j","","","","","","","","","","","","","key","j","16.667604651162673","768","428","f","false","img/T_ambi40.png","をる","prac",""
"","","","","","html-keyboard-response","18","307065","0.0-7.0-1.3","null","<span style='color:red; font-size: 70px;'>错误! </span>","null","","","","","","","","","","","","","","","","","","","","","","","feedback_test"
"","","","","","psychophysics","19","308503","0.0-7.0-0.4","429","","f","","","","","","","","","","","","","key","f","16.665604651162433","768","428","f","true","img/S_ambi40.png","朋友","prac",""
"","","","","","html-keyboard-response","20","309023","0.0-7.0-1.4","null","<span style='color:GreenYellow; font-size: 70px;'>正确! </span>","null","","","","","","","","","","","","","","","","","","","","","","","feedback_test"
"","","","","","psychophysics","21","310884","0.0-7.0-0.5","850","","j","","","","","","","","","","","","","key","j","16.666590909091013","768","428","j","true","img/S_ambi40.png","自我","prac",""
"","","","","","html-keyboard-response","22","311399","0.0-7.0-1.5","null","<span style='color:GreenYellow; font-size: 70px;'>正确! </span>","null","","","","","","","","","","","","","","","","","","","","","","","feedback_test"
"","","","","","psychophysics","23","313121","0.0-7.0-0.6","719","","j","","","","","","","","","","","","","key","j","16.66614563106808","768","428","j","true","img/C_ambi40.png","朋友","prac",""
"","","","","","html-keyboard-response","24","313639","0.0-7.0-1.6","null","<span style='color:GreenYellow; font-size: 70px;'>正确! </span>","null","","","","","","","","","","","","","","","","","","","","","","","feedback_test"
"","","","","","psychophysics","25","315143","0.0-7.0-0.7","490","","j","","","","","","","","","","","","","key","j","16.665337078651973","768","428","f","false","img/S_ambi40.png","朋友","prac",""
"","","","","","html-keyboard-response","26","315653","0.0-7.0-1.7","null","<span style='color:red; font-size: 70px;'>错误! </span>","null","","","","","","","","","","","","","","","","","","","","","","","feedback_test"
"","","","","","psychophysics","27","317379","0.0-7.0-0.8","715","","j","","","","","","","","","","","","","key","j","16.66700980392189","768","428","f","false","img/C_ambi40.png","自我","prac",""
"","","","","","html-keyboard-response","28","317885","0.0-7.0-1.8","null","<span style='color:red; font-size: 70px;'>错误! </span>","null","","","","","","","","","","","","","","","","","","","","","","","feedback_test"
"","","","","","psychophysics","29","319580","0.0-7.0-0.9","695","","f","","","","","","","","","","","","","key","f","16.667750000000233","768","428","j","false","img/C_ambi40.png","生人","prac",""
"","","","","","html-keyboard-response","30","320082","0.0-7.0-1.9","null","<span style='color:red; font-size: 70px;'>错误! </span>","null","","","","","","","","","","","","","","","","","","","","","","","feedback_test"
"","","","","","psychophysics","31","321663","0.0-7.0-0.10","577","","j","","","","","","","","","","","","","key","j","16.669244680850905","768","428","j","true","img/H_ambi40.png","自我","prac",""
"","","","","","html-keyboard-response","32","322172","0.0-7.0-1.10","null","<span style='color:GreenYellow; font-size: 70px;'>正确! </span>","null","","","","","","","","","","","","","","","","","","","","","","","feedback_test"
"","","","","","psychophysics","33","323837","0.0-7.0-0.11","654","","j","","","","","","","","","","","","","key","j","16.666747474747787","768","428","f","false","img/T_ambi40.png","をる","prac",""
"","","","","","html-keyboard-response","34","324353","0.0-7.0-1.11","null","<span style='color:red; font-size: 70px;'>错误! </span>","null","","","","","","","","","","","","","","","","","","","","","","","feedback_test"
"","","","","","psychophysics","35","326276","0.0-7.0-0.12","907","","j","","","","","","","","","","","","","key","j","16.667473684210563","768","428","f","false","img/H_ambi40.png","生人","prac",""
"","","","","","html-keyboard-response","36","326788","0.0-7.0-1.12","null","<span style='color:red; font-size: 70px;'>错误! </span>","null","","","","","","","","","","","","","","","","","","","","","","","feedback_test"
"","","","","","psychophysics","37","328425","0.0-7.0-0.13","624","","f","","","","","","","","","","","","","key","f","16.66617525773202","768","428","f","true","img/T_ambi40.png","をる","prac",""
"","","","","","html-keyboard-response","38","328939","0.0-7.0-1.13","null","<span style='color:GreenYellow; font-size: 70px;'>正确! </span>","null","","","","","","","","","","","","","","","","","","","","","","","feedback_test"
"","","","","","psychophysics","39","331324","0.0-7.0-0.14","1374","","f","","","","","","","","","","","","","key","f","16.666154929577342","768","428","j","false","img/S_ambi40.png","生人","prac",""
"","","","","","html-keyboard-response","40","331827","0.0-7.0-1.14","null","<span style='color:red; font-size: 70px;'>错误! </span>","null","","","","","","","","","","","","","","","","","","","","","","","feedback_test"
"","","","","","psychophysics","41","333659","0.0-7.0-0.15","824","","f","","","","","","","","","","","","","key","f","16.666825688073473","768","428","f","true","img/T_ambi40.png","をる","prac",""
"","","","","","html-keyboard-response","42","334176","0.0-7.0-1.15","null","<span style='color:GreenYellow; font-size: 70px;'>正确! </span>","null","","","","","","","","","","","","","","","","","","","","","","","feedback_test"
"","","","","","psychophysics","43","335909","0.0-7.0-0.16","723","","j","","","","","","","","","","","","","key","j","16.66772815533936","768","428","j","true","img/S_ambi40.png","自我","prac",""
"","","","","","html-keyboard-response","44","336425","0.0-7.0-1.16","null","<span style='color:GreenYellow; font-size: 70px;'>正确! </span>","null","","","","","","","","","","","","","","","","","","","","","","","feedback_test"
"","","","","","psychophysics","45","337991","0.0-7.0-0.17","555","","j","","","","","","","","","","","","","key","j","16.666774193548488","768","428","f","false","img/S_ambi40.png","朋友","prac",""
"","","","","","html-keyboard-response","46","338498","0.0-7.0-1.17","null","<span style='color:red; font-size: 70px;'>错误! </span>","null","","","","","","","","","","","","","","","","","","","","","","","feedback_test"
"","","","","","psychophysics","47","340052","0.0-7.0-0.18","548","","j","","","","","","","","","","","","","key","j","16.665804347826253","768","428","f","false","img/T_ambi40.png","をる","prac",""
"","","","","","html-keyboard-response","48","340556","0.0-7.0-1.18","null","<span style='color:red; font-size: 70px;'>错误! </span>","null","","","","","","","","","","","","","","","","","","","","","","","feedback_test"
"","","","","","psychophysics","49","342399","0.0-7.0-0.19","832","","f","","","","","","","","","","","","","key","f","16.66599999999984","768","428","f","true","img/T_ambi40.png","をる","prac",""
"","","","","","html-keyboard-response","50","342920","0.0-7.0-1.19","null","<span style='color:GreenYellow; font-size: 70px;'>正确! </span>","null","","","","","","","","","","","","","","","","","","","","","","","feedback_test"
"","","","","","psychophysics","51","344747","0.0-7.0-0.20","827","","j","","","","","","","","","","","","","key","j","16.6672870370374","768","428","j","true","img/C_ambi40.png","朋友","prac",""
"","","","","","html-keyboard-response","52","345253","0.0-7.0-1.20","null","<span style='color:GreenYellow; font-size: 70px;'>正确! </span>","null","","","","","","","","","","","","","","","","","","","","","","","feedback_test"
"","","","","","psychophysics","53","347315","0.0-7.0-0.21","1056","","f","","","","","","","","","","","","","key","f","16.66768852459051","768","428","f","true","img/S_ambi40.png","朋友","prac",""
"","","","","","html-keyboard-response","54","347831","0.0-7.0-1.21","null","<span style='color:GreenYellow; font-size: 70px;'>正确! </span>","null","","","","","","","","","","","","","","","","","","","","","","","feedback_test"
"","","","","","psychophysics","55","349681","0.0-7.0-0.22","843","","j","","","","","","","","","","","","","key","j","16.66739999999991","768","428","j","true","img/H_ambi40.png","自我","prac",""
"","","","","","html-keyboard-response","56","350188","0.0-7.0-1.22","null","<span style='color:GreenYellow; font-size: 70px;'>正确! </span>","null","","","","","","","","","","","","","","","","","","","","","","","feedback_test"
"","","","","","psychophysics","57","351792","0.0-7.0-0.23","593","","j","","","","","","","","","","","","","key","j","16.66586315789456","768","428","f","false","img/T_ambi40.png","をる","prac",""
"","","","","","html-keyboard-response","58","352303","0.0-7.0-1.23","null","<span style='color:red; font-size: 70px;'>错误! </span>","null","","","","","","","","","","","","","","","","","","","","","","","feedback_test"
"","","","","","psychophysics","59","354078","0.0-7.0-0.24","774","","f","","","","","","","","","","","","","key","f","16.667761904761814","768","428","j","false","img/S_ambi40.png","生人","prac",""
"","","","","","html-keyboard-response","60","354590","0.0-7.0-1.24","null","<span style='color:red; font-size: 70px;'>错误! </span>","null","","","","","","","","","","","","","","","","","","","","","","","feedback_test"
"","","","","","psychophysics","61","356443","0.0-7.0-0.25","839","","f","","","","","","","","","","","","","key","f","16.66600909090908","768","428","f","true","img/T_ambi40.png","をる","prac",""
"","","","","","html-keyboard-response","62","356958","0.0-7.0-1.25","null","<span style='color:GreenYellow; font-size: 70px;'>正确! </span>","null","","","","","","","","","","","","","","","","","","","","","","","feedback_test"
"","","","","","psychophysics","63","358959","0.0-7.0-0.26","989","","j","","","","","","","","","","","","","key","j","16.666705882352847","768","428","j","true","img/C_ambi40.png","生人","prac",""
"","","","","","html-keyboard-response","64","359479","0.0-7.0-1.26","null","<span style='color:GreenYellow; font-size: 70px;'>正确! </span>","null","","","","","","","","","","","","","","","","","","","","","","","feedback_test"
"","","","","","psychophysics","65","361476","0.0-7.0-0.27","988","","j","","","","","","","","","","","","","key","j","16.66663025210107","768","428","f","false","img/C_ambi40.png","自我","prac",""
"","","","","","html-keyboard-response","66","361987","0.0-7.0-1.27","null","<span style='color:red; font-size: 70px;'>错误! </span>","null","","","","","","","","","","","","","","","","","","","","","","","feedback_test"
"","","","","","psychophysics","67","363863","0.0-7.0-0.28","863","","j","","","","","","","","","","","","","key","j","16.667693693693707","768","428","j","true","img/H_ambi40.png","朋友","prac",""
"","","","","","html-keyboard-response","68","364385","0.0-7.0-1.28","null","<span style='color:GreenYellow; font-size: 70px;'>正确! </span>","null","","","","","","","","","","","","","","","","","","","","","","","feedback_test"
"","","","","","psychophysics","69","366281","0.0-7.0-0.29","894","","f","","","","","","","","","","","","","key","f","16.666705357143137","768","428","f","true","img/H_ambi40.png","生人","prac",""
"","","","","","html-keyboard-response","70","366800","0.0-7.0-1.29","null","<span style='color:GreenYellow; font-size: 70px;'>正确! </span>","null","","","","","","","","","","","","","","","","","","","","","","","feedback_test"
"","","","","","psychophysics","71","368612","0.0-7.0-0.30","809","","j","","","","","","","","","","","","","key","j","16.66803703703691","768","428","f","false","img/C_ambi40.png","自我","prac",""
"","","","","","html-keyboard-response","72","369126","0.0-7.0-1.30","null","<span style='color:red; font-size: 70px;'>错误! </span>","null","","","","","","","","","","","","","","","","","","","","","","","feedback_test"
"","","","","","psychophysics","73","371069","0.0-7.0-0.31","932","","j","","","","","","","","","","","","","key","j","16.667895652173573","768","428","f","false","img/H_ambi40.png","生人","prac",""
"","","","","","html-keyboard-response","74","371571","0.0-7.0-1.31","null","<span style='color:red; font-size: 70px;'>错误! </span>","null","","","","","","","","","","","","","","","","","","","","","","","feedback_test"
"","","","","","psychophysics","75","373539","0.0-8.0-0.0-0.0","954","","f","","","","","","","","","","","","","key","f","16.66691452991486","768","428","f","true","img/T_ambi40.png","をる","prac",""
"","","","","","html-keyboard-response","76","374050","0.0-8.0-0.0-1.0","null","<span style='color:GreenYellow; font-size: 70px;'>正确! </span>","null","","","","","","","","","","","","","","","","","","","","","","","feedback_test"
"","","","","","psychophysics","77","376313","0.0-8.0-0.0-0.1","1259","","f","","","","","","","","","","","","","key","f","16.666488888889067","768","428","f","true","img/S_ambi40.png","朋友","prac",""
"","","","","","html-keyboard-response","78","376833","0.0-8.0-0.0-1.1","null","<span style='color:GreenYellow; font-size: 70px;'>正确! </span>","null","","","","","","","","","","","","","","","","","","","","","","","feedback_test"
"","","","","","psychophysics","79","378769","0.0-8.0-0.0-0.2","932","","f","","","","","","","","","","","","","key","f","16.66694782608715","768","428","f","true","img/S_ambi40.png","朋友","prac",""
"","","","","","html-keyboard-response","80","379281","0.0-8.0-0.0-1.2","null","<span style='color:GreenYellow; font-size: 70px;'>正确! </span>","null","","","","","","","","","","","","","","","","","","","","","","","feedback_test"
"","","","","","psychophysics","81","381348","0.0-8.0-0.0-0.3","1061","","j","","","","","","","","","","","","","key","j","16.666479674796385","768","428","j","true","img/H_ambi40.png","自我","prac",""
"","","","","","html-keyboard-response","82","381854","0.0-8.0-0.0-1.3","null","<span style='color:GreenYellow; font-size: 70px;'>正确! </span>","null","","","","","","","","","","","","","","","","","","","","","","","feedback_test"
"","","","","","psychophysics","83","383858","0.0-8.0-0.0-0.4","989","","f","","","","","","","","","","","","","key","f","16.666983193277183","768","428","f","true","img/C_ambi40.png","自我","prac",""
"","","","","","html-keyboard-response","84","384367","0.0-8.0-0.0-1.4","null","<span style='color:GreenYellow; font-size: 70px;'>正确! </span>","null","","","","","","","","","","","","","","","","","","","","","","","feedback_test"
"","","","","","psychophysics","85","386667","0.0-8.0-0.0-0.5","1298","","f","","","","","","","","","","","","","key","f","16.66681021897812","768","428","j","false","img/H_ambi40.png","朋友","prac",""
"","","","","","html-keyboard-response","86","387174","0.0-8.0-0.0-1.5","null","<span style='color:red; font-size: 70px;'>错误! </span>","null","","","","","","","","","","","","","","","","","","","","","","","feedback_test"
"","","","","","psychophysics","87","389334","0.0-8.0-0.0-0.6","1148","","j","","","","","","","","","","","","","key","j","16.66730468750029","768","428","j","true","img/S_ambi40.png","生人","prac",""
"","","","","","html-keyboard-response","88","389838","0.0-8.0-0.0-1.6","null","<span style='color:GreenYellow; font-size: 70px;'>正确! </span>","null","","","","","","","","","","","","","","","","","","","","","","","feedback_test"
"","","","","","psychophysics","89","392349","0.0-8.0-0.0-0.7","null","","null","","","","","","","","","","","","","key","null","16.66577852348994","768","428","f","false","img/H_ambi40.png","生人","prac",""
"","","","","","html-keyboard-response","90","392851","0.0-8.0-0.0-1.7","null","<span class='add_' style='color:yellow; font-size: 70px;'> 太慢! </span>","null","","","","","","","","","","","","","","","","","","","","","","","feedback_test"
"","","","","","psychophysics","91","395217","0.0-8.0-0.0-0.8","1363","","f","","","","","","","","","","","","","key","f","16.57390714285679","768","428","f","true","img/H_ambi40.png","生人","prac",""
"","","","","","html-keyboard-response","92","395734","0.0-8.0-0.0-1.8","null","<span style='color:GreenYellow; font-size: 70px;'>正确! </span>","null","","","","","","","","","","","","","","","","","","","","","","","feedback_test"
"","","","","","psychophysics","93","397439","0.0-8.0-0.0-0.9","703","","f","","","","","","","","","","","","","key","f","16.542178217821874","768","428","f","true","img/T_ambi40.png","をる","prac",""
"","","","","","html-keyboard-response","94","397950","0.0-8.0-0.0-1.9","null","<span style='color:GreenYellow; font-size: 70px;'>正确! </span>","null","","","","","","","","","","","","","","","","","","","","","","","feedback_test"
"","","","","","psychophysics","95","399490","0.0-8.0-0.0-0.10","537","","f","","","","","","","","","","","","","key","f","16.666858695652436","768","428","f","true","img/T_ambi40.png","をる","prac",""
"","","","","","html-keyboard-response","96","399998","0.0-8.0-0.0-1.10","null","<span style='color:GreenYellow; font-size: 70px;'>正确! </span>","null","","","","","","","","","","","","","","","","","","","","","","","feedback_test"
"","","","","","psychophysics","97","401454","0.0-8.0-0.0-0.11","450","","f","","","","","","","","","","","","","key","f","16.66848275862064","768","428","f","true","img/T_ambi40.png","をる","prac",""
"","","","","","html-keyboard-response","98","401976","0.0-8.0-0.0-1.11","null","<span style='color:GreenYellow; font-size: 70px;'>正确! </span>","null","","","","","","","","","","","","","","","","","","","","","","","feedback_test"
"","","","","","psychophysics","99","403598","0.0-8.0-0.0-0.12","612","","j","","","","","","","","","","","","","key","j","16.665645833333354","768","428","j","true","img/C_ambi40.png","朋友","prac",""
"","","","","","html-keyboard-response","100","404112","0.0-8.0-0.0-1.12","null","<span style='color:GreenYellow; font-size: 70px;'>正确! </span>","null","","","","","","","","","","","","","","","","","","","","","","","feedback_test"
"","","","","","psychophysics","101","406057","0.0-8.0-0.0-0.13","937","","f","","","","","","","","","","","","","key","f","16.667025862068964","768","428","j","false","img/S_ambi40.png","自我","prac",""
"","","","","","html-keyboard-response","102","406576","0.0-8.0-0.0-1.13","null","<span style='color:red; font-size: 70px;'>错误! </span>","null","","","","","","","","","","","","","","","","","","","","","","","feedback_test"
"","","","","","psychophysics","103","408449","0.0-8.0-0.0-0.14","863","","j","","","","","","","","","","","","","key","j","16.66650450450467","768","428","j","true","img/C_ambi40.png","生人","prac",""
"","","","","","html-keyboard-response","104","408962","0.0-8.0-0.0-1.14","null","<span style='color:GreenYellow; font-size: 70px;'>正确! </span>","null","","","","","","","","","","","","","","","","","","","","","","","feedback_test"
"","","","","","psychophysics","105","410499","0.0-8.0-0.0-0.15","529","","j","","","","","","","","","","","","","key","j","16.667318681318307","768","428","f","false","img/C_ambi40.png","自我","prac",""
"","","","","","html-keyboard-response","106","411015","0.0-8.0-0.0-1.15","null","<span style='color:red; font-size: 70px;'>错误! </span>","null","","","","","","","","","","","","","","","","","","","","","","","feedback_test"
"","","","","","psychophysics","107","412680","0.0-8.0-0.0-0.16","662","","f","","","","","","","","","","","","","key","f","16.666515151515597","768","428","j","false","img/C_ambi40.png","生人","prac",""
"","","","","","html-keyboard-response","108","413195","0.0-8.0-0.0-1.16","null","<span style='color:red; font-size: 70px;'>错误! </span>","null","","","","","","","","","","","","","","","","","","","","","","","feedback_test"
"","","","","","psychophysics","109","415144","0.0-8.0-0.0-0.17","940","","j","","","","","","","","","","","","","key","j","16.665008620689683","768","428","j","true","img/C_ambi40.png","朋友","prac",""
"","","","","","html-keyboard-response","110","415661","0.0-8.0-0.0-1.17","null","<span style='color:GreenYellow; font-size: 70px;'>正确! </span>","null","","","","","","","","","","","","","","","","","","","","","","","feedback_test"
"","","","","","psychophysics","111","417627","0.0-8.0-0.0-0.18","957","","f","","","","","","","","","","","","","key","f","16.666051282051406","768","428","f","true","img/S_ambi40.png","朋友","prac",""
"","","","","","html-keyboard-response","112","418137","0.0-8.0-0.0-1.18","null","<span style='color:GreenYellow; font-size: 70px;'>正确! </span>","null","","","","","","","","","","","","","","","","","","","","","","","feedback_test"
"","","","","","psychophysics","113","420298","0.0-8.0-0.0-0.19","1151","","j","","","","","","","","","","","","","key","j","16.665484375000233","768","428","f","false","img/C_ambi40.png","自我","prac",""
"","","","","","html-keyboard-response","114","420814","0.0-8.0-0.0-1.19","null","<span style='color:red; font-size: 70px;'>错误! </span>","null","","","","","","","","","","","","","","","","","","","","","","","feedback_test"
"","","","","","psychophysics","115","422364","0.0-8.0-0.0-0.20","545","","f","","","","","","","","","","","","","key","f","16.6663804347823","768","428","f","true","img/C_ambi40.png","自我","prac",""
"","","","","","html-keyboard-response","116","422870","0.0-8.0-0.0-1.20","null","<span style='color:GreenYellow; font-size: 70px;'>正确! </span>","null","","","","","","","","","","","","","","","","","","","","","","","feedback_test"
"","","","","","psychophysics","117","424991","0.0-8.0-0.0-0.21","1110","","j","","","","","","","","","","","","","key","j","16.666476190475922","768","428","f","false","img/S_ambi40.png","朋友","prac",""
"","","","","","html-keyboard-response","118","425510","0.0-8.0-0.0-1.21","null","<span style='color:red; font-size: 70px;'>错误! </span>","null","","","","","","","","","","","","","","","","","","","","","","","feedback_test"
"","","","","","psychophysics","119","427480","0.0-8.0-0.0-0.22","962","","f","","","","","","","","","","","","","key","f","16.665982905982766","768","428","j","false","img/H_ambi40.png","自我","prac",""
"","","","","","html-keyboard-response","120","427999","0.0-8.0-0.0-1.22","null","<span style='color:red; font-size: 70px;'>错误! </span>","null","","","","","","","","","","","","","","","","","","","","","","","feedback_test"
"","","","","","psychophysics","121","430409","0.0-8.0-0.0-0.23","1406","","j","","","","","","","","","","","","","key","j","16.667527777777853","768","428","j","true","img/S_ambi40.png","生人","prac",""
"","","","","","html-keyboard-response","122","430929","0.0-8.0-0.0-1.23","null","<span style='color:GreenYellow; font-size: 70px;'>正确! </span>","null","","","","","","","","","","","","","","","","","","","","","","","feedback_test"
"","","","","","psychophysics","123","432679","0.0-8.0-0.0-0.24","743","","f","","","","","","","","","","","","","key","f","16.665711538461508","768","428","f","true","img/T_ambi40.png","をる","prac",""
"","","","","","html-keyboard-response","124","433190","0.0-8.0-0.0-1.24","null","<span style='color:GreenYellow; font-size: 70px;'>正确! </span>","null","","","","","","","","","","","","","","","","","","","","","","","feedback_test"
"","","","","","psychophysics","125","434943","0.0-8.0-0.0-0.25","741","","f","","","","","","","","","","","","","key","f","16.665673076922896","768","428","f","true","img/T_ambi40.png","をる","prac",""
"","","","","","html-keyboard-response","126","435465","0.0-8.0-0.0-1.25","null","<span style='color:GreenYellow; font-size: 70px;'>正确! </span>","null","","","","","","","","","","","","","","","","","","","","","","","feedback_test"
"","","","","","psychophysics","127","437969","0.0-8.0-0.0-0.26","null","","null","","","","","","","","","","","","","key","null","16.66691333333302","768","428","j","false","img/S_ambi40.png","自我","prac",""
"","","","","","html-keyboard-response","128","438476","0.0-8.0-0.0-1.26","null","<span class='add_' style='color:yellow; font-size: 70px;'> 太慢! </span>","null","","","","","","","","","","","","","","","","","","","","","","","feedback_test"
"","","","","","psychophysics","129","440018","0.0-8.0-0.0-0.27","532","","j","","","","","","","","","","","","","key","j","16.668164835164994","768","428","f","false","img/T_ambi40.png","をる","prac",""
"","","","","","html-keyboard-response","130","440536","0.0-8.0-0.0-1.27","null","<span style='color:red; font-size: 70px;'>错误! </span>","null","","","","","","","","","","","","","","","","","","","","","","","feedback_test"
"","","","","","psychophysics","131","442211","0.0-8.0-0.0-0.28","662","","j","","","","","","","","","","","","","key","j","16.66689898989944","768","428","f","false","img/H_ambi40.png","生人","prac",""
"","","","","","html-keyboard-response","132","442719","0.0-8.0-0.0-1.28","null","<span style='color:red; font-size: 70px;'>错误! </span>","null","","","","","","","","","","","","","","","","","","","","","","","feedback_test"
"","","","","","psychophysics","133","444796","0.0-8.0-0.0-0.29","1063","","j","","","","","","","","","","","","","key","j","16.666154471544523","768","428","j","true","img/H_ambi40.png","朋友","prac",""
"","","","","","html-keyboard-response","134","445305","0.0-8.0-0.0-1.29","null","<span style='color:GreenYellow; font-size: 70px;'>正确! </span>","null","","","","","","","","","","","","","","","","","","","","","","","feedback_test"
"","","","","","psychophysics","135","447262","0.0-8.0-0.0-0.30","947","","f","","","","","","","","","","","","","key","f","16.667491379310377","768","428","f","true","img/H_ambi40.png","生人","prac",""
"","","","","","html-keyboard-response","136","447776","0.0-8.0-0.0-1.30","null","<span style='color:GreenYellow; font-size: 70px;'>正确! </span>","null","","","","","","","","","","","","","","","","","","","","","","","feedback_test"
"","","","","","psychophysics","137","449537","0.0-8.0-0.0-0.31","750","","f","","","","","","","","","","","","","key","f","16.666952380952647","768","428","f","true","img/T_ambi40.png","をる","prac",""
"","","","","","html-keyboard-response","138","450054","0.0-8.0-0.0-1.31","null","<span style='color:GreenYellow; font-size: 70px;'>正确! </span>","null","","","","","","","","","","","","","","","","","","","","","","","feedback_test"
"","","","","","html-keyboard-response","139","462259","0.0-8.0-1.0-0.0","12203","<style>.context{color:white; font-size: 35px; line-height:40px}</style>                          <div><p class='context'>您正确回答了66% 的试次。</p ><p class='context'>您的平均反应时为903毫秒。</p >"," ","","","","","","","","","","","","","","","","","","","","","","",""
"","","","","","instructions","140","476162","0.0-8.0-1.0-1.0","13899","","","","","","","","","","","","","","[{""page_index"":0,""viewing_time"":4626},{""page_index"":1,""viewing_time"":7576},{""page_index"":2,""viewing_time"":1696}]","","","","","","","","","","",""
"","","","","","psychophysics","141","477844","0.0-8.1-0.1-0.32","674","","f","","","","","","","","","","","","","key","f","16.666759999999776","768","428","f","true","img/T_ambi40.png","をる","prac",""
"","","","","","html-keyboard-response","142","478348","0.0-8.1-0.1-1.32","null","<span style='color:GreenYellow; font-size: 70px;'>正确! </span>","null","","","","","","","","","","","","","","","","","","","","","","","feedback_test"
"","","","","","psychophysics","143","480515","0.0-8.1-0.1-0.33","1161","","j","","","","","","","","","","","","","key","j","16.66813953488374","768","428","f","false","img/S_ambi40.png","朋友","prac",""
"","","","","","html-keyboard-response","144","481027","0.0-8.1-0.1-1.33","null","<span style='color:red; font-size: 70px;'>错误! </span>","null","","","","","","","","","","","","","","","","","","","","","","","feedback_test"
"","","","","","psychophysics","145","483029","0.0-8.1-0.1-0.34","992","","f","","","","","","","","","","","","","key","f","16.667201680672246","768","428","f","true","img/H_ambi40.png","生人","prac",""
"","","","","","html-keyboard-response","146","483532","0.0-8.1-0.1-1.34","null","<span style='color:GreenYellow; font-size: 70px;'>正确! </span>","null","","","","","","","","","","","","","","","","","","","","","","","feedback_test"
"","","","","","psychophysics","147","485138","0.0-8.1-0.1-0.35","603","","f","","","","","","","","","","","","","key","f","16.667947916666282","768","428","f","true","img/T_ambi40.png","をる","prac",""
"","","","","","html-keyboard-response","148","485650","0.0-8.1-0.1-1.35","null","<span style='color:GreenYellow; font-size: 70px;'>正确! </span>","null","","","","","","","","","","","","","","","","","","","","","","","feedback_test"
"","","","","","psychophysics","149","487708","0.0-8.1-0.1-0.36","1055","","f","","","","","","","","","","","","","key","f","16.667520325203572","768","428","j","false","img/S_ambi40.png","自我","prac",""
"","","","","","html-keyboard-response","150","488218","0.0-8.1-0.1-1.36","null","<span style='color:red; font-size: 70px;'>错误! </span>","null","","","","","","","","","","","","","","","","","","","","","","","feedback_test"
"","","","","","psychophysics","151","490014","0.0-8.1-0.1-0.37","794","","f","","","","","","","","","","","","","key","f","16.534424528302207","768","428","f","true","img/C_ambi40.png","自我","prac",""
"","","","","","html-keyboard-response","152","490524","0.0-8.1-0.1-1.37","null","<span style='color:GreenYellow; font-size: 70px;'>正确! </span>","null","","","","","","","","","","","","","","","","","","","","","","","feedback_test"
"","","","","","psychophysics","153","492411","0.0-8.1-0.1-0.38","874","","j","","","","","","","","","","","","","key","j","16.66776785714267","768","428","j","true","img/H_ambi40.png","朋友","prac",""
"","","","","","html-keyboard-response","154","492921","0.0-8.1-0.1-1.38","null","<span style='color:GreenYellow; font-size: 70px;'>正确! </span>","null","","","","","","","","","","","","","","","","","","","","","","","feedback_test"
"","","","","","psychophysics","155","494468","0.0-8.1-0.1-0.39","535","","j","","","","","","","","","","","","","key","j","16.665956043955553","768","428","f","false","img/T_ambi40.png","をる","prac",""
"","","","","","html-keyboard-response","156","494974","0.0-8.1-0.1-1.39","null","<span style='color:red; font-size: 70px;'>错误! </span>","null","","","","","","","","","","","","","","","","","","","","","","","feedback_test"
"","","","","","psychophysics","157","496516","0.0-8.1-0.1-0.40","531","","f","","","","","","","","","","","","","key","f","16.667560439560674","768","428","f","true","img/T_ambi40.png","をる","prac",""
"","","","","","html-keyboard-response","158","497029","0.0-8.1-0.1-1.40","null","<span style='color:GreenYellow; font-size: 70px;'>正确! </span>","null","","","","","","","","","","","","","","","","","","","","","","","feedback_test"
"","","","","","psychophysics","159","499084","0.0-8.1-0.1-0.41","1047","","f","","","","","","","","","","","","","key","f","16.666377049179932","768","428","f","true","img/C_ambi40.png","自我","prac",""
"","","","","","html-keyboard-response","160","499599","0.0-8.1-0.1-1.41","null","<span style='color:GreenYellow; font-size: 70px;'>正确! </span>","null","","","","","","","","","","","","","","","","","","","","","","","feedback_test"
"","","","","","psychophysics","161","501376","0.0-8.1-0.1-0.42","772","","j","","","","","","","","","","","","","key","j","16.66750943396166","768","428","j","true","img/H_ambi40.png","自我","prac",""
"","","","","","html-keyboard-response","162","501893","0.0-8.1-0.1-1.42","null","<span style='color:GreenYellow; font-size: 70px;'>正确! </span>","null","","","","","","","","","","","","","","","","","","","","","","","feedback_test"
"","","","","","psychophysics","163","503850","0.0-8.1-0.1-0.43","949","","j","","","","","","","","","","","","","key","j","16.66625862068934","768","428","j","true","img/S_ambi40.png","生人","prac",""
"","","","","","html-keyboard-response","164","504361","0.0-8.1-0.1-1.43","null","<span style='color:GreenYellow; font-size: 70px;'>正确! </span>","null","","","","","","","","","","","","","","","","","","","","","","","feedback_test"
"","","","","","psychophysics","165","506291","0.0-8.1-0.1-0.44","921","","j","","","","","","","","","","","","","key","j","16.666156521739197","768","428","j","true","img/C_ambi40.png","朋友","prac",""
"","","","","","html-keyboard-response","166","506798","0.0-8.1-0.1-1.44","null","<span style='color:GreenYellow; font-size: 70px;'>正确! </span>","null","","","","","","","","","","","","","","","","","","","","","","","feedback_test"
"","","","","","psychophysics","167","508634","0.0-8.1-0.1-0.45","831","","j","","","","","","","","","","","","","key","j","16.66644954128477","768","428","j","true","img/C_ambi40.png","生人","prac",""
"","","","","","html-keyboard-response","168","509149","0.0-8.1-0.1-1.45","null","<span style='color:GreenYellow; font-size: 70px;'>正确! </span>","null","","","","","","","","","","","","","","","","","","","","","","","feedback_test"
"","","","","","psychophysics","169","511100","0.0-8.1-0.1-0.46","946","","j","","","","","","","","","","","","","key","j","16.666181034482776","768","428","f","false","img/H_ambi40.png","生人","prac",""
"","","","","","html-keyboard-response","170","511606","0.0-8.1-0.1-1.46","null","<span style='color:red; font-size: 70px;'>错误! </span>","null","","","","","","","","","","","","","","","","","","","","","","","feedback_test"
"","","","","","psychophysics","171","513499","0.0-8.1-0.1-0.47","880","","f","","","","","","","","","","","","","key","f","16.666446428571362","768","428","f","true","img/S_ambi40.png","朋友","prac",""
"","","","","","html-keyboard-response","172","514005","0.0-8.1-0.1-1.47","null","<span style='color:GreenYellow; font-size: 70px;'>正确! </span>","null","","","","","","","","","","","","","","","","","","","","","","","feedback_test"
"","","","","","psychophysics","173","515459","0.0-8.1-0.1-0.48","441","","f","","","","","","","","","","","","","key","f","16.668290697674397","768","428","f","true","img/C_ambi40.png","自我","prac",""
"","","","","","html-keyboard-response","174","515970","0.0-8.1-0.1-1.48","null","<span style='color:GreenYellow; font-size: 70px;'>正确! </span>","null","","","","","","","","","","","","","","","","","","","","","","","feedback_test"
"","","","","","psychophysics","175","517620","0.0-8.1-0.1-0.49","649","","j","","","","","","","","","","","","","key","j","16.667632653060778","768","428","j","true","img/C_ambi40.png","朋友","prac",""
"","","","","","html-keyboard-response","176","518133","0.0-8.1-0.1-1.49","null","<span style='color:GreenYellow; font-size: 70px;'>正确! </span>","null","","","","","","","","","","","","","","","","","","","","","","","feedback_test"
"","","","","","psychophysics","177","519907","0.0-8.1-0.1-0.50","772","","j","","","","","","","","","","","","","key","j","16.666971698113418","768","428","j","true","img/S_ambi40.png","自我","prac",""
"","","","","","html-keyboard-response","178","520425","0.0-8.1-0.1-1.50","null","<span style='color:GreenYellow; font-size: 70px;'>正确! </span>","null","","","","","","","","","","","","","","","","","","","","","","","feedback_test"
"","","","","","psychophysics","179","522058","0.0-8.1-0.1-0.51","621","","f","","","","","","","","","","","","","key","f","16.66855670103069","768","428","f","true","img/T_ambi40.png","をる","prac",""
"","","","","","html-keyboard-response","180","522570","0.0-8.1-0.1-1.51","null","<span style='color:GreenYellow; font-size: 70px;'>正确! </span>","null","","","","","","","","","","","","","","","","","","","","","","","feedback_test"
"","","","","","psychophysics","181","524158","0.0-8.1-0.1-0.52","578","","j","","","","","","","","","","","","","key","j","16.667457446808918","768","428","j","true","img/H_ambi40.png","朋友","prac",""
"","","","","","html-keyboard-response","182","524672","0.0-8.1-0.1-1.52","null","<span style='color:GreenYellow; font-size: 70px;'>正确! </span>","null","","","","","","","","","","","","","","","","","","","","","","","feedback_test"
"","","","","","psychophysics","183","526351","0.0-8.1-0.1-0.53","671","","f","","","","","","","","","","","","","key","f","16.66794949494928","768","428","f","true","img/T_ambi40.png","をる","prac",""
"","","","","","html-keyboard-response","184","526864","0.0-8.1-0.1-1.53","null","<span style='color:GreenYellow; font-size: 70px;'>正确! </span>","null","","","","","","","","","","","","","","","","","","","","","","","feedback_test"
"","","","","","psychophysics","185","528563","0.0-8.1-0.1-0.54","692","","j","","","","","","","","","","","","","key","j","16.667118811881917","768","428","j","true","img/H_ambi40.png","自我","prac",""
"","","","","","html-keyboard-response","186","529078","0.0-8.1-0.1-1.54","null","<span style='color:GreenYellow; font-size: 70px;'>正确! </span>","null","","","","","","","","","","","","","","","","","","","","","","","feedback_test"
"","","","","","psychophysics","187","530991","0.0-8.1-0.1-0.55","905","","f","","","","","","","","","","","","","key","f","16.66693859649087","768","428","f","true","img/S_ambi40.png","朋友","prac",""
"","","","","","html-keyboard-response","188","531510","0.0-8.1-0.1-1.55","null","<span style='color:GreenYellow; font-size: 70px;'>正确! </span>","null","","","","","","","","","","","","","","","","","","","","","","","feedback_test"
"","","","","","psychophysics","189","533459","0.0-8.1-0.1-0.56","940","","f","","","","","","","","","","","","","key","f","16.667775862069462","768","428","f","true","img/H_ambi40.png","生人","prac",""
"","","","","","html-keyboard-response","190","533965","0.0-8.1-0.1-1.56","null","<span style='color:GreenYellow; font-size: 70px;'>正确! </span>","null","","","","","","","","","","","","","","","","","","","","","","","feedback_test"
"","","","","","psychophysics","191","535667","0.0-8.1-0.1-0.57","697","","f","","","","","","","","","","","","","key","f","16.667801980197773","768","428","f","true","img/T_ambi40.png","をる","prac",""
"","","","","","html-keyboard-response","192","536181","0.0-8.1-0.1-1.57","null","<span style='color:GreenYellow; font-size: 70px;'>正确! </span>","null","","","","","","","","","","","","","","","","","","","","","","","feedback_test"
"","","","","","psychophysics","193","537713","0.0-8.1-0.1-0.58","526","","f","","","","","","","","","","","","","key","f","16.66883516483454","768","428","f","true","img/H_ambi40.png","生人","prac",""
"","","","","","html-keyboard-response","194","538229","0.0-8.1-0.1-1.58","null","<span style='color:GreenYellow; font-size: 70px;'>正确! </span>","null","","","","","","","","","","","","","","","","","","","","","","","feedback_test"
"","","","","","psychophysics","195","539876","0.0-8.1-0.1-0.59","638","","f","","","","","","","","","","","","","key","f","16.668367346938776","768","428","f","true","img/T_ambi40.png","をる","prac",""
"","","","","","html-keyboard-response","196","540385","0.0-8.1-0.1-1.59","null","<span style='color:GreenYellow; font-size: 70px;'>正确! </span>","null","","","","","","","","","","","","","","","","","","","","","","","feedback_test"
"","","","","","psychophysics","197","542234","0.0-8.1-0.1-0.60","848","","j","","","","","","","","","","","","","key","j","16.66629357798209","768","428","f","false","img/S_ambi40.png","朋友","prac",""
"","","","","","html-keyboard-response","198","542753","0.0-8.1-0.1-1.60","null","<span style='color:red; font-size: 70px;'>错误! </span>","null","","","","","","","","","","","","","","","","","","","","","","","feedback_test"
"","","","","","psychophysics","199","544527","0.0-8.1-0.1-0.61","773","","j","","","","","","","","","","","","","key","j","16.66717142857212","768","428","f","false","img/C_ambi40.png","自我","prac",""
"","","","","","html-keyboard-response","200","545044","0.0-8.1-0.1-1.61","null","<span style='color:red; font-size: 70px;'>错误! </span>","null","","","","","","","","","","","","","","","","","","","","","","","feedback_test"
"","","","","","psychophysics","201","547218","0.0-8.1-0.1-0.62","1165","","j","","","","","","","","","","","","","key","j","16.666651162790863","768","428","j","true","img/S_ambi40.png","生人","prac",""
"","","","","","html-keyboard-response","202","547726","0.0-8.1-0.1-1.62","null","<span style='color:GreenYellow; font-size: 70px;'>正确! </span>","null","","","","","","","","","","","","","","","","","","","","","","","feedback_test"
"","","","","","psychophysics","203","549302","0.0-8.1-0.1-0.63","566","","f","","","","","","","","","","","","","key","f","16.66641935483948","768","428","j","false","img/C_ambi40.png","生人","prac",""
"","","","","","html-keyboard-response","204","549814","0.0-8.1-0.1-1.63","null","<span style='color:red; font-size: 70px;'>错误! </span>","null","","","","","","","","","","","","","","","","","","","","","","","feedback_test"
"","","","","","html-keyboard-response","205","557526","0.0-9.0","7711","<style>.context{color:white; font-size: 35px; line-height:40px}</style>                          <div><p class='context'>您正确回答了78% 的试次。</p ><p class='context'>您的平均反应时为767毫秒。</p ><p class='context'>恭喜您完成练习。按任意键进入正式实验。</p ><p class='footer' style='font-size: 35px; line-height:40px;'>请在进入正式实验实验之前将您的<span style='color: lightgreen;'>食指</span>放在电脑键盘的相应键位上进行按键。</p >"," ","","","","","","","","","","","","","","","","","","","","","","",""
"","","","","","psychophysics","206","559654","0.0-10.0-0.0-0.0-0.0-0.0","1117","","f","","","","","","","","","","","","","key","f","16.667141732283113","768","428","j","false","img/H_ambi40.png","自我","same",""
"","","","","","html-keyboard-response","207","560168","0.0-10.0-0.0-0.0-0.0-1.0","null","<span style='color:red; font-size: 70px;'>错误! </span>","null","","","","","","","","","","","","","","","","","","","","","","","feedback_test"
"","","","","","psychophysics","208","562140","0.0-10.0-0.0-0.0-0.0-0.1","970","","f","","","","","","","","","","","","","key","f","16.545213675213","768","428","j","false","img/C_ambi40.png","朋友","same",""
"","","","","","html-keyboard-response","209","562648","0.0-10.0-0.0-0.0-0.0-1.1","null","<span style='color:red; font-size: 70px;'>错误! </span>","null","","","","","","","","","","","","","","","","","","","","","","","feedback_test"
"","","","","","psychophysics","210","564716","0.0-10.0-0.0-0.0-0.0-0.2","1062","","j","","","","","","","","","","","","","key","j","16.667804878048894","768","428","f","false","img/S_ambi40.png","朋友","same",""
"","","","","","html-keyboard-response","211","565218","0.0-10.0-0.0-0.0-0.0-1.2","null","<span style='color:red; font-size: 70px;'>错误! </span>","null","","","","","","","","","","","","","","","","","","","","","","","feedback_test"
"","","","","","psychophysics","212","567427","0.0-10.0-0.0-0.0-0.0-0.3","1208","","j","","","","","","","","","","","","","key","j","16.66708396946592","768","428","j","true","img/H_ambi40.png","自我","same",""
"","","","","","html-keyboard-response","213","567933","0.0-10.0-0.0-0.0-0.0-1.3","null","<span style='color:GreenYellow; font-size: 70px;'>正确! </span>","null","","","","","","","","","","","","","","","","","","","","","","","feedback_test"
"","","","","","psychophysics","214","569573","0.0-10.0-0.0-0.0-0.0-0.4","637","","j","","","","","","","","","","","","","key","j","16.667377551019722","768","428","j","true","img/S_ambi40.png","自我","same",""
"","","","","","html-keyboard-response","215","570085","0.0-10.0-0.0-0.0-0.0-1.4","null","<span style='color:GreenYellow; font-size: 70px;'>正确! </span>","null","","","","","","","","","","","","","","","","","","","","","","","feedback_test"
"","","","","","psychophysics","216","571861","0.0-10.0-0.0-0.0-0.0-0.5","775","","j","","","","","","","","","","","","","key","j","16.666038095237067","768","428","j","true","img/S_ambi40.png","生人","same",""
"","","","","","html-keyboard-response","217","572365","0.0-10.0-0.0-0.0-0.0-1.5","null","<span style='color:GreenYellow; font-size: 70px;'>正确! </span>","null","","","","","","","","","","","","","","","","","","","","","","","feedback_test"
"","","","","","psychophysics","218","574078","0.0-10.0-0.0-0.0-0.0-0.6","708","","j","","","","","","","","","","","","","key","j","16.668990196078084","768","428","j","true","img/C_ambi40.png","朋友","same",""
"","","","","","html-keyboard-response","219","574581","0.0-10.0-0.0-0.0-0.0-1.6","null","<span style='color:GreenYellow; font-size: 70px;'>正确! </span>","null","","","","","","","","","","","","","","","","","","","","","","","feedback_test"
"","","","","","psychophysics","220","576049","0.0-10.0-0.0-0.0-0.0-0.7","462","","j","","","","","","","","","","","","","key","j","16.66637931034456","768","428","j","true","img/H_ambi40.png","朋友","same",""
"","","","","","html-keyboard-response","221","576563","0.0-10.0-0.0-0.0-0.0-1.7","null","<span style='color:GreenYellow; font-size: 70px;'>正确! </span>","null","","","","","","","","","","","","","","","","","","","","","","","feedback_test"
"","","","","","psychophysics","222","578016","0.0-10.0-0.0-0.0-0.0-0.8","446","","j","","","","","","","","","","","","","key","j","16.668348837209336","768","428","f","false","img/T_ambi40.png","をる","same",""
"","","","","","html-keyboard-response","223","578528","0.0-10.0-0.0-0.0-0.0-1.8","null","<span style='color:red; font-size: 70px;'>错误! </span>","null","","","","","","","","","","","","","","","","","","","","","","","feedback_test"
"","","","","","psychophysics","224","580180","0.0-10.0-0.0-0.0-0.0-0.9","645","","j","","","","","","","","","","","","","key","j","16.66647959183735","768","428","j","true","img/C_ambi40.png","生人","same",""
"","","","","","html-keyboard-response","225","580696","0.0-10.0-0.0-0.0-0.0-1.9","null","<span style='color:GreenYellow; font-size: 70px;'>正确! </span>","null","","","","","","","","","","","","","","","","","","","","","","","feedback_test"
"","","","","","psychophysics","226","582216","0.0-10.0-0.0-0.0-0.0-0.10","514","","j","","","","","","","","","","","","","key","j","16.66686666666711","768","428","f","false","img/S_ambi40.png","朋友","same",""
"","","","","","html-keyboard-response","227","582723","0.0-10.0-0.0-0.0-0.0-1.10","null","<span style='color:red; font-size: 70px;'>错误! </span>","null","","","","","","","","","","","","","","","","","","","","","","","feedback_test"
"","","","","","psychophysics","228","584599","0.0-10.0-0.0-0.0-0.0-0.11","864","","j","","","","","","","","","","","","","key","j","16.66727927928006","768","428","f","false","img/H_ambi40.png","生人","same",""
"","","","","","html-keyboard-response","229","585108","0.0-10.0-0.0-0.0-0.0-1.11","null","<span style='color:red; font-size: 70px;'>错误! </span>","null","","","","","","","","","","","","","","","","","","","","","","","feedback_test"
"","","","","","psychophysics","230","586651","0.0-10.0-0.0-0.0-0.0-0.12","532","","f","","","","","","","","","","","","","key","f","16.66681318681247","768","428","f","true","img/T_ambi40.png","をる","same",""
"","","","","","html-keyboard-response","231","587154","0.0-10.0-0.0-0.0-0.0-1.12","null","<span style='color:GreenYellow; font-size: 70px;'>正确! </span>","null","","","","","","","","","","","","","","","","","","","","","","","feedback_test"
"","","","","","psychophysics","232","588635","0.0-10.0-0.0-0.0-0.0-0.13","474","","f","","","","","","","","","","","","","key","f","16.666643678161165","768","428","j","false","img/S_ambi40.png","生人","same",""
"","","","","","html-keyboard-response","233","589143","0.0-10.0-0.0-0.0-0.0-1.13","null","<span style='color:red; font-size: 70px;'>错误! </span>","null","","","","","","","","","","","","","","","","","","","","","","","feedback_test"
"","","","","","psychophysics","234","591132","0.0-10.0-0.0-0.0-0.0-0.14","983","","f","","","","","","","","","","","","","key","f","16.66582203389765","768","428","f","true","img/H_ambi40.png","生人","same",""
"","","","","","html-keyboard-response","235","591640","0.0-10.0-0.0-0.0-0.0-1.14","null","<span style='color:GreenYellow; font-size: 70px;'>正确! </span>","null","","","","","","","","","","","","","","","","","","","","","","","feedback_test"
"","","","","","psychophysics","236","593308","0.0-10.0-0.0-0.0-0.0-0.15","657","","j","","","","","","","","","","","","","key","j","16.66652525252559","768","428","f","false","img/C_ambi40.png","自我","same",""
"","","","","","html-keyboard-response","237","593819","0.0-10.0-0.0-0.0-0.0-1.15","null","<span style='color:red; font-size: 70px;'>错误! </span>","null","","","","","","","","","","","","","","","","","","","","","","","feedback_test"
"","","","","","psychophysics","238","595585","0.0-10.0-0.0-0.0-0.0-0.16","765","","f","","","","","","","","","","","","","key","f","16.667346153845966","768","428","f","true","img/T_ambi40.png","をる","same",""
"","","","","","html-keyboard-response","239","596103","0.0-10.0-0.0-0.0-0.0-1.16","null","<span style='color:GreenYellow; font-size: 70px;'>正确! </span>","null","","","","","","","","","","","","","","","","","","","","","","","feedback_test"
"","","","","","psychophysics","240","597652","0.0-10.0-0.0-0.0-0.0-0.17","538","","f","","","","","","","","","","","","","key","f","16.66646153846203","768","428","f","true","img/C_ambi40.png","自我","same",""
"","","","","","html-keyboard-response","241","598156","0.0-10.0-0.0-0.0-0.0-1.17","null","<span style='color:GreenYellow; font-size: 70px;'>正确! </span>","null","","","","","","","","","","","","","","","","","","","","","","","feedback_test"
"","","","","","psychophysics","242","600147","0.0-10.0-0.0-0.0-0.0-0.18","979","","j","","","","","","","","","","","","","key","j","16.666423728812873","768","428","j","true","img/S_ambi40.png","生人","same",""
"","","","","","html-keyboard-response","243","600661","0.0-10.0-0.0-0.0-0.0-1.18","null","<span style='color:GreenYellow; font-size: 70px;'>正确! </span>","null","","","","","","","","","","","","","","","","","","","","","","","feedback_test"
"","","","","","psychophysics","244","602304","0.0-10.0-0.0-0.0-0.0-0.19","634","","f","","","","","","","","","","","","","key","f","16.67029591836748","768","428","f","true","img/C_ambi40.png","自我","same",""
"","","","","","html-keyboard-response","245","602814","0.0-10.0-0.0-0.0-0.0-1.19","null","<span style='color:GreenYellow; font-size: 70px;'>正确! </span>","null","","","","","","","","","","","","","","","","","","","","","","","feedback_test"
"","","","","","psychophysics","246","604658","0.0-10.0-0.0-0.0-0.0-0.20","839","","f","","","","","","","","","","","","","key","f","16.667290909090926","768","428","f","true","img/S_ambi40.png","朋友","same",""
"","","","","","html-keyboard-response","247","605164","0.0-10.0-0.0-0.0-0.0-1.20","null","<span style='color:GreenYellow; font-size: 70px;'>正确! </span>","null","","","","","","","","","","","","","","","","","","","","","","","feedback_test"
"","","","","","psychophysics","248","606849","0.0-10.0-0.0-0.0-0.0-0.21","678","","f","","","","","","","","","","","","","key","f","16.66548999999999","768","428","f","true","img/H_ambi40.png","生人","same",""
"","","","","","html-keyboard-response","249","607366","0.0-10.0-0.0-0.0-0.0-1.21","null","<span style='color:GreenYellow; font-size: 70px;'>正确! </span>","null","","","","","","","","","","","","","","","","","","","","","","","feedback_test"
"","","","","","psychophysics","250","609729","0.0-10.0-0.0-0.0-0.0-0.22","1360","","j","","","","","","","","","","","","","key","j","16.666992857143384","768","428","j","true","img/H_ambi40.png","朋友","same",""
"","","","","","html-keyboard-response","251","610237","0.0-10.0-0.0-0.0-0.0-1.22","null","<span style='color:GreenYellow; font-size: 70px;'>正确! </span>","null","","","","","","","","","","","","","","","","","","","","","","","feedback_test"
"","","","","","psychophysics","252","611836","0.0-10.0-0.0-0.0-0.0-0.23","588","","f","","","","","","","","","","","","","key","f","16.66545263157888","768","428","f","true","img/T_ambi40.png","をる","same",""
"","","","","","html-keyboard-response","253","612350","0.0-10.0-0.0-0.0-0.0-1.23","null","<span style='color:GreenYellow; font-size: 70px;'>正确! </span>","null","","","","","","","","","","","","","","","","","","","","","","","feedback_test"
"","","","","","psychophysics","254","614353","0.0-10.0-0.0-0.0-0.0-0.24","1000","","f","","","","","","","","","","","","","key","f","16.667158333333404","768","428","f","true","img/S_ambi40.png","朋友","same",""
"","","","","","html-keyboard-response","255","614873","0.0-10.0-0.0-0.0-0.0-1.24","null","<span style='color:GreenYellow; font-size: 70px;'>正确! </span>","null","","","","","","","","","","","","","","","","","","","","","","","feedback_test"
"","","","","","psychophysics","256","616655","0.0-10.0-0.0-0.0-0.0-0.25","769","","f","","","","","","","","","","","","","key","f","16.66786792452825","768","428","f","true","img/H_ambi40.png","生人","same",""
"","","","","","html-keyboard-response","257","617164","0.0-10.0-0.0-0.0-0.0-1.25","null","<span style='color:GreenYellow; font-size: 70px;'>正确! </span>","null","","","","","","","","","","","","","","","","","","","","","","","feedback_test"
"","","","","","psychophysics","258","618875","0.0-10.0-0.0-0.0-0.0-0.26","707","","f","","","","","","","","","","","","","key","f","16.667647058823302","768","428","j","false","img/C_ambi40.png","朋友","same",""
"","","","","","html-keyboard-response","259","619380","0.0-10.0-0.0-0.0-0.0-1.26","null","<span style='color:red; font-size: 70px;'>错误! </span>","null","","","","","","","","","","","","","","","","","","","","","","","feedback_test"
"","","","","","psychophysics","260","621140","0.0-10.0-0.0-0.0-0.0-0.27","755","","f","","","","","","","","","","","","","key","f","16.66719999999983","768","428","j","false","img/H_ambi40.png","自我","same",""
"","","","","","html-keyboard-response","261","621657","0.0-10.0-0.0-0.0-0.0-1.27","null","<span style='color:red; font-size: 70px;'>错误! </span>","null","","","","","","","","","","","","","","","","","","","","","","","feedback_test"
"","","","","","psychophysics","262","623268","0.0-10.0-0.0-0.0-0.0-0.28","599","","j","","","","","","","","","","","","","key","j","16.666494736842516","768","428","f","false","img/C_ambi40.png","自我","same",""
"","","","","","html-keyboard-response","263","623773","0.0-10.0-0.0-0.0-0.0-1.28","null","<span style='color:red; font-size: 70px;'>错误! </span>","null","","","","","","","","","","","","","","","","","","","","","","","feedback_test"
"","","","","","psychophysics","264","625301","0.0-10.0-0.0-0.0-0.0-0.29","517","","f","","","","","","","","","","","","","key","f","16.66617777777784","768","428","j","false","img/C_ambi40.png","朋友","same",""
"","","","","","html-keyboard-response","265","625815","0.0-10.0-0.0-0.0-0.0-1.29","null","<span style='color:red; font-size: 70px;'>错误! </span>","null","","","","","","","","","","","","","","","","","","","","","","","feedback_test"
"","","","","","psychophysics","266","627904","0.0-10.0-0.0-0.0-0.0-0.30","1086","","f","","","","","","","","","","","","","key","f","16.66743200000003","768","428","j","false","img/C_ambi40.png","生人","same",""
"","","","","","html-keyboard-response","267","628412","0.0-10.0-0.0-0.0-0.0-1.30","null","<span style='color:red; font-size: 70px;'>错误! </span>","null","","","","","","","","","","","","","","","","","","","","","","","feedback_test"
"","","","","","psychophysics","268","630285","0.0-10.0-0.0-0.0-0.0-0.31","866","","f","","","","","","","","","","","","","key","f","16.66755855855897","768","428","f","true","img/T_ambi40.png","をる","same",""
"","","","","","html-keyboard-response","269","630797","0.0-10.0-0.0-0.0-0.0-1.31","null","<span style='color:GreenYellow; font-size: 70px;'>正确! </span>","null","","","","","","","","","","","","","","","","","","","","","","","feedback_test"
"","","","","","psychophysics","270","632680","0.0-10.0-0.0-0.0-0.0-0.32","876","","f","","","","","","","","","","","","","key","f","16.668241071428515","768","428","j","false","img/H_ambi40.png","自我","same",""
"","","","","","html-keyboard-response","271","633196","0.0-10.0-0.0-0.0-0.0-1.32","null","<span style='color:red; font-size: 70px;'>错误! </span>","null","","","","","","","","","","","","","","","","","","","","","","","feedback_test"
"","","","","","psychophysics","272","635238","0.0-10.0-0.0-0.0-0.0-0.33","1034","","j","","","","","","","","","","","","","key","j","16.66631967213089","768","428","j","true","img/S_ambi40.png","自我","same",""
"","","","","","html-keyboard-response","273","635754","0.0-10.0-0.0-0.0-0.0-1.33","null","<span style='color:GreenYellow; font-size: 70px;'>正确! </span>","null","","","","","","","","","","","","","","","","","","","","","","","feedback_test"
"","","","","","psychophysics","274","637510","0.0-10.0-0.0-0.0-0.0-0.34","744","","f","","","","","","","","","","","","","key","f","16.666307692307434","768","428","f","true","img/T_ambi40.png","をる","same",""
"","","","","","html-keyboard-response","275","638033","0.0-10.0-0.0-0.0-0.0-1.34","null","<span style='color:GreenYellow; font-size: 70px;'>正确! </span>","null","","","","","","","","","","","","","","","","","","","","","","","feedback_test"
"","","","","","psychophysics","276","640536","0.0-10.0-0.0-0.0-0.0-0.35","null","","null","","","","","","","","","","","","","key","null","16.667362416107615","768","428","j","false","img/S_ambi40.png","生人","same",""
"","","","","","html-keyboard-response","277","641053","0.0-10.0-0.0-0.0-0.0-1.35","null","<span class='add_' style='color:yellow; font-size: 70px;'> 太慢! </span>","null","","","","","","","","","","","","","","","","","","","","","","","feedback_test"
"","","","","","psychophysics","278","642715","0.0-10.0-0.0-0.0-0.0-0.36","646","","f","","","","","","","","","","","","","key","f","16.667479591836145","768","428","f","true","img/T_ambi40.png","をる","same",""
"","","","","","html-keyboard-response","279","643219","0.0-10.0-0.0-0.0-0.0-1.36","null","<span style='color:GreenYellow; font-size: 70px;'>正确! </span>","null","","","","","","","","","","","","","","","","","","","","","","","feedback_test"
"","","","","","psychophysics","280","644860","0.0-10.0-0.0-0.0-0.0-0.37","640","","f","","","","","","","","","","","","","key","f","16.66697938144375","768","428","f","true","img/T_ambi40.png","をる","same",""
"","","","","","html-keyboard-response","281","645375","0.0-10.0-0.0-0.0-0.0-1.37","null","<span style='color:GreenYellow; font-size: 70px;'>正确! </span>","null","","","","","","","","","","","","","","","","","","","","","","","feedback_test"
"","","","","","psychophysics","282","647090","0.0-10.0-0.0-0.0-0.0-0.38","703","","j","","","","","","","","","","","","","key","j","16.667578431372487","768","428","j","true","img/C_ambi40.png","生人","same",""
"","","","","","html-keyboard-response","283","647600","0.0-10.0-0.0-0.0-0.0-1.38","null","<span style='color:GreenYellow; font-size: 70px;'>正确! </span>","null","","","","","","","","","","","","","","","","","","","","","","","feedback_test"
"","","","","","psychophysics","284","649392","0.0-10.0-0.0-0.0-0.0-0.39","788","","f","","","","","","","","","","","","","key","f","16.666280373831924","768","428","f","true","img/C_ambi40.png","自我","same",""
"","","","","","html-keyboard-response","285","649899","0.0-10.0-0.0-0.0-0.0-1.39","null","<span style='color:GreenYellow; font-size: 70px;'>正确! </span>","null","","","","","","","","","","","","","","","","","","","","","","","feedback_test"
"","","","","","psychophysics","286","652006","0.0-10.0-0.0-0.0-0.0-0.40","1103","","j","","","","","","","","","","","","","key","j","16.66790476190444","768","428","f","false","img/S_ambi40.png","朋友","same",""
"","","","","","html-keyboard-response","287","652513","0.0-10.0-0.0-0.0-0.0-1.40","null","<span style='color:red; font-size: 70px;'>错误! </span>","null","","","","","","","","","","","","","","","","","","","","","","","feedback_test"
"","","","","","psychophysics","288","654410","0.0-10.0-0.0-0.0-0.0-0.41","893","","f","","","","","","","","","","","","","key","f","16.66793805309695","768","428","f","true","img/T_ambi40.png","をる","same",""
"","","","","","html-keyboard-response","289","654916","0.0-10.0-0.0-0.0-0.0-1.41","null","<span style='color:GreenYellow; font-size: 70px;'>正确! </span>","null","","","","","","","","","","","","","","","","","","","","","","","feedback_test"
"","","","","","psychophysics","290","656762","0.0-10.0-0.0-0.0-0.0-0.42","843","","f","","","","","","","","","","","","","key","f","16.66804545454533","768","428","j","false","img/H_ambi40.png","朋友","same",""
"","","","","","html-keyboard-response","291","657268","0.0-10.0-0.0-0.0-0.0-1.42","null","<span style='color:red; font-size: 70px;'>错误! </span>","null","","","","","","","","","","","","","","","","","","","","","","","feedback_test"
"","","","","","psychophysics","292","659268","0.0-10.0-0.0-0.0-0.0-0.43","998","","f","","","","","","","","","","","","","key","f","16.667771186440852","768","428","f","true","img/S_ambi40.png","朋友","same",""
"","","","","","html-keyboard-response","293","659771","0.0-10.0-0.0-0.0-0.0-1.43","null","<span style='color:GreenYellow; font-size: 70px;'>正确! </span>","null","","","","","","","","","","","","","","","","","","","","","","","feedback_test"
"","","","","","psychophysics","294","661689","0.0-10.0-0.0-0.0-0.0-0.44","902","","j","","","","","","","","","","","","","key","j","16.66722807017453","768","428","j","true","img/C_ambi40.png","朋友","same",""
"","","","","","html-keyboard-response","295","662206","0.0-10.0-0.0-0.0-0.0-1.44","null","<span style='color:GreenYellow; font-size: 70px;'>正确! </span>","null","","","","","","","","","","","","","","","","","","","","","","","feedback_test"
"","","","","","psychophysics","296","664028","0.0-10.0-0.0-0.0-0.0-0.45","810","","j","","","","","","","","","","","","","key","j","16.666092592592275","768","428","j","true","img/H_ambi40.png","自我","same",""
"","","","","","html-keyboard-response","297","664530","0.0-10.0-0.0-0.0-0.0-1.45","null","<span style='color:GreenYellow; font-size: 70px;'>正确! </span>","null","","","","","","","","","","","","","","","","","","","","","","","feedback_test"
"","","","","","psychophysics","298","666383","0.0-10.0-0.0-0.0-0.0-0.46","846","","j","","","","","","","","","","","","","key","j","16.66635454545454","768","428","j","true","img/S_ambi40.png","生人","same",""
"","","","","","html-keyboard-response","299","666893","0.0-10.0-0.0-0.0-0.0-1.46","null","<span style='color:GreenYellow; font-size: 70px;'>正确! </span>","null","","","","","","","","","","","","","","","","","","","","","","","feedback_test"
"","","","","","psychophysics","300","668516","0.0-10.0-0.0-0.0-0.0-0.47","614","","j","","","","","","","","","","","","","key","j","16.666218750000553","768","428","f","false","img/H_ambi40.png","生人","same",""
"","","","","","html-keyboard-response","301","669024","0.0-10.0-0.0-0.0-0.0-1.47","null","<span style='color:red; font-size: 70px;'>错误! </span>","null","","","","","","","","","","","","","","","","","","","","","","","feedback_test"
"","","","","","psychophysics","302","670927","0.0-10.0-0.0-0.0-0.0-0.48","892","","j","","","","","","","","","","","","","key","j","16.66640707964605","768","428","j","true","img/S_ambi40.png","自我","same",""
"","","","","","html-keyboard-response","303","671443","0.0-10.0-0.0-0.0-0.0-1.48","null","<span style='color:GreenYellow; font-size: 70px;'>正确! </span>","null","","","","","","","","","","","","","","","","","","","","","","","feedback_test"
"","","","","","psychophysics","304","673052","0.0-10.0-0.0-0.0-0.0-0.49","602","","f","","","","","","","","","","","","","key","f","16.667189473684534","768","428","f","true","img/C_ambi40.png","自我","same",""
"","","","","","html-keyboard-response","305","673570","0.0-10.0-0.0-0.0-0.0-1.49","null","<span style='color:GreenYellow; font-size: 70px;'>正确! </span>","null","","","","","","","","","","","","","","","","","","","","","","","feedback_test"
"","","","","","psychophysics","306","675644","0.0-10.0-0.0-0.0-0.0-0.50","1063","","f","","","","","","","","","","","","","key","f","16.66661788617844","768","428","j","false","img/C_ambi40.png","朋友","same",""
"","","","","","html-keyboard-response","307","676151","0.0-10.0-0.0-0.0-0.0-1.50","null","<span style='color:red; font-size: 70px;'>错误! </span>","null","","","","","","","","","","","","","","","","","","","","","","","feedback_test"
"","","","","","psychophysics","308","678202","0.0-10.0-0.0-0.0-0.0-0.51","1048","","j","","","","","","","","","","","","","key","j","16.556487603305477","768","428","j","true","img/S_ambi40.png","生人","same",""
"","","","","","html-keyboard-response","309","678718","0.0-10.0-0.0-0.0-0.0-1.51","null","<span style='color:GreenYellow; font-size: 70px;'>正确! </span>","null","","","","","","","","","","","","","","","","","","","","","","","feedback_test"
"","","","","","psychophysics","310","680764","0.0-10.0-0.0-0.0-0.0-0.52","1043","","f","","","","","","","","","","","","","key","f","16.553355371900874","768","428","f","true","img/H_ambi40.png","生人","same",""
"","","","","","html-keyboard-response","311","681272","0.0-10.0-0.0-0.0-0.0-1.52","null","<span style='color:GreenYellow; font-size: 70px;'>正确! </span>","null","","","","","","","","","","","","","","","","","","","","","","","feedback_test"
"","","","","","psychophysics","312","682840","0.0-10.0-0.0-0.0-0.0-0.53","556","","j","","","","","","","","","","","","","key","j","16.6672150537632","768","428","j","true","img/H_ambi40.png","自我","same",""
"","","","","","html-keyboard-response","313","683359","0.0-10.0-0.0-0.0-0.0-1.53","null","<span style='color:GreenYellow; font-size: 70px;'>正确! </span>","null","","","","","","","","","","","","","","","","","","","","","","","feedback_test"
"","","","","","psychophysics","314","684994","0.0-10.0-0.0-0.0-0.0-0.54","630","","j","","","","","","","","","","","","","key","j","16.666835051545988","768","428","f","false","img/T_ambi40.png","をる","same",""
"","","","","","html-keyboard-response","315","685509","0.0-10.0-0.0-0.0-0.0-1.54","null","<span style='color:red; font-size: 70px;'>错误! </span>","null","","","","","","","","","","","","","","","","","","","","","","","feedback_test"
"","","","","","psychophysics","316","687259","0.0-10.0-0.0-0.0-0.0-0.55","739","","f","","","","","","","","","","","","","key","f","16.667298076923963","768","428","f","true","img/C_ambi40.png","自我","same",""
"","","","","","html-keyboard-response","317","687767","0.0-10.0-0.0-0.0-0.0-1.55","null","<span style='color:GreenYellow; font-size: 70px;'>正确! </span>","null","","","","","","","","","","","","","","","","","","","","","","","feedback_test"
"","","","","","psychophysics","318","689309","0.0-10.0-0.0-0.0-0.0-0.56","538","","f","","","","","","","","","","","","","key","f","16.528076923077485","768","428","f","true","img/T_ambi40.png","をる","same",""
"","","","","","html-keyboard-response","319","689813","0.0-10.0-0.0-0.0-0.0-1.56","null","<span style='color:GreenYellow; font-size: 70px;'>正确! </span>","null","","","","","","","","","","","","","","","","","","","","","","","feedback_test"
"","","","","","psychophysics","320","691383","0.0-10.0-0.0-0.0-0.0-0.57","562","","j","","","","","","","","","","","","","key","j","16.66656989247228","768","428","f","false","img/S_ambi40.png","朋友","same",""
"","","","","","html-keyboard-response","321","691902","0.0-10.0-0.0-0.0-0.0-1.57","null","<span style='color:red; font-size: 70px;'>错误! </span>","null","","","","","","","","","","","","","","","","","","","","","","","feedback_test"
"","","","","","psychophysics","322","693592","0.0-10.0-0.0-0.0-0.0-0.58","688","","j","","","","","","","","","","","","","key","j","16.66570999999996","768","428","j","true","img/S_ambi40.png","自我","same",""
"","","","","","html-keyboard-response","323","694113","0.0-10.0-0.0-0.0-0.0-1.58","null","<span style='color:GreenYellow; font-size: 70px;'>正确! </span>","null","","","","","","","","","","","","","","","","","","","","","","","feedback_test"
"","","","","","psychophysics","324","695918","0.0-10.0-0.0-0.0-0.0-0.59","797","","f","","","","","","","","","","","","","key","f","16.66742056074757","768","428","f","true","img/H_ambi40.png","生人","same",""
"","","","","","html-keyboard-response","325","696425","0.0-10.0-0.0-0.0-0.0-1.59","null","<span style='color:GreenYellow; font-size: 70px;'>正确! </span>","null","","","","","","","","","","","","","","","","","","","","","","","feedback_test"
"","","","","","psychophysics","326","697997","0.0-10.0-0.0-0.0-0.0-0.60","561","","j","","","","","","","","","","","","","key","j","16.666720430107578","768","428","j","true","img/H_ambi40.png","自我","same",""
"","","","","","html-keyboard-response","327","698506","0.0-10.0-0.0-0.0-0.0-1.60","null","<span style='color:GreenYellow; font-size: 70px;'>正确! </span>","null","","","","","","","","","","","","","","","","","","","","","","","feedback_test"
"","","","","","psychophysics","328","700236","0.0-10.0-0.0-0.0-0.0-0.61","718","","f","","","","","","","","","","","","","key","f","16.66758823529338","768","428","f","true","img/S_ambi40.png","朋友","same",""
"","","","","","html-keyboard-response","329","700748","0.0-10.0-0.0-0.0-0.0-1.61","null","<span style='color:GreenYellow; font-size: 70px;'>正确! </span>","null","","","","","","","","","","","","","","","","","","","","","","","feedback_test"
"","","","","","psychophysics","330","702369","0.0-10.0-0.0-0.0-0.0-0.62","616","","f","","","","","","","","","","","","","key","f","16.667218749999545","768","428","j","false","img/H_ambi40.png","朋友","same",""
"","","","","","html-keyboard-response","331","702881","0.0-10.0-0.0-0.0-0.0-1.62","null","<span style='color:red; font-size: 70px;'>错误! </span>","null","","","","","","","","","","","","","","","","","","","","","","","feedback_test"
"","","","","","psychophysics","332","704607","0.0-10.0-0.0-0.0-0.0-0.63","720","","j","","","","","","","","","","","","","key","j","16.668106796117094","768","428","j","true","img/H_ambi40.png","自我","same",""
"","","","","","html-keyboard-response","333","705120","0.0-10.0-0.0-0.0-0.0-1.63","null","<span style='color:GreenYellow; font-size: 70px;'>正确! </span>","null","","","","","","","","","","","","","","","","","","","","","","","feedback_test"
"","","","","","psychophysics","334","706792","0.0-10.0-0.0-0.0-0.0-0.64","660","","f","","","","","","","","","","","","","key","f","16.666939393939412","768","428","j","false","img/C_ambi40.png","朋友","same",""
"","","","","","html-keyboard-response","335","707303","0.0-10.0-0.0-0.0-0.0-1.64","null","<span style='color:red; font-size: 70px;'>错误! </span>","null","","","","","","","","","","","","","","","","","","","","","","","feedback_test"
"","","","","","psychophysics","336","708727","0.0-10.0-0.0-0.0-0.0-0.65","423","","j","","","","","","","","","","","","","key","j","16.668035714285605","768","428","j","true","img/C_ambi40.png","生人","same",""
"","","","","","html-keyboard-response","337","709234","0.0-10.0-0.0-0.0-0.0-1.65","null","<span style='color:GreenYellow; font-size: 70px;'>正确! </span>","null","","","","","","","","","","","","","","","","","","","","","","","feedback_test"
"","","","","","psychophysics","338","710966","0.0-10.0-0.0-0.0-0.0-0.66","729","","j","","","","","","","","","","","","","key","j","16.537343137254982","768","428","j","true","img/S_ambi40.png","生人","same",""
"","","","","","html-keyboard-response","339","711478","0.0-10.0-0.0-0.0-0.0-1.66","null","<span style='color:GreenYellow; font-size: 70px;'>正确! </span>","null","","","","","","","","","","","","","","","","","","","","","","","feedback_test"
"","","","","","psychophysics","340","713143","0.0-10.0-0.0-0.0-0.0-0.67","656","","f","","","","","","","","","","","","","key","f","16.667170000000624","768","428","f","true","img/H_ambi40.png","生人","same",""
"","","","","","html-keyboard-response","341","713662","0.0-10.0-0.0-0.0-0.0-1.67","null","<span style='color:GreenYellow; font-size: 70px;'>正确! </span>","null","","","","","","","","","","","","","","","","","","","","","","","feedback_test"
"","","","","","psychophysics","342","715499","0.0-10.0-0.0-0.0-0.0-0.68","829","","j","","","","","","","","","","","","","key","j","16.66610091743102","768","428","j","true","img/S_ambi40.png","生人","same",""
"","","","","","html-keyboard-response","343","716014","0.0-10.0-0.0-0.0-0.0-1.68","null","<span style='color:GreenYellow; font-size: 70px;'>正确! </span>","null","","","","","","","","","","","","","","","","","","","","","","","feedback_test"
"","","","","","psychophysics","344","717701","0.0-10.0-0.0-0.0-0.0-0.69","679","","j","","","","","","","","","","","","","key","j","16.66697999999975","768","428","j","true","img/C_ambi40.png","朋友","same",""
"","","","","","html-keyboard-response","345","718209","0.0-10.0-0.0-0.0-0.0-1.69","null","<span style='color:GreenYellow; font-size: 70px;'>正确! </span>","null","","","","","","","","","","","","","","","","","","","","","","","feedback_test"
"","","","","","psychophysics","346","719874","0.0-10.0-0.0-0.0-0.0-0.70","656","","f","","","","","","","","","","","","","key","f","16.665090909091322","768","428","f","true","img/C_ambi40.png","自我","same",""
"","","","","","html-keyboard-response","347","720385","0.0-10.0-0.0-0.0-0.0-1.70","null","<span style='color:GreenYellow; font-size: 70px;'>正确! </span>","null","","","","","","","","","","","","","","","","","","","","","","","feedback_test"
"","","","","","psychophysics","348","722017","0.0-10.0-0.0-0.0-0.0-0.71","632","","j","","","","","","","","","","","","","key","j","16.531593750000564","768","428","f","false","img/T_ambi40.png","をる","same",""
"","","","","","html-keyboard-response","349","722536","0.0-10.0-0.0-0.0-0.0-1.71","null","<span style='color:red; font-size: 70px;'>错误! </span>","null","","","","","","","","","","","","","","","","","","","","","","","feedback_test"
"","","","","","psychophysics","350","724064","0.0-10.0-0.0-0.0-0.0-0.72","516","","j","","","","","","","","","","","","","key","j","16.66776666666588","768","428","f","false","img/C_ambi40.png","自我","same",""
"","","","","","html-keyboard-response","351","724578","0.0-10.0-0.0-0.0-0.0-1.72","null","<span style='color:red; font-size: 70px;'>错误! </span>","null","","","","","","","","","","","","","","","","","","","","","","","feedback_test"
"","","","","","psychophysics","352","726186","0.0-10.0-0.0-0.0-0.0-0.73","598","","j","","","","","","","","","","","","","key","j","16.664526315789523","768","428","f","false","img/H_ambi40.png","生人","same",""
"","","","","","html-keyboard-response","353","726697","0.0-10.0-0.0-0.0-0.0-1.73","null","<span style='color:red; font-size: 70px;'>错误! </span>","null","","","","","","","","","","","","","","","","","","","","","","","feedback_test"
"","","","","","psychophysics","354","728414","0.0-10.0-0.0-0.0-0.0-0.74","709","","j","","","","","","","","","","","","","key","j","16.66408823529377","768","428","j","true","img/S_ambi40.png","生人","same",""
"","","","","","html-keyboard-response","355","728926","0.0-10.0-0.0-0.0-0.0-1.74","null","<span style='color:GreenYellow; font-size: 70px;'>正确! </span>","null","","","","","","","","","","","","","","","","","","","","","","","feedback_test"
"","","","","","psychophysics","356","730663","0.0-10.0-0.0-0.0-0.0-0.75","729","","f","","","","","","","","","","","","","key","f","16.667961165047867","768","428","f","true","img/S_ambi40.png","朋友","same",""
"","","","","","html-keyboard-response","357","731182","0.0-10.0-0.0-0.0-0.0-1.75","null","<span style='color:GreenYellow; font-size: 70px;'>正确! </span>","null","","","","","","","","","","","","","","","","","","","","","","","feedback_test"
"","","","","","psychophysics","358","732781","0.0-10.0-0.0-0.0-0.0-0.76","594","","j","","","","","","","","","","","","","key","j","16.66707368421025","768","428","f","false","img/C_ambi40.png","自我","same",""
"","","","","","html-keyboard-response","359","733297","0.0-10.0-0.0-0.0-0.0-1.76","null","<span style='color:red; font-size: 70px;'>错误! </span>","null","","","","","","","","","","","","","","","","","","","","","","","feedback_test"
"","","","","","psychophysics","360","735008","0.0-10.0-0.0-0.0-0.0-0.77","705","","f","","","","","","","","","","","","","key","f","16.667813725489896","768","428","j","false","img/H_ambi40.png","自我","same",""
"","","","","","html-keyboard-response","361","735528","0.0-10.0-0.0-0.0-0.0-1.77","null","<span style='color:red; font-size: 70px;'>错误! </span>","null","","","","","","","","","","","","","","","","","","","","","","","feedback_test"
"","","","","","psychophysics","362","737147","0.0-10.0-0.0-0.0-0.0-0.78","610","","j","","","","","","","","","","","","","key","j","16.663895833332692","768","428","j","true","img/C_ambi40.png","朋友","same",""
"","","","","","html-keyboard-response","363","737650","0.0-10.0-0.0-0.0-0.0-1.78","null","<span style='color:GreenYellow; font-size: 70px;'>正确! </span>","null","","","","","","","","","","","","","","","","","","","","","","","feedback_test"
"","","","","","psychophysics","364","739447","0.0-10.0-0.0-0.0-0.0-0.79","795","","f","","","","","","","","","","","","","key","f","16.666962616822342","768","428","f","true","img/T_ambi40.png","をる","same",""
"","","","","","html-keyboard-response","365","739966","0.0-10.0-0.0-0.0-0.0-1.79","null","<span style='color:GreenYellow; font-size: 70px;'>正确! </span>","null","","","","","","","","","","","","","","","","","","","","","","","feedback_test"
"","","","","","psychophysics","366","741676","0.0-10.0-0.0-0.0-0.0-0.80","706","","j","","","","","","","","","","","","","key","j","16.667941176470634","768","428","f","false","img/H_ambi40.png","生人","same",""
"","","","","","html-keyboard-response","367","742189","0.0-10.0-0.0-0.0-0.0-1.80","null","<span style='color:red; font-size: 70px;'>错误! </span>","null","","","","","","","","","","","","","","","","","","","","","","","feedback_test"
"","","","","","psychophysics","368","743885","0.0-10.0-0.0-0.0-0.0-0.81","682","","f","","","","","","","","","","","","","key","f","16.667080000001008","768","428","f","true","img/S_ambi40.png","朋友","same",""
"","","","","","html-keyboard-response","369","744388","0.0-10.0-0.0-0.0-0.0-1.81","null","<span style='color:GreenYellow; font-size: 70px;'>正确! </span>","null","","","","","","","","","","","","","","","","","","","","","","","feedback_test"
"","","","","","psychophysics","370","745969","0.0-10.0-0.0-0.0-0.0-0.82","568","","j","","","","","","","","","","","","","key","j","16.668333333333635","768","428","f","false","img/T_ambi40.png","をる","same",""
"","","","","","html-keyboard-response","371","746477","0.0-10.0-0.0-0.0-0.0-1.82","null","<span style='color:red; font-size: 70px;'>错误! </span>","null","","","","","","","","","","","","","","","","","","","","","","","feedback_test"
"","","","","","psychophysics","372","747952","0.0-10.0-0.0-0.0-0.0-0.83","467","","f","","","","","","","","","","","","","key","f","16.666252873563636","768","428","j","false","img/H_ambi40.png","自我","same",""
"","","","","","html-keyboard-response","373","748466","0.0-10.0-0.0-0.0-0.0-1.83","null","<span style='color:red; font-size: 70px;'>错误! </span>","null","","","","","","","","","","","","","","","","","","","","","","","feedback_test"
"","","","","","psychophysics","374","750201","0.0-10.0-0.0-0.0-0.0-0.84","732","","j","","","","","","","","","","","","","key","j","16.667446601941496","768","428","j","true","img/H_ambi40.png","朋友","same",""
"","","","","","html-keyboard-response","375","750710","0.0-10.0-0.0-0.0-0.0-1.84","null","<span style='color:GreenYellow; font-size: 70px;'>正确! </span>","null","","","","","","","","","","","","","","","","","","","","","","","feedback_test"
"","","","","","psychophysics","376","752362","0.0-10.0-0.0-0.0-0.0-0.85","642","","f","","","","","","","","","","","","","key","f","16.667530612244356","768","428","j","false","img/C_ambi40.png","朋友","same",""
"","","","","","html-keyboard-response","377","752875","0.0-10.0-0.0-0.0-0.0-1.85","null","<span style='color:red; font-size: 70px;'>错误! </span>","null","","","","","","","","","","","","","","","","","","","","","","","feedback_test"
"","","","","","psychophysics","378","754984","0.0-10.0-0.0-0.0-0.0-0.86","1097","","f","","","","","","","","","","","","","key","f","16.667200000000186","768","428","j","false","img/S_ambi40.png","生人","same",""
"","","","","","html-keyboard-response","379","755498","0.0-10.0-0.0-0.0-0.0-1.86","null","<span style='color:red; font-size: 70px;'>错误! </span>","null","","","","","","","","","","","","","","","","","","","","","","","feedback_test"
"","","","","","psychophysics","380","757072","0.0-10.0-0.0-0.0-0.0-0.87","569","","j","","","","","","","","","","","","","key","j","16.666340425532518","768","428","j","true","img/S_ambi40.png","自我","same",""
"","","","","","html-keyboard-response","381","757583","0.0-10.0-0.0-0.0-0.0-1.87","null","<span style='color:GreenYellow; font-size: 70px;'>正确! </span>","null","","","","","","","","","","","","","","","","","","","","","","","feedback_test"
"","","","","","psychophysics","382","759130","0.0-10.0-0.0-0.0-0.0-0.88","543","","j","","","","","","","","","","","","","key","j","16.66771739130364","768","428","j","true","img/C_ambi40.png","生人","same",""
"","","","","","html-keyboard-response","383","759641","0.0-10.0-0.0-0.0-0.0-1.88","null","<span style='color:GreenYellow; font-size: 70px;'>正确! </span>","null","","","","","","","","","","","","","","","","","","","","","","","feedback_test"
"","","","","","psychophysics","384","761172","0.0-10.0-0.0-0.0-0.0-0.89","520","","j","","","","","","","","","","","","","key","j","16.667142857143727","768","428","f","false","img/T_ambi40.png","をる","same",""
"","","","","","html-keyboard-response","385","761684","0.0-10.0-0.0-0.0-0.0-1.89","null","<span style='color:red; font-size: 70px;'>错误! </span>","null","","","","","","","","","","","","","","","","","","","","","","","feedback_test"
"","","","","","psychophysics","386","763413","0.0-10.0-0.0-0.0-0.0-0.90","727","","j","","","","","","","","","","","","","key","j","16.529186274510508","768","428","f","false","img/S_ambi40.png","朋友","same",""
"","","","","","html-keyboard-response","387","763929","0.0-10.0-0.0-0.0-0.0-1.90","null","<span style='color:red; font-size: 70px;'>错误! </span>","null","","","","","","","","","","","","","","","","","","","","","","","feedback_test"
"","","","","","psychophysics","388","765524","0.0-10.0-0.0-0.0-0.0-0.91","587","","f","","","","","","","","","","","","","key","f","16.666715789473567","768","428","f","true","img/T_ambi40.png","をる","same",""
"","","","","","html-keyboard-response","389","766033","0.0-10.0-0.0-0.0-0.0-1.91","null","<span style='color:GreenYellow; font-size: 70px;'>正确! </span>","null","","","","","","","","","","","","","","","","","","","","","","","feedback_test"
"","","","","","psychophysics","390","768071","0.0-10.0-0.0-0.0-0.0-0.92","1035","","f","","","","","","","","","","","","","key","f","16.66750000000046","768","428","f","true","img/S_ambi40.png","朋友","same",""
"","","","","","html-keyboard-response","391","768587","0.0-10.0-0.0-0.0-0.0-1.92","null","<span style='color:GreenYellow; font-size: 70px;'>正确! </span>","null","","","","","","","","","","","","","","","","","","","","","","","feedback_test"
"","","","","","psychophysics","392","770795","0.0-10.0-0.0-0.0-0.0-0.93","1198","","f","","","","","","","","","","","","","key","f","16.666022900762997","768","428","j","false","img/H_ambi40.png","自我","same",""
"","","","","","html-keyboard-response","393","771301","0.0-10.0-0.0-0.0-0.0-1.93","null","<span style='color:red; font-size: 70px;'>错误! </span>","null","","","","","","","","","","","","","","","","","","","","","","","feedback_test"
"","","","","","psychophysics","394","773352","0.0-10.0-0.0-0.0-0.0-0.94","1049","","f","","","","","","","","","","","","","key","f","16.557099173553596","768","428","j","false","img/C_ambi40.png","朋友","same",""
"","","","","","html-keyboard-response","395","773858","0.0-10.0-0.0-0.0-0.0-1.94","null","<span style='color:red; font-size: 70px;'>错误! </span>","null","","","","","","","","","","","","","","","","","","","","","","","feedback_test"
"","","","","","psychophysics","396","775667","0.0-10.0-0.0-0.0-0.0-0.95","797","","j","","","","","","","","","","","","","key","j","16.66742056074757","768","428","j","true","img/C_ambi40.png","生人","same",""
"","","","","","html-keyboard-response","397","776174","0.0-10.0-0.0-0.0-0.0-1.95","null","<span style='color:GreenYellow; font-size: 70px;'>正确! </span>","null","","","","","","","","","","","","","","","","","","","","","","","feedback_test"
"","","","","","psychophysics","398","778102","0.0-10.0-0.0-0.0-0.0-0.96","917","","f","","","","","","","","","","","","","key","f","16.666868421053024","768","428","f","true","img/C_ambi40.png","自我","same",""
"","","","","","html-keyboard-response","399","778617","0.0-10.0-0.0-0.0-0.0-1.96","null","<span style='color:GreenYellow; font-size: 70px;'>正确! </span>","null","","","","","","","","","","","","","","","","","","","","","","","feedback_test"
"","","","","","psychophysics","400","780783","0.0-10.0-0.0-0.0-0.0-0.97","1163","","j","","","","","","","","","","","","","key","j","16.666984496123785","768","428","j","true","img/H_ambi40.png","自我","same",""
"","","","","","html-keyboard-response","401","781295","0.0-10.0-0.0-0.0-0.0-1.97","null","<span style='color:GreenYellow; font-size: 70px;'>正确! </span>","null","","","","","","","","","","","","","","","","","","","","","","","feedback_test"
"","","","","","psychophysics","402","783135","0.0-10.0-0.0-0.0-0.0-0.98","832","","f","","","","","","","","","","","","","key","f","16.66577981651436","768","428","f","true","img/C_ambi40.png","自我","same",""
"","","","","","html-keyboard-response","403","783647","0.0-10.0-0.0-0.0-0.0-1.98","null","<span style='color:GreenYellow; font-size: 70px;'>正确! </span>","null","","","","","","","","","","","","","","","","","","","","","","","feedback_test"
"","","","","","psychophysics","404","785594","0.0-10.0-0.0-0.0-0.0-0.99","940","","j","","","","","","","","","","","","","key","j","16.667543103447755","768","428","f","false","img/H_ambi40.png","生人","same",""
"","","","","","html-keyboard-response","405","786111","0.0-10.0-0.0-0.0-0.0-1.99","null","<span style='color:red; font-size: 70px;'>错误! </span>","null","","","","","","","","","","","","","","","","","","","","","","","feedback_test"
"","","","","","psychophysics","406","788449","0.0-10.0-0.0-0.0-0.0-0.100","1330","","j","","","","","","","","","","","","","key","j","16.6662661870506","768","428","j","true","img/S_ambi40.png","自我","same",""
"","","","","","html-keyboard-response","407","788960","0.0-10.0-0.0-0.0-0.0-1.100","null","<span style='color:GreenYellow; font-size: 70px;'>正确! </span>","null","","","","","","","","","","","","","","","","","","","","","","","feedback_test"
"","","","","","psychophysics","408","790573","0.0-10.0-0.0-0.0-0.0-0.101","603","","f","","","","","","","","","","","","","key","f","16.66707291666656","768","428","f","true","img/T_ambi40.png","をる","same",""
"","","","","","html-keyboard-response","409","791083","0.0-10.0-0.0-0.0-0.0-1.101","null","<span style='color:GreenYellow; font-size: 70px;'>正确! </span>","null","","","","","","","","","","","","","","","","","","","","","","","feedback_test"
"","","","","","psychophysics","410","793024","0.0-10.0-0.0-0.0-0.0-0.102","938","","j","","","","","","","","","","","","","key","j","16.667215517241356","768","428","j","true","img/S_ambi40.png","生人","same",""
"","","","","","html-keyboard-response","411","793534","0.0-10.0-0.0-0.0-0.0-1.102","null","<span style='color:GreenYellow; font-size: 70px;'>正确! </span>","null","","","","","","","","","","","","","","","","","","","","","","","feedback_test"
"","","","","","psychophysics","412","795879","0.0-10.0-0.0-0.0-0.0-0.103","1343","","f","","","","","","","","","","","","","key","f","16.571525179856398","768","428","j","false","img/H_ambi40.png","朋友","same",""
"","","","","","html-keyboard-response","413","796387","0.0-10.0-0.0-0.0-0.0-1.103","null","<span style='color:red; font-size: 70px;'>错误! </span>","null","","","","","","","","","","","","","","","","","","","","","","","feedback_test"
"","","","","","psychophysics","414","798077","0.0-10.0-0.0-0.0-0.0-0.104","682","","f","","","","","","","","","","","","","key","f","16.66625","768","428","f","true","img/T_ambi40.png","をる","same",""
"","","","","","html-keyboard-response","415","798581","0.0-10.0-0.0-0.0-0.0-1.104","null","<span style='color:GreenYellow; font-size: 70px;'>正确! </span>","null","","","","","","","","","","","","","","","","","","","","","","","feedback_test"
"","","","","","psychophysics","416","800349","0.0-10.0-0.0-0.0-0.0-0.105","763","","j","","","","","","","","","","","","","key","j","16.666723809524306","768","428","j","true","img/C_ambi40.png","朋友","same",""
"","","","","","html-keyboard-response","417","800850","0.0-10.0-0.0-0.0-0.0-1.105","null","<span style='color:GreenYellow; font-size: 70px;'>正确! </span>","null","","","","","","","","","","","","","","","","","","","","","","","feedback_test"
"","","","","","psychophysics","418","802914","0.0-10.0-0.0-0.0-0.0-0.106","1062","","f","","","","","","","","","","","","","key","f","16.667113821138628","768","428","f","true","img/H_ambi40.png","生人","same",""
"","","","","","html-keyboard-response","419","803422","0.0-10.0-0.0-0.0-0.0-1.106","null","<span style='color:GreenYellow; font-size: 70px;'>正确! </span>","null","","","","","","","","","","","","","","","","","","","","","","","feedback_test"
"","","","","","psychophysics","420","805260","0.0-10.0-0.0-0.0-0.0-0.107","824","","j","","","","","","","","","","","","","key","j","16.668174311926656","768","428","j","true","img/S_ambi40.png","生人","same",""
"","","","","","html-keyboard-response","421","805770","0.0-10.0-0.0-0.0-0.0-1.107","null","<span style='color:GreenYellow; font-size: 70px;'>正确! </span>","null","","","","","","","","","","","","","","","","","","","","","","","feedback_test"
"","","","","","html-keyboard-response","422","808040","0.0-10.0-0.0-0.0-1.0","2267","<style>.context{color:white; font-size: 35px; line-height:40px}</style>                          <div><p class='context'>您正确回答了64% 的试次。</p><p class='context'>您的平均反应时为779毫秒。</p><p class='context'>请按任意键进入休息</p></div>"," ","","","","","","","","","","","","","","","","","","","","","","",""
"","","","","","html-button-response","423","815146","0.0-10.0-0.0-0.0-2.0","7102","
                    <p>您当前还剩余5组实验</p>
                    <p>现在是休息时间，当您结束休息后，您可以点击 结束休息 按钮 继续</p>
                    <p>建议休息时间还剩余<span id=""iii"">60</span>秒</p>","0","","","","","","","","","","","","","","","","","","","","","","",""
"","","","","","psychophysics","424","817654","0.0-10.0-0.0-0.0-0.1-0.108","null","","null","","","","","","","","","","","","","key","null","16.66618666666715","768","428","j","false","img/S_ambi40.png","生人","same",""
"","","","","","html-keyboard-response","425","818174","0.0-10.0-0.0-0.0-0.1-1.108","null","<span class='add_' style='color:yellow; font-size: 70px;'> 太慢! </span>","null","","","","","","","","","","","","","","","","","","","","","","","feedback_test"
"","","","","","psychophysics","426","819749","0.0-10.0-0.0-0.0-0.1-0.109","563","","j","","","","","","","","","","","","","key","j","16.665774193548557","768","428","f","false","img/C_ambi40.png","自我","same",""
"","","","","","html-keyboard-response","427","820261","0.0-10.0-0.0-0.0-0.1-1.109","null","<span style='color:red; font-size: 70px;'>错误! </span>","null","","","","","","","","","","","","","","","","","","","","","","","feedback_test"
"","","","","","psychophysics","428","821625","0.0-10.0-0.0-0.0-0.1-0.110","355","","f","","","","","","","","","","","","","key","f","16.66466666666653","768","428","f","true","img/H_ambi40.png","生人","same",""
"","","","","","html-keyboard-response","429","822134","0.0-10.0-0.0-0.0-0.1-1.110","null","<span style='color:GreenYellow; font-size: 70px;'>正确! </span>","null","","","","","","","","","","","","","","","","","","","","","","","feedback_test"
"","","","","","psychophysics","430","824020","0.0-10.0-0.0-0.0-0.1-0.111","883","","j","","","","","","","","","","","","","key","j","16.55317857142862","768","428","j","true","img/C_ambi40.png","生人","same",""
"","","","","","html-keyboard-response","431","824531","0.0-10.0-0.0-0.0-0.1-1.111","null","<span style='color:GreenYellow; font-size: 70px;'>正确! </span>","null","","","","","","","","","","","","","","","","","","","","","","","feedback_test"
"","","","","","psychophysics","432","826092","0.0-10.0-0.0-0.0-0.1-0.112","553","","j","","","","","","","","","","","","","key","j","16.666612903225758","768","428","j","true","img/S_ambi40.png","生人","same",""
"","","","","","html-keyboard-response","433","826598","0.0-10.0-0.0-0.0-0.1-1.112","null","<span style='color:GreenYellow; font-size: 70px;'>正确! </span>","null","","","","","","","","","","","","","","","","","","","","","","","feedback_test"
"","","","","","psychophysics","434","828568","0.0-10.0-0.0-0.0-0.1-0.113","964","","f","","","","","","","","","","","","","key","f","16.66696581196609","768","428","j","false","img/H_ambi40.png","自我","same",""
"","","","","","html-keyboard-response","435","829076","0.0-10.0-0.0-0.0-0.1-1.113","null","<span style='color:red; font-size: 70px;'>错误! </span>","null","","","","","","","","","","","","","","","","","","","","","","","feedback_test"
"","","","","","psychophysics","436","830837","0.0-10.0-0.0-0.0-0.1-0.114","752","","f","","","","","","","","","","","","","key","f","16.665542857142697","768","428","f","true","img/T_ambi40.png","をる","same",""
"","","","","","html-keyboard-response","437","831347","0.0-10.0-0.0-0.0-0.1-1.114","null","<span style='color:GreenYellow; font-size: 70px;'>正确! </span>","null","","","","","","","","","","","","","","","","","","","","","","","feedback_test"
"","","","","","psychophysics","438","833266","0.0-10.0-0.0-0.0-0.1-0.115","913","","f","","","","","","","","","","","","","key","f","16.665947368420586","768","428","f","true","img/S_ambi40.png","朋友","same",""
"","","","","","html-keyboard-response","439","833775","0.0-10.0-0.0-0.0-0.1-1.115","null","<span style='color:GreenYellow; font-size: 70px;'>正确! </span>","null","","","","","","","","","","","","","","","","","","","","","","","feedback_test"
"","","","","","psychophysics","440","835362","0.0-10.0-0.0-0.0-0.1-0.116","576","","j","","","","","","","","","","","","","key","j","16.667797872339662","768","428","j","true","img/C_ambi40.png","朋友","same",""
"","","","","","html-keyboard-response","441","835876","0.0-10.0-0.0-0.0-0.1-1.116","null","<span style='color:GreenYellow; font-size: 70px;'>正确! </span>","null","","","","","","","","","","","","","","","","","","","","","","","feedback_test"
"","","","","","psychophysics","442","837485","0.0-10.0-0.0-0.0-0.1-0.117","598","","f","","","","","","","","","","","","","key","f","16.66658947368422","768","428","f","true","img/T_ambi40.png","をる","same",""
"","","","","","html-keyboard-response","443","837995","0.0-10.0-0.0-0.0-0.1-1.117","null","<span style='color:GreenYellow; font-size: 70px;'>正确! </span>","null","","","","","","","","","","","","","","","","","","","","","","","feedback_test"
"","","","","","psychophysics","444","839591","0.0-10.0-0.0-0.0-0.1-0.118","588","","j","","","","","","","","","","","","","key","j","16.667368421052878","768","428","j","true","img/H_ambi40.png","自我","same",""
"","","","","","html-keyboard-response","445","840100","0.0-10.0-0.0-0.0-0.1-1.118","null","<span style='color:GreenYellow; font-size: 70px;'>正确! </span>","null","","","","","","","","","","","","","","","","","","","","","","","feedback_test"
"","","","","","psychophysics","446","841729","0.0-10.0-0.0-0.0-0.1-0.119","625","","j","","","","","","","","","","","","","key","j","16.666608247422307","768","428","f","false","img/C_ambi40.png","自我","same",""
