"success","timeout","failed_images","failed_audio","failed_video","trial_type","trial_index","time_elapsed","internal_node_id","rt","stimulus","response","value","item_width_mm","item_height_mm","item_width_px","px2mm","view_dist_mm","item_width_deg","px2deg","scale_factor","win_width_deg","win_height_deg","view_history","response_type","key_press","avg_frame_time","center_x","center_y","correct_response","correct","Image","word","condition","screen_id"
"true","false","[]","[]","[]","preload","0","446","0.0-0.0","","","","","","","","","","","","","","","","","","","","","","","","","",""
"","","","","","html-keyboard-response","1","79515","0.0-1.0","79071","
     <p>您好，欢迎参加本次实验。</p>
     <p>为充分保障您的权利，请确保您已经知晓并同意《参与实验同意书》以及《数据公开知情同意书》。</p>
     <p>如果您未见过上述内容，请咨询实验员。</p>
     <p>如果您选择继续实验，则表示您已经清楚两份知情同意书的内容并同意。</p>
     <p> <div style = ""color: green""><按任意键至下页></div> </p>
     ","arrowdown","","","","","","","","","","","","","","","","","","","","","","",""
"","","","","","html-keyboard-response","2","82832","0.0-2.0","3317","
     <p>本实验首先需要您填写一些基本个人信息。</p>
     <p> <div style = ""color: green""><按任意键至下页></div></p>
     "," ","","","","","","","","","","","","","","","","","","","","","","",""
"","","","","","call-function","3","82833","0.0-3.0-0.0","","","","","","","","","","","","","","","","","","","","","","","","","",""
"","","","","","survey-html-form","4","85978","0.0-3.0-1.0","3144","","{""Q0"":""1""}","","","","","","","","","","","","","","","","","","","","","","",""
"","","","","","html-button-response","5","86847","0.0-3.0-2.0","867","<p style = 'color : white'>您的性别</p>","1","","","","","","","","","","","","","","","","","","","","","","",""
"","","","","","survey-html-form","6","90592","0.0-3.0-3.0","3743","","{""Q0"":""1999""}","","","","","","","","","","","","","","","","","","","","","","",""
"","","","","","survey-html-form","7","96255","0.0-3.0-4.0","5662","","{""Q0"":""5""}","","","","","","","","","","","","","","","","","","","","","","",""
"","","","","","virtual-chinrest","8","320710","0.0-4.0","224467","","","","85.6","53.98","383.63575512905146","4.479511611359807","638.26","7.67271510258103","50","0.8862573299134414","39.8","21","","","","","","","","","","","",""
"true","","","","","fullscreen","9","324073","0.0-5.0","","","","","","","","","","","","","","","","","","","","","","","","","",""
"","","","","","instructions","10","391361","0.0-6.0","67290","","","","","","","","","","","","","","[{""page_index"":0,""viewing_time"":5951},{""page_index"":1,""viewing_time"":49680},{""page_index"":2,""viewing_time"":6050},{""page_index"":3,""viewing_time"":5609}]","","","","","","","","","","",""
"","","","","","psychophysics","11","393873","0.0-7.0-0.0","null","","null","","","","","","","","","","","","","key","null","16.67938255033559","1024","572","j","false","img/T_ambi40.png","をる","prac",""
"","","","","","html-keyboard-response","12","394388","0.0-7.0-1.0","null","<span class='add_' style='color:yellow; font-size: 70px;'> 太慢! </span>","null","","","","","","","","","","","","","","","","","","","","","","","feedback_test"
"","","","","","psychophysics","13","396893","0.0-7.0-0.1","null","","null","","","","","","","","","","","","","key","null","16.679886666666718","1024","572","j","false","img/T_ambi40.png","をる","prac",""
"","","","","","html-keyboard-response","14","397408","0.0-7.0-1.1","null","<span class='add_' style='color:yellow; font-size: 70px;'> 太慢! </span>","null","","","","","","","","","","","","","","","","","","","","","","","feedback_test"
"","","","","","psychophysics","15","398675","0.0-7.0-0.2","262","","j","","","","","","","","","","","","","key","j","16.68007999999992","1024","572","f","false","img/C_ambi40.png","生人","prac",""
"","","","","","html-keyboard-response","16","399178","0.0-7.0-1.2","null","<span style='color:red; font-size: 70px;'>错误! </span>","null","","","","","","","","","","","","","","","","","","","","","","","feedback_test"
"","","","","","psychophysics","17","401052","0.0-7.0-0.3","874","","j","","","","","","","","","","","","","key","j","16.680360360360527","1024","572","f","false","img/S_ambi40.png","自我","prac",""
"","","","","","html-keyboard-response","18","401561","0.0-7.0-1.3","null","<span style='color:red; font-size: 70px;'>错误! </span>","null","","","","","","","","","","","","","","","","","","","","","","","feedback_test"
"","","","","","psychophysics","19","404066","0.0-7.0-0.4","null","","null","","","","","","","","","","","","","key","null","16.67965100671129","1024","572","j","false","img/T_ambi40.png","をる","prac",""
"","","","","","html-keyboard-response","20","404572","0.0-7.0-1.4","null","<span class='add_' style='color:yellow; font-size: 70px;'> 太慢! </span>","null","","","","","","","","","","","","","","","","","","","","","","","feedback_test"
"","","","","","psychophysics","21","406382","0.0-7.0-0.5","800","","f","","","","","","","","","","","","","key","f","16.680710280373926","1024","572","j","false","img/T_ambi40.png","をる","prac",""
"","","","","","html-keyboard-response","22","406886","0.0-7.0-1.5","null","<span style='color:red; font-size: 70px;'>错误! </span>","null","","","","","","","","","","","","","","","","","","","","","","","feedback_test"
"","","","","","psychophysics","23","408451","0.0-7.0-0.6","562","","j","","","","","","","","","","","","","key","j","16.67869892473062","1024","572","j","true","img/S_ambi40.png","生人","prac",""
"","","","","","html-keyboard-response","24","408956","0.0-7.0-1.6","null","<span style='color:GreenYellow; font-size: 70px;'>正确! </span>","null","","","","","","","","","","","","","","","","","","","","","","","feedback_test"
"","","","","","psychophysics","25","411470","0.0-7.0-0.7","null","","null","","","","","","","","","","","","","key","null","16.67985333333335","1024","572","j","false","img/H_ambi40.png","朋友","prac",""
"","","","","","html-keyboard-response","26","411976","0.0-7.0-1.7","null","<span class='add_' style='color:yellow; font-size: 70px;'> 太慢! </span>","null","","","","","","","","","","","","","","","","","","","","","","","feedback_test"
"","","","","","psychophysics","27","414394","0.0-7.0-0.8","1405","","j","","","","","","","","","","","","","key","j","16.679701388889143","1024","572","f","false","img/H_ambi40.png","自我","prac",""
"","","","","","html-keyboard-response","28","414902","0.0-7.0-1.8","null","<span style='color:red; font-size: 70px;'>错误! </span>","null","","","","","","","","","","","","","","","","","","","","","","","feedback_test"
"","","","","","psychophysics","29","417416","0.0-7.0-0.9","null","","null","","","","","","","","","","","","","key","null","16.68030000000028","1024","572","f","false","img/C_ambi40.png","朋友","prac",""
"","","","","","html-keyboard-response","30","417918","0.0-7.0-1.9","null","<span class='add_' style='color:yellow; font-size: 70px;'> 太慢! </span>","null","","","","","","","","","","","","","","","","","","","","","","","feedback_test"
"","","","","","psychophysics","31","420425","0.0-7.0-0.10","null","","null","","","","","","","","","","","","","key","null","16.68016107382539","1024","572","j","false","img/S_ambi40.png","生人","prac",""
"","","","","","html-keyboard-response","32","420935","0.0-7.0-1.10","null","<span class='add_' style='color:yellow; font-size: 70px;'> 太慢! </span>","null","","","","","","","","","","","","","","","","","","","","","","","feedback_test"
"","","","","","psychophysics","33","423449","0.0-7.0-0.11","null","","null","","","","","","","","","","","","","key","null","16.680046666666556","1024","572","f","false","img/H_ambi40.png","生人","prac",""
"","","","","","html-keyboard-response","34","423962","0.0-7.0-1.11","null","<span class='add_' style='color:yellow; font-size: 70px;'> 太慢! </span>","null","","","","","","","","","","","","","","","","","","","","","","","feedback_test"
"","","","","","psychophysics","35","425278","0.0-7.0-0.12","313","","f","","","","","","","","","","","","","key","f","16.680743589743567","1024","572","j","false","img/H_ambi40.png","朋友","prac",""
"","","","","","html-keyboard-response","36","425784","0.0-7.0-1.12","null","<span style='color:red; font-size: 70px;'>错误! </span>","null","","","","","","","","","","","","","","","","","","","","","","","feedback_test"
"","","","","","psychophysics","37","427507","0.0-7.0-0.13","711","","j","","","","","","","","","","","","","key","j","16.678901960784525","1024","572","j","true","img/C_ambi40.png","自我","prac",""
"","","","","","html-keyboard-response","38","428011","0.0-7.0-1.13","null","<span style='color:GreenYellow; font-size: 70px;'>正确! </span>","null","","","","","","","","","","","","","","","","","","","","","","","feedback_test"
"","","","","","psychophysics","39","429819","0.0-7.0-0.14","803","","f","","","","","","","","","","","","","key","f","16.680229357798336","1024","572","j","false","img/C_ambi40.png","自我","prac",""
"","","","","","html-keyboard-response","40","430327","0.0-7.0-1.14","null","<span style='color:red; font-size: 70px;'>错误! </span>","null","","","","","","","","","","","","","","","","","","","","","","","feedback_test"
"","","","","","psychophysics","41","432743","0.0-7.0-0.15","1410","","j","","","","","","","","","","","","","key","j","16.679958620689536","1024","572","f","false","img/S_ambi40.png","朋友","prac",""
"","","","","","html-keyboard-response","42","433246","0.0-7.0-1.15","null","<span style='color:red; font-size: 70px;'>错误! </span>","null","","","","","","","","","","","","","","","","","","","","","","","feedback_test"
"","","","","","psychophysics","43","435461","0.0-7.0-0.16","1209","","j","","","","","","","","","","","","","key","j","16.680872180450994","1024","572","f","false","img/H_ambi40.png","自我","prac",""
"","","","","","html-keyboard-response","44","435965","0.0-7.0-1.16","null","<span style='color:red; font-size: 70px;'>错误! </span>","null","","","","","","","","","","","","","","","","","","","","","","","feedback_test"
"","","","","","psychophysics","45","437917","0.0-7.0-0.17","946","","f","","","","","","","","","","","","","key","f","16.680206896552058","1024","572","f","true","img/S_ambi40.png","自我","prac",""
"","","","","","html-keyboard-response","46","438429","0.0-7.0-1.17","null","<span style='color:GreenYellow; font-size: 70px;'>正确! </span>","null","","","","","","","","","","","","","","","","","","","","","","","feedback_test"
"","","","","","psychophysics","47","440944","0.0-7.0-0.18","null","","null","","","","","","","","","","","","","key","null","16.680382550335818","1024","572","j","false","img/H_ambi40.png","朋友","prac",""
"","","","","","html-keyboard-response","48","441454","0.0-7.0-1.18","null","<span class='add_' style='color:yellow; font-size: 70px;'> 太慢! </span>","null","","","","","","","","","","","","","","","","","","","","","","","feedback_test"
"","","","","","psychophysics","49","443561","0.0-7.0-0.19","1103","","f","","","","","","","","","","","","","key","f","16.812523809523555","1024","572","f","true","img/C_ambi40.png","生人","prac",""
"","","","","","html-keyboard-response","50","444067","0.0-7.0-1.19","null","<span style='color:GreenYellow; font-size: 70px;'>正确! </span>","null","","","","","","","","","","","","","","","","","","","","","","","feedback_test"
"","","","","","psychophysics","51","445926","0.0-7.0-0.20","851","","j","","","","","","","","","","","","","key","j","16.6807090909088","1024","572","j","true","img/T_ambi40.png","をる","prac",""
"","","","","","html-keyboard-response","52","446438","0.0-7.0-1.20","null","<span style='color:GreenYellow; font-size: 70px;'>正确! </span>","null","","","","","","","","","","","","","","","","","","","","","","","feedback_test"
"","","","","","psychophysics","53","448390","0.0-7.0-0.21","946","","j","","","","","","","","","","","","","key","j","16.68008620689617","1024","572","j","true","img/T_ambi40.png","をる","prac",""
"","","","","","html-keyboard-response","54","448893","0.0-7.0-1.21","null","<span style='color:GreenYellow; font-size: 70px;'>正确! </span>","null","","","","","","","","","","","","","","","","","","","","","","","feedback_test"
"","","","","","psychophysics","55","450730","0.0-7.0-0.22","832","","j","","","","","","","","","","","","","key","j","16.681137614678956","1024","572","j","true","img/C_ambi40.png","自我","prac",""
"","","","","","html-keyboard-response","56","451234","0.0-7.0-1.22","null","<span style='color:GreenYellow; font-size: 70px;'>正确! </span>","null","","","","","","","","","","","","","","","","","","","","","","","feedback_test"
"","","","","","psychophysics","57","452921","0.0-7.0-0.23","678","","f","","","","","","","","","","","","","key","f","16.680782178217445","1024","572","j","false","img/S_ambi40.png","生人","prac",""
"","","","","","html-keyboard-response","58","453437","0.0-7.0-1.23","null","<span style='color:red; font-size: 70px;'>错误! </span>","null","","","","","","","","","","","","","","","","","","","","","","","feedback_test"
"","","","","","psychophysics","59","455953","0.0-7.0-0.24","null","","null","","","","","","","","","","","","","key","null","16.679453333333367","1024","572","f","false","img/C_ambi40.png","朋友","prac",""
"","","","","","html-keyboard-response","60","456465","0.0-7.0-1.24","null","<span class='add_' style='color:yellow; font-size: 70px;'> 太慢! </span>","null","","","","","","","","","","","","","","","","","","","","","","","feedback_test"
"","","","","","psychophysics","61","458463","0.0-7.0-0.25","991","","f","","","","","","","","","","","","","key","f","16.679848739495814","1024","572","j","false","img/T_ambi40.png","をる","prac",""
"","","","","","html-keyboard-response","62","458972","0.0-7.0-1.25","null","<span style='color:red; font-size: 70px;'>错误! </span>","null","","","","","","","","","","","","","","","","","","","","","","","feedback_test"
"","","","","","psychophysics","63","460597","0.0-7.0-0.26","624","","j","","","","","","","","","","","","","key","j","16.68149999999999","1024","572","j","true","img/C_ambi40.png","自我","prac",""
"","","","","","html-keyboard-response","64","461113","0.0-7.0-1.26","null","<span style='color:GreenYellow; font-size: 70px;'>正确! </span>","null","","","","","","","","","","","","","","","","","","","","","","","feedback_test"
"","","","","","psychophysics","65","463347","0.0-7.0-0.27","1228","","j","","","","","","","","","","","","","key","j","16.680045112781926","1024","572","j","true","img/T_ambi40.png","をる","prac",""
"","","","","","html-keyboard-response","66","463855","0.0-7.0-1.27","null","<span style='color:GreenYellow; font-size: 70px;'>正确! </span>","null","","","","","","","","","","","","","","","","","","","","","","","feedback_test"
"","","","","","psychophysics","67","466264","0.0-7.0-0.28","1404","","j","","","","","","","","","","","","","key","j","16.67960689655176","1024","572","j","true","img/S_ambi40.png","生人","prac",""
"","","","","","html-keyboard-response","68","466776","0.0-7.0-1.28","null","<span style='color:GreenYellow; font-size: 70px;'>正确! </span>","null","","","","","","","","","","","","","","","","","","","","","","","feedback_test"
"","","","","","psychophysics","69","468841","0.0-7.0-0.29","1062","","f","","","","","","","","","","","","","key","f","16.567491803278664","1024","572","f","true","img/H_ambi40.png","生人","prac",""
"","","","","","html-keyboard-response","70","469348","0.0-7.0-1.29","null","<span style='color:GreenYellow; font-size: 70px;'>正确! </span>","null","","","","","","","","","","","","","","","","","","","","","","","feedback_test"
"","","","","","psychophysics","71","471441","0.0-7.0-0.30","1088","","f","","","","","","","","","","","","","key","f","16.679496000000277","1024","572","f","true","img/S_ambi40.png","朋友","prac",""
"","","","","","html-keyboard-response","72","471951","0.0-7.0-1.30","null","<span style='color:GreenYellow; font-size: 70px;'>正确! </span>","null","","","","","","","","","","","","","","","","","","","","","","","feedback_test"
"","","","","","psychophysics","73","474468","0.0-7.0-0.31","null","","null","","","","","","","","","","","","","key","null","16.68082666666674","1024","572","j","false","img/H_ambi40.png","朋友","prac",""
"","","","","","html-keyboard-response","74","474970","0.0-7.0-1.31","null","<span class='add_' style='color:yellow; font-size: 70px;'> 太慢! </span>","null","","","","","","","","","","","","","","","","","","","","","","","feedback_test"
"","","","","","psychophysics","75","476727","0.0-8.0-0.0-0.0","750","","f","","","","","","","","","","","","","key","f","16.681336538461508","1024","572","f","true","img/S_ambi40.png","朋友","prac",""
"","","","","","html-keyboard-response","76","477235","0.0-8.0-0.0-1.0","null","<span style='color:GreenYellow; font-size: 70px;'>正确! </span>","null","","","","","","","","","","","","","","","","","","","","","","","feedback_test"
"","","","","","psychophysics","77","479116","0.0-8.0-0.0-0.1","878","","j","","","","","","","","","","","","","key","j","16.681279279279046","1024","572","j","true","img/H_ambi40.png","朋友","prac",""
"","","","","","html-keyboard-response","78","479631","0.0-8.0-0.0-1.1","null","<span style='color:GreenYellow; font-size: 70px;'>正确! </span>","null","","","","","","","","","","","","","","","","","","","","","","","feedback_test"
"","","","","","psychophysics","79","481643","0.0-8.0-0.0-0.2","1007","","f","","","","","","","","","","","","","key","f","16.680090909090648","1024","572","f","true","img/H_ambi40.png","生人","prac",""
"","","","","","html-keyboard-response","80","482147","0.0-8.0-0.0-1.2","null","<span style='color:GreenYellow; font-size: 70px;'>正确! </span>","null","","","","","","","","","","","","","","","","","","","","","","","feedback_test"
"","","","","","psychophysics","81","484234","0.0-8.0-0.0-0.3","1081","","j","","","","","","","","","","","","","key","j","16.678774193548428","1024","572","j","true","img/S_ambi40.png","生人","prac",""
"","","","","","html-keyboard-response","82","484735","0.0-8.0-0.0-1.3","null","<span style='color:GreenYellow; font-size: 70px;'>正确! </span>","null","","","","","","","","","","","","","","","","","","","","","","","feedback_test"
"","","","","","psychophysics","83","486756","0.0-8.0-0.0-0.4","1014","","j","","","","","","","","","","","","","key","j","16.680658333333366","1024","572","j","true","img/H_ambi40.png","朋友","prac",""
"","","","","","html-keyboard-response","84","487267","0.0-8.0-0.0-1.4","null","<span style='color:GreenYellow; font-size: 70px;'>正确! </span>","null","","","","","","","","","","","","","","","","","","","","","","","feedback_test"
"","","","","","psychophysics","85","489087","0.0-8.0-0.0-0.5","815","","f","","","","","","","","","","","","","key","f","16.679611111110987","1024","572","j","false","img/S_ambi40.png","生人","prac",""
"","","","","","html-keyboard-response","86","489589","0.0-8.0-0.0-1.5","null","<span style='color:red; font-size: 70px;'>错误! </span>","null","","","","","","","","","","","","","","","","","","","","","","","feedback_test"
"","","","","","psychophysics","87","491654","0.0-8.0-0.0-0.6","1060","","j","","","","","","","","","","","","","key","j","16.680804878048793","1024","572","f","false","img/C_ambi40.png","朋友","prac",""
"","","","","","html-keyboard-response","88","492159","0.0-8.0-0.0-1.6","null","<span style='color:red; font-size: 70px;'>错误! </span>","null","","","","","","","","","","","","","","","","","","","","","","","feedback_test"
"","","","","","psychophysics","89","493855","0.0-8.0-0.0-0.7","693","","j","","","","","","","","","","","","","key","j","16.680504950494758","1024","572","j","true","img/T_ambi40.png","をる","prac",""
"","","","","","html-keyboard-response","90","494365","0.0-8.0-0.0-1.7","null","<span style='color:GreenYellow; font-size: 70px;'>正确! </span>","null","","","","","","","","","","","","","","","","","","","","","","","feedback_test"
"","","","","","psychophysics","91","496149","0.0-8.0-0.0-0.8","783","","j","","","","","","","","","","","","","key","j","16.67953773584922","1024","572","f","false","img/S_ambi40.png","自我","prac",""
"","","","","","html-keyboard-response","92","496661","0.0-8.0-0.0-1.8","null","<span style='color:red; font-size: 70px;'>错误! </span>","null","","","","","","","","","","","","","","","","","","","","","","","feedback_test"
"","","","","","psychophysics","93","499167","0.0-8.0-0.0-0.9","null","","null","","","","","","","","","","","","","key","null","16.792510067113916","1024","572","j","false","img/C_ambi40.png","自我","prac",""
"","","","","","html-keyboard-response","94","499671","0.0-8.0-0.0-1.9","null","<span class='add_' style='color:yellow; font-size: 70px;'> 太慢! </span>","null","","","","","","","","","","","","","","","","","","","","","","","feedback_test"
"","","","","","psychophysics","95","502049","0.0-8.0-0.0-0.10","1367","","f","","","","","","","","","","","","","key","f","16.68031205673758","1024","572","f","true","img/H_ambi40.png","自我","prac",""
"","","","","","html-keyboard-response","96","502550","0.0-8.0-0.0-1.10","null","<span style='color:GreenYellow; font-size: 70px;'>正确! </span>","null","","","","","","","","","","","","","","","","","","","","","","","feedback_test"
"","","","","","psychophysics","97","504617","0.0-8.0-0.0-0.11","1063","","f","","","","","","","","","","","","","key","f","16.595426229508135","1024","572","f","true","img/C_ambi40.png","生人","prac",""
"","","","","","html-keyboard-response","98","505126","0.0-8.0-0.0-1.11","null","<span style='color:GreenYellow; font-size: 70px;'>正确! </span>","null","","","","","","","","","","","","","","","","","","","","","","","feedback_test"
"","","","","","psychophysics","99","507139","0.0-8.0-0.0-0.12","1008","","f","","","","","","","","","","","","","key","f","16.679638655462004","1024","572","j","false","img/T_ambi40.png","をる","prac",""
"","","","","","html-keyboard-response","100","507651","0.0-8.0-0.0-1.12","null","<span style='color:red; font-size: 70px;'>错误! </span>","null","","","","","","","","","","","","","","","","","","","","","","","feedback_test"
"","","","","","psychophysics","101","509766","0.0-8.0-0.0-0.13","1108","","j","","","","","","","","","","","","","key","j","16.680896825396864","1024","572","j","true","img/C_ambi40.png","自我","prac",""
"","","","","","html-keyboard-response","102","510271","0.0-8.0-0.0-1.13","null","<span style='color:GreenYellow; font-size: 70px;'>正确! </span>","null","","","","","","","","","","","","","","","","","","","","","","","feedback_test"
"","","","","","psychophysics","103","512075","0.0-8.0-0.0-0.14","798","","f","","","","","","","","","","","","","key","f","16.83496261682257","1024","572","j","false","img/T_ambi40.png","をる","prac",""
"","","","","","html-keyboard-response","104","512578","0.0-8.0-0.0-1.14","null","<span style='color:red; font-size: 70px;'>错误! </span>","null","","","","","","","","","","","","","","","","","","","","","","","feedback_test"
"","","","","","psychophysics","105","514681","0.0-8.0-0.0-0.15","1102","","j","","","","","","","","","","","","","key","j","16.679841269841067","1024","572","j","true","img/T_ambi40.png","をる","prac",""
"","","","","","html-keyboard-response","106","515190","0.0-8.0-0.0-1.15","null","<span style='color:GreenYellow; font-size: 70px;'>正确! </span>","null","","","","","","","","","","","","","","","","","","","","","","","feedback_test"
"","","","","","psychophysics","107","517327","0.0-8.0-0.0-0.16","1130","","j","","","","","","","","","","","","","key","j","16.680218750000222","1024","572","j","true","img/C_ambi40.png","自我","prac",""
"","","","","","html-keyboard-response","108","517828","0.0-8.0-0.0-1.16","null","<span style='color:GreenYellow; font-size: 70px;'>正确! </span>","null","","","","","","","","","","","","","","","","","","","","","","","feedback_test"
"","","","","","psychophysics","109","520301","0.0-8.0-0.0-0.17","1469","","j","","","","","","","","","","","","","key","j","16.67966891891902","1024","572","j","true","img/T_ambi40.png","をる","prac",""
"","","","","","html-keyboard-response","110","520807","0.0-8.0-0.0-1.17","null","<span style='color:GreenYellow; font-size: 70px;'>正确! </span>","null","","","","","","","","","","","","","","","","","","","","","","","feedback_test"
"","","","","","psychophysics","111","522764","0.0-8.0-0.0-0.18","948","","f","","","","","","","","","","","","","key","f","16.68087068965492","1024","572","f","true","img/H_ambi40.png","生人","prac",""
"","","","","","html-keyboard-response","112","523274","0.0-8.0-0.0-1.18","null","<span style='color:GreenYellow; font-size: 70px;'>正确! </span>","null","","","","","","","","","","","","","","","","","","","","","","","feedback_test"
"","","","","","psychophysics","113","525233","0.0-8.0-0.0-0.19","947","","f","","","","","","","","","","","","","key","f","16.679042735042522","1024","572","f","true","img/C_ambi40.png","生人","prac",""
"","","","","","html-keyboard-response","114","525747","0.0-8.0-0.0-1.19","null","<span style='color:GreenYellow; font-size: 70px;'>正确! </span>","null","","","","","","","","","","","","","","","","","","","","","","","feedback_test"
"","","","","","psychophysics","115","527866","0.0-8.0-0.0-0.20","1118","","j","","","","","","","","","","","","","key","j","16.679412698412005","1024","572","j","true","img/H_ambi40.png","朋友","prac",""
"","","","","","html-keyboard-response","116","528381","0.0-8.0-0.0-1.20","null","<span style='color:GreenYellow; font-size: 70px;'>正确! </span>","null","","","","","","","","","","","","","","","","","","","","","","","feedback_test"
"","","","","","psychophysics","117","530320","0.0-8.0-0.0-0.21","929","","f","","","","","","","","","","","","","key","f","16.679521739130596","1024","572","j","false","img/S_ambi40.png","生人","prac",""
"","","","","","html-keyboard-response","118","530831","0.0-8.0-0.0-1.21","null","<span style='color:red; font-size: 70px;'>错误! </span>","null","","","","","","","","","","","","","","","","","","","","","","","feedback_test"
"","","","","","psychophysics","119","532565","0.0-8.0-0.0-0.22","721","","j","","","","","","","","","","","","","key","j","16.679436893203494","1024","572","f","false","img/C_ambi40.png","朋友","prac",""
"","","","","","html-keyboard-response","120","533067","0.0-8.0-0.0-1.22","null","<span style='color:red; font-size: 70px;'>错误! </span>","null","","","","","","","","","","","","","","","","","","","","","","","feedback_test"
"","","","","","psychophysics","121","534875","0.0-8.0-0.0-0.23","796","","f","","","","","","","","","","","","","key","f","16.679373831775422","1024","572","j","false","img/T_ambi40.png","をる","prac",""
"","","","","","html-keyboard-response","122","535379","0.0-8.0-0.0-1.23","null","<span style='color:red; font-size: 70px;'>错误! </span>","null","","","","","","","","","","","","","","","","","","","","","","","feedback_test"
"","","","","","psychophysics","123","537087","0.0-8.0-0.0-0.24","707","","f","","","","","","","","","","","","","key","f","16.681584158415518","1024","572","j","false","img/S_ambi40.png","生人","prac",""
"","","","","","html-keyboard-response","124","537599","0.0-8.0-0.0-1.24","null","<span style='color:red; font-size: 70px;'>错误! </span>","null","","","","","","","","","","","","","","","","","","","","","","","feedback_test"
"","","","","","psychophysics","125","539352","0.0-8.0-0.0-0.25","748","","j","","","","","","","","","","","","","key","j","16.680480769229828","1024","572","f","false","img/S_ambi40.png","朋友","prac",""
"","","","","","html-keyboard-response","126","539860","0.0-8.0-0.0-1.25","null","<span style='color:red; font-size: 70px;'>错误! </span>","null","","","","","","","","","","","","","","","","","","","","","","","feedback_test"
"","","","","","psychophysics","127","542028","0.0-8.0-0.0-0.26","1162","","j","","","","","","","","","","","","","key","j","16.679302325581432","1024","572","f","false","img/H_ambi40.png","自我","prac",""
"","","","","","html-keyboard-response","128","542532","0.0-8.0-0.0-1.26","null","<span style='color:red; font-size: 70px;'>错误! </span>","null","","","","","","","","","","","","","","","","","","","","","","","feedback_test"
"","","","","","psychophysics","129","544299","0.0-8.0-0.0-0.27","763","","j","","","","","","","","","","","","","key","j","16.679932692307585","1024","572","j","true","img/C_ambi40.png","自我","prac",""
"","","","","","html-keyboard-response","130","544805","0.0-8.0-0.0-1.27","null","<span style='color:GreenYellow; font-size: 70px;'>正确! </span>","null","","","","","","","","","","","","","","","","","","","","","","","feedback_test"
"","","","","","psychophysics","131","546551","0.0-8.0-0.0-0.28","742","","f","","","","","","","","","","","","","key","f","16.679634615384902","1024","572","f","true","img/S_ambi40.png","自我","prac",""
"","","","","","html-keyboard-response","132","547061","0.0-8.0-0.0-1.28","null","<span style='color:GreenYellow; font-size: 70px;'>正确! </span>","null","","","","","","","","","","","","","","","","","","","","","","","feedback_test"
"","","","","","psychophysics","133","548993","0.0-8.0-0.0-0.29","929","","j","","","","","","","","","","","","","key","j","16.679721739129974","1024","572","j","true","img/T_ambi40.png","をる","prac",""
"","","","","","html-keyboard-response","134","549508","0.0-8.0-0.0-1.29","null","<span style='color:GreenYellow; font-size: 70px;'>正确! </span>","null","","","","","","","","","","","","","","","","","","","","","","","feedback_test"
"","","","","","psychophysics","135","552023","0.0-8.0-0.0-0.30","null","","null","","","","","","","","","","","","","key","null","16.680219999999583","1024","572","j","false","img/H_ambi40.png","朋友","prac",""
"","","","","","html-keyboard-response","136","552535","0.0-8.0-0.0-1.30","null","<span class='add_' style='color:yellow; font-size: 70px;'> 太慢! </span>","null","","","","","","","","","","","","","","","","","","","","","","","feedback_test"
"","","","","","psychophysics","137","554135","0.0-8.0-0.0-0.31","594","","j","","","","","","","","","","","","","key","j","16.680410526316663","1024","572","j","true","img/T_ambi40.png","をる","prac",""
"","","","","","html-keyboard-response","138","554645","0.0-8.0-0.0-1.31","null","<span style='color:GreenYellow; font-size: 70px;'>正确! </span>","null","","","","","","","","","","","","","","","","","","","","","","","feedback_test"
"","","","","","html-keyboard-response","139","575281","0.0-8.0-1.0-0.0","20635","<style>.context{color:white; font-size: 35px; line-height:40px}</style>                          <div><p class='context'>您正确回答了59% 的试次。</p ><p class='context'>您的平均反应时为984毫秒。</p >"," ","","","","","","","","","","","","","","","","","","","","","","",""
"","","","","","instructions","140","601539","0.0-8.0-1.0-1.0","26254","","","","","","","","","","","","","","[{""page_index"":0,""viewing_time"":1906},{""page_index"":1,""viewing_time"":22129},{""page_index"":2,""viewing_time"":2219}]","","","","","","","","","","",""
"","","","","","psychophysics","141","604048","0.0-8.1-0.1-0.32","null","","null","","","","","","","","","","","","","key","null","16.679446666666774","1024","572","j","false","img/T_ambi40.png","をる","prac",""
"","","","","","html-keyboard-response","142","604561","0.0-8.1-0.1-1.32","null","<span class='add_' style='color:yellow; font-size: 70px;'> 太慢! </span>","null","","","","","","","","","","","","","","","","","","","","","","","feedback_test"
"","","","","","psychophysics","143","606442","0.0-8.1-0.1-0.33","876","","j","","","","","","","","","","","","","key","j","16.680097345132957","1024","572","j","true","img/S_ambi40.png","生人","prac",""
"","","","","","html-keyboard-response","144","606955","0.0-8.1-0.1-1.33","null","<span style='color:GreenYellow; font-size: 70px;'>正确! </span>","null","","","","","","","","","","","","","","","","","","","","","","","feedback_test"
"","","","","","psychophysics","145","608813","0.0-8.1-0.1-0.34","857","","f","","","","","","","","","","","","","key","f","16.679810810811095","1024","572","f","true","img/C_ambi40.png","生人","prac",""
"","","","","","html-keyboard-response","146","609322","0.0-8.1-0.1-1.34","null","<span style='color:GreenYellow; font-size: 70px;'>正确! </span>","null","","","","","","","","","","","","","","","","","","","","","","","feedback_test"
"","","","","","psychophysics","147","611227","0.0-8.1-0.1-0.35","899","","f","","","","","","","","","","","","","key","f","16.680265486725624","1024","572","f","true","img/H_ambi40.png","自我","prac",""
"","","","","","html-keyboard-response","148","611737","0.0-8.1-0.1-1.35","null","<span style='color:GreenYellow; font-size: 70px;'>正确! </span>","null","","","","","","","","","","","","","","","","","","","","","","","feedback_test"
"","","","","","psychophysics","149","614253","0.0-8.1-0.1-0.36","null","","null","","","","","","","","","","","","","key","null","16.680161073824998","1024","572","f","false","img/S_ambi40.png","朋友","prac",""
"","","","","","html-keyboard-response","150","614758","0.0-8.1-0.1-1.36","null","<span class='add_' style='color:yellow; font-size: 70px;'> 太慢! </span>","null","","","","","","","","","","","","","","","","","","","","","","","feedback_test"
"","","","","","psychophysics","151","616859","0.0-8.1-0.1-0.37","1098","","f","","","","","","","","","","","","","key","f","16.67998412698378","1024","572","f","true","img/H_ambi40.png","生人","prac",""
"","","","","","html-keyboard-response","152","617359","0.0-8.1-0.1-1.37","null","<span style='color:GreenYellow; font-size: 70px;'>正确! </span>","null","","","","","","","","","","","","","","","","","","","","","","","feedback_test"
"","","","","","psychophysics","153","619343","0.0-8.1-0.1-0.38","982","","f","","","","","","","","","","","","","key","f","16.680932203389634","1024","572","j","false","img/S_ambi40.png","生人","prac",""
"","","","","","html-keyboard-response","154","619857","0.0-8.1-0.1-1.38","null","<span style='color:red; font-size: 70px;'>错误! </span>","null","","","","","","","","","","","","","","","","","","","","","","","feedback_test"
"","","","","","psychophysics","155","622377","0.0-8.1-0.1-0.39","null","","null","","","","","","","","","","","","","key","null","16.67985999999956","1024","572","j","false","img/H_ambi40.png","朋友","prac",""
"","","","","","html-keyboard-response","156","622881","0.0-8.1-0.1-1.39","null","<span class='add_' style='color:yellow; font-size: 70px;'> 太慢! </span>","null","","","","","","","","","","","","","","","","","","","","","","","feedback_test"
"","","","","","psychophysics","157","624702","0.0-8.1-0.1-0.40","811","","j","","","","","","","","","","","","","key","j","16.679898148148183","1024","572","j","true","img/T_ambi40.png","をる","prac",""
"","","","","","html-keyboard-response","158","625209","0.0-8.1-0.1-1.40","null","<span style='color:GreenYellow; font-size: 70px;'>正确! </span>","null","","","","","","","","","","","","","","","","","","","","","","","feedback_test"
"","","","","","psychophysics","159","627302","0.0-8.1-0.1-0.41","1089","","f","","","","","","","","","","","","","key","f","16.813767999999225","1024","572","f","true","img/C_ambi40.png","朋友","prac",""
"","","","","","html-keyboard-response","160","627809","0.0-8.1-0.1-1.41","null","<span style='color:GreenYellow; font-size: 70px;'>正确! </span>","null","","","","","","","","","","","","","","","","","","","","","","","feedback_test"
"","","","","","psychophysics","161","629404","0.0-8.1-0.1-0.42","592","","j","","","","","","","","","","","","","key","j","16.6799789473684","1024","572","j","true","img/C_ambi40.png","自我","prac",""
"","","","","","html-keyboard-response","162","629911","0.0-8.1-0.1-1.42","null","<span style='color:GreenYellow; font-size: 70px;'>正确! </span>","null","","","","","","","","","","","","","","","","","","","","","","","feedback_test"
"","","","","","psychophysics","163","632204","0.0-8.1-0.1-0.43","1287","","j","","","","","","","","","","","","","key","j","16.679423357664273","1024","572","j","true","img/H_ambi40.png","朋友","prac",""
"","","","","","html-keyboard-response","164","632705","0.0-8.1-0.1-1.43","null","<span style='color:GreenYellow; font-size: 70px;'>正确! </span>","null","","","","","","","","","","","","","","","","","","","","","","","feedback_test"
"","","","","","psychophysics","165","634617","0.0-8.1-0.1-0.44","910","","j","","","","","","","","","","","","","key","j","16.679876106194698","1024","572","j","true","img/T_ambi40.png","をる","prac",""
"","","","","","html-keyboard-response","166","635124","0.0-8.1-0.1-1.44","null","<span style='color:GreenYellow; font-size: 70px;'>正确! </span>","null","","","","","","","","","","","","","","","","","","","","","","","feedback_test"
"","","","","","psychophysics","167","636791","0.0-8.1-0.1-0.45","657","","j","","","","","","","","","","","","","key","j","16.68053535353557","1024","572","j","true","img/T_ambi40.png","をる","prac",""
"","","","","","html-keyboard-response","168","637292","0.0-8.1-0.1-1.45","null","<span style='color:GreenYellow; font-size: 70px;'>正确! </span>","null","","","","","","","","","","","","","","","","","","","","","","","feedback_test"
"","","","","","psychophysics","169","638860","0.0-8.1-0.1-0.46","561","","j","","","","","","","","","","","","","key","j","16.679612903226097","1024","572","j","true","img/C_ambi40.png","自我","prac",""
"","","","","","html-keyboard-response","170","639365","0.0-8.1-0.1-1.46","null","<span style='color:GreenYellow; font-size: 70px;'>正确! </span>","null","","","","","","","","","","","","","","","","","","","","","","","feedback_test"
"","","","","","psychophysics","171","640976","0.0-8.1-0.1-0.47","607","","f","","","","","","","","","","","","","key","f","16.679802083333925","1024","572","f","true","img/S_ambi40.png","自我","prac",""
"","","","","","html-keyboard-response","172","641486","0.0-8.1-0.1-1.47","null","<span style='color:GreenYellow; font-size: 70px;'>正确! </span>","null","","","","","","","","","","","","","","","","","","","","","","","feedback_test"
"","","","","","psychophysics","173","643115","0.0-8.1-0.1-0.48","623","","j","","","","","","","","","","","","","key","j","16.679185567010848","1024","572","f","false","img/H_ambi40.png","自我","prac",""
"","","","","","html-keyboard-response","174","643626","0.0-8.1-0.1-1.48","null","<span style='color:red; font-size: 70px;'>错误! </span>","null","","","","","","","","","","","","","","","","","","","","","","","feedback_test"
"","","","","","psychophysics","175","645350","0.0-8.1-0.1-0.49","723","","f","","","","","","","","","","","","","key","f","16.680666666666237","1024","572","f","true","img/S_ambi40.png","自我","prac",""
"","","","","","html-keyboard-response","176","645855","0.0-8.1-0.1-1.49","null","<span style='color:GreenYellow; font-size: 70px;'>正确! </span>","null","","","","","","","","","","","","","","","","","","","","","","","feedback_test"
"","","","","","psychophysics","177","647550","0.0-8.1-0.1-0.50","687","","j","","","","","","","","","","","","","key","j","16.67998019802052","1024","572","j","true","img/T_ambi40.png","をる","prac",""
"","","","","","html-keyboard-response","178","648066","0.0-8.1-0.1-1.50","null","<span style='color:GreenYellow; font-size: 70px;'>正确! </span>","null","","","","","","","","","","","","","","","","","","","","","","","feedback_test"
"","","","","","psychophysics","179","650079","0.0-8.1-0.1-0.51","1010","","f","","","","","","","","","","","","","key","f","16.680596638654805","1024","572","j","false","img/H_ambi40.png","朋友","prac",""
"","","","","","html-keyboard-response","180","650591","0.0-8.1-0.1-1.51","null","<span style='color:red; font-size: 70px;'>错误! </span>","null","","","","","","","","","","","","","","","","","","","","","","","feedback_test"
"","","","","","psychophysics","181","652355","0.0-8.1-0.1-0.52","756","","f","","","","","","","","","","","","","key","f","16.680133333333234","1024","572","f","true","img/C_ambi40.png","朋友","prac",""
"","","","","","html-keyboard-response","182","652871","0.0-8.1-0.1-1.52","null","<span style='color:GreenYellow; font-size: 70px;'>正确! </span>","null","","","","","","","","","","","","","","","","","","","","","","","feedback_test"
"","","","","","psychophysics","183","655387","0.0-8.1-0.1-0.53","null","","null","","","","","","","","","","","","","key","null","16.679973333332843","1024","572","f","false","img/S_ambi40.png","朋友","prac",""
"","","","","","html-keyboard-response","184","655891","0.0-8.1-0.1-1.53","null","<span class='add_' style='color:yellow; font-size: 70px;'> 太慢! </span>","null","","","","","","","","","","","","","","","","","","","","","","","feedback_test"
"","","","","","psychophysics","185","657430","0.0-8.1-0.1-0.54","532","","j","","","","","","","","","","","","","key","j","16.679076923076625","1024","572","j","true","img/C_ambi40.png","自我","prac",""
"","","","","","html-keyboard-response","186","657936","0.0-8.1-0.1-1.54","null","<span style='color:GreenYellow; font-size: 70px;'>正确! </span>","null","","","","","","","","","","","","","","","","","","","","","","","feedback_test"
"","","","","","psychophysics","187","659646","0.0-8.1-0.1-0.55","706","","j","","","","","","","","","","","","","key","j","16.553237623762165","1024","572","j","true","img/T_ambi40.png","をる","prac",""
"","","","","","html-keyboard-response","188","660151","0.0-8.1-0.1-1.55","null","<span style='color:GreenYellow; font-size: 70px;'>正确! </span>","null","","","","","","","","","","","","","","","","","","","","","","","feedback_test"
"","","","","","psychophysics","189","661806","0.0-8.1-0.1-0.56","648","","j","","","","","","","","","","","","","key","j","16.680285714285173","1024","572","j","true","img/S_ambi40.png","生人","prac",""
"","","","","","html-keyboard-response","190","662321","0.0-8.1-0.1-1.56","null","<span style='color:GreenYellow; font-size: 70px;'>正确! </span>","null","","","","","","","","","","","","","","","","","","","","","","","feedback_test"
"","","","","","psychophysics","191","663878","0.0-8.1-0.1-0.57","551","","j","","","","","","","","","","","","","key","j","16.68004301075338","1024","572","j","true","img/C_ambi40.png","自我","prac",""
"","","","","","html-keyboard-response","192","664386","0.0-8.1-0.1-1.57","null","<span style='color:GreenYellow; font-size: 70px;'>正确! </span>","null","","","","","","","","","","","","","","","","","","","","","","","feedback_test"
"","","","","","psychophysics","193","665779","0.0-8.1-0.1-0.58","384","","j","","","","","","","","","","","","","key","j","16.68008433734852","1024","572","j","true","img/S_ambi40.png","生人","prac",""
"","","","","","html-keyboard-response","194","666293","0.0-8.1-0.1-1.58","null","<span style='color:GreenYellow; font-size: 70px;'>正确! </span>","null","","","","","","","","","","","","","","","","","","","","","","","feedback_test"
"","","","","","psychophysics","195","667926","0.0-8.1-0.1-0.59","630","","j","","","","","","","","","","","","","key","j","16.680208333332605","1024","572","j","true","img/H_ambi40.png","朋友","prac",""
"","","","","","html-keyboard-response","196","668441","0.0-8.1-0.1-1.59","null","<span style='color:GreenYellow; font-size: 70px;'>正确! </span>","null","","","","","","","","","","","","","","","","","","","","","","","feedback_test"
"","","","","","psychophysics","197","670017","0.0-8.1-0.1-0.60","570","","j","","","","","","","","","","","","","key","j","16.679340425531993","1024","572","j","true","img/T_ambi40.png","をる","prac",""
"","","","","","html-keyboard-response","198","670530","0.0-8.1-0.1-1.60","null","<span style='color:GreenYellow; font-size: 70px;'>正确! </span>","null","","","","","","","","","","","","","","","","","","","","","","","feedback_test"
"","","","","","psychophysics","199","672117","0.0-8.1-0.1-0.61","587","","j","","","","","","","","","","","","","key","j","16.68155319148927","1024","572","f","false","img/H_ambi40.png","生人","prac",""
"","","","","","html-keyboard-response","200","672619","0.0-8.1-0.1-1.61","null","<span style='color:red; font-size: 70px;'>错误! </span>","null","","","","","","","","","","","","","","","","","","","","","","","feedback_test"
"","","","","","psychophysics","201","674422","0.0-8.1-0.1-0.62","792","","j","","","","","","","","","","","","","key","j","16.67948598130802","1024","572","j","true","img/T_ambi40.png","をる","prac",""
"","","","","","html-keyboard-response","202","674931","0.0-8.1-0.1-1.62","null","<span style='color:GreenYellow; font-size: 70px;'>正确! </span>","null","","","","","","","","","","","","","","","","","","","","","","","feedback_test"
"","","","","","psychophysics","203","676369","0.0-8.1-0.1-0.63","435","","j","","","","","","","","","","","","","key","j","16.67984705882366","1024","572","f","false","img/C_ambi40.png","生人","prac",""
"","","","","","html-keyboard-response","204","676871","0.0-8.1-0.1-1.63","null","<span style='color:red; font-size: 70px;'>错误! </span>","null","","","","","","","","","","","","","","","","","","","","","","","feedback_test"
"","","","","","html-keyboard-response","205","683226","0.0-9.0","6353","<style>.context{color:white; font-size: 35px; line-height:40px}</style>                          <div><p class='context'>您正确回答了72% 的试次。</p ><p class='context'>您的平均反应时为749毫秒。</p ><p class='context'>恭喜您完成练习。按任意键进入正式实验。</p ><p class='footer' style='font-size: 35px; line-height:40px;'>请在进入正式实验实验之前将您的<span style='color: lightgreen;'>食指</span>放在电脑键盘的相应键位上进行按键。</p >"," ","","","","","","","","","","","","","","","","","","","","","","",""
"","","","","","psychophysics","206","684886","0.0-10.0-0.0-0.0-0.0-0.0","647","","j","","","","","","","","","","","","","key","j","16.678857142856458","1024","572","j","true","img/T_ambi40.png","をる","same",""
"","","","","","html-keyboard-response","207","685402","0.0-10.0-0.0-0.0-0.0-1.0","null","<span style='color:GreenYellow; font-size: 70px;'>正确! </span>","null","","","","","","","","","","","","","","","","","","","","","","","feedback_test"
"","","","","","psychophysics","208","686956","0.0-10.0-0.0-0.0-0.0-0.1","549","","j","","","","","","","","","","","","","key","j","16.680774193547506","1024","572","j","true","img/T_ambi40.png","をる","same",""
"","","","","","html-keyboard-response","209","687469","0.0-10.0-0.0-0.0-0.0-1.1","null","<span style='color:GreenYellow; font-size: 70px;'>正确! </span>","null","","","","","","","","","","","","","","","","","","","","","","","feedback_test"
"","","","","","psychophysics","210","689144","0.0-10.0-0.0-0.0-0.0-0.2","666","","f","","","","","","","","","","","","","key","f","16.67969696969617","1024","572","f","true","img/S_ambi40.png","自我","same",""
"","","","","","html-keyboard-response","211","689649","0.0-10.0-0.0-0.0-0.0-1.2","null","<span style='color:GreenYellow; font-size: 70px;'>正确! </span>","null","","","","","","","","","","","","","","","","","","","","","","","feedback_test"
"","","","","","psychophysics","212","691425","0.0-10.0-0.0-0.0-0.0-0.3","771","","j","","","","","","","","","","","","","key","j","16.681114285714216","1024","572","f","false","img/S_ambi40.png","朋友","same",""
"","","","","","html-keyboard-response","213","691936","0.0-10.0-0.0-0.0-0.0-1.3","null","<span style='color:red; font-size: 70px;'>错误! </span>","null","","","","","","","","","","","","","","","","","","","","","","","feedback_test"
"","","","","","psychophysics","214","693480","0.0-10.0-0.0-0.0-0.0-0.4","535","","j","","","","","","","","","","","","","key","j","16.67954945054857","1024","572","f","false","img/C_ambi40.png","朋友","same",""
"","","","","","html-keyboard-response","215","693987","0.0-10.0-0.0-0.0-0.0-1.4","null","<span style='color:red; font-size: 70px;'>错误! </span>","null","","","","","","","","","","","","","","","","","","","","","","","feedback_test"
"","","","","","psychophysics","216","695586","0.0-10.0-0.0-0.0-0.0-0.5","594","","f","","","","","","","","","","","","","key","f","16.680231578947094","1024","572","j","false","img/H_ambi40.png","朋友","same",""
"","","","","","html-keyboard-response","217","696095","0.0-10.0-0.0-0.0-0.0-1.5","null","<span style='color:red; font-size: 70px;'>错误! </span>","null","","","","","","","","","","","","","","","","","","","","","","","feedback_test"
"","","","","","psychophysics","218","697623","0.0-10.0-0.0-0.0-0.0-0.6","522","","j","","","","","","","","","","","","","key","j","16.68076086956527","1024","572","j","true","img/C_ambi40.png","自我","same",""
"","","","","","html-keyboard-response","219","698138","0.0-10.0-0.0-0.0-0.0-1.6","null","<span style='color:GreenYellow; font-size: 70px;'>正确! </span>","null","","","","","","","","","","","","","","","","","","","","","","","feedback_test"
"","","","","","psychophysics","220","700093","0.0-10.0-0.0-0.0-0.0-0.7","950","","j","","","","","","","","","","","","","key","j","16.680991379310306","1024","572","f","false","img/S_ambi40.png","朋友","same",""
"","","","","","html-keyboard-response","221","700607","0.0-10.0-0.0-0.0-0.0-1.7","null","<span style='color:red; font-size: 70px;'>错误! </span>","null","","","","","","","","","","","","","","","","","","","","","","","feedback_test"
"","","","","","psychophysics","222","702351","0.0-10.0-0.0-0.0-0.0-0.8","737","","j","","","","","","","","","","","","","key","j","16.679689320388647","1024","572","f","false","img/H_ambi40.png","自我","same",""
"","","","","","html-keyboard-response","223","702861","0.0-10.0-0.0-0.0-0.0-1.8","null","<span style='color:red; font-size: 70px;'>错误! </span>","null","","","","","","","","","","","","","","","","","","","","","","","feedback_test"
"","","","","","psychophysics","224","704436","0.0-10.0-0.0-0.0-0.0-0.9","563","","j","","","","","","","","","","","","","key","j","16.68068817204305","1024","572","j","true","img/C_ambi40.png","自我","same",""
"","","","","","html-keyboard-response","225","704937","0.0-10.0-0.0-0.0-0.0-1.9","null","<span style='color:GreenYellow; font-size: 70px;'>正确! </span>","null","","","","","","","","","","","","","","","","","","","","","","","feedback_test"
"","","","","","psychophysics","226","706681","0.0-10.0-0.0-0.0-0.0-0.10","740","","f","","","","","","","","","","","","","key","f","16.681134615385627","1024","572","f","true","img/C_ambi40.png","生人","same",""
"","","","","","html-keyboard-response","227","707189","0.0-10.0-0.0-0.0-0.0-1.10","null","<span style='color:GreenYellow; font-size: 70px;'>正确! </span>","null","","","","","","","","","","","","","","","","","","","","","","","feedback_test"
"","","","","","psychophysics","228","708816","0.0-10.0-0.0-0.0-0.0-0.11","623","","j","","","","","","","","","","","","","key","j","16.67921649484497","1024","572","j","true","img/T_ambi40.png","をる","same",""
"","","","","","html-keyboard-response","229","709321","0.0-10.0-0.0-0.0-0.0-1.11","null","<span style='color:GreenYellow; font-size: 70px;'>正确! </span>","null","","","","","","","","","","","","","","","","","","","","","","","feedback_test"
"","","","","","psychophysics","230","710977","0.0-10.0-0.0-0.0-0.0-0.12","648","","f","","","","","","","","","","","","","key","f","16.6810816326535","1024","572","j","false","img/S_ambi40.png","生人","same",""
"","","","","","html-keyboard-response","231","711489","0.0-10.0-0.0-0.0-0.0-1.12","null","<span style='color:red; font-size: 70px;'>错误! </span>","null","","","","","","","","","","","","","","","","","","","","","","","feedback_test"
"","","","","","psychophysics","232","713467","0.0-10.0-0.0-0.0-0.0-0.13","970","","j","","","","","","","","","","","","","key","j","16.679655462184513","1024","572","f","false","img/H_ambi40.png","生人","same",""
"","","","","","html-keyboard-response","233","713969","0.0-10.0-0.0-0.0-0.0-1.13","null","<span style='color:red; font-size: 70px;'>错误! </span>","null","","","","","","","","","","","","","","","","","","","","","","","feedback_test"
"","","","","","psychophysics","234","716254","0.0-10.0-0.0-0.0-0.0-0.14","1281","","f","","","","","","","","","","","","","key","f","16.679830882353333","1024","572","j","false","img/S_ambi40.png","生人","same",""
"","","","","","html-keyboard-response","235","716758","0.0-10.0-0.0-0.0-0.0-1.14","null","<span style='color:red; font-size: 70px;'>错误! </span>","null","","","","","","","","","","","","","","","","","","","","","","","feedback_test"
"","","","","","psychophysics","236","718459","0.0-10.0-0.0-0.0-0.0-0.15","692","","j","","","","","","","","","","","","","key","j","16.679990099009938","1024","572","j","true","img/H_ambi40.png","朋友","same",""
"","","","","","html-keyboard-response","237","718968","0.0-10.0-0.0-0.0-0.0-1.15","null","<span style='color:GreenYellow; font-size: 70px;'>正确! </span>","null","","","","","","","","","","","","","","","","","","","","","","","feedback_test"
"","","","","","psychophysics","238","720696","0.0-10.0-0.0-0.0-0.0-0.16","726","","f","","","","","","","","","","","","","key","f","16.678805825242872","1024","572","f","true","img/C_ambi40.png","生人","same",""
"","","","","","html-keyboard-response","239","721206","0.0-10.0-0.0-0.0-0.0-1.16","null","<span style='color:GreenYellow; font-size: 70px;'>正确! </span>","null","","","","","","","","","","","","","","","","","","","","","","","feedback_test"
"","","","","","psychophysics","240","723131","0.0-10.0-0.0-0.0-0.0-0.17","921","","f","","","","","","","","","","","","","key","f","16.67901739130485","1024","572","f","true","img/H_ambi40.png","自我","same",""
"","","","","","html-keyboard-response","241","723637","0.0-10.0-0.0-0.0-0.0-1.17","null","<span style='color:GreenYellow; font-size: 70px;'>正确! </span>","null","","","","","","","","","","","","","","","","","","","","","","","feedback_test"
"","","","","","psychophysics","242","725727","0.0-10.0-0.0-0.0-0.0-0.18","1087","","j","","","","","","","","","","","","","key","j","16.567032258064796","1024","572","j","true","img/S_ambi40.png","生人","same",""
"","","","","","html-keyboard-response","243","726232","0.0-10.0-0.0-0.0-0.0-1.18","null","<span style='color:GreenYellow; font-size: 70px;'>正确! </span>","null","","","","","","","","","","","","","","","","","","","","","","","feedback_test"
"","","","","","psychophysics","244","727925","0.0-10.0-0.0-0.0-0.0-0.19","683","","f","","","","","","","","","","","","","key","f","16.680821782177414","1024","572","f","true","img/C_ambi40.png","生人","same",""
"","","","","","html-keyboard-response","245","728438","0.0-10.0-0.0-0.0-0.0-1.19","null","<span style='color:GreenYellow; font-size: 70px;'>正确! </span>","null","","","","","","","","","","","","","","","","","","","","","","","feedback_test"
"","","","","","psychophysics","246","730192","0.0-10.0-0.0-0.0-0.0-0.20","748","","j","","","","","","","","","","","","","key","j","16.67903846153842","1024","572","f","false","img/C_ambi40.png","生人","same",""
"","","","","","html-keyboard-response","247","730697","0.0-10.0-0.0-0.0-0.0-1.20","null","<span style='color:red; font-size: 70px;'>错误! </span>","null","","","","","","","","","","","","","","","","","","","","","","","feedback_test"
"","","","","","psychophysics","248","732379","0.0-10.0-0.0-0.0-0.0-0.21","683","","j","","","","","","","","","","","","","key","j","16.67988000000012","1024","572","j","true","img/T_ambi40.png","をる","same",""
"","","","","","html-keyboard-response","249","732892","0.0-10.0-0.0-0.0-0.0-1.21","null","<span style='color:GreenYellow; font-size: 70px;'>正确! </span>","null","","","","","","","","","","","","","","","","","","","","","","","feedback_test"
"","","","","","psychophysics","250","734478","0.0-10.0-0.0-0.0-0.0-0.22","584","","f","","","","","","","","","","","","","key","f","16.680936170213094","1024","572","j","false","img/S_ambi40.png","生人","same",""
"","","","","","html-keyboard-response","251","734989","0.0-10.0-0.0-0.0-0.0-1.22","null","<span style='color:red; font-size: 70px;'>错误! </span>","null","","","","","","","","","","","","","","","","","","","","","","","feedback_test"
"","","","","","psychophysics","252","736603","0.0-10.0-0.0-0.0-0.0-0.23","607","","j","","","","","","","","","","","","","key","j","16.6802604166672","1024","572","f","false","img/S_ambi40.png","自我","same",""
"","","","","","html-keyboard-response","253","737113","0.0-10.0-0.0-0.0-0.0-1.23","null","<span style='color:red; font-size: 70px;'>错误! </span>","null","","","","","","","","","","","","","","","","","","","","","","","feedback_test"
"","","","","","psychophysics","254","738812","0.0-10.0-0.0-0.0-0.0-0.24","698","","j","","","","","","","","","","","","","key","j","16.680990000000456","1024","572","j","true","img/T_ambi40.png","をる","same",""
"","","","","","html-keyboard-response","255","739312","0.0-10.0-0.0-0.0-0.0-1.24","null","<span style='color:GreenYellow; font-size: 70px;'>正确! </span>","null","","","","","","","","","","","","","","","","","","","","","","","feedback_test"
"","","","","","psychophysics","256","740920","0.0-10.0-0.0-0.0-0.0-0.25","606","","j","","","","","","","","","","","","","key","j","16.56237894736941","1024","572","j","true","img/C_ambi40.png","自我","same",""
"","","","","","html-keyboard-response","257","741430","0.0-10.0-0.0-0.0-0.0-1.25","null","<span style='color:GreenYellow; font-size: 70px;'>正确! </span>","null","","","","","","","","","","","","","","","","","","","","","","","feedback_test"
"","","","","","psychophysics","258","743033","0.0-10.0-0.0-0.0-0.0-0.26","598","","j","","","","","","","","","","","","","key","j","16.855400000000373","1024","572","j","true","img/C_ambi40.png","自我","same",""
"","","","","","html-keyboard-response","259","743536","0.0-10.0-0.0-0.0-0.0-1.26","null","<span style='color:GreenYellow; font-size: 70px;'>正确! </span>","null","","","","","","","","","","","","","","","","","","","","","","","feedback_test"
"","","","","","psychophysics","260","745681","0.0-10.0-0.0-0.0-0.0-0.27","1144","","j","","","","","","","","","","","","","key","j","16.67978740157468","1024","572","j","true","img/H_ambi40.png","朋友","same",""
"","","","","","html-keyboard-response","261","746192","0.0-10.0-0.0-0.0-0.0-1.27","null","<span style='color:GreenYellow; font-size: 70px;'>正确! </span>","null","","","","","","","","","","","","","","","","","","","","","","","feedback_test"
"","","","","","psychophysics","262","748320","0.0-10.0-0.0-0.0-0.0-0.28","1118","","j","","","","","","","","","","","","","key","j","16.679333333332565","1024","572","j","true","img/H_ambi40.png","朋友","same",""
"","","","","","html-keyboard-response","263","748825","0.0-10.0-0.0-0.0-0.0-1.28","null","<span style='color:GreenYellow; font-size: 70px;'>正确! </span>","null","","","","","","","","","","","","","","","","","","","","","","","feedback_test"
"","","","","","psychophysics","264","750600","0.0-10.0-0.0-0.0-0.0-0.29","761","","f","","","","","","","","","","","","","key","f","16.680400000000372","1024","572","f","true","img/C_ambi40.png","朋友","same",""
"","","","","","html-keyboard-response","265","751114","0.0-10.0-0.0-0.0-0.0-1.29","null","<span style='color:GreenYellow; font-size: 70px;'>正确! </span>","null","","","","","","","","","","","","","","","","","","","","","","","feedback_test"
"","","","","","psychophysics","266","753432","0.0-10.0-0.0-0.0-0.0-0.30","1307","","f","","","","","","","","","","","","","key","f","16.6806376811591","1024","572","f","true","img/S_ambi40.png","朋友","same",""
"","","","","","html-keyboard-response","267","753941","0.0-10.0-0.0-0.0-0.0-1.30","null","<span style='color:GreenYellow; font-size: 70px;'>正确! </span>","null","","","","","","","","","","","","","","","","","","","","","","","feedback_test"
"","","","","","psychophysics","268","756168","0.0-10.0-0.0-0.0-0.0-0.31","1224","","j","","","","","","","","","","","","","key","j","16.584106060605723","1024","572","f","false","img/H_ambi40.png","生人","same",""
"","","","","","html-keyboard-response","269","756681","0.0-10.0-0.0-0.0-0.0-1.31","null","<span style='color:red; font-size: 70px;'>错误! </span>","null","","","","","","","","","","","","","","","","","","","","","","","feedback_test"
"","","","","","psychophysics","270","758488","0.0-10.0-0.0-0.0-0.0-0.32","801","","f","","","","","","","","","","","","","key","f","16.679476635513183","1024","572","f","true","img/H_ambi40.png","自我","same",""
"","","","","","html-keyboard-response","271","758999","0.0-10.0-0.0-0.0-0.0-1.32","null","<span style='color:GreenYellow; font-size: 70px;'>正确! </span>","null","","","","","","","","","","","","","","","","","","","","","","","feedback_test"
"","","","","","psychophysics","272","760819","0.0-10.0-0.0-0.0-0.0-0.33","809","","j","","","","","","","","","","","","","key","j","16.679898148148183","1024","572","f","false","img/H_ambi40.png","自我","same",""
"","","","","","html-keyboard-response","273","761321","0.0-10.0-0.0-0.0-0.0-1.33","null","<span style='color:red; font-size: 70px;'>错误! </span>","null","","","","","","","","","","","","","","","","","","","","","","","feedback_test"
"","","","","","psychophysics","274","763028","0.0-10.0-0.0-0.0-0.0-0.34","704","","f","","","","","","","","","","","","","key","f","16.680792079208015","1024","572","j","false","img/T_ambi40.png","をる","same",""
"","","","","","html-keyboard-response","275","763542","0.0-10.0-0.0-0.0-0.0-1.34","null","<span style='color:red; font-size: 70px;'>错误! </span>","null","","","","","","","","","","","","","","","","","","","","","","","feedback_test"
"","","","","","psychophysics","276","765871","0.0-10.0-0.0-0.0-0.0-0.35","1323","","j","","","","","","","","","","","","","key","j","16.679749999999434","1024","572","f","false","img/S_ambi40.png","朋友","same",""
"","","","","","html-keyboard-response","277","766373","0.0-10.0-0.0-0.0-0.0-1.35","null","<span style='color:red; font-size: 70px;'>错误! </span>","null","","","","","","","","","","","","","","","","","","","","","","","feedback_test"
"","","","","","psychophysics","278","767916","0.0-10.0-0.0-0.0-0.0-0.36","539","","j","","","","","","","","","","","","","key","j","16.681250000000507","1024","572","j","true","img/T_ambi40.png","をる","same",""
"","","","","","html-keyboard-response","279","768422","0.0-10.0-0.0-0.0-0.0-1.36","null","<span style='color:GreenYellow; font-size: 70px;'>正确! </span>","null","","","","","","","","","","","","","","","","","","","","","","","feedback_test"
"","","","","","psychophysics","280","770196","0.0-10.0-0.0-0.0-0.0-0.37","774","","f","","","","","","","","","","","","","key","f","16.680695238095222","1024","572","f","true","img/C_ambi40.png","生人","same",""
"","","","","","html-keyboard-response","281","770704","0.0-10.0-0.0-0.0-0.0-1.37","null","<span style='color:GreenYellow; font-size: 70px;'>正确! </span>","null","","","","","","","","","","","","","","","","","","","","","","","feedback_test"
"","","","","","psychophysics","282","772610","0.0-10.0-0.0-0.0-0.0-0.38","902","","j","","","","","","","","","","","","","key","j","16.680017699114565","1024","572","j","true","img/H_ambi40.png","朋友","same",""
"","","","","","html-keyboard-response","283","773117","0.0-10.0-0.0-0.0-0.0-1.38","null","<span style='color:GreenYellow; font-size: 70px;'>正确! </span>","null","","","","","","","","","","","","","","","","","","","","","","","feedback_test"
"","","","","","psychophysics","284","774798","0.0-10.0-0.0-0.0-0.0-0.39","679","","j","","","","","","","","","","","","","key","j","16.680770000000486","1024","572","j","true","img/T_ambi40.png","をる","same",""
"","","","","","html-keyboard-response","285","775301","0.0-10.0-0.0-0.0-0.0-1.39","null","<span style='color:GreenYellow; font-size: 70px;'>正确! </span>","null","","","","","","","","","","","","","","","","","","","","","","","feedback_test"
"","","","","","psychophysics","286","776949","0.0-10.0-0.0-0.0-0.0-0.40","642","","f","","","","","","","","","","","","","key","f","16.679949494950108","1024","572","f","true","img/C_ambi40.png","朋友","same",""
"","","","","","html-keyboard-response","287","777454","0.0-10.0-0.0-0.0-0.0-1.40","null","<span style='color:GreenYellow; font-size: 70px;'>正确! </span>","null","","","","","","","","","","","","","","","","","","","","","","","feedback_test"
"","","","","","psychophysics","288","779324","0.0-10.0-0.0-0.0-0.0-0.41","864","","j","","","","","","","","","","","","","key","j","16.679909909909657","1024","572","f","false","img/S_ambi40.png","朋友","same",""
"","","","","","html-keyboard-response","289","779837","0.0-10.0-0.0-0.0-0.0-1.41","null","<span style='color:red; font-size: 70px;'>错误! </span>","null","","","","","","","","","","","","","","","","","","","","","","","feedback_test"
"","","","","","psychophysics","290","781618","0.0-10.0-0.0-0.0-0.0-0.42","770","","f","","","","","","","","","","","","","key","f","16.680261682242453","1024","572","j","false","img/S_ambi40.png","生人","same",""
"","","","","","html-keyboard-response","291","782124","0.0-10.0-0.0-0.0-0.0-1.42","null","<span style='color:red; font-size: 70px;'>错误! </span>","null","","","","","","","","","","","","","","","","","","","","","","","feedback_test"
"","","","","","psychophysics","292","784008","0.0-10.0-0.0-0.0-0.0-0.43","874","","f","","","","","","","","","","","","","key","f","16.68014285714266","1024","572","f","true","img/S_ambi40.png","自我","same",""
"","","","","","html-keyboard-response","293","784524","0.0-10.0-0.0-0.0-0.0-1.43","null","<span style='color:GreenYellow; font-size: 70px;'>正确! </span>","null","","","","","","","","","","","","","","","","","","","","","","","feedback_test"
"","","","","","psychophysics","294","786183","0.0-10.0-0.0-0.0-0.0-0.44","649","","j","","","","","","","","","","","","","key","j","16.679948979590744","1024","572","j","true","img/C_ambi40.png","自我","same",""
"","","","","","html-keyboard-response","295","786695","0.0-10.0-0.0-0.0-0.0-1.44","null","<span style='color:GreenYellow; font-size: 70px;'>正确! </span>","null","","","","","","","","","","","","","","","","","","","","","","","feedback_test"
"","","","","","psychophysics","296","788300","0.0-10.0-0.0-0.0-0.0-0.45","597","","f","","","","","","","","","","","","","key","f","16.680031578947396","1024","572","f","true","img/H_ambi40.png","自我","same",""
"","","","","","html-keyboard-response","297","788805","0.0-10.0-0.0-0.0-0.0-1.45","null","<span style='color:GreenYellow; font-size: 70px;'>正确! </span>","null","","","","","","","","","","","","","","","","","","","","","","","feedback_test"
"","","","","","psychophysics","298","790531","0.0-10.0-0.0-0.0-0.0-0.46","725","","f","","","","","","","","","","","","","key","f","16.680166666666455","1024","572","f","true","img/C_ambi40.png","生人","same",""
"","","","","","html-keyboard-response","299","791041","0.0-10.0-0.0-0.0-0.0-1.46","null","<span style='color:GreenYellow; font-size: 70px;'>正确! </span>","null","","","","","","","","","","","","","","","","","","","","","","","feedback_test"
"","","","","","psychophysics","300","792710","0.0-10.0-0.0-0.0-0.0-0.47","671","","f","","","","","","","","","","","","","key","f","16.68102020201993","1024","572","f","true","img/H_ambi40.png","自我","same",""
"","","","","","html-keyboard-response","301","793214","0.0-10.0-0.0-0.0-0.0-1.47","null","<span style='color:GreenYellow; font-size: 70px;'>正确! </span>","null","","","","","","","","","","","","","","","","","","","","","","","feedback_test"
"","","","","","psychophysics","302","795153","0.0-10.0-0.0-0.0-0.0-0.48","936","","f","","","","","","","","","","","","","key","f","16.680452173912858","1024","572","f","true","img/H_ambi40.png","生人","same",""
"","","","","","html-keyboard-response","303","795656","0.0-10.0-0.0-0.0-0.0-1.48","null","<span style='color:GreenYellow; font-size: 70px;'>正确! </span>","null","","","","","","","","","","","","","","","","","","","","","","","feedback_test"
"","","","","","psychophysics","304","797351","0.0-10.0-0.0-0.0-0.0-0.49","693","","j","","","","","","","","","","","","","key","j","16.680230000000446","1024","572","j","true","img/T_ambi40.png","をる","same",""
"","","","","","html-keyboard-response","305","797866","0.0-10.0-0.0-0.0-0.0-1.49","null","<span style='color:GreenYellow; font-size: 70px;'>正确! </span>","null","","","","","","","","","","","","","","","","","","","","","","","feedback_test"
"","","","","","psychophysics","306","799588","0.0-10.0-0.0-0.0-0.0-0.50","713","","f","","","","","","","","","","","","","key","f","16.680549019607533","1024","572","j","false","img/S_ambi40.png","生人","same",""
"","","","","","html-keyboard-response","307","800096","0.0-10.0-0.0-0.0-0.0-1.50","null","<span style='color:red; font-size: 70px;'>错误! </span>","null","","","","","","","","","","","","","","","","","","","","","","","feedback_test"
"","","","","","psychophysics","308","801720","0.0-10.0-0.0-0.0-0.0-0.51","612","","j","","","","","","","","","","","","","key","j","16.679604166666348","1024","572","j","true","img/C_ambi40.png","自我","same",""
"","","","","","html-keyboard-response","309","802224","0.0-10.0-0.0-0.0-0.0-1.51","null","<span style='color:GreenYellow; font-size: 70px;'>正确! </span>","null","","","","","","","","","","","","","","","","","","","","","","","feedback_test"
"","","","","","psychophysics","310","804023","0.0-10.0-0.0-0.0-0.0-0.52","799","","f","","","","","","","","","","","","","key","f","16.681233644860832","1024","572","f","true","img/S_ambi40.png","朋友","same",""
"","","","","","html-keyboard-response","311","804529","0.0-10.0-0.0-0.0-0.0-1.52","null","<span style='color:GreenYellow; font-size: 70px;'>正确! </span>","null","","","","","","","","","","","","","","","","","","","","","","","feedback_test"
"","","","","","psychophysics","312","806219","0.0-10.0-0.0-0.0-0.0-0.53","687","","j","","","","","","","","","","","","","key","j","16.558009999999776","1024","572","j","true","img/H_ambi40.png","朋友","same",""
"","","","","","html-keyboard-response","313","806726","0.0-10.0-0.0-0.0-0.0-1.53","null","<span style='color:GreenYellow; font-size: 70px;'>正确! </span>","null","","","","","","","","","","","","","","","","","","","","","","","feedback_test"
"","","","","","psychophysics","314","808287","0.0-10.0-0.0-0.0-0.0-0.54","555","","j","","","","","","","","","","","","","key","j","16.67931182795675","1024","572","f","false","img/C_ambi40.png","朋友","same",""
"","","","","","html-keyboard-response","315","808799","0.0-10.0-0.0-0.0-0.0-1.54","null","<span style='color:red; font-size: 70px;'>错误! </span>","null","","","","","","","","","","","","","","","","","","","","","","","feedback_test"
"","","","","","psychophysics","316","810896","0.0-10.0-0.0-0.0-0.0-0.55","1093","","j","","","","","","","","","","","","","key","j","16.583491935483895","1024","572","j","true","img/H_ambi40.png","朋友","same",""
"","","","","","html-keyboard-response","317","811401","0.0-10.0-0.0-0.0-0.0-1.55","null","<span style='color:GreenYellow; font-size: 70px;'>正确! </span>","null","","","","","","","","","","","","","","","","","","","","","","","feedback_test"
"","","","","","psychophysics","318","813180","0.0-10.0-0.0-0.0-0.0-0.56","776","","f","","","","","","","","","","","","","key","f","16.568790476190458","1024","572","f","true","img/H_ambi40.png","自我","same",""
"","","","","","html-keyboard-response","319","813689","0.0-10.0-0.0-0.0-0.0-1.56","null","<span style='color:GreenYellow; font-size: 70px;'>正确! </span>","null","","","","","","","","","","","","","","","","","","","","","","","feedback_test"
"","","","","","psychophysics","320","815409","0.0-10.0-0.0-0.0-0.0-0.57","710","","j","","","","","","","","","","","","","key","j","16.679480392157156","1024","572","j","true","img/T_ambi40.png","をる","same",""
"","","","","","html-keyboard-response","321","815924","0.0-10.0-0.0-0.0-0.0-1.57","null","<span style='color:GreenYellow; font-size: 70px;'>正确! </span>","null","","","","","","","","","","","","","","","","","","","","","","","feedback_test"
"","","","","","psychophysics","322","817525","0.0-10.0-0.0-0.0-0.0-0.58","600","","f","","","","","","","","","","","","","key","f","16.681170212766254","1024","572","j","false","img/H_ambi40.png","朋友","same",""
"","","","","","html-keyboard-response","323","818030","0.0-10.0-0.0-0.0-0.0-1.58","null","<span style='color:red; font-size: 70px;'>错误! </span>","null","","","","","","","","","","","","","","","","","","","","","","","feedback_test"
"","","","","","psychophysics","324","820059","0.0-10.0-0.0-0.0-0.0-0.59","1025","","j","","","","","","","","","","","","","key","j","16.679553719008464","1024","572","f","false","img/S_ambi40.png","自我","same",""
"","","","","","html-keyboard-response","325","820572","0.0-10.0-0.0-0.0-0.0-1.59","null","<span style='color:red; font-size: 70px;'>错误! </span>","null","","","","","","","","","","","","","","","","","","","","","","","feedback_test"
"","","","","","psychophysics","326","822253","0.0-10.0-0.0-0.0-0.0-0.60","674","","j","","","","","","","","","","","","","key","j","16.679890000000597","1024","572","j","true","img/T_ambi40.png","をる","same",""
"","","","","","html-keyboard-response","327","822760","0.0-10.0-0.0-0.0-0.0-1.60","null","<span style='color:GreenYellow; font-size: 70px;'>正确! </span>","null","","","","","","","","","","","","","","","","","","","","","","","feedback_test"
"","","","","","psychophysics","328","824729","0.0-10.0-0.0-0.0-0.0-0.61","966","","f","","","","","","","","","","","","","key","f","16.584025862068742","1024","572","f","true","img/C_ambi40.png","生人","same",""
"","","","","","html-keyboard-response","329","825234","0.0-10.0-0.0-0.0-0.0-1.61","null","<span style='color:GreenYellow; font-size: 70px;'>正确! </span>","null","","","","","","","","","","","","","","","","","","","","","","","feedback_test"
"","","","","","psychophysics","330","827384","0.0-10.0-0.0-0.0-0.0-0.62","1148","","j","","","","","","","","","","","","","key","j","16.679734374999498","1024","572","j","true","img/T_ambi40.png","をる","same",""
"","","","","","html-keyboard-response","331","827899","0.0-10.0-0.0-0.0-0.0-1.62","null","<span style='color:GreenYellow; font-size: 70px;'>正确! </span>","null","","","","","","","","","","","","","","","","","","","","","","","feedback_test"
"","","","","","psychophysics","332","829824","0.0-10.0-0.0-0.0-0.0-0.63","923","","f","","","","","","","","","","","","","key","f","16.680350877192453","1024","572","f","true","img/C_ambi40.png","生人","same",""
"","","","","","html-keyboard-response","333","830337","0.0-10.0-0.0-0.0-0.0-1.63","null","<span style='color:GreenYellow; font-size: 70px;'>正确! </span>","null","","","","","","","","","","","","","","","","","","","","","","","feedback_test"
"","","","","","psychophysics","334","832221","0.0-10.0-0.0-0.0-0.0-0.64","879","","f","","","","","","","","","","","","","key","f","16.679187500000157","1024","572","f","true","img/H_ambi40.png","自我","same",""
"","","","","","html-keyboard-response","335","832725","0.0-10.0-0.0-0.0-0.0-1.64","null","<span style='color:GreenYellow; font-size: 70px;'>正确! </span>","null","","","","","","","","","","","","","","","","","","","","","","","feedback_test"
"","","","","","psychophysics","336","834827","0.0-10.0-0.0-0.0-0.0-0.65","1091","","f","","","","","","","","","","","","","key","f","16.68027199999988","1024","572","f","true","img/H_ambi40.png","生人","same",""
"","","","","","html-keyboard-response","337","835336","0.0-10.0-0.0-0.0-0.0-1.65","null","<span style='color:GreenYellow; font-size: 70px;'>正确! </span>","null","","","","","","","","","","","","","","","","","","","","","","","feedback_test"
"","","","","","psychophysics","338","837030","0.0-10.0-0.0-0.0-0.0-0.66","692","","f","","","","","","","","","","","","","key","f","16.680752475248042","1024","572","j","false","img/S_ambi40.png","生人","same",""
"","","","","","html-keyboard-response","339","837531","0.0-10.0-0.0-0.0-0.0-1.66","null","<span style='color:red; font-size: 70px;'>错误! </span>","null","","","","","","","","","","","","","","","","","","","","","","","feedback_test"
"","","","","","psychophysics","340","839360","0.0-10.0-0.0-0.0-0.0-0.67","822","","j","","","","","","","","","","","","","key","j","16.679311926605887","1024","572","j","true","img/S_ambi40.png","生人","same",""
"","","","","","html-keyboard-response","341","839863","0.0-10.0-0.0-0.0-0.0-1.67","null","<span style='color:GreenYellow; font-size: 70px;'>正确! </span>","null","","","","","","","","","","","","","","","","","","","","","","","feedback_test"
"","","","","","psychophysics","342","841773","0.0-10.0-0.0-0.0-0.0-0.68","906","","f","","","","","","","","","","","","","key","f","16.680132743363696","1024","572","f","true","img/S_ambi40.png","朋友","same",""
"","","","","","html-keyboard-response","343","842284","0.0-10.0-0.0-0.0-0.0-1.68","null","<span style='color:GreenYellow; font-size: 70px;'>正确! </span>","null","","","","","","","","","","","","","","","","","","","","","","","feedback_test"
"","","","","","psychophysics","344","843888","0.0-10.0-0.0-0.0-0.0-0.69","598","","j","","","","","","","","","","","","","key","j","16.679652631578133","1024","572","j","true","img/C_ambi40.png","自我","same",""
"","","","","","html-keyboard-response","345","844391","0.0-10.0-0.0-0.0-0.0-1.69","null","<span style='color:GreenYellow; font-size: 70px;'>正确! </span>","null","","","","","","","","","","","","","","","","","","","","","","","feedback_test"
"","","","","","psychophysics","346","846012","0.0-10.0-0.0-0.0-0.0-0.70","615","","j","","","","","","","","","","","","","key","j","16.68088541666657","1024","572","j","true","img/C_ambi40.png","自我","same",""
"","","","","","html-keyboard-response","347","846528","0.0-10.0-0.0-0.0-0.0-1.70","null","<span style='color:GreenYellow; font-size: 70px;'>正确! </span>","null","","","","","","","","","","","","","","","","","","","","","","","feedback_test"
"","","","","","psychophysics","348","848132","0.0-10.0-0.0-0.0-0.0-0.71","599","","f","","","","","","","","","","","","","key","f","16.68115789473645","1024","572","f","true","img/S_ambi40.png","朋友","same",""
"","","","","","html-keyboard-response","349","848641","0.0-10.0-0.0-0.0-0.0-1.71","null","<span style='color:GreenYellow; font-size: 70px;'>正确! </span>","null","","","","","","","","","","","","","","","","","","","","","","","feedback_test"
"","","","","","psychophysics","350","850334","0.0-10.0-0.0-0.0-0.0-0.72","683","","j","","","","","","","","","","","","","key","j","16.67993000000017","1024","572","j","true","img/T_ambi40.png","をる","same",""
"","","","","","html-keyboard-response","351","850843","0.0-10.0-0.0-0.0-0.0-1.72","null","<span style='color:GreenYellow; font-size: 70px;'>正确! </span>","null","","","","","","","","","","","","","","","","","","","","","","","feedback_test"
"","","","","","psychophysics","352","852643","0.0-10.0-0.0-0.0-0.0-0.73","795","","f","","","","","","","","","","","","","key","f","16.680476635513898","1024","572","f","true","img/H_ambi40.png","生人","same",""
"","","","","","html-keyboard-response","353","853153","0.0-10.0-0.0-0.0-0.0-1.73","null","<span style='color:GreenYellow; font-size: 70px;'>正确! </span>","null","","","","","","","","","","","","","","","","","","","","","","","feedback_test"
"","","","","","psychophysics","354","855074","0.0-10.0-0.0-0.0-0.0-0.74","918","","f","","","","","","","","","","","","","key","f","16.680713043478317","1024","572","f","true","img/H_ambi40.png","自我","same",""
"","","","","","html-keyboard-response","355","855584","0.0-10.0-0.0-0.0-0.0-1.74","null","<span style='color:GreenYellow; font-size: 70px;'>正确! </span>","null","","","","","","","","","","","","","","","","","","","","","","","feedback_test"
"","","","","","psychophysics","356","857495","0.0-10.0-0.0-0.0-0.0-0.75","908","","f","","","","","","","","","","","","","key","f","16.57120353982277","1024","572","f","true","img/S_ambi40.png","朋友","same",""
"","","","","","html-keyboard-response","357","857999","0.0-10.0-0.0-0.0-0.0-1.75","null","<span style='color:GreenYellow; font-size: 70px;'>正确! </span>","null","","","","","","","","","","","","","","","","","","","","","","","feedback_test"
"","","","","","psychophysics","358","859548","0.0-10.0-0.0-0.0-0.0-0.76","542","","j","","","","","","","","","","","","","key","j","16.678641304348435","1024","572","j","true","img/T_ambi40.png","をる","same",""
"","","","","","html-keyboard-response","359","860057","0.0-10.0-0.0-0.0-0.0-1.76","null","<span style='color:GreenYellow; font-size: 70px;'>正确! </span>","null","","","","","","","","","","","","","","","","","","","","","","","feedback_test"
"","","","","","psychophysics","360","861809","0.0-10.0-0.0-0.0-0.0-0.77","751","","j","","","","","","","","","","","","","key","j","16.67932380952296","1024","572","j","true","img/T_ambi40.png","をる","same",""
"","","","","","html-keyboard-response","361","862315","0.0-10.0-0.0-0.0-0.0-1.77","null","<span style='color:GreenYellow; font-size: 70px;'>正确! </span>","null","","","","","","","","","","","","","","","","","","","","","","","feedback_test"
"","","","","","psychophysics","362","863990","0.0-10.0-0.0-0.0-0.0-0.78","671","","f","","","","","","","","","","","","","key","f","16.680400000000372","1024","572","f","true","img/H_ambi40.png","自我","same",""
"","","","","","html-keyboard-response","363","864493","0.0-10.0-0.0-0.0-0.0-1.78","null","<span style='color:GreenYellow; font-size: 70px;'>正确! </span>","null","","","","","","","","","","","","","","","","","","","","","","","feedback_test"
"","","","","","psychophysics","364","866179","0.0-10.0-0.0-0.0-0.0-0.79","685","","f","","","","","","","","","","","","","key","f","16.680267326733198","1024","572","f","true","img/S_ambi40.png","自我","same",""
"","","","","","html-keyboard-response","365","866684","0.0-10.0-0.0-0.0-0.0-1.79","null","<span style='color:GreenYellow; font-size: 70px;'>正确! </span>","null","","","","","","","","","","","","","","","","","","","","","","","feedback_test"
"","","","","","psychophysics","366","868235","0.0-10.0-0.0-0.0-0.0-0.80","549","","j","","","","","","","","","","","","","key","j","16.67924731182841","1024","572","j","true","img/C_ambi40.png","自我","same",""
"","","","","","html-keyboard-response","367","868745","0.0-10.0-0.0-0.0-0.0-1.80","null","<span style='color:GreenYellow; font-size: 70px;'>正确! </span>","null","","","","","","","","","","","","","","","","","","","","","","","feedback_test"
"","","","","","psychophysics","368","870545","0.0-10.0-0.0-0.0-0.0-0.81","797","","f","","","","","","","","","","","","","key","f","16.680971698113936","1024","572","f","true","img/C_ambi40.png","生人","same",""
"","","","","","html-keyboard-response","369","871055","0.0-10.0-0.0-0.0-0.0-1.81","null","<span style='color:GreenYellow; font-size: 70px;'>正确! </span>","null","","","","","","","","","","","","","","","","","","","","","","","feedback_test"
"","","","","","psychophysics","370","872777","0.0-10.0-0.0-0.0-0.0-0.82","711","","f","","","","","","","","","","","","","key","f","16.679339805824764","1024","572","j","false","img/S_ambi40.png","生人","same",""
"","","","","","html-keyboard-response","371","873279","0.0-10.0-0.0-0.0-0.0-1.82","null","<span style='color:red; font-size: 70px;'>错误! </span>","null","","","","","","","","","","","","","","","","","","","","","","","feedback_test"
"","","","","","psychophysics","372","874881","0.0-10.0-0.0-0.0-0.0-0.83","597","","j","","","","","","","","","","","","","key","j","16.680378947369018","1024","572","j","true","img/C_ambi40.png","自我","same",""
"","","","","","html-keyboard-response","373","875387","0.0-10.0-0.0-0.0-0.0-1.83","null","<span style='color:GreenYellow; font-size: 70px;'>正确! </span>","null","","","","","","","","","","","","","","","","","","","","","","","feedback_test"
"","","","","","psychophysics","374","876994","0.0-10.0-0.0-0.0-0.0-0.84","599","","f","","","","","","","","","","","","","key","f","16.680168421053033","1024","572","j","false","img/H_ambi40.png","朋友","same",""
"","","","","","html-keyboard-response","375","877507","0.0-10.0-0.0-0.0-0.0-1.84","null","<span style='color:red; font-size: 70px;'>错误! </span>","null","","","","","","","","","","","","","","","","","","","","","","","feedback_test"
"","","","","","psychophysics","376","879433","0.0-10.0-0.0-0.0-0.0-0.85","919","","f","","","","","","","","","","","","","key","f","16.679122807016892","1024","572","f","true","img/S_ambi40.png","朋友","same",""
"","","","","","html-keyboard-response","377","879937","0.0-10.0-0.0-0.0-0.0-1.85","null","<span style='color:GreenYellow; font-size: 70px;'>正确! </span>","null","","","","","","","","","","","","","","","","","","","","","","","feedback_test"
"","","","","","psychophysics","378","881642","0.0-10.0-0.0-0.0-0.0-0.86","702","","f","","","","","","","","","","","","","key","f","16.68059405940585","1024","572","f","true","img/C_ambi40.png","朋友","same",""
"","","","","","html-keyboard-response","379","882150","0.0-10.0-0.0-0.0-0.0-1.86","null","<span style='color:GreenYellow; font-size: 70px;'>正确! </span>","null","","","","","","","","","","","","","","","","","","","","","","","feedback_test"
"","","","","","psychophysics","380","884062","0.0-10.0-0.0-0.0-0.0-0.87","906","","j","","","","","","","","","","","","","key","j","16.67992105263208","1024","572","j","true","img/H_ambi40.png","朋友","same",""
"","","","","","html-keyboard-response","381","884563","0.0-10.0-0.0-0.0-0.0-1.87","null","<span style='color:GreenYellow; font-size: 70px;'>正确! </span>","null","","","","","","","","","","","","","","","","","","","","","","","feedback_test"
"","","","","","psychophysics","382","886638","0.0-10.0-0.0-0.0-0.0-0.88","1071","","j","","","","","","","","","","","","","key","j","16.679455284552642","1024","572","j","true","img/S_ambi40.png","生人","same",""
"","","","","","html-keyboard-response","383","887144","0.0-10.0-0.0-0.0-0.0-1.88","null","<span style='color:GreenYellow; font-size: 70px;'>正确! </span>","null","","","","","","","","","","","","","","","","","","","","","","","feedback_test"
"","","","","","psychophysics","384","888821","0.0-10.0-0.0-0.0-0.0-0.89","675","","f","","","","","","","","","","","","","key","f","16.68110101010105","1024","572","f","true","img/C_ambi40.png","生人","same",""
"","","","","","html-keyboard-response","385","889325","0.0-10.0-0.0-0.0-0.0-1.89","null","<span style='color:GreenYellow; font-size: 70px;'>正确! </span>","null","","","","","","","","","","","","","","","","","","","","","","","feedback_test"
"","","","","","psychophysics","386","891224","0.0-10.0-0.0-0.0-0.0-0.90","892","","f","","","","","","","","","","","","","key","f","16.680212389381058","1024","572","f","true","img/S_ambi40.png","朋友","same",""
"","","","","","html-keyboard-response","387","891729","0.0-10.0-0.0-0.0-0.0-1.90","null","<span style='color:GreenYellow; font-size: 70px;'>正确! </span>","null","","","","","","","","","","","","","","","","","","","","","","","feedback_test"
"","","","","","psychophysics","388","893387","0.0-10.0-0.0-0.0-0.0-0.91","655","","j","","","","","","","","","","","","","key","j","16.564581632653336","1024","572","j","true","img/H_ambi40.png","朋友","same",""
"","","","","","html-keyboard-response","389","893892","0.0-10.0-0.0-0.0-0.0-1.91","null","<span style='color:GreenYellow; font-size: 70px;'>正确! </span>","null","","","","","","","","","","","","","","","","","","","","","","","feedback_test"
"","","","","","psychophysics","390","895675","0.0-10.0-0.0-0.0-0.0-0.92","774","","j","","","","","","","","","","","","","key","j","16.680355140186464","1024","572","j","true","img/S_ambi40.png","生人","same",""
"","","","","","html-keyboard-response","391","896185","0.0-10.0-0.0-0.0-0.0-1.92","null","<span style='color:GreenYellow; font-size: 70px;'>正确! </span>","null","","","","","","","","","","","","","","","","","","","","","","","feedback_test"
"","","","","","psychophysics","392","897965","0.0-10.0-0.0-0.0-0.0-0.93","779","","f","","","","","","","","","","","","","key","f","16.68101904761889","1024","572","f","true","img/H_ambi40.png","自我","same",""
"","","","","","html-keyboard-response","393","898477","0.0-10.0-0.0-0.0-0.0-1.93","null","<span style='color:GreenYellow; font-size: 70px;'>正确! </span>","null","","","","","","","","","","","","","","","","","","","","","","","feedback_test"
"","","","","","psychophysics","394","900158","0.0-10.0-0.0-0.0-0.0-0.94","675","","j","","","","","","","","","","","","","key","j","16.680219999999974","1024","572","j","true","img/T_ambi40.png","をる","same",""
"","","","","","html-keyboard-response","395","900662","0.0-10.0-0.0-0.0-0.0-1.94","null","<span style='color:GreenYellow; font-size: 70px;'>正确! </span>","null","","","","","","","","","","","","","","","","","","","","","","","feedback_test"
"","","","","","psychophysics","396","902409","0.0-10.0-0.0-0.0-0.0-0.95","736","","f","","","","","","","","","","","","","key","f","16.680115384615","1024","572","f","true","img/C_ambi40.png","生人","same",""
"","","","","","html-keyboard-response","397","902917","0.0-10.0-0.0-0.0-0.0-1.95","null","<span style='color:GreenYellow; font-size: 70px;'>正确! </span>","null","","","","","","","","","","","","","","","","","","","","","","","feedback_test"
"","","","","","psychophysics","398","904771","0.0-10.0-0.0-0.0-0.0-0.96","848","","f","","","","","","","","","","","","","key","f","16.68049999999983","1024","572","f","true","img/H_ambi40.png","自我","same",""
"","","","","","html-keyboard-response","399","905284","0.0-10.0-0.0-0.0-0.0-1.96","null","<span style='color:GreenYellow; font-size: 70px;'>正确! </span>","null","","","","","","","","","","","","","","","","","","","","","","","feedback_test"
"","","","","","psychophysics","400","907151","0.0-10.0-0.0-0.0-0.0-0.97","866","","j","","","","","","","","","","","","","key","j","16.678918918918793","1024","572","f","false","img/S_ambi40.png","朋友","same",""
"","","","","","html-keyboard-response","401","907664","0.0-10.0-0.0-0.0-0.0-1.97","null","<span style='color:red; font-size: 70px;'>错误! </span>","null","","","","","","","","","","","","","","","","","","","","","","","feedback_test"
"","","","","","psychophysics","402","909500","0.0-10.0-0.0-0.0-0.0-0.98","833","","f","","","","","","","","","","","","","key","f","16.679633027522552","1024","572","f","true","img/H_ambi40.png","生人","same",""
"","","","","","html-keyboard-response","403","910016","0.0-10.0-0.0-0.0-0.0-1.98","null","<span style='color:GreenYellow; font-size: 70px;'>正确! </span>","null","","","","","","","","","","","","","","","","","","","","","","","feedback_test"
"","","","","","psychophysics","404","911620","0.0-10.0-0.0-0.0-0.0-0.99","592","","j","","","","","","","","","","","","","key","j","16.680452631578145","1024","572","j","true","img/C_ambi40.png","自我","same",""
"","","","","","html-keyboard-response","405","912121","0.0-10.0-0.0-0.0-0.0-1.99","null","<span style='color:GreenYellow; font-size: 70px;'>正确! </span>","null","","","","","","","","","","","","","","","","","","","","","","","feedback_test"
"","","","","","psychophysics","406","914143","0.0-10.0-0.0-0.0-0.0-0.100","1016","","j","","","","","","","","","","","","","key","j","16.679908333333636","1024","572","j","true","img/S_ambi40.png","生人","same",""
"","","","","","html-keyboard-response","407","914646","0.0-10.0-0.0-0.0-0.0-1.100","null","<span style='color:GreenYellow; font-size: 70px;'>正确! </span>","null","","","","","","","","","","","","","","","","","","","","","","","feedback_test"
"","","","","","psychophysics","408","916515","0.0-10.0-0.0-0.0-0.0-0.101","866","","f","","","","","","","","","","","","","key","f","16.5659818181821","1024","572","f","true","img/S_ambi40.png","自我","same",""
"","","","","","html-keyboard-response","409","917016","0.0-10.0-0.0-0.0-0.0-1.101","null","<span style='color:GreenYellow; font-size: 70px;'>正确! </span>","null","","","","","","","","","","","","","","","","","","","","","","","feedback_test"
"","","","","","psychophysics","410","918725","0.0-10.0-0.0-0.0-0.0-0.102","707","","j","","","","","","","","","","","","","key","j","16.679450980392193","1024","572","j","true","img/T_ambi40.png","をる","same",""
"","","","","","html-keyboard-response","411","919229","0.0-10.0-0.0-0.0-0.0-1.102","null","<span style='color:GreenYellow; font-size: 70px;'>正确! </span>","null","","","","","","","","","","","","","","","","","","","","","","","feedback_test"
"","","","","","psychophysics","412","921326","0.0-10.0-0.0-0.0-0.0-0.103","1089","","j","","","","","","","","","","","","","key","j","16.67942399999965","1024","572","j","true","img/H_ambi40.png","朋友","same",""
"","","","","","html-keyboard-response","413","921839","0.0-10.0-0.0-0.0-0.0-1.103","null","<span style='color:GreenYellow; font-size: 70px;'>正确! </span>","null","","","","","","","","","","","","","","","","","","","","","","","feedback_test"
"","","","","","psychophysics","414","923459","0.0-10.0-0.0-0.0-0.0-0.104","611","","j","","","","","","","","","","","","","key","j","16.68119791666686","1024","572","f","false","img/C_ambi40.png","朋友","same",""
"","","","","","html-keyboard-response","415","923963","0.0-10.0-0.0-0.0-0.0-1.104","null","<span style='color:red; font-size: 70px;'>错误! </span>","null","","","","","","","","","","","","","","","","","","","","","","","feedback_test"
"","","","","","psychophysics","416","925626","0.0-10.0-0.0-0.0-0.0-0.105","653","","j","","","","","","","","","","","","","key","j","16.681222222222136","1024","572","j","true","img/C_ambi40.png","自我","same",""
"","","","","","html-keyboard-response","417","926141","0.0-10.0-0.0-0.0-0.0-1.105","null","<span style='color:GreenYellow; font-size: 70px;'>正确! </span>","null","","","","","","","","","","","","","","","","","","","","","","","feedback_test"
"","","","","","psychophysics","418","927800","0.0-10.0-0.0-0.0-0.0-0.106","659","","f","","","","","","","","","","","","","key","f","16.679877551019487","1024","572","f","true","img/C_ambi40.png","生人","same",""
"","","","","","html-keyboard-response","419","928302","0.0-10.0-0.0-0.0-0.0-1.106","null","<span style='color:GreenYellow; font-size: 70px;'>正确! </span>","null","","","","","","","","","","","","","","","","","","","","","","","feedback_test"
"","","","","","psychophysics","420","930015","0.0-10.0-0.0-0.0-0.0-0.107","706","","j","","","","","","","","","","","","","key","j","16.679137254901935","1024","572","j","true","img/T_ambi40.png","をる","same",""
"","","","","","html-keyboard-response","421","930517","0.0-10.0-0.0-0.0-0.0-1.107","null","<span style='color:GreenYellow; font-size: 70px;'>正确! </span>","null","","","","","","","","","","","","","","","","","","","","","","","feedback_test"
"","","","","","html-keyboard-response","422","933178","0.0-10.0-0.0-0.0-1.0","2660","<style>.context{color:white; font-size: 35px; line-height:40px}</style>                          <div><p class='context'>您正确回答了76% 的试次。</p><p class='context'>您的平均反应时为773毫秒。</p><p class='context'>请按任意键进入休息</p></div>"," ","","","","","","","","","","","","","","","","","","","","","","",""
"","","","","","html-button-response","423","975871","0.0-10.0-0.0-0.0-2.0","42691","
                    <p>您当前还剩余5组实验</p>
                    <p>现在是休息时间，当您结束休息后，您可以点击 结束休息 按钮 继续</p>
                    <p>建议休息时间还剩余<span id=""iii"">60</span>秒</p>","0","","","","","","","","","","","","","","","","","","","","","","",""
"","","","","","psychophysics","424","978376","0.0-10.0-0.0-0.0-0.1-0.108","null","","null","","","","","","","","","","","","","key","null","16.679832214765383","1024","572","f","false","img/C_ambi40.png","朋友","same",""
"","","","","","html-keyboard-response","425","978884","0.0-10.0-0.0-0.0-0.1-1.108","null","<span class='add_' style='color:yellow; font-size: 70px;'> 太慢! </span>","null","","","","","","","","","","","","","","","","","","","","","","","feedback_test"
"","","","","","psychophysics","426","980592","0.0-10.0-0.0-0.0-0.1-0.109","703","","j","","","","","","","","","","","","","key","j","16.680772277228026","1024","572","j","true","img/C_ambi40.png","自我","same",""
"","","","","","html-keyboard-response","427","981109","0.0-10.0-0.0-0.0-0.1-1.109","null","<span style='color:GreenYellow; font-size: 70px;'>正确! </span>","null","","","","","","","","","","","","","","","","","","","","","","","feedback_test"
"","","","","","psychophysics","428","982992","0.0-10.0-0.0-0.0-0.1-0.110","877","","j","","","","","","","","","","","","","key","j","16.680893805309662","1024","572","j","true","img/S_ambi40.png","生人","same",""
"","","","","","html-keyboard-response","429","983507","0.0-10.0-0.0-0.0-0.1-1.110","null","<span style='color:GreenYellow; font-size: 70px;'>正确! </span>","null","","","","","","","","","","","","","","","","","","","","","","","feedback_test"
"","","","","","psychophysics","430","985260","0.0-10.0-0.0-0.0-0.1-0.111","742","","j","","","","","","","","","","","","","key","j","16.679403846154365","1024","572","j","true","img/H_ambi40.png","朋友","same",""
"","","","","","html-keyboard-response","431","985772","0.0-10.0-0.0-0.0-0.1-1.111","null","<span style='color:GreenYellow; font-size: 70px;'>正确! </span>","null","","","","","","","","","","","","","","","","","","","","","","","feedback_test"
"","","","","","psychophysics","432","987659","0.0-10.0-0.0-0.0-0.1-0.112","873","","j","","","","","","","","","","","","","key","j","16.681053571427974","1024","572","j","true","img/S_ambi40.png","生人","same",""
"","","","","","html-keyboard-response","433","988168","0.0-10.0-0.0-0.0-0.1-1.112","null","<span style='color:GreenYellow; font-size: 70px;'>正确! </span>","null","","","","","","","","","","","","","","","","","","","","","","","feedback_test"
"","","","","","psychophysics","434","989763","0.0-10.0-0.0-0.0-0.1-0.113","592","","j","","","","","","","","","","","","","key","j","16.55381914893502","1024","572","j","true","img/C_ambi40.png","自我","same",""
"","","","","","html-keyboard-response","435","990266","0.0-10.0-0.0-0.0-0.1-1.113","null","<span style='color:GreenYellow; font-size: 70px;'>正确! </span>","null","","","","","","","","","","","","","","","","","","","","","","","feedback_test"
"","","","","","psychophysics","436","992163","0.0-10.0-0.0-0.0-0.1-0.114","889","","f","","","","","","","","","","","","","key","f","16.679221238937863","1024","572","f","true","img/H_ambi40.png","自我","same",""
"","","","","","html-keyboard-response","437","992668","0.0-10.0-0.0-0.0-0.1-1.114","null","<span style='color:GreenYellow; font-size: 70px;'>正确! </span>","null","","","","","","","","","","","","","","","","","","","","","","","feedback_test"
"","","","","","psychophysics","438","994445","0.0-10.0-0.0-0.0-0.1-0.115","770","","f","","","","","","","","","","","","","key","f","16.67921698113183","1024","572","f","true","img/C_ambi40.png","生人","same",""
"","","","","","html-keyboard-response","439","994952","0.0-10.0-0.0-0.0-0.1-1.115","null","<span style='color:GreenYellow; font-size: 70px;'>正确! </span>","null","","","","","","","","","","","","","","","","","","","","","","","feedback_test"
"","","","","","psychophysics","440","996600","0.0-10.0-0.0-0.0-0.1-0.116","637","","j","","","","","","","","","","","","","key","j","16.681122448979593","1024","572","j","true","img/T_ambi40.png","をる","same",""
"","","","","","html-keyboard-response","441","997108","0.0-10.0-0.0-0.0-0.1-1.116","null","<span style='color:GreenYellow; font-size: 70px;'>正确! </span>","null","","","","","","","","","","","","","","","","","","","","","","","feedback_test"
"","","","","","psychophysics","442","999027","0.0-10.0-0.0-0.0-0.1-0.117","914","","j","","","","","","","","","","","","","key","j","16.679368421053432","1024","572","j","true","img/T_ambi40.png","をる","same",""
"","","","","","html-keyboard-response","443","999540","0.0-10.0-0.0-0.0-0.1-1.117","null","<span style='color:GreenYellow; font-size: 70px;'>正确! </span>","null","","","","","","","","","","","","","","","","","","","","","","","feedback_test"
"","","","","","psychophysics","444","1001180","0.0-10.0-0.0-0.0-0.1-0.118","633","","j","","","","","","","","","","","","","key","j","16.67975257731945","1024","572","j","true","img/T_ambi40.png","をる","same",""
