"success","timeout","failed_images","failed_audio","failed_video","trial_type","trial_index","time_elapsed","internal_node_id","rt","stimulus","response","value","item_width_mm","item_height_mm","item_width_px","px2mm","view_dist_mm","item_width_deg","px2deg","scale_factor","win_width_deg","win_height_deg","view_history","response_type","key_press","avg_frame_time","center_x","center_y","correct_response","correct","Image","word","condition","screen_id"
"true","false","[]","[]","[]","preload","0","16085","0.0-0.0","","","","","","","","","","","","","","","","","","","","","","","","","",""
"","","","","","html-keyboard-response","1","112681","0.0-1.0","96595","
     <p>您好，欢迎参加本次实验。</p>
     <p>为充分保障您的权利，请确保您已经知晓并同意《参与实验同意书》以及《数据公开知情同意书》。</p>
     <p>如果您未见过上述内容，请咨询实验员。</p>
     <p>如果您选择继续实验，则表示您已经清楚两份知情同意书的内容并同意。</p>
     <p> <div style = ""color: green""><按任意键至下页></div> </p>
     "," ","","","","","","","","","","","","","","","","","","","","","","",""
"","","","","","html-keyboard-response","2","115532","0.0-2.0","2850","
     <p>本实验首先需要您填写一些基本个人信息。</p>
     <p> <div style = ""color: green""><按任意键至下页></div></p>
     "," ","","","","","","","","","","","","","","","","","","","","","","",""
"","","","","","call-function","3","115534","0.0-3.0-0.0","","","","","","","","","","","","","","","","","","","","","","","","","",""
"","","","","","survey-html-form","4","127301","0.0-3.0-1.0","11765","","{""Q0"":""008""}","","","","","","","","","","","","","","","","","","","","","","",""
"","","","","","html-button-response","5","130118","0.0-3.0-2.0","2815","<p style = 'color : white'>您的性别</p>","1","","","","","","","","","","","","","","","","","","","","","","",""
"","","","","","survey-html-form","6","137625","0.0-3.0-3.0","7506","","{""Q0"":""2003""}","","","","","","","","","","","","","","","","","","","","","","",""
"","","","","","survey-html-form","7","142736","0.0-3.0-4.0","5110","","{""Q0"":""5""}","","","","","","","","","","","","","","","","","","","","","","",""
"","","","","","virtual-chinrest","8","403266","0.0-4.0","260526","","","","85.6","53.98","400.62535194410395","4.677756240029169","611.11","8.01250703888208","50","0.8786263732234093","25.6","11.34","","","","","","","","","","","",""
"true","","","","","fullscreen","9","406656","0.0-5.0","","","","","","","","","","","","","","","","","","","","","","","","","",""
"","","","","","instructions","10","511216","0.0-6.0","104560","","","","","","","","","","","","","","[{""page_index"":0,""viewing_time"":8544},{""page_index"":1,""viewing_time"":82382},{""page_index"":2,""viewing_time"":4621},{""page_index"":3,""viewing_time"":9013}]","","","","","","","","","","",""
"","","","","","psychophysics","11","513729","0.0-7.0-0.0","null","","null","","","","","","","","","","","","","key","null","16.65445999999996","640","356","j","false","img/H_ambi40.png","朋友","prac",""
"","","","","","html-keyboard-response","12","514239","0.0-7.0-1.0","null","<span class='add_' style='color:yellow; font-size: 70px;'> 太慢! </span>","null","","","","","","","","","","","","","","","","","","","","","","","feedback_test"
"","","","","","psychophysics","13","516147","0.0-7.0-0.1","906","","f","","","","","","","","","","","","","key","f","16.6528495575221","640","356","f","true","img/C_ambi40.png","朋友","prac",""
"","","","","","html-keyboard-response","14","516660","0.0-7.0-1.1","null","<span style='color:GreenYellow; font-size: 70px;'>正确! </span>","null","","","","","","","","","","","","","","","","","","","","","","","feedback_test"
"","","","","","psychophysics","15","518141","0.0-7.0-0.2","479","","j","","","","","","","","","","","","","key","j","16.65200000000054","640","356","f","false","img/S_ambi40.png","自我","prac",""
"","","","","","html-keyboard-response","16","518645","0.0-7.0-1.2","null","<span style='color:red; font-size: 70px;'>错误! </span>","null","","","","","","","","","","","","","","","","","","","","","","","feedback_test"
"","","","","","psychophysics","17","520265","0.0-7.0-0.3","618","","f","","","","","","","","","","","","","key","f","16.653416666666697","640","356","f","true","img/H_ambi40.png","生人","prac",""
"","","","","","html-keyboard-response","18","520772","0.0-7.0-1.3","null","<span style='color:GreenYellow; font-size: 70px;'>正确! </span>","null","","","","","","","","","","","","","","","","","","","","","","","feedback_test"
"","","","","","psychophysics","19","522294","0.0-7.0-0.4","519","","j","","","","","","","","","","","","","key","j","16.654088888889074","640","356","j","true","img/S_ambi40.png","朋友","prac",""
"","","","","","html-keyboard-response","20","522802","0.0-7.0-1.4","null","<span style='color:GreenYellow; font-size: 70px;'>正确! </span>","null","","","","","","","","","","","","","","","","","","","","","","","feedback_test"
"","","","","","psychophysics","21","524388","0.0-7.0-0.5","584","","f","","","","","","","","","","","","","key","f","16.65196808510673","640","356","j","false","img/S_ambi40.png","生人","prac",""
"","","","","","html-keyboard-response","22","524904","0.0-7.0-1.5","null","<span style='color:red; font-size: 70px;'>错误! </span>","null","","","","","","","","","","","","","","","","","","","","","","","feedback_test"
"","","","","","psychophysics","23","526496","0.0-7.0-0.6","591","","j","","","","","","","","","","","","","key","j","16.653946808510845","640","356","f","false","img/T_ambi40.png","をる","prac",""
"","","","","","html-keyboard-response","24","526999","0.0-7.0-1.6","null","<span style='color:red; font-size: 70px;'>错误! </span>","null","","","","","","","","","","","","","","","","","","","","","","","feedback_test"
"","","","","","psychophysics","25","528676","0.0-7.0-0.7","676","","f","","","","","","","","","","","","","key","f","16.652808080808345","640","356","j","false","img/C_ambi40.png","自我","prac",""
"","","","","","html-keyboard-response","26","529191","0.0-7.0-1.7","null","<span style='color:red; font-size: 70px;'>错误! </span>","null","","","","","","","","","","","","","","","","","","","","","","","feedback_test"
"","","","","","psychophysics","27","530934","0.0-7.0-0.8","740","","j","","","","","","","","","","","","","key","j","16.653663461538738","640","356","f","false","img/T_ambi40.png","をる","prac",""
"","","","","","html-keyboard-response","28","531449","0.0-7.0-1.8","null","<span style='color:red; font-size: 70px;'>错误! </span>","null","","","","","","","","","","","","","","","","","","","","","","","feedback_test"
"","","","","","psychophysics","29","533201","0.0-7.0-0.9","749","","f","","","","","","","","","","","","","key","f","16.650778846153678","640","356","f","true","img/S_ambi40.png","自我","prac",""
"","","","","","html-keyboard-response","30","533706","0.0-7.0-1.9","null","<span style='color:GreenYellow; font-size: 70px;'>正确! </span>","null","","","","","","","","","","","","","","","","","","","","","","","feedback_test"
"","","","","","psychophysics","31","535361","0.0-7.0-0.10","652","","f","","","","","","","","","","","","","key","f","16.523551020408952","640","356","j","false","img/C_ambi40.png","生人","prac",""
"","","","","","html-keyboard-response","32","535865","0.0-7.0-1.10","null","<span style='color:red; font-size: 70px;'>错误! </span>","null","","","","","","","","","","","","","","","","","","","","","","","feedback_test"
"","","","","","psychophysics","33","537636","0.0-7.0-0.11","770","","f","","","","","","","","","","","","","key","f","16.653342857143087","640","356","f","true","img/T_ambi40.png","をる","prac",""
"","","","","","html-keyboard-response","34","538140","0.0-7.0-1.11","null","<span style='color:GreenYellow; font-size: 70px;'>正确! </span>","null","","","","","","","","","","","","","","","","","","","","","","","feedback_test"
"","","","","","psychophysics","35","539657","0.0-7.0-0.12","515","","j","","","","","","","","","","","","","key","j","16.653722222223102","640","356","j","true","img/H_ambi40.png","自我","prac",""
"","","","","","html-keyboard-response","36","540160","0.0-7.0-1.12","null","<span style='color:GreenYellow; font-size: 70px;'>正确! </span>","null","","","","","","","","","","","","","","","","","","","","","","","feedback_test"
"","","","","","psychophysics","37","541452","0.0-7.0-0.13","290","","f","","","","","","","","","","","","","key","f","16.65480519480574","640","356","f","true","img/H_ambi40.png","生人","prac",""
"","","","","","html-keyboard-response","38","541961","0.0-7.0-1.13","null","<span style='color:GreenYellow; font-size: 70px;'>正确! </span>","null","","","","","","","","","","","","","","","","","","","","","","","feedback_test"
"","","","","","psychophysics","39","543570","0.0-7.0-0.14","607","","j","","","","","","","","","","","","","key","j","16.65288541666693","640","356","f","false","img/T_ambi40.png","をる","prac",""
"","","","","","html-keyboard-response","40","544078","0.0-7.0-1.14","null","<span style='color:red; font-size: 70px;'>错误! </span>","null","","","","","","","","","","","","","","","","","","","","","","","feedback_test"
"","","","","","psychophysics","41","545661","0.0-7.0-0.15","582","","f","","","","","","","","","","","","","key","f","16.652723404255628","640","356","f","true","img/C_ambi40.png","朋友","prac",""
"","","","","","html-keyboard-response","42","546163","0.0-7.0-1.15","null","<span style='color:GreenYellow; font-size: 70px;'>正确! </span>","null","","","","","","","","","","","","","","","","","","","","","","","feedback_test"
"","","","","","psychophysics","43","547589","0.0-7.0-0.16","418","","f","","","","","","","","","","","","","key","f","16.65235714285795","640","356","f","true","img/S_ambi40.png","自我","prac",""
"","","","","","html-keyboard-response","44","548101","0.0-7.0-1.16","null","<span style='color:GreenYellow; font-size: 70px;'>正确! </span>","null","","","","","","","","","","","","","","","","","","","","","","","feedback_test"
"","","","","","psychophysics","45","549615","0.0-7.0-0.17","513","","f","","","","","","","","","","","","","key","f","16.6511777777781","640","356","j","false","img/C_ambi40.png","生人","prac",""
"","","","","","html-keyboard-response","46","550121","0.0-7.0-1.17","null","<span style='color:red; font-size: 70px;'>错误! </span>","null","","","","","","","","","","","","","","","","","","","","","","","feedback_test"
"","","","","","psychophysics","47","551867","0.0-7.0-0.18","744","","j","","","","","","","","","","","","","key","j","16.65406730769162","640","356","f","false","img/T_ambi40.png","をる","prac",""
"","","","","","html-keyboard-response","48","552379","0.0-7.0-1.18","null","<span style='color:red; font-size: 70px;'>错误! </span>","null","","","","","","","","","","","","","","","","","","","","","","","feedback_test"
"","","","","","psychophysics","49","553736","0.0-7.0-0.19","354","","f","","","","","","","","","","","","","key","f","16.6557249999998","640","356","j","false","img/S_ambi40.png","生人","prac",""
"","","","","","html-keyboard-response","50","554247","0.0-7.0-1.19","null","<span style='color:red; font-size: 70px;'>错误! </span>","null","","","","","","","","","","","","","","","","","","","","","","","feedback_test"
"","","","","","psychophysics","51","555970","0.0-7.0-0.20","720","","f","","","","","","","","","","","","","key","f","16.652254901961058","640","356","j","false","img/H_ambi40.png","自我","prac",""
"","","","","","html-keyboard-response","52","556483","0.0-7.0-1.20","null","<span style='color:red; font-size: 70px;'>错误! </span>","null","","","","","","","","","","","","","","","","","","","","","","","feedback_test"
"","","","","","psychophysics","53","558287","0.0-7.0-0.21","802","","j","","","","","","","","","","","","","key","j","16.65378504672858","640","356","j","true","img/C_ambi40.png","自我","prac",""
"","","","","","html-keyboard-response","54","558790","0.0-7.0-1.21","null","<span style='color:GreenYellow; font-size: 70px;'>正确! </span>","null","","","","","","","","","","","","","","","","","","","","","","","feedback_test"
"","","","","","psychophysics","55","560573","0.0-7.0-0.22","782","","f","","","","","","","","","","","","","key","f","16.65403773584996","640","356","j","false","img/S_ambi40.png","朋友","prac",""
"","","","","","html-keyboard-response","56","561089","0.0-7.0-1.22","null","<span style='color:red; font-size: 70px;'>错误! </span>","null","","","","","","","","","","","","","","","","","","","","","","","feedback_test"
"","","","","","psychophysics","57","562973","0.0-7.0-0.23","882","","j","","","","","","","","","","","","","key","j","16.651517857142608","640","356","j","true","img/H_ambi40.png","朋友","prac",""
"","","","","","html-keyboard-response","58","563487","0.0-7.0-1.23","null","<span style='color:GreenYellow; font-size: 70px;'>正确! </span>","null","","","","","","","","","","","","","","","","","","","","","","","feedback_test"
"","","","","","psychophysics","59","565241","0.0-7.0-0.24","752","","j","","","","","","","","","","","","","key","j","16.653230769230642","640","356","f","false","img/H_ambi40.png","生人","prac",""
"","","","","","html-keyboard-response","60","565754","0.0-7.0-1.24","null","<span style='color:red; font-size: 70px;'>错误! </span>","null","","","","","","","","","","","","","","","","","","","","","","","feedback_test"
"","","","","","psychophysics","61","567506","0.0-7.0-0.25","751","","f","","","","","","","","","","","","","key","f","16.65563461538449","640","356","f","true","img/T_ambi40.png","をる","prac",""
"","","","","","html-keyboard-response","62","568017","0.0-7.0-1.25","null","<span style='color:GreenYellow; font-size: 70px;'>正确! </span>","null","","","","","","","","","","","","","","","","","","","","","","","feedback_test"
"","","","","","psychophysics","63","569559","0.0-7.0-0.26","540","","j","","","","","","","","","","","","","key","j","16.653230769230962","640","356","f","false","img/S_ambi40.png","自我","prac",""
"","","","","","html-keyboard-response","64","570067","0.0-7.0-1.26","null","<span style='color:red; font-size: 70px;'>错误! </span>","null","","","","","","","","","","","","","","","","","","","","","","","feedback_test"
"","","","","","psychophysics","65","571802","0.0-7.0-0.27","734","","f","","","","","","","","","","","","","key","f","16.653174757281572","640","356","f","true","img/C_ambi40.png","朋友","prac",""
"","","","","","html-keyboard-response","66","572305","0.0-7.0-1.27","null","<span style='color:GreenYellow; font-size: 70px;'>正确! </span>","null","","","","","","","","","","","","","","","","","","","","","","","feedback_test"
"","","","","","psychophysics","67","574029","0.0-7.0-0.28","721","","f","","","","","","","","","","","","","key","f","16.65452427184548","640","356","f","true","img/T_ambi40.png","をる","prac",""
"","","","","","html-keyboard-response","68","574532","0.0-7.0-1.28","null","<span style='color:GreenYellow; font-size: 70px;'>正确! </span>","null","","","","","","","","","","","","","","","","","","","","","","","feedback_test"
"","","","","","psychophysics","69","576154","0.0-7.0-0.29","619","","j","","","","","","","","","","","","","key","j","16.65236458333311","640","356","f","false","img/C_ambi40.png","朋友","prac",""
"","","","","","html-keyboard-response","70","576664","0.0-7.0-1.29","null","<span style='color:red; font-size: 70px;'>错误! </span>","null","","","","","","","","","","","","","","","","","","","","","","","feedback_test"
"","","","","","psychophysics","71","578232","0.0-7.0-0.30","566","","f","","","","","","","","","","","","","key","f","16.650602150538194","640","356","f","true","img/H_ambi40.png","生人","prac",""
"","","","","","html-keyboard-response","72","578747","0.0-7.0-1.30","null","<span style='color:GreenYellow; font-size: 70px;'>正确! </span>","null","","","","","","","","","","","","","","","","","","","","","","","feedback_test"
"","","","","","psychophysics","73","580115","0.0-7.0-0.31","367","","f","","","","","","","","","","","","","key","f","16.653123456789295","640","356","f","true","img/T_ambi40.png","をる","prac",""
"","","","","","html-keyboard-response","74","580625","0.0-7.0-1.31","null","<span style='color:GreenYellow; font-size: 70px;'>正确! </span>","null","","","","","","","","","","","","","","","","","","","","","","","feedback_test"
"","","","","","psychophysics","75","581942","0.0-8.0-0.0-0.0","316","","f","","","","","","","","","","","","","key","f","16.65125641025579","640","356","j","false","img/C_ambi40.png","自我","prac",""
"","","","","","html-keyboard-response","76","582443","0.0-8.0-0.0-1.0","null","<span style='color:red; font-size: 70px;'>错误! </span>","null","","","","","","","","","","","","","","","","","","","","","","","feedback_test"
"","","","","","psychophysics","77","584406","0.0-8.0-0.0-0.1","960","","f","","","","","","","","","","","","","key","f","16.651222222221968","640","356","j","false","img/H_ambi40.png","朋友","prac",""
"","","","","","html-keyboard-response","78","584919","0.0-8.0-0.0-1.1","null","<span style='color:red; font-size: 70px;'>错误! </span>","null","","","","","","","","","","","","","","","","","","","","","","","feedback_test"
"","","","","","psychophysics","79","586720","0.0-8.0-0.0-0.2","800","","f","","","","","","","","","","","","","key","f","16.653233644860432","640","356","f","true","img/T_ambi40.png","をる","prac",""
"","","","","","html-keyboard-response","80","587222","0.0-8.0-0.0-1.2","null","<span style='color:GreenYellow; font-size: 70px;'>正确! </span>","null","","","","","","","","","","","","","","","","","","","","","","","feedback_test"
"","","","","","psychophysics","81","588910","0.0-8.0-0.0-0.3","687","","j","","","","","","","","","","","","","key","j","16.65413000000059","640","356","j","true","img/H_ambi40.png","自我","prac",""
"","","","","","html-keyboard-response","82","589422","0.0-8.0-0.0-1.3","null","<span style='color:GreenYellow; font-size: 70px;'>正确! </span>","null","","","","","","","","","","","","","","","","","","","","","","","feedback_test"
"","","","","","psychophysics","83","590864","0.0-8.0-0.0-0.4","441","","f","","","","","","","","","","","","","key","f","16.64976744186052","640","356","f","true","img/T_ambi40.png","をる","prac",""
"","","","","","html-keyboard-response","84","591377","0.0-8.0-0.0-1.4","null","<span style='color:GreenYellow; font-size: 70px;'>正确! </span>","null","","","","","","","","","","","","","","","","","","","","","","","feedback_test"
"","","","","","psychophysics","85","593073","0.0-8.0-0.0-0.5","695","","f","","","","","","","","","","","","","key","f","16.65445000000065","640","356","f","true","img/H_ambi40.png","生人","prac",""
"","","","","","html-keyboard-response","86","593586","0.0-8.0-0.0-1.5","null","<span style='color:GreenYellow; font-size: 70px;'>正确! </span>","null","","","","","","","","","","","","","","","","","","","","","","","feedback_test"
"","","","","","psychophysics","87","595272","0.0-8.0-0.0-0.6","685","","f","","","","","","","","","","","","","key","f","16.65390999999945","640","356","j","false","img/S_ambi40.png","朋友","prac",""
"","","","","","html-keyboard-response","88","595783","0.0-8.0-0.0-1.6","null","<span style='color:red; font-size: 70px;'>错误! </span>","null","","","","","","","","","","","","","","","","","","","","","","","feedback_test"
"","","","","","psychophysics","89","597470","0.0-8.0-0.0-0.7","685","","f","","","","","","","","","","","","","key","f","16.652799999999115","640","356","f","true","img/H_ambi40.png","生人","prac",""
"","","","","","html-keyboard-response","90","597976","0.0-8.0-0.0-1.7","null","<span style='color:GreenYellow; font-size: 70px;'>正确! </span>","null","","","","","","","","","","","","","","","","","","","","","","","feedback_test"
"","","","","","psychophysics","91","599599","0.0-8.0-0.0-0.8","621","","j","","","","","","","","","","","","","key","j","16.653697916665504","640","356","f","false","img/C_ambi40.png","朋友","prac",""
"","","","","","html-keyboard-response","92","600104","0.0-8.0-0.0-1.8","null","<span style='color:red; font-size: 70px;'>错误! </span>","null","","","","","","","","","","","","","","","","","","","","","","","feedback_test"
"","","","","","psychophysics","93","601782","0.0-8.0-0.0-0.9","676","","f","","","","","","","","","","","","","key","f","16.654919191918598","640","356","f","true","img/T_ambi40.png","をる","prac",""
"","","","","","html-keyboard-response","94","602298","0.0-8.0-0.0-1.9","null","<span style='color:GreenYellow; font-size: 70px;'>正确! </span>","null","","","","","","","","","","","","","","","","","","","","","","","feedback_test"
"","","","","","psychophysics","95","603984","0.0-8.0-0.0-0.10","684","","f","","","","","","","","","","","","","key","f","16.65388118811897","640","356","j","false","img/C_ambi40.png","生人","prac",""
"","","","","","html-keyboard-response","96","604491","0.0-8.0-0.0-1.10","null","<span style='color:red; font-size: 70px;'>错误! </span>","null","","","","","","","","","","","","","","","","","","","","","","","feedback_test"
"","","","","","psychophysics","97","606337","0.0-8.0-0.0-0.11","844","","j","","","","","","","","","","","","","key","j","16.648590909090654","640","356","f","false","img/S_ambi40.png","自我","prac",""
"","","","","","html-keyboard-response","98","606840","0.0-8.0-0.0-1.11","null","<span style='color:red; font-size: 70px;'>错误! </span>","null","","","","","","","","","","","","","","","","","","","","","","","feedback_test"
"","","","","","psychophysics","99","608452","0.0-8.0-0.0-0.12","610","","f","","","","","","","","","","","","","key","f","16.653635416667385","640","356","j","false","img/S_ambi40.png","生人","prac",""
"","","","","","html-keyboard-response","100","608965","0.0-8.0-0.0-1.12","null","<span style='color:red; font-size: 70px;'>错误! </span>","null","","","","","","","","","","","","","","","","","","","","","","","feedback_test"
"","","","","","psychophysics","101","610631","0.0-8.0-0.0-0.13","665","","f","","","","","","","","","","","","","key","f","16.653474747474927","640","356","f","true","img/T_ambi40.png","をる","prac",""
"","","","","","html-keyboard-response","102","611138","0.0-8.0-0.0-1.13","null","<span style='color:GreenYellow; font-size: 70px;'>正确! </span>","null","","","","","","","","","","","","","","","","","","","","","","","feedback_test"
"","","","","","psychophysics","103","612891","0.0-8.0-0.0-0.14","751","","j","","","","","","","","","","","","","key","j","16.654057692307667","640","356","f","false","img/S_ambi40.png","自我","prac",""
"","","","","","html-keyboard-response","104","613406","0.0-8.0-0.0-1.14","null","<span style='color:red; font-size: 70px;'>错误! </span>","null","","","","","","","","","","","","","","","","","","","","","","","feedback_test"
"","","","","","psychophysics","105","615047","0.0-8.0-0.0-0.15","640","","f","","","","","","","","","","","","","key","f","16.653061224489797","640","356","f","true","img/C_ambi40.png","朋友","prac",""
"","","","","","html-keyboard-response","106","615563","0.0-8.0-0.0-1.15","null","<span style='color:GreenYellow; font-size: 70px;'>正确! </span>","null","","","","","","","","","","","","","","","","","","","","","","","feedback_test"
"","","","","","psychophysics","107","616980","0.0-8.0-0.0-0.16","415","","f","","","","","","","","","","","","","key","f","16.653797619047552","640","356","f","true","img/H_ambi40.png","生人","prac",""
"","","","","","html-keyboard-response","108","617486","0.0-8.0-0.0-1.16","null","<span style='color:GreenYellow; font-size: 70px;'>正确! </span>","null","","","","","","","","","","","","","","","","","","","","","","","feedback_test"
"","","","","","psychophysics","109","618843","0.0-8.0-0.0-0.17","356","","f","","","","","","","","","","","","","key","f","16.478587499998685","640","356","f","true","img/T_ambi40.png","をる","prac",""
"","","","","","html-keyboard-response","110","619352","0.0-8.0-0.0-1.17","null","<span style='color:GreenYellow; font-size: 70px;'>正确! </span>","null","","","","","","","","","","","","","","","","","","","","","","","feedback_test"
"","","","","","psychophysics","111","620918","0.0-8.0-0.0-0.18","565","","j","","","","","","","","","","","","","key","j","16.653902173912883","640","356","j","true","img/C_ambi40.png","生人","prac",""
"","","","","","html-keyboard-response","112","621421","0.0-8.0-0.0-1.18","null","<span style='color:GreenYellow; font-size: 70px;'>正确! </span>","null","","","","","","","","","","","","","","","","","","","","","","","feedback_test"
"","","","","","psychophysics","113","623113","0.0-8.0-0.0-0.19","691","","f","","","","","","","","","","","","","key","f","16.652389999999432","640","356","j","false","img/C_ambi40.png","自我","prac",""
"","","","","","html-keyboard-response","114","623615","0.0-8.0-0.0-1.19","null","<span style='color:red; font-size: 70px;'>错误! </span>","null","","","","","","","","","","","","","","","","","","","","","","","feedback_test"
"","","","","","psychophysics","115","625419","0.0-8.0-0.0-0.20","802","","j","","","","","","","","","","","","","key","j","16.528018691588986","640","356","f","false","img/S_ambi40.png","自我","prac",""
"","","","","","html-keyboard-response","116","625931","0.0-8.0-0.0-1.20","null","<span style='color:red; font-size: 70px;'>错误! </span>","null","","","","","","","","","","","","","","","","","","","","","","","feedback_test"
"","","","","","psychophysics","117","627514","0.0-8.0-0.0-0.21","581","","f","","","","","","","","","","","","","key","f","16.6511702127668","640","356","f","true","img/C_ambi40.png","朋友","prac",""
"","","","","","html-keyboard-response","118","628017","0.0-8.0-0.0-1.21","null","<span style='color:GreenYellow; font-size: 70px;'>正确! </span>","null","","","","","","","","","","","","","","","","","","","","","","","feedback_test"
"","","","","","psychophysics","119","629537","0.0-8.0-0.0-0.22","518","","j","","","","","","","","","","","","","key","j","16.650544444444435","640","356","f","false","img/C_ambi40.png","朋友","prac",""
"","","","","","html-keyboard-response","120","630039","0.0-8.0-0.0-1.22","null","<span style='color:red; font-size: 70px;'>错误! </span>","null","","","","","","","","","","","","","","","","","","","","","","","feedback_test"
"","","","","","psychophysics","121","631734","0.0-8.0-0.0-0.23","694","","j","","","","","","","","","","","","","key","j","16.65458415841596","640","356","j","true","img/H_ambi40.png","自我","prac",""
"","","","","","html-keyboard-response","122","632236","0.0-8.0-0.0-1.23","null","<span style='color:GreenYellow; font-size: 70px;'>正确! </span>","null","","","","","","","","","","","","","","","","","","","","","","","feedback_test"
"","","","","","psychophysics","123","633751","0.0-8.0-0.0-0.24","514","","f","","","","","","","","","","","","","key","f","16.6537999999994","640","356","f","true","img/S_ambi40.png","自我","prac",""
"","","","","","html-keyboard-response","124","634265","0.0-8.0-0.0-1.24","null","<span style='color:GreenYellow; font-size: 70px;'>正确! </span>","null","","","","","","","","","","","","","","","","","","","","","","","feedback_test"
"","","","","","psychophysics","125","635807","0.0-8.0-0.0-0.25","541","","j","","","","","","","","","","","","","key","j","16.65266304347745","640","356","j","true","img/S_ambi40.png","生人","prac",""
"","","","","","html-keyboard-response","126","636312","0.0-8.0-0.0-1.25","null","<span style='color:GreenYellow; font-size: 70px;'>正确! </span>","null","","","","","","","","","","","","","","","","","","","","","","","feedback_test"
"","","","","","psychophysics","127","638064","0.0-8.0-0.0-0.26","750","","j","","","","","","","","","","","","","key","j","16.65328846153772","640","356","j","true","img/S_ambi40.png","朋友","prac",""
"","","","","","html-keyboard-response","128","638575","0.0-8.0-0.0-1.26","null","<span style='color:GreenYellow; font-size: 70px;'>正确! </span>","null","","","","","","","","","","","","","","","","","","","","","","","feedback_test"
"","","","","","psychophysics","129","640073","0.0-8.0-0.0-0.27","495","","f","","","","","","","","","","","","","key","f","16.65306741573058","640","356","f","true","img/H_ambi40.png","生人","prac",""
"","","","","","html-keyboard-response","130","640583","0.0-8.0-0.0-1.27","null","<span style='color:GreenYellow; font-size: 70px;'>正确! </span>","null","","","","","","","","","","","","","","","","","","","","","","","feedback_test"
"","","","","","psychophysics","131","641978","0.0-8.0-0.0-0.28","394","","j","","","","","","","","","","","","","key","j","16.653710843373865","640","356","f","false","img/T_ambi40.png","をる","prac",""
"","","","","","html-keyboard-response","132","642482","0.0-8.0-0.0-1.28","null","<span style='color:red; font-size: 70px;'>错误! </span>","null","","","","","","","","","","","","","","","","","","","","","","","feedback_test"
"","","","","","psychophysics","133","644095","0.0-8.0-0.0-0.29","611","","f","","","","","","","","","","","","","key","f","16.654010416665795","640","356","f","true","img/T_ambi40.png","をる","prac",""
"","","","","","html-keyboard-response","134","644597","0.0-8.0-0.0-1.29","null","<span style='color:GreenYellow; font-size: 70px;'>正确! </span>","null","","","","","","","","","","","","","","","","","","","","","","","feedback_test"
"","","","","","psychophysics","135","646007","0.0-8.0-0.0-0.30","407","","f","","","","","","","","","","","","","key","f","16.493337349396715","640","356","f","true","img/T_ambi40.png","をる","prac",""
"","","","","","html-keyboard-response","136","646512","0.0-8.0-0.0-1.30","null","<span style='color:GreenYellow; font-size: 70px;'>正确! </span>","null","","","","","","","","","","","","","","","","","","","","","","","feedback_test"
"","","","","","psychophysics","137","648147","0.0-8.0-0.0-0.31","633","","f","","","","","","","","","","","","","key","f","16.655857142858082","640","356","j","false","img/H_ambi40.png","朋友","prac",""
"","","","","","html-keyboard-response","138","648650","0.0-8.0-0.0-1.31","null","<span style='color:red; font-size: 70px;'>错误! </span>","null","","","","","","","","","","","","","","","","","","","","","","","feedback_test"
"","","","","","html-keyboard-response","139","722509","0.0-8.0-1.0-0.0","73858","<style>.context{color:white; font-size: 35px; line-height:40px}</style>                          <div><p class='context'>您正确回答了59% 的试次。</p ><p class='context'>您的平均反应时为590毫秒。</p >"," ","","","","","","","","","","","","","","","","","","","","","","",""
"","","","","","instructions","140","736602","0.0-8.0-1.0-1.0","14090","","","","","","","","","","","","","","[{""page_index"":0,""viewing_time"":4730},{""page_index"":1,""viewing_time"":7489},{""page_index"":2,""viewing_time"":1870}]","","","","","","","","","","",""
"","","","","","psychophysics","141","739106","0.0-8.1-0.1-0.32","null","","null","","","","","","","","","","","","","key","null","16.65476000000024","640","356","j","false","img/S_ambi40.png","朋友","prac",""
"","","","","","html-keyboard-response","142","739607","0.0-8.1-0.1-1.32","null","<span class='add_' style='color:yellow; font-size: 70px;'> 太慢! </span>","null","","","","","","","","","","","","","","","","","","","","","","","feedback_test"
"","","","","","psychophysics","143","741225","0.0-8.1-0.1-0.33","615","","f","","","","","","","","","","","","","key","f","16.653427083333856","640","356","j","false","img/H_ambi40.png","朋友","prac",""
"","","","","","html-keyboard-response","144","741736","0.0-8.1-0.1-1.33","null","<span style='color:red; font-size: 70px;'>错误! </span>","null","","","","","","","","","","","","","","","","","","","","","","","feedback_test"
"","","","","","psychophysics","145","743326","0.0-8.1-0.1-0.34","588","","f","","","","","","","","","","","","","key","f","16.652074468084315","640","356","f","true","img/S_ambi40.png","自我","prac",""
"","","","","","html-keyboard-response","146","743835","0.0-8.1-0.1-1.34","null","<span style='color:GreenYellow; font-size: 70px;'>正确! </span>","null","","","","","","","","","","","","","","","","","","","","","","","feedback_test"
"","","","","","psychophysics","147","745598","0.0-8.1-0.1-0.35","762","","f","","","","","","","","","","","","","key","f","16.653923076923373","640","356","f","true","img/T_ambi40.png","をる","prac",""
"","","","","","html-keyboard-response","148","746104","0.0-8.1-0.1-1.35","null","<span style='color:GreenYellow; font-size: 70px;'>正确! </span>","null","","","","","","","","","","","","","","","","","","","","","","","feedback_test"
"","","","","","psychophysics","149","747678","0.0-8.1-0.1-0.36","572","","f","","","","","","","","","","","","","key","f","16.654000000000472","640","356","j","false","img/C_ambi40.png","自我","prac",""
"","","","","","html-keyboard-response","150","748187","0.0-8.1-0.1-1.36","null","<span style='color:red; font-size: 70px;'>错误! </span>","null","","","","","","","","","","","","","","","","","","","","","","","feedback_test"
"","","","","","psychophysics","151","749821","0.0-8.1-0.1-0.37","633","","j","","","","","","","","","","","","","key","j","16.6534226804122","640","356","f","false","img/C_ambi40.png","朋友","prac",""
"","","","","","html-keyboard-response","152","750328","0.0-8.1-0.1-1.37","null","<span style='color:red; font-size: 70px;'>错误! </span>","null","","","","","","","","","","","","","","","","","","","","","","","feedback_test"
"","","","","","psychophysics","153","752003","0.0-8.1-0.1-0.38","673","","f","","","","","","","","","","","","","key","f","16.652636363636702","640","356","f","true","img/H_ambi40.png","生人","prac",""
"","","","","","html-keyboard-response","154","752509","0.0-8.1-0.1-1.38","null","<span style='color:GreenYellow; font-size: 70px;'>正确! </span>","null","","","","","","","","","","","","","","","","","","","","","","","feedback_test"
"","","","","","psychophysics","155","754187","0.0-8.1-0.1-0.39","677","","j","","","","","","","","","","","","","key","j","16.654262626262597","640","356","f","false","img/S_ambi40.png","自我","prac",""
"","","","","","html-keyboard-response","156","754698","0.0-8.1-0.1-1.39","null","<span style='color:red; font-size: 70px;'>错误! </span>","null","","","","","","","","","","","","","","","","","","","","","","","feedback_test"
"","","","","","psychophysics","157","756353","0.0-8.1-0.1-0.40","654","","f","","","","","","","","","","","","","key","f","16.65281632652967","640","356","j","false","img/H_ambi40.png","自我","prac",""
"","","","","","html-keyboard-response","158","756863","0.0-8.1-0.1-1.40","null","<span style='color:red; font-size: 70px;'>错误! </span>","null","","","","","","","","","","","","","","","","","","","","","","","feedback_test"
"","","","","","psychophysics","159","758600","0.0-8.1-0.1-0.41","734","","f","","","","","","","","","","","","","key","f","16.65307766990284","640","356","j","false","img/C_ambi40.png","生人","prac",""
"","","","","","html-keyboard-response","160","759109","0.0-8.1-0.1-1.41","null","<span style='color:red; font-size: 70px;'>错误! </span>","null","","","","","","","","","","","","","","","","","","","","","","","feedback_test"
"","","","","","psychophysics","161","761019","0.0-8.1-0.1-0.42","908","","f","","","","","","","","","","","","","key","f","16.653353982301123","640","356","f","true","img/C_ambi40.png","朋友","prac",""
"","","","","","html-keyboard-response","162","761523","0.0-8.1-0.1-1.42","null","<span style='color:GreenYellow; font-size: 70px;'>正确! </span>","null","","","","","","","","","","","","","","","","","","","","","","","feedback_test"
"","","","","","psychophysics","163","763079","0.0-8.1-0.1-0.43","555","","f","","","","","","","","","","","","","key","f","16.655478260869607","640","356","f","true","img/T_ambi40.png","をる","prac",""
"","","","","","html-keyboard-response","164","763580","0.0-8.1-0.1-1.43","null","<span style='color:GreenYellow; font-size: 70px;'>正确! </span>","null","","","","","","","","","","","","","","","","","","","","","","","feedback_test"
"","","","","","psychophysics","165","765139","0.0-8.1-0.1-0.44","556","","j","","","","","","","","","","","","","key","j","16.65352688171971","640","356","j","true","img/S_ambi40.png","生人","prac",""
"","","","","","html-keyboard-response","166","765646","0.0-8.1-0.1-1.44","null","<span style='color:GreenYellow; font-size: 70px;'>正确! </span>","null","","","","","","","","","","","","","","","","","","","","","","","feedback_test"
"","","","","","psychophysics","167","767222","0.0-8.1-0.1-0.45","574","","f","","","","","","","","","","","","","key","f","16.652840425532826","640","356","f","true","img/T_ambi40.png","をる","prac",""
"","","","","","html-keyboard-response","168","767730","0.0-8.1-0.1-1.45","null","<span style='color:GreenYellow; font-size: 70px;'>正确! </span>","null","","","","","","","","","","","","","","","","","","","","","","","feedback_test"
"","","","","","psychophysics","169","769360","0.0-8.1-0.1-0.46","629","","j","","","","","","","","","","","","","key","j","16.653572916665627","640","356","f","false","img/T_ambi40.png","をる","prac",""
"","","","","","html-keyboard-response","170","769862","0.0-8.1-0.1-1.46","null","<span style='color:red; font-size: 70px;'>错误! </span>","null","","","","","","","","","","","","","","","","","","","","","","","feedback_test"
"","","","","","psychophysics","171","771767","0.0-8.1-0.1-0.47","903","","f","","","","","","","","","","","","","key","f","16.65405309734561","640","356","f","true","img/H_ambi40.png","生人","prac",""
"","","","","","html-keyboard-response","172","772270","0.0-8.1-0.1-1.47","null","<span style='color:GreenYellow; font-size: 70px;'>正确! </span>","null","","","","","","","","","","","","","","","","","","","","","","","feedback_test"
"","","","","","psychophysics","173","773890","0.0-8.1-0.1-0.48","617","","f","","","","","","","","","","","","","key","f","16.655885416666326","640","356","f","true","img/T_ambi40.png","をる","prac",""
"","","","","","html-keyboard-response","174","774393","0.0-8.1-0.1-1.48","null","<span style='color:GreenYellow; font-size: 70px;'>正确! </span>","null","","","","","","","","","","","","","","","","","","","","","","","feedback_test"
"","","","","","psychophysics","175","776068","0.0-8.1-0.1-0.49","672","","j","","","","","","","","","","","","","key","j","16.65237373737336","640","356","f","false","img/C_ambi40.png","朋友","prac",""
"","","","","","html-keyboard-response","176","776569","0.0-8.1-0.1-1.49","null","<span style='color:red; font-size: 70px;'>错误! </span>","null","","","","","","","","","","","","","","","","","","","","","","","feedback_test"
"","","","","","psychophysics","177","778090","0.0-8.1-0.1-0.50","520","","j","","","","","","","","","","","","","key","j","16.654901098901313","640","356","f","false","img/S_ambi40.png","自我","prac",""
"","","","","","html-keyboard-response","178","778592","0.0-8.1-0.1-1.50","null","<span style='color:red; font-size: 70px;'>错误! </span>","null","","","","","","","","","","","","","","","","","","","","","","","feedback_test"
"","","","","","psychophysics","179","780202","0.0-8.1-0.1-0.51","608","","f","","","","","","","","","","","","","key","f","16.651642105262727","640","356","f","true","img/S_ambi40.png","自我","prac",""
"","","","","","html-keyboard-response","180","780709","0.0-8.1-0.1-1.51","null","<span style='color:GreenYellow; font-size: 70px;'>正确! </span>","null","","","","","","","","","","","","","","","","","","","","","","","feedback_test"
"","","","","","psychophysics","181","782362","0.0-8.1-0.1-0.52","652","","j","","","","","","","","","","","","","key","j","16.653612244897996","640","356","j","true","img/S_ambi40.png","朋友","prac",""
"","","","","","html-keyboard-response","182","782868","0.0-8.1-0.1-1.52","null","<span style='color:GreenYellow; font-size: 70px;'>正确! </span>","null","","","","","","","","","","","","","","","","","","","","","","","feedback_test"
"","","","","","psychophysics","183","784505","0.0-8.1-0.1-0.53","636","","f","","","","","","","","","","","","","key","f","16.645298969072588","640","356","f","true","img/H_ambi40.png","生人","prac",""
"","","","","","html-keyboard-response","184","785012","0.0-8.1-0.1-1.53","null","<span style='color:GreenYellow; font-size: 70px;'>正确! </span>","null","","","","","","","","","","","","","","","","","","","","","","","feedback_test"
"","","","","","psychophysics","185","786828","0.0-8.1-0.1-0.54","815","","j","","","","","","","","","","","","","key","j","16.65344444444377","640","356","j","true","img/H_ambi40.png","朋友","prac",""
"","","","","","html-keyboard-response","186","787341","0.0-8.1-0.1-1.54","null","<span style='color:GreenYellow; font-size: 70px;'>正确! </span>","null","","","","","","","","","","","","","","","","","","","","","","","feedback_test"
"","","","","","psychophysics","187","788690","0.0-8.1-0.1-0.55","348","","f","","","","","","","","","","","","","key","f","16.6549125000005","640","356","j","false","img/S_ambi40.png","生人","prac",""
"","","","","","html-keyboard-response","188","789192","0.0-8.1-0.1-1.55","null","<span style='color:red; font-size: 70px;'>错误! </span>","null","","","","","","","","","","","","","","","","","","","","","","","feedback_test"
"","","","","","psychophysics","189","790940","0.0-8.1-0.1-0.56","746","","f","","","","","","","","","","","","","key","f","16.65325961538362","640","356","j","false","img/C_ambi40.png","自我","prac",""
"","","","","","html-keyboard-response","190","791452","0.0-8.1-0.1-1.56","null","<span style='color:red; font-size: 70px;'>错误! </span>","null","","","","","","","","","","","","","","","","","","","","","","","feedback_test"
"","","","","","psychophysics","191","793154","0.0-8.1-0.1-0.57","701","","j","","","","","","","","","","","","","key","j","16.652752475248246","640","356","j","true","img/H_ambi40.png","自我","prac",""
"","","","","","html-keyboard-response","192","793660","0.0-8.1-0.1-1.57","null","<span style='color:GreenYellow; font-size: 70px;'>正确! </span>","null","","","","","","","","","","","","","","","","","","","","","","","feedback_test"
"","","","","","psychophysics","193","795553","0.0-8.1-0.1-0.58","890","","f","","","","","","","","","","","","","key","f","16.65053571428663","640","356","f","true","img/H_ambi40.png","生人","prac",""
"","","","","","html-keyboard-response","194","796055","0.0-8.1-0.1-1.58","null","<span style='color:GreenYellow; font-size: 70px;'>正确! </span>","null","","","","","","","","","","","","","","","","","","","","","","","feedback_test"
"","","","","","psychophysics","195","797615","0.0-8.1-0.1-0.59","558","","f","","","","","","","","","","","","","key","f","16.653817204301625","640","356","f","true","img/T_ambi40.png","をる","prac",""
"","","","","","html-keyboard-response","196","798127","0.0-8.1-0.1-1.59","null","<span style='color:GreenYellow; font-size: 70px;'>正确! </span>","null","","","","","","","","","","","","","","","","","","","","","","","feedback_test"
"","","","","","psychophysics","197","799898","0.0-8.1-0.1-0.60","769","","f","","","","","","","","","","","","","key","f","16.653485714286077","640","356","f","true","img/T_ambi40.png","をる","prac",""
"","","","","","html-keyboard-response","198","800413","0.0-8.1-0.1-1.60","null","<span style='color:GreenYellow; font-size: 70px;'>正确! </span>","null","","","","","","","","","","","","","","","","","","","","","","","feedback_test"
"","","","","","psychophysics","199","801878","0.0-8.1-0.1-0.61","464","","f","","","","","","","","","","","","","key","f","16.654471264367967","640","356","f","true","img/T_ambi40.png","をる","prac",""
"","","","","","html-keyboard-response","200","802382","0.0-8.1-0.1-1.61","null","<span style='color:GreenYellow; font-size: 70px;'>正确! </span>","null","","","","","","","","","","","","","","","","","","","","","","","feedback_test"
"","","","","","psychophysics","201","804231","0.0-8.1-0.1-0.62","847","","j","","","","","","","","","","","","","key","j","16.65326363636308","640","356","f","false","img/C_ambi40.png","朋友","prac",""
"","","","","","html-keyboard-response","202","804741","0.0-8.1-0.1-1.62","null","<span style='color:red; font-size: 70px;'>错误! </span>","null","","","","","","","","","","","","","","","","","","","","","","","feedback_test"
"","","","","","psychophysics","203","806229","0.0-8.1-0.1-0.63","486","","j","","","","","","","","","","","","","key","j","16.651579545454958","640","356","j","true","img/C_ambi40.png","生人","prac",""
"","","","","","html-keyboard-response","204","806740","0.0-8.1-0.1-1.63","null","<span style='color:GreenYellow; font-size: 70px;'>正确! </span>","null","","","","","","","","","","","","","","","","","","","","","","","feedback_test"
"","","","","","html-keyboard-response","205","811305","0.0-8.1-1.1-0.1","4563","<style>.context{color:white; font-size: 35px; line-height:40px}</style>                          <div><p class='context'>您正确回答了59% 的试次。</p ><p class='context'>您的平均反应时为669毫秒。</p >"," ","","","","","","","","","","","","","","","","","","","","","","",""
"","","","","","instructions","206","829530","0.0-8.1-1.1-1.1","18223","","","","","","","","","","","","","","[{""page_index"":0,""viewing_time"":2158},{""page_index"":1,""viewing_time"":1994},{""page_index"":2,""viewing_time"":14071}]","","","","","","","","","","",""
"","","","","","psychophysics","207","831225","0.0-8.2-0.2-0.64","691","","f","","","","","","","","","","","","","key","f","16.65249000000069","640","356","j","false","img/H_ambi40.png","自我","prac",""
"","","","","","html-keyboard-response","208","831731","0.0-8.2-0.2-1.64","null","<span style='color:red; font-size: 70px;'>错误! </span>","null","","","","","","","","","","","","","","","","","","","","","","","feedback_test"
"","","","","","psychophysics","209","833371","0.0-8.2-0.2-0.65","639","","f","","","","","","","","","","","","","key","f","16.652577319588108","640","356","f","true","img/T_ambi40.png","をる","prac",""
"","","","","","html-keyboard-response","210","833872","0.0-8.2-0.2-1.65","null","<span style='color:GreenYellow; font-size: 70px;'>正确! </span>","null","","","","","","","","","","","","","","","","","","","","","","","feedback_test"
"","","","","","psychophysics","211","835422","0.0-8.2-0.2-0.66","547","","f","","","","","","","","","","","","","key","f","16.652956521739608","640","356","f","true","img/T_ambi40.png","をる","prac",""
"","","","","","html-keyboard-response","212","835930","0.0-8.2-0.2-1.66","null","<span style='color:GreenYellow; font-size: 70px;'>正确! </span>","null","","","","","","","","","","","","","","","","","","","","","","","feedback_test"
"","","","","","psychophysics","213","837484","0.0-8.2-0.2-0.67","551","","f","","","","","","","","","","","","","key","f","16.649934782608636","640","356","f","true","img/T_ambi40.png","をる","prac",""
"","","","","","html-keyboard-response","214","837997","0.0-8.2-0.2-1.67","null","<span style='color:GreenYellow; font-size: 70px;'>正确! </span>","null","","","","","","","","","","","","","","","","","","","","","","","feedback_test"
"","","","","","psychophysics","215","839589","0.0-8.2-0.2-0.68","590","","f","","","","","","","","","","","","","key","f","16.653852631578125","640","356","f","true","img/H_ambi40.png","生人","prac",""
"","","","","","html-keyboard-response","216","840105","0.0-8.2-0.2-1.68","null","<span style='color:GreenYellow; font-size: 70px;'>正确! </span>","null","","","","","","","","","","","","","","","","","","","","","","","feedback_test"
"","","","","","psychophysics","217","841731","0.0-8.2-0.2-0.69","624","","j","","","","","","","","","","","","","key","j","16.65171875000063","640","356","j","true","img/S_ambi40.png","朋友","prac",""
"","","","","","html-keyboard-response","218","842234","0.0-8.2-0.2-1.69","null","<span style='color:GreenYellow; font-size: 70px;'>正确! </span>","null","","","","","","","","","","","","","","","","","","","","","","","feedback_test"
"","","","","","psychophysics","219","843831","0.0-8.2-0.2-0.70","595","","j","","","","","","","","","","","","","key","j","16.51546808510667","640","356","f","false","img/C_ambi40.png","朋友","prac",""
"","","","","","html-keyboard-response","220","844342","0.0-8.2-0.2-1.70","null","<span style='color:red; font-size: 70px;'>错误! </span>","null","","","","","","","","","","","","","","","","","","","","","","","feedback_test"
"","","","","","psychophysics","221","846176","0.0-8.2-0.2-0.71","831","","j","","","","","","","","","","","","","key","j","16.65610091743132","640","356","f","false","img/S_ambi40.png","自我","prac",""
"","","","","","html-keyboard-response","222","846689","0.0-8.2-0.2-1.71","null","<span style='color:red; font-size: 70px;'>错误! </span>","null","","","","","","","","","","","","","","","","","","","","","","","feedback_test"
"","","","","","psychophysics","223","848331","0.0-8.2-0.2-0.72","640","","j","","","","","","","","","","","","","key","j","16.653164948453195","640","356","j","true","img/C_ambi40.png","生人","prac",""
"","","","","","html-keyboard-response","224","848839","0.0-8.2-0.2-1.72","null","<span style='color:GreenYellow; font-size: 70px;'>正确! </span>","null","","","","","","","","","","","","","","","","","","","","","","","feedback_test"
"","","","","","psychophysics","225","850612","0.0-8.2-0.2-0.73","771","","f","","","","","","","","","","","","","key","f","16.654495238094768","640","356","j","false","img/H_ambi40.png","朋友","prac",""
"","","","","","html-keyboard-response","226","851127","0.0-8.2-0.2-1.73","null","<span style='color:red; font-size: 70px;'>错误! </span>","null","","","","","","","","","","","","","","","","","","","","","","","feedback_test"
"","","","","","psychophysics","227","852753","0.0-8.2-0.2-0.74","625","","f","","","","","","","","","","","","","key","f","16.6519587628865","640","356","f","true","img/T_ambi40.png","をる","prac",""
"","","","","","html-keyboard-response","228","853257","0.0-8.2-0.2-1.74","null","<span style='color:GreenYellow; font-size: 70px;'>正确! </span>","null","","","","","","","","","","","","","","","","","","","","","","","feedback_test"
"","","","","","psychophysics","229","855140","0.0-8.2-0.2-0.75","882","","f","","","","","","","","","","","","","key","f","16.65500892857173","640","356","j","false","img/C_ambi40.png","自我","prac",""
"","","","","","html-keyboard-response","230","855647","0.0-8.2-0.2-1.75","null","<span style='color:red; font-size: 70px;'>错误! </span>","null","","","","","","","","","","","","","","","","","","","","","","","feedback_test"
"","","","","","psychophysics","231","857264","0.0-8.2-0.2-0.76","614","","f","","","","","","","","","","","","","key","f","16.651979166666326","640","356","f","true","img/H_ambi40.png","生人","prac",""
"","","","","","html-keyboard-response","232","857767","0.0-8.2-0.2-1.76","null","<span style='color:GreenYellow; font-size: 70px;'>正确! </span>","null","","","","","","","","","","","","","","","","","","","","","","","feedback_test"
"","","","","","psychophysics","233","859172","0.0-8.2-0.2-0.77","403","","f","","","","","","","","","","","","","key","f","16.653228915662574","640","356","j","false","img/S_ambi40.png","生人","prac",""
"","","","","","html-keyboard-response","234","859681","0.0-8.2-0.2-1.77","null","<span style='color:red; font-size: 70px;'>错误! </span>","null","","","","","","","","","","","","","","","","","","","","","","","feedback_test"
"","","","","","psychophysics","235","861811","0.0-8.2-0.2-0.78","1128","","f","","","","","","","","","","","","","key","f","16.653062992126088","640","356","f","true","img/C_ambi40.png","朋友","prac",""
"","","","","","html-keyboard-response","236","862328","0.0-8.2-0.2-1.78","null","<span style='color:GreenYellow; font-size: 70px;'>正确! </span>","null","","","","","","","","","","","","","","","","","","","","","","","feedback_test"
"","","","","","psychophysics","237","864217","0.0-8.2-0.2-0.79","887","","j","","","","","","","","","","","","","key","j","16.65263392857118","640","356","f","false","img/S_ambi40.png","自我","prac",""
"","","","","","html-keyboard-response","238","864728","0.0-8.2-0.2-1.79","null","<span style='color:red; font-size: 70px;'>错误! </span>","null","","","","","","","","","","","","","","","","","","","","","","","feedback_test"
"","","","","","psychophysics","239","866467","0.0-8.2-0.2-0.80","737","","f","","","","","","","","","","","","","key","f","16.65520388349434","640","356","f","true","img/H_ambi40.png","生人","prac",""
"","","","","","html-keyboard-response","240","866972","0.0-8.2-0.2-1.80","null","<span style='color:GreenYellow; font-size: 70px;'>正确! </span>","null","","","","","","","","","","","","","","","","","","","","","","","feedback_test"
"","","","","","psychophysics","241","868576","0.0-8.2-0.2-0.81","602","","f","","","","","","","","","","","","","key","f","16.65397894736747","640","356","f","true","img/T_ambi40.png","をる","prac",""
"","","","","","html-keyboard-response","242","869091","0.0-8.2-0.2-1.81","null","<span style='color:GreenYellow; font-size: 70px;'>正确! </span>","null","","","","","","","","","","","","","","","","","","","","","","","feedback_test"
"","","","","","psychophysics","243","870788","0.0-8.2-0.2-0.82","695","","j","","","","","","","","","","","","","key","j","16.6551782178213","640","356","j","true","img/S_ambi40.png","朋友","prac",""
"","","","","","html-keyboard-response","244","871292","0.0-8.2-0.2-1.82","null","<span style='color:GreenYellow; font-size: 70px;'>正确! </span>","null","","","","","","","","","","","","","","","","","","","","","","","feedback_test"
"","","","","","psychophysics","245","873122","0.0-8.2-0.2-0.83","827","","f","","","","","","","","","","","","","key","f","16.653440366972262","640","356","j","false","img/C_ambi40.png","自我","prac",""
"","","","","","html-keyboard-response","246","873629","0.0-8.2-0.2-1.83","null","<span style='color:red; font-size: 70px;'>错误! </span>","null","","","","","","","","","","","","","","","","","","","","","","","feedback_test"
"","","","","","psychophysics","247","875989","0.0-8.2-0.2-0.84","1358","","j","","","","","","","","","","","","","key","j","16.652742857142584","640","356","f","false","img/C_ambi40.png","朋友","prac",""
"","","","","","html-keyboard-response","248","876490","0.0-8.2-0.2-1.84","null","<span style='color:red; font-size: 70px;'>错误! </span>","null","","","","","","","","","","","","","","","","","","","","","","","feedback_test"
"","","","","","psychophysics","249","878490","0.0-8.2-0.2-0.85","999","","j","","","","","","","","","","","","","key","j","16.652815126049912","640","356","j","true","img/S_ambi40.png","生人","prac",""
"","","","","","html-keyboard-response","250","878997","0.0-8.2-0.2-1.85","null","<span style='color:GreenYellow; font-size: 70px;'>正确! </span>","null","","","","","","","","","","","","","","","","","","","","","","","feedback_test"
"","","","","","psychophysics","251","881211","0.0-8.2-0.2-0.86","1212","","f","","","","","","","","","","","","","key","f","16.652492424242983","640","356","j","false","img/H_ambi40.png","自我","prac",""
"","","","","","html-keyboard-response","252","881722","0.0-8.2-0.2-1.86","null","<span style='color:red; font-size: 70px;'>错误! </span>","null","","","","","","","","","","","","","","","","","","","","","","","feedback_test"
"","","","","","psychophysics","253","883507","0.0-8.2-0.2-0.87","782","","f","","","","","","","","","","","","","key","f","16.653877358490444","640","356","f","true","img/S_ambi40.png","自我","prac",""
"","","","","","html-keyboard-response","254","884010","0.0-8.2-0.2-1.87","null","<span style='color:GreenYellow; font-size: 70px;'>正确! </span>","null","","","","","","","","","","","","","","","","","","","","","","","feedback_test"
"","","","","","psychophysics","255","885567","0.0-8.2-0.2-0.88","554","","f","","","","","","","","","","","","","key","f","16.652065217391204","640","356","f","true","img/T_ambi40.png","をる","prac",""
"","","","","","html-keyboard-response","256","886080","0.0-8.2-0.2-1.88","null","<span style='color:GreenYellow; font-size: 70px;'>正确! </span>","null","","","","","","","","","","","","","","","","","","","","","","","feedback_test"
"","","","","","psychophysics","257","887751","0.0-8.2-0.2-0.89","668","","f","","","","","","","","","","","","","key","f","16.653469999999505","640","356","f","true","img/T_ambi40.png","をる","prac",""
"","","","","","html-keyboard-response","258","888262","0.0-8.2-0.2-1.89","null","<span style='color:GreenYellow; font-size: 70px;'>正确! </span>","null","","","","","","","","","","","","","","","","","","","","","","","feedback_test"
"","","","","","psychophysics","259","889664","0.0-8.2-0.2-0.90","400","","f","","","","","","","","","","","","","key","f","16.652927710843013","640","356","f","true","img/T_ambi40.png","をる","prac",""
"","","","","","html-keyboard-response","260","890169","0.0-8.2-0.2-1.90","null","<span style='color:GreenYellow; font-size: 70px;'>正确! </span>","null","","","","","","","","","","","","","","","","","","","","","","","feedback_test"
"","","","","","psychophysics","261","891833","0.0-8.2-0.2-0.91","663","","f","","","","","","","","","","","","","key","f","16.652313131313406","640","356","f","true","img/H_ambi40.png","生人","prac",""
"","","","","","html-keyboard-response","262","892344","0.0-8.2-0.2-1.91","null","<span style='color:GreenYellow; font-size: 70px;'>正确! </span>","null","","","","","","","","","","","","","","","","","","","","","","","feedback_test"
"","","","","","psychophysics","263","894140","0.0-8.2-0.2-0.92","794","","f","","","","","","","","","","","","","key","f","16.653245283018375","640","356","j","false","img/C_ambi40.png","生人","prac",""
"","","","","","html-keyboard-response","264","894645","0.0-8.2-0.2-1.92","null","<span style='color:red; font-size: 70px;'>错误! </span>","null","","","","","","","","","","","","","","","","","","","","","","","feedback_test"
"","","","","","psychophysics","265","896567","0.0-8.2-0.2-0.93","920","","j","","","","","","","","","","","","","key","j","16.651587719298906","640","356","f","false","img/C_ambi40.png","朋友","prac",""
"","","","","","html-keyboard-response","266","897078","0.0-8.2-0.2-1.93","null","<span style='color:red; font-size: 70px;'>错误! </span>","null","","","","","","","","","","","","","","","","","","","","","","","feedback_test"
"","","","","","psychophysics","267","898639","0.0-8.2-0.2-0.94","560","","f","","","","","","","","","","","","","key","f","16.653043478260415","640","356","f","true","img/S_ambi40.png","自我","prac",""
"","","","","","html-keyboard-response","268","899155","0.0-8.2-0.2-1.94","null","<span style='color:GreenYellow; font-size: 70px;'>正确! </span>","null","","","","","","","","","","","","","","","","","","","","","","","feedback_test"
"","","","","","psychophysics","269","900877","0.0-8.2-0.2-0.95","721","","j","","","","","","","","","","","","","key","j","16.6514999999998","640","356","j","true","img/H_ambi40.png","朋友","prac",""
"","","","","","html-keyboard-response","270","901388","0.0-8.2-0.2-1.95","null","<span style='color:GreenYellow; font-size: 70px;'>正确! </span>","null","","","","","","","","","","","","","","","","","","","","","","","feedback_test"
"","","","","","html-keyboard-response","271","904481","0.0-8.2-1.2-0.2","3089","<style>.context{color:white; font-size: 35px; line-height:40px}</style>                          <div><p class='context'>您正确回答了63% 的试次。</p ><p class='context'>您的平均反应时为667毫秒。</p >"," ","","","","","","","","","","","","","","","","","","","","","","",""
"","","","","","instructions","272","926335","0.0-8.2-1.2-1.2","21852","","","","","","","","","","","","","","[{""page_index"":0,""viewing_time"":2487},{""page_index"":1,""viewing_time"":6747},{""page_index"":2,""viewing_time"":12619}]","","","","","","","","","","",""
"","","","","","psychophysics","273","928024","0.0-8.3-0.3-0.96","685","","f","","","","","","","","","","","","","key","f","16.653280000000958","640","356","f","true","img/T_ambi40.png","をる","prac",""
"","","","","","html-keyboard-response","274","928538","0.0-8.3-0.3-1.96","null","<span style='color:GreenYellow; font-size: 70px;'>正确! </span>","null","","","","","","","","","","","","","","","","","","","","","","","feedback_test"
"","","","","","psychophysics","275","930408","0.0-8.3-0.3-0.97","868","","j","","","","","","","","","","","","","key","j","16.65261261261211","640","356","j","true","img/H_ambi40.png","朋友","prac",""
"","","","","","html-keyboard-response","276","930916","0.0-8.3-0.3-1.97","null","<span style='color:GreenYellow; font-size: 70px;'>正确! </span>","null","","","","","","","","","","","","","","","","","","","","","","","feedback_test"
"","","","","","psychophysics","277","932654","0.0-8.3-0.3-0.98","736","","j","","","","","","","","","","","","","key","j","16.654621359223086","640","356","f","false","img/C_ambi40.png","朋友","prac",""
"","","","","","html-keyboard-response","278","933169","0.0-8.3-0.3-1.98","null","<span style='color:red; font-size: 70px;'>错误! </span>","null","","","","","","","","","","","","","","","","","","","","","","","feedback_test"
"","","","","","psychophysics","279","934825","0.0-8.3-0.3-0.99","654","","j","","","","","","","","","","","","","key","j","16.65174489795962","640","356","j","true","img/S_ambi40.png","朋友","prac",""
"","","","","","html-keyboard-response","280","935328","0.0-8.3-0.3-1.99","null","<span style='color:GreenYellow; font-size: 70px;'>正确! </span>","null","","","","","","","","","","","","","","","","","","","","","","","feedback_test"
"","","","","","psychophysics","281","936947","0.0-8.3-0.3-0.100","618","","f","","","","","","","","","","","","","key","f","16.655062499999378","640","356","f","true","img/H_ambi40.png","生人","prac",""
"","","","","","html-keyboard-response","282","937450","0.0-8.3-0.3-1.100","null","<span style='color:GreenYellow; font-size: 70px;'>正确! </span>","null","","","","","","","","","","","","","","","","","","","","","","","feedback_test"
"","","","","","psychophysics","283","939329","0.0-8.3-0.3-0.101","877","","j","","","","","","","","","","","","","key","j","16.653517857141974","640","356","j","true","img/C_ambi40.png","生人","prac",""
"","","","","","html-keyboard-response","284","939834","0.0-8.3-0.3-1.101","null","<span style='color:GreenYellow; font-size: 70px;'>正确! </span>","null","","","","","","","","","","","","","","","","","","","","","","","feedback_test"
"","","","","","psychophysics","285","941427","0.0-8.3-0.3-0.102","589","","f","","","","","","","","","","","","","key","f","16.653652631578428","640","356","f","true","img/H_ambi40.png","生人","prac",""
"","","","","","html-keyboard-response","286","941934","0.0-8.3-0.3-1.102","null","<span style='color:GreenYellow; font-size: 70px;'>正确! </span>","null","","","","","","","","","","","","","","","","","","","","","","","feedback_test"
"","","","","","psychophysics","287","943553","0.0-8.3-0.3-0.103","616","","f","","","","","","","","","","","","","key","f","16.65389583333308","640","356","f","true","img/T_ambi40.png","をる","prac",""
"","","","","","html-keyboard-response","288","944062","0.0-8.3-0.3-1.103","null","<span style='color:GreenYellow; font-size: 70px;'>正确! </span>","null","","","","","","","","","","","","","","","","","","","","","","","feedback_test"
"","","","","","psychophysics","289","945496","0.0-8.3-0.3-0.104","433","","f","","","","","","","","","","","","","key","f","16.65385882353054","640","356","f","true","img/T_ambi40.png","をる","prac",""
"","","","","","html-keyboard-response","290","946011","0.0-8.3-0.3-1.104","null","<span style='color:GreenYellow; font-size: 70px;'>正确! </span>","null","","","","","","","","","","","","","","","","","","","","","","","feedback_test"
"","","","","","psychophysics","291","948124","0.0-8.3-0.3-0.105","1112","","j","","","","","","","","","","","","","key","j","16.65358730158787","640","356","j","true","img/C_ambi40.png","自我","prac",""
"","","","","","html-keyboard-response","292","948638","0.0-8.3-0.3-1.105","null","<span style='color:GreenYellow; font-size: 70px;'>正确! </span>","null","","","","","","","","","","","","","","","","","","","","","","","feedback_test"
"","","","","","psychophysics","293","950567","0.0-8.3-0.3-0.106","929","","f","","","","","","","","","","","","","key","f","16.653878260869533","640","356","f","true","img/C_ambi40.png","朋友","prac",""
"","","","","","html-keyboard-response","294","951068","0.0-8.3-0.3-1.106","null","<span style='color:GreenYellow; font-size: 70px;'>正确! </span>","null","","","","","","","","","","","","","","","","","","","","","","","feedback_test"
"","","","","","psychophysics","295","952863","0.0-8.3-0.3-0.107","793","","j","","","","","","","","","","","","","key","j","16.652242990654553","640","356","f","false","img/S_ambi40.png","自我","prac",""
"","","","","","html-keyboard-response","296","953370","0.0-8.3-0.3-1.107","null","<span style='color:red; font-size: 70px;'>错误! </span>","null","","","","","","","","","","","","","","","","","","","","","","","feedback_test"
"","","","","","psychophysics","297","955027","0.0-8.3-0.3-0.108","655","","j","","","","","","","","","","","","","key","j","16.653151515151627","640","356","j","true","img/S_ambi40.png","生人","prac",""
"","","","","","html-keyboard-response","298","955529","0.0-8.3-0.3-1.108","null","<span style='color:GreenYellow; font-size: 70px;'>正确! </span>","null","","","","","","","","","","","","","","","","","","","","","","","feedback_test"
"","","","","","psychophysics","299","957209","0.0-8.3-0.3-0.109","679","","f","","","","","","","","","","","","","key","f","16.653549999999814","640","356","f","true","img/T_ambi40.png","をる","prac",""
"","","","","","html-keyboard-response","300","957724","0.0-8.3-0.3-1.109","null","<span style='color:GreenYellow; font-size: 70px;'>正确! </span>","null","","","","","","","","","","","","","","","","","","","","","","","feedback_test"
"","","","","","psychophysics","301","959630","0.0-8.3-0.3-0.110","906","","j","","","","","","","","","","","","","key","j","16.653283185840674","640","356","f","false","img/S_ambi40.png","自我","prac",""
"","","","","","html-keyboard-response","302","960137","0.0-8.3-0.3-1.110","null","<span style='color:red; font-size: 70px;'>错误! </span>","null","","","","","","","","","","","","","","","","","","","","","","","feedback_test"
"","","","","","psychophysics","303","961580","0.0-8.3-0.3-0.111","442","","f","","","","","","","","","","","","","key","f","16.505294117647882","640","356","j","false","img/H_ambi40.png","自我","prac",""
"","","","","","html-keyboard-response","304","962088","0.0-8.3-0.3-1.111","null","<span style='color:red; font-size: 70px;'>错误! </span>","null","","","","","","","","","","","","","","","","","","","","","","","feedback_test"
"","","","","","psychophysics","305","963711","0.0-8.3-0.3-0.112","619","","f","","","","","","","","","","","","","key","f","16.653010416666802","640","356","f","true","img/T_ambi40.png","をる","prac",""
"","","","","","html-keyboard-response","306","964216","0.0-8.3-0.3-1.112","null","<span style='color:GreenYellow; font-size: 70px;'>正确! </span>","null","","","","","","","","","","","","","","","","","","","","","","","feedback_test"
"","","","","","psychophysics","307","966027","0.0-8.3-0.3-0.113","809","","j","","","","","","","","","","","","","key","j","16.652333333333782","640","356","j","true","img/C_ambi40.png","生人","prac",""
"","","","","","html-keyboard-response","308","966542","0.0-8.3-0.3-1.113","null","<span style='color:GreenYellow; font-size: 70px;'>正确! </span>","null","","","","","","","","","","","","","","","","","","","","","","","feedback_test"
"","","","","","psychophysics","309","968090","0.0-8.3-0.3-0.114","546","","f","","","","","","","","","","","","","key","f","16.651108695652194","640","356","f","true","img/H_ambi40.png","生人","prac",""
"","","","","","html-keyboard-response","310","968603","0.0-8.3-0.3-1.114","null","<span style='color:GreenYellow; font-size: 70px;'>正确! </span>","null","","","","","","","","","","","","","","","","","","","","","","","feedback_test"
"","","","","","psychophysics","311","970340","0.0-8.3-0.3-0.115","735","","j","","","","","","","","","","","","","key","j","16.65281553398049","640","356","f","false","img/S_ambi40.png","自我","prac",""
"","","","","","html-keyboard-response","312","970841","0.0-8.3-0.3-1.115","null","<span style='color:red; font-size: 70px;'>错误! </span>","null","","","","","","","","","","","","","","","","","","","","","","","feedback_test"
"","","","","","psychophysics","313","972557","0.0-8.3-0.3-0.116","715","","j","","","","","","","","","","","","","key","j","16.655098039216327","640","356","j","true","img/C_ambi40.png","自我","prac",""
"","","","","","html-keyboard-response","314","973068","0.0-8.3-0.3-1.116","null","<span style='color:GreenYellow; font-size: 70px;'>正确! </span>","null","","","","","","","","","","","","","","","","","","","","","","","feedback_test"
"","","","","","psychophysics","315","974562","0.0-8.3-0.3-0.117","493","","f","","","","","","","","","","","","","key","f","16.65106741573107","640","356","f","true","img/S_ambi40.png","自我","prac",""
"","","","","","html-keyboard-response","316","975075","0.0-8.3-0.3-1.117","null","<span style='color:GreenYellow; font-size: 70px;'>正确! </span>","null","","","","","","","","","","","","","","","","","","","","","","","feedback_test"
"","","","","","psychophysics","317","976714","0.0-8.3-0.3-0.118","637","","f","","","","","","","","","","","","","key","f","16.52436082474239","640","356","f","true","img/T_ambi40.png","をる","prac",""
"","","","","","html-keyboard-response","318","977227","0.0-8.3-0.3-1.118","null","<span style='color:GreenYellow; font-size: 70px;'>正确! </span>","null","","","","","","","","","","","","","","","","","","","","","","","feedback_test"
"","","","","","psychophysics","319","979217","0.0-8.3-0.3-0.119","989","","f","","","","","","","","","","","","","key","f","16.65189830508474","640","356","f","true","img/C_ambi40.png","朋友","prac",""
"","","","","","html-keyboard-response","320","979720","0.0-8.3-0.3-1.119","null","<span style='color:GreenYellow; font-size: 70px;'>正确! </span>","null","","","","","","","","","","","","","","","","","","","","","","","feedback_test"
"","","","","","psychophysics","321","981104","0.0-8.3-0.3-0.120","382","","f","","","","","","","","","","","","","key","f","16.655426829268237","640","356","f","true","img/T_ambi40.png","をる","prac",""
"","","","","","html-keyboard-response","322","981617","0.0-8.3-0.3-1.120","null","<span style='color:GreenYellow; font-size: 70px;'>正确! </span>","null","","","","","","","","","","","","","","","","","","","","","","","feedback_test"
"","","","","","psychophysics","323","983311","0.0-8.3-0.3-0.121","692","","j","","","","","","","","","","","","","key","j","16.65270297029655","640","356","j","true","img/S_ambi40.png","生人","prac",""
"","","","","","html-keyboard-response","324","983826","0.0-8.3-0.3-1.121","null","<span style='color:GreenYellow; font-size: 70px;'>正确! </span>","null","","","","","","","","","","","","","","","","","","","","","","","feedback_test"
"","","","","","psychophysics","325","985840","0.0-8.3-0.3-0.122","1011","","f","","","","","","","","","","","","","key","f","16.651624999999573","640","356","f","true","img/C_ambi40.png","朋友","prac",""
"","","","","","html-keyboard-response","326","986353","0.0-8.3-0.3-1.122","null","<span style='color:GreenYellow; font-size: 70px;'>正确! </span>","null","","","","","","","","","","","","","","","","","","","","","","","feedback_test"
"","","","","","psychophysics","327","987970","0.0-8.3-0.3-0.123","615","","j","","","","","","","","","","","","","key","j","16.652739583333943","640","356","j","true","img/H_ambi40.png","自我","prac",""
"","","","","","html-keyboard-response","328","988473","0.0-8.3-0.3-1.123","null","<span style='color:GreenYellow; font-size: 70px;'>正确! </span>","null","","","","","","","","","","","","","","","","","","","","","","","feedback_test"
"","","","","","psychophysics","329","990457","0.0-8.3-0.3-0.124","981","","j","","","","","","","","","","","","","key","j","16.652194915254505","640","356","j","true","img/H_ambi40.png","朋友","prac",""
"","","","","","html-keyboard-response","330","990971","0.0-8.3-0.3-1.124","null","<span style='color:GreenYellow; font-size: 70px;'>正确! </span>","null","","","","","","","","","","","","","","","","","","","","","","","feedback_test"
"","","","","","psychophysics","331","992450","0.0-8.3-0.3-0.125","478","","f","","","","","","","","","","","","","key","f","16.653693181818447","640","356","f","true","img/T_ambi40.png","をる","prac",""
"","","","","","html-keyboard-response","332","992954","0.0-8.3-0.3-1.125","null","<span style='color:GreenYellow; font-size: 70px;'>正确! </span>","null","","","","","","","","","","","","","","","","","","","","","","","feedback_test"
"","","","","","psychophysics","333","994857","0.0-8.3-0.3-0.126","901","","f","","","","","","","","","","","","","key","f","16.65311504424801","640","356","f","true","img/H_ambi40.png","生人","prac",""
"","","","","","html-keyboard-response","334","995363","0.0-8.3-0.3-1.126","null","<span style='color:GreenYellow; font-size: 70px;'>正确! </span>","null","","","","","","","","","","","","","","","","","","","","","","","feedback_test"
"","","","","","psychophysics","335","997568","0.0-8.3-0.3-0.127","1203","","j","","","","","","","","","","","","","key","j","16.653541984732392","640","356","j","true","img/S_ambi40.png","朋友","prac",""
"","","","","","html-keyboard-response","336","998077","0.0-8.3-0.3-1.127","null","<span style='color:GreenYellow; font-size: 70px;'>正确! </span>","null","","","","","","","","","","","","","","","","","","","","","","","feedback_test"
"","","","","","html-keyboard-response","337","1011121","0.0-9.0","13042","<style>.context{color:white; font-size: 35px; line-height:40px}</style>                          <div><p class='context'>您正确回答了84% 的试次。</p ><p class='context'>您的平均反应时为733毫秒。</p ><p class='context'>恭喜您完成练习。按任意键进入正式实验。</p ><p class='footer' style='font-size: 35px; line-height:40px;'>请在进入正式实验实验之前将您的<span style='color: lightgreen;'>食指</span>放在电脑键盘的相应键位上进行按键。</p >"," ","","","","","","","","","","","","","","","","","","","","","","",""
"","","","","","psychophysics","338","1012972","0.0-10.0-0.0-0.0-0.0-0.0","843","","j","","","","","","","","","","","","","key","j","16.654972727272913","640","356","j","true","img/S_ambi40.png","生人","same",""
"","","","","","html-keyboard-response","339","1013481","0.0-10.0-0.0-0.0-0.0-1.0","null","<span style='color:GreenYellow; font-size: 70px;'>正确! </span>","null","","","","","","","","","","","","","","","","","","","","","","","feedback_test"
"","","","","","psychophysics","340","1015287","0.0-10.0-0.0-0.0-0.0-0.1","804","","f","","","","","","","","","","","","","key","f","16.65192523364426","640","356","f","true","img/H_ambi40.png","生人","same",""
"","","","","","html-keyboard-response","341","1015797","0.0-10.0-0.0-0.0-0.0-1.1","null","<span style='color:GreenYellow; font-size: 70px;'>正确! </span>","null","","","","","","","","","","","","","","","","","","","","","","","feedback_test"
"","","","","","psychophysics","342","1018002","0.0-10.0-0.0-0.0-0.0-0.2","1203","","f","","","","","","","","","","","","","key","f","16.6520458015272","640","356","f","true","img/C_ambi40.png","朋友","same",""
"","","","","","html-keyboard-response","343","1018510","0.0-10.0-0.0-0.0-0.0-1.2","null","<span style='color:GreenYellow; font-size: 70px;'>正确! </span>","null","","","","","","","","","","","","","","","","","","","","","","","feedback_test"
"","","","","","psychophysics","344","1020051","0.0-10.0-0.0-0.0-0.0-0.3","540","","f","","","","","","","","","","","","","key","f","16.652879120879245","640","356","f","true","img/T_ambi40.png","をる","same",""
"","","","","","html-keyboard-response","345","1020558","0.0-10.0-0.0-0.0-0.0-1.3","null","<span style='color:GreenYellow; font-size: 70px;'>正确! </span>","null","","","","","","","","","","","","","","","","","","","","","","","feedback_test"
"","","","","","psychophysics","346","1022046","0.0-10.0-0.0-0.0-0.0-0.4","487","","f","","","","","","","","","","","","","key","f","16.65242045454612","640","356","f","true","img/S_ambi40.png","自我","same",""
"","","","","","html-keyboard-response","347","1022547","0.0-10.0-0.0-0.0-0.0-1.4","null","<span style='color:GreenYellow; font-size: 70px;'>正确! </span>","null","","","","","","","","","","","","","","","","","","","","","","","feedback_test"
"","","","","","psychophysics","348","1024381","0.0-10.0-0.0-0.0-0.0-0.5","831","","j","","","","","","","","","","","","","key","j","16.653440366972262","640","356","j","true","img/H_ambi40.png","朋友","same",""
"","","","","","html-keyboard-response","349","1024888","0.0-10.0-0.0-0.0-0.0-1.5","null","<span style='color:GreenYellow; font-size: 70px;'>正确! </span>","null","","","","","","","","","","","","","","","","","","","","","","","feedback_test"
"","","","","","psychophysics","350","1026826","0.0-10.0-0.0-0.0-0.0-0.6","936","","j","","","","","","","","","","","","","key","j","16.652886956522202","640","356","f","false","img/C_ambi40.png","朋友","same",""
"","","","","","html-keyboard-response","351","1027341","0.0-10.0-0.0-0.0-0.0-1.6","null","<span style='color:red; font-size: 70px;'>错误! </span>","null","","","","","","","","","","","","","","","","","","","","","","","feedback_test"
"","","","","","psychophysics","352","1028877","0.0-10.0-0.0-0.0-0.0-0.7","535","","f","","","","","","","","","","","","","key","f","16.653516483516178","640","356","f","true","img/H_ambi40.png","生人","same",""
"","","","","","html-keyboard-response","353","1029378","0.0-10.0-0.0-0.0-0.0-1.7","null","<span style='color:GreenYellow; font-size: 70px;'>正确! </span>","null","","","","","","","","","","","","","","","","","","","","","","","feedback_test"
"","","","","","psychophysics","354","1030922","0.0-10.0-0.0-0.0-0.0-0.8","543","","f","","","","","","","","","","","","","key","f","16.65307608695635","640","356","f","true","img/S_ambi40.png","自我","same",""
"","","","","","html-keyboard-response","355","1031433","0.0-10.0-0.0-0.0-0.0-1.8","null","<span style='color:GreenYellow; font-size: 70px;'>正确! </span>","null","","","","","","","","","","","","","","","","","","","","","","","feedback_test"
"","","","","","psychophysics","356","1032955","0.0-10.0-0.0-0.0-0.0-0.9","519","","f","","","","","","","","","","","","","key","f","16.655077777778367","640","356","f","true","img/T_ambi40.png","をる","same",""
"","","","","","html-keyboard-response","357","1033469","0.0-10.0-0.0-0.0-0.0-1.9","null","<span style='color:GreenYellow; font-size: 70px;'>正确! </span>","null","","","","","","","","","","","","","","","","","","","","","","","feedback_test"
"","","","","","psychophysics","358","1035068","0.0-10.0-0.0-0.0-0.0-0.10","598","","f","","","","","","","","","","","","","key","f","16.652842105263353","640","356","j","false","img/C_ambi40.png","自我","same",""
"","","","","","html-keyboard-response","359","1035576","0.0-10.0-0.0-0.0-0.0-1.10","null","<span style='color:red; font-size: 70px;'>错误! </span>","null","","","","","","","","","","","","","","","","","","","","","","","feedback_test"
"","","","","","psychophysics","360","1037406","0.0-10.0-0.0-0.0-0.0-0.11","829","","j","","","","","","","","","","","","","key","j","16.65416666666688","640","356","j","true","img/H_ambi40.png","朋友","same",""
"","","","","","html-keyboard-response","361","1037910","0.0-10.0-0.0-0.0-0.0-1.11","null","<span style='color:GreenYellow; font-size: 70px;'>正确! </span>","null","","","","","","","","","","","","","","","","","","","","","","","feedback_test"
"","","","","","psychophysics","362","1039567","0.0-10.0-0.0-0.0-0.0-0.12","655","","j","","","","","","","","","","","","","key","j","16.65237755102001","640","356","j","true","img/H_ambi40.png","自我","same",""
"","","","","","html-keyboard-response","363","1040079","0.0-10.0-0.0-0.0-0.0-1.12","null","<span style='color:GreenYellow; font-size: 70px;'>正确! </span>","null","","","","","","","","","","","","","","","","","","","","","","","feedback_test"
"","","","","","psychophysics","364","1041932","0.0-10.0-0.0-0.0-0.0-0.13","850","","j","","","","","","","","","","","","","key","j","16.65302727272607","640","356","j","true","img/S_ambi40.png","生人","same",""
"","","","","","html-keyboard-response","365","1042442","0.0-10.0-0.0-0.0-0.0-1.13","null","<span style='color:GreenYellow; font-size: 70px;'>正确! </span>","null","","","","","","","","","","","","","","","","","","","","","","","feedback_test"
"","","","","","psychophysics","366","1044471","0.0-10.0-0.0-0.0-0.0-0.14","1027","","j","","","","","","","","","","","","","key","j","16.651958677686814","640","356","j","true","img/C_ambi40.png","自我","same",""
"","","","","","html-keyboard-response","367","1044986","0.0-10.0-0.0-0.0-0.0-1.14","null","<span style='color:GreenYellow; font-size: 70px;'>正确! </span>","null","","","","","","","","","","","","","","","","","","","","","","","feedback_test"
"","","","","","psychophysics","368","1046567","0.0-10.0-0.0-0.0-0.0-0.15","579","","f","","","","","","","","","","","","","key","f","16.653182795699387","640","356","f","true","img/T_ambi40.png","をる","same",""
"","","","","","html-keyboard-response","369","1047069","0.0-10.0-0.0-0.0-0.0-1.15","null","<span style='color:GreenYellow; font-size: 70px;'>正确! </span>","null","","","","","","","","","","","","","","","","","","","","","","","feedback_test"
"","","","","","psychophysics","370","1048801","0.0-10.0-0.0-0.0-0.0-0.16","729","","j","","","","","","","","","","","","","key","j","16.651223300969754","640","356","j","true","img/S_ambi40.png","朋友","same",""
"","","","","","html-keyboard-response","371","1049310","0.0-10.0-0.0-0.0-0.0-1.16","null","<span style='color:GreenYellow; font-size: 70px;'>正确! </span>","null","","","","","","","","","","","","","","","","","","","","","","","feedback_test"
"","","","","","psychophysics","372","1051226","0.0-10.0-0.0-0.0-0.0-0.17","914","","j","","","","","","","","","","","","","key","j","16.652956140352202","640","356","j","true","img/C_ambi40.png","生人","same",""
"","","","","","html-keyboard-response","373","1051741","0.0-10.0-0.0-0.0-0.0-1.17","null","<span style='color:GreenYellow; font-size: 70px;'>正确! </span>","null","","","","","","","","","","","","","","","","","","","","","","","feedback_test"
"","","","","","psychophysics","374","1053623","0.0-10.0-0.0-0.0-0.0-0.18","879","","j","","","","","","","","","","","","","key","j","16.653794642857974","640","356","j","true","img/S_ambi40.png","朋友","same",""
"","","","","","html-keyboard-response","375","1054129","0.0-10.0-0.0-0.0-0.0-1.18","null","<span style='color:GreenYellow; font-size: 70px;'>正确! </span>","null","","","","","","","","","","","","","","","","","","","","","","","feedback_test"
"","","","","","psychophysics","376","1056001","0.0-10.0-0.0-0.0-0.0-0.19","870","","j","","","","","","","","","","","","","key","j","16.65374774774872","640","356","j","true","img/H_ambi40.png","自我","same",""
"","","","","","html-keyboard-response","377","1056512","0.0-10.0-0.0-0.0-0.0-1.19","null","<span style='color:GreenYellow; font-size: 70px;'>正确! </span>","null","","","","","","","","","","","","","","","","","","","","","","","feedback_test"
"","","","","","psychophysics","378","1058249","0.0-10.0-0.0-0.0-0.0-0.20","735","","j","","","","","","","","","","","","","key","j","16.652864077670987","640","356","j","true","img/S_ambi40.png","生人","same",""
"","","","","","html-keyboard-response","379","1058755","0.0-10.0-0.0-0.0-0.0-1.20","null","<span style='color:GreenYellow; font-size: 70px;'>正确! </span>","null","","","","","","","","","","","","","","","","","","","","","","","feedback_test"
"","","","","","psychophysics","380","1060996","0.0-10.0-0.0-0.0-0.0-0.21","1238","","f","","","","","","","","","","","","","key","f","16.65328358208983","640","356","f","true","img/S_ambi40.png","自我","same",""
"","","","","","html-keyboard-response","381","1061508","0.0-10.0-0.0-0.0-0.0-1.21","null","<span style='color:GreenYellow; font-size: 70px;'>正确! </span>","null","","","","","","","","","","","","","","","","","","","","","","","feedback_test"
"","","","","","psychophysics","382","1063402","0.0-10.0-0.0-0.0-0.0-0.22","891","","f","","","","","","","","","","","","","key","f","16.65269642857103","640","356","f","true","img/H_ambi40.png","生人","same",""
"","","","","","html-keyboard-response","383","1063918","0.0-10.0-0.0-0.0-0.0-1.22","null","<span style='color:GreenYellow; font-size: 70px;'>正确! </span>","null","","","","","","","","","","","","","","","","","","","","","","","feedback_test"
"","","","","","psychophysics","384","1065600","0.0-10.0-0.0-0.0-0.0-0.23","681","","f","","","","","","","","","","","","","key","f","16.53457575757527","640","356","f","true","img/T_ambi40.png","をる","same",""
"","","","","","html-keyboard-response","385","1066114","0.0-10.0-0.0-0.0-0.0-1.23","null","<span style='color:GreenYellow; font-size: 70px;'>正确! </span>","null","","","","","","","","","","","","","","","","","","","","","","","feedback_test"
"","","","","","psychophysics","386","1068618","0.0-10.0-0.0-0.0-0.0-0.24","null","","null","","","","","","","","","","","","","key","null","16.653046666667798","640","356","f","false","img/C_ambi40.png","朋友","same",""
"","","","","","html-keyboard-response","387","1069122","0.0-10.0-0.0-0.0-0.0-1.24","null","<span class='add_' style='color:yellow; font-size: 70px;'> 太慢! </span>","null","","","","","","","","","","","","","","","","","","","","","","","feedback_test"
"","","","","","psychophysics","388","1071333","0.0-10.0-0.0-0.0-0.0-0.25","1210","","j","","","","","","","","","","","","","key","j","16.65383333333408","640","356","j","true","img/C_ambi40.png","自我","same",""
"","","","","","html-keyboard-response","389","1071844","0.0-10.0-0.0-0.0-0.0-1.25","null","<span style='color:GreenYellow; font-size: 70px;'>正确! </span>","null","","","","","","","","","","","","","","","","","","","","","","","feedback_test"
"","","","","","psychophysics","390","1073417","0.0-10.0-0.0-0.0-0.0-0.26","571","","f","","","","","","","","","","","","","key","f","16.655351063831056","640","356","f","true","img/T_ambi40.png","をる","same",""
"","","","","","html-keyboard-response","391","1073928","0.0-10.0-0.0-0.0-0.0-1.26","null","<span style='color:GreenYellow; font-size: 70px;'>正确! </span>","null","","","","","","","","","","","","","","","","","","","","","","","feedback_test"
"","","","","","psychophysics","392","1075635","0.0-10.0-0.0-0.0-0.0-0.27","706","","j","","","","","","","","","","","","","key","j","16.652792079208215","640","356","f","false","img/C_ambi40.png","朋友","same",""
"","","","","","html-keyboard-response","393","1076150","0.0-10.0-0.0-0.0-0.0-1.27","null","<span style='color:red; font-size: 70px;'>错误! </span>","null","","","","","","","","","","","","","","","","","","","","","","","feedback_test"
"","","","","","psychophysics","394","1077770","0.0-10.0-0.0-0.0-0.0-0.28","618","","f","","","","","","","","","","","","","key","f","16.653364583333314","640","356","f","true","img/H_ambi40.png","生人","same",""
"","","","","","html-keyboard-response","395","1078284","0.0-10.0-0.0-0.0-0.0-1.28","null","<span style='color:GreenYellow; font-size: 70px;'>正确! </span>","null","","","","","","","","","","","","","","","","","","","","","","","feedback_test"
"","","","","","psychophysics","396","1079903","0.0-10.0-0.0-0.0-0.0-0.29","618","","j","","","","","","","","","","","","","key","j","16.65564583333374","640","356","j","true","img/C_ambi40.png","生人","same",""
"","","","","","html-keyboard-response","397","1080406","0.0-10.0-0.0-0.0-0.0-1.29","null","<span style='color:GreenYellow; font-size: 70px;'>正确! </span>","null","","","","","","","","","","","","","","","","","","","","","","","feedback_test"
"","","","","","psychophysics","398","1082450","0.0-10.0-0.0-0.0-0.0-0.30","1041","","j","","","","","","","","","","","","","key","j","16.65336363636388","640","356","j","true","img/H_ambi40.png","朋友","same",""
"","","","","","html-keyboard-response","399","1082959","0.0-10.0-0.0-0.0-0.0-1.30","null","<span style='color:GreenYellow; font-size: 70px;'>正确! </span>","null","","","","","","","","","","","","","","","","","","","","","","","feedback_test"
"","","","","","psychophysics","400","1084545","0.0-10.0-0.0-0.0-0.0-0.31","585","","j","","","","","","","","","","","","","key","j","16.65163829787436","640","356","j","true","img/H_ambi40.png","朋友","same",""
"","","","","","html-keyboard-response","401","1085061","0.0-10.0-0.0-0.0-0.0-1.31","null","<span style='color:GreenYellow; font-size: 70px;'>正确! </span>","null","","","","","","","","","","","","","","","","","","","","","","","feedback_test"
"","","","","","psychophysics","402","1086706","0.0-10.0-0.0-0.0-0.0-0.32","642","","f","","","","","","","","","","","","","key","f","16.65240816326517","640","356","f","true","img/T_ambi40.png","をる","same",""
"","","","","","html-keyboard-response","403","1087218","0.0-10.0-0.0-0.0-0.0-1.32","null","<span style='color:GreenYellow; font-size: 70px;'>正确! </span>","null","","","","","","","","","","","","","","","","","","","","","","","feedback_test"
"","","","","","psychophysics","404","1089225","0.0-10.0-0.0-0.0-0.0-0.33","1005","","f","","","","","","","","","","","","","key","f","16.654571428572165","640","356","f","true","img/S_ambi40.png","自我","same",""
"","","","","","html-keyboard-response","405","1089727","0.0-10.0-0.0-0.0-0.0-1.33","null","<span style='color:GreenYellow; font-size: 70px;'>正确! </span>","null","","","","","","","","","","","","","","","","","","","","","","","feedback_test"
"","","","","","psychophysics","406","1091556","0.0-10.0-0.0-0.0-0.0-0.34","826","","j","","","","","","","","","","","","","key","j","16.653403669726018","640","356","j","true","img/S_ambi40.png","生人","same",""
"","","","","","html-keyboard-response","407","1092071","0.0-10.0-0.0-0.0-0.0-1.34","null","<span style='color:GreenYellow; font-size: 70px;'>正确! </span>","null","","","","","","","","","","","","","","","","","","","","","","","feedback_test"
"","","","","","psychophysics","408","1094090","0.0-10.0-0.0-0.0-0.0-0.35","1017","","j","","","","","","","","","","","","","key","j","16.653383333332993","640","356","j","true","img/C_ambi40.png","自我","same",""
"","","","","","html-keyboard-response","409","1094604","0.0-10.0-0.0-0.0-0.0-1.35","null","<span style='color:GreenYellow; font-size: 70px;'>正确! </span>","null","","","","","","","","","","","","","","","","","","","","","","","feedback_test"
"","","","","","psychophysics","410","1096241","0.0-10.0-0.0-0.0-0.0-0.36","633","","j","","","","","","","","","","","","","key","j","16.655865979380906","640","356","f","false","img/C_ambi40.png","朋友","same",""
"","","","","","html-keyboard-response","411","1096755","0.0-10.0-0.0-0.0-0.0-1.36","null","<span style='color:red; font-size: 70px;'>错误! </span>","null","","","","","","","","","","","","","","","","","","","","","","","feedback_test"
"","","","","","psychophysics","412","1098560","0.0-10.0-0.0-0.0-0.0-0.37","803","","f","","","","","","","","","","","","","key","f","16.653749999999828","640","356","f","true","img/H_ambi40.png","生人","same",""
"","","","","","html-keyboard-response","413","1099063","0.0-10.0-0.0-0.0-0.0-1.37","null","<span style='color:GreenYellow; font-size: 70px;'>正确! </span>","null","","","","","","","","","","","","","","","","","","","","","","","feedback_test"
"","","","","","psychophysics","414","1101072","0.0-10.0-0.0-0.0-0.0-0.38","1007","","j","","","","","","","","","","","","","key","j","16.65241176470676","640","356","j","true","img/H_ambi40.png","自我","same",""
"","","","","","html-keyboard-response","415","1101576","0.0-10.0-0.0-0.0-0.0-1.38","null","<span style='color:GreenYellow; font-size: 70px;'>正确! </span>","null","","","","","","","","","","","","","","","","","","","","","","","feedback_test"
"","","","","","psychophysics","416","1103243","0.0-10.0-0.0-0.0-0.0-0.39","666","","f","","","","","","","","","","","","","key","f","16.652959595958823","640","356","j","false","img/S_ambi40.png","朋友","same",""
"","","","","","html-keyboard-response","417","1103751","0.0-10.0-0.0-0.0-0.0-1.39","null","<span style='color:red; font-size: 70px;'>错误! </span>","null","","","","","","","","","","","","","","","","","","","","","","","feedback_test"
"","","","","","psychophysics","418","1105366","0.0-10.0-0.0-0.0-0.0-0.40","613","","j","","","","","","","","","","","","","key","j","16.654010416668218","640","356","j","true","img/H_ambi40.png","朋友","same",""
"","","","","","html-keyboard-response","419","1105880","0.0-10.0-0.0-0.0-0.0-1.40","null","<span style='color:GreenYellow; font-size: 70px;'>正确! </span>","null","","","","","","","","","","","","","","","","","","","","","","","feedback_test"
"","","","","","psychophysics","420","1107573","0.0-10.0-0.0-0.0-0.0-0.41","692","","f","","","","","","","","","","","","","key","f","16.65334653465243","640","356","f","true","img/C_ambi40.png","朋友","same",""
"","","","","","html-keyboard-response","421","1108084","0.0-10.0-0.0-0.0-0.0-1.41","null","<span style='color:GreenYellow; font-size: 70px;'>正确! </span>","null","","","","","","","","","","","","","","","","","","","","","","","feedback_test"
"","","","","","psychophysics","422","1109815","0.0-10.0-0.0-0.0-0.0-0.42","728","","j","","","","","","","","","","","","","key","j","16.652441176471722","640","356","j","true","img/S_ambi40.png","生人","same",""
"","","","","","html-keyboard-response","423","1110325","0.0-10.0-0.0-0.0-0.0-1.42","null","<span style='color:GreenYellow; font-size: 70px;'>正确! </span>","null","","","","","","","","","","","","","","","","","","","","","","","feedback_test"
"","","","","","psychophysics","424","1112278","0.0-10.0-0.0-0.0-0.0-0.43","950","","j","","","","","","","","","","","","","key","j","16.655129310345792","640","356","j","true","img/C_ambi40.png","自我","same",""
"","","","","","html-keyboard-response","425","1112783","0.0-10.0-0.0-0.0-0.0-1.43","null","<span style='color:GreenYellow; font-size: 70px;'>正确! </span>","null","","","","","","","","","","","","","","","","","","","","","","","feedback_test"
"","","","","","psychophysics","426","1114440","0.0-10.0-0.0-0.0-0.0-0.44","655","","j","","","","","","","","","","","","","key","j","16.654193877551364","640","356","j","true","img/H_ambi40.png","朋友","same",""
"","","","","","html-keyboard-response","427","1114943","0.0-10.0-0.0-0.0-0.0-1.44","null","<span style='color:GreenYellow; font-size: 70px;'>正确! </span>","null","","","","","","","","","","","","","","","","","","","","","","","feedback_test"
"","","","","","psychophysics","428","1116600","0.0-10.0-0.0-0.0-0.0-0.45","656","","j","","","","","","","","","","","","","key","j","16.651846938776043","640","356","j","true","img/C_ambi40.png","生人","same",""
"","","","","","html-keyboard-response","429","1117108","0.0-10.0-0.0-0.0-0.0-1.45","null","<span style='color:GreenYellow; font-size: 70px;'>正确! </span>","null","","","","","","","","","","","","","","","","","","","","","","","feedback_test"
"","","","","","psychophysics","430","1119215","0.0-10.0-0.0-0.0-0.0-0.46","1105","","j","","","","","","","","","","","","","key","j","16.545904000001027","640","356","j","true","img/S_ambi40.png","生人","same",""
"","","","","","html-keyboard-response","431","1119722","0.0-10.0-0.0-0.0-0.0-1.46","null","<span style='color:GreenYellow; font-size: 70px;'>正确! </span>","null","","","","","","","","","","","","","","","","","","","","","","","feedback_test"
"","","","","","psychophysics","432","1121700","0.0-10.0-0.0-0.0-0.0-0.47","975","","j","","","","","","","","","","","","","key","j","16.53408547008458","640","356","j","true","img/C_ambi40.png","自我","same",""
"","","","","","html-keyboard-response","433","1122211","0.0-10.0-0.0-0.0-0.0-1.47","null","<span style='color:GreenYellow; font-size: 70px;'>正确! </span>","null","","","","","","","","","","","","","","","","","","","","","","","feedback_test"
"","","","","","psychophysics","434","1123902","0.0-10.0-0.0-0.0-0.0-0.48","690","","f","","","","","","","","","","","","","key","f","16.65222000000067","640","356","f","true","img/S_ambi40.png","自我","same",""
"","","","","","html-keyboard-response","435","1124408","0.0-10.0-0.0-0.0-0.0-1.48","null","<span style='color:GreenYellow; font-size: 70px;'>正确! </span>","null","","","","","","","","","","","","","","","","","","","","","","","feedback_test"
"","","","","","psychophysics","436","1126127","0.0-10.0-0.0-0.0-0.0-0.49","717","","f","","","","","","","","","","","","","key","f","16.652637254903276","640","356","f","true","img/S_ambi40.png","自我","same",""
"","","","","","html-keyboard-response","437","1126632","0.0-10.0-0.0-0.0-0.0-1.49","null","<span style='color:GreenYellow; font-size: 70px;'>正确! </span>","null","","","","","","","","","","","","","","","","","","","","","","","feedback_test"
"","","","","","psychophysics","438","1128252","0.0-10.0-0.0-0.0-0.0-0.50","618","","f","","","","","","","","","","","","","key","f","16.656546391753153","640","356","f","true","img/T_ambi40.png","をる","same",""
"","","","","","html-keyboard-response","439","1128765","0.0-10.0-0.0-0.0-0.0-1.50","null","<span style='color:GreenYellow; font-size: 70px;'>正确! </span>","null","","","","","","","","","","","","","","","","","","","","","","","feedback_test"
"","","","","","psychophysics","440","1130394","0.0-10.0-0.0-0.0-0.0-0.51","628","","f","","","","","","","","","","","","","key","f","16.51232291666626","640","356","f","true","img/T_ambi40.png","をる","same",""
"","","","","","html-keyboard-response","441","1130909","0.0-10.0-0.0-0.0-0.0-1.51","null","<span style='color:GreenYellow; font-size: 70px;'>正确! </span>","null","","","","","","","","","","","","","","","","","","","","","","","feedback_test"
"","","","","","psychophysics","442","1132642","0.0-10.0-0.0-0.0-0.0-0.52","728","","f","","","","","","","","","","","","","key","f","16.654252427184808","640","356","f","true","img/H_ambi40.png","生人","same",""
"","","","","","html-keyboard-response","443","1133154","0.0-10.0-0.0-0.0-0.0-1.52","null","<span style='color:GreenYellow; font-size: 70px;'>正确! </span>","null","","","","","","","","","","","","","","","","","","","","","","","feedback_test"
"","","","","","psychophysics","444","1134765","0.0-10.0-0.0-0.0-0.0-0.53","609","","f","","","","","","","","","","","","","key","f","16.653999999999844","640","356","f","true","img/T_ambi40.png","をる","same",""
"","","","","","html-keyboard-response","445","1135273","0.0-10.0-0.0-0.0-0.0-1.53","null","<span style='color:GreenYellow; font-size: 70px;'>正确! </span>","null","","","","","","","","","","","","","","","","","","","","","","","feedback_test"
"","","","","","psychophysics","446","1137087","0.0-10.0-0.0-0.0-0.0-0.54","812","","f","","","","","","","","","","","","","key","f","16.652675925926477","640","356","j","false","img/H_ambi40.png","朋友","same",""
"","","","","","html-keyboard-response","447","1137602","0.0-10.0-0.0-0.0-0.0-1.54","null","<span style='color:red; font-size: 70px;'>错误! </span>","null","","","","","","","","","","","","","","","","","","","","","","","feedback_test"
"","","","","","psychophysics","448","1139186","0.0-10.0-0.0-0.0-0.0-0.55","582","","f","","","","","","","","","","","","","key","f","16.65362765957314","640","356","f","true","img/T_ambi40.png","をる","same",""
"","","","","","html-keyboard-response","449","1139698","0.0-10.0-0.0-0.0-0.0-1.55","null","<span style='color:GreenYellow; font-size: 70px;'>正确! </span>","null","","","","","","","","","","","","","","","","","","","","","","","feedback_test"
"","","","","","psychophysics","450","1141403","0.0-10.0-0.0-0.0-0.0-0.56","703","","j","","","","","","","","","","","","","key","j","16.653574257427458","640","356","j","true","img/H_ambi40.png","朋友","same",""
"","","","","","html-keyboard-response","451","1141905","0.0-10.0-0.0-0.0-0.0-1.56","null","<span style='color:GreenYellow; font-size: 70px;'>正确! </span>","null","","","","","","","","","","","","","","","","","","","","","","","feedback_test"
