"success","timeout","failed_images","failed_audio","failed_video","trial_type","trial_index","time_elapsed","internal_node_id","rt","stimulus","response","value","item_width_mm","item_height_mm","item_width_px","px2mm","view_dist_mm","item_width_deg","px2deg","scale_factor","win_width_deg","win_height_deg","view_history","response_type","key_press","avg_frame_time","center_x","center_y","correct_response","correct","Image","word","condition","screen_id"
"true","false","[]","[]","[]","preload","0","30436","0.0-0.0","","","","","","","","","","","","","","","","","","","","","","","","","",""
"","","","","","html-keyboard-response","1","97565","0.0-1.0","67129","
     <p>您好，欢迎参加本次实验。</p>
     <p>为充分保障您的权利，请确保您已经知晓并同意《参与实验同意书》以及《数据公开知情同意书》。</p>
     <p>如果您未见过上述内容，请咨询实验员。</p>
     <p>如果您选择继续实验，则表示您已经清楚两份知情同意书的内容并同意。</p>
     <p> <div style = ""color: green""><按任意键至下页></div> </p>
     ","k","","","","","","","","","","","","","","","","","","","","","","",""
"","","","","","html-keyboard-response","2","99861","0.0-2.0","2295","
     <p>本实验首先需要您填写一些基本个人信息。</p>
     <p> <div style = ""color: green""><按任意键至下页></div></p>
     "," ","","","","","","","","","","","","","","","","","","","","","","",""
"","","","","","call-function","3","99862","0.0-3.0-0.0","","","","","","","","","","","","","","","","","","","","","","","","","",""
"","","","","","survey-html-form","4","104663","0.0-3.0-1.0","4799","","{""Q0"":""7""}","","","","","","","","","","","","","","","","","","","","","","",""
"","","","","","html-button-response","5","105748","0.0-3.0-2.0","1084","<p style = 'color : white'>您的性别</p>","0","","","","","","","","","","","","","","","","","","","","","","",""
"","","","","","survey-html-form","6","109980","0.0-3.0-3.0","4231","","{""Q0"":""2004""}","","","","","","","","","","","","","","","","","","","","","","",""
"","","","","","survey-html-form","7","114572","0.0-3.0-4.0","4591","","{""Q0"":""5""}","","","","","","","","","","","","","","","","","","","","","","",""
"","","","","","virtual-chinrest","8","204219","0.0-4.0","89646","","","","85.6","53.98","449.223056112906","5.244982709210146","544.77","8.98446112225812","50","0.8236442786387296","29.58","14.44","","","","","","","","","","","",""
"true","","","","","fullscreen","9","207046","0.0-5.0","","","","","","","","","","","","","","","","","","","","","","","","","",""
"","","","","","instructions","10","272761","0.0-6.0","65714","","","","","","","","","","","","","","[{""page_index"":0,""viewing_time"":6269},{""page_index"":1,""viewing_time"":39343},{""page_index"":2,""viewing_time"":3234},{""page_index"":3,""viewing_time"":5628},{""page_index"":2,""viewing_time"":1418},{""page_index"":3,""viewing_time"":4466},{""page_index"":2,""viewing_time"":624},{""page_index"":1,""viewing_time"":2093},{""page_index"":2,""viewing_time"":2058},{""page_index"":3,""viewing_time"":582}]","","","","","","","","","","",""
"","","","","","psychophysics","11","275273","0.0-7.0-0.0","null","","null","","","","","","","","","","","","","key","null","8.330806666666758","768","428","f","false","img/S_ambi40.png","朋友","prac",""
"","","","","","html-keyboard-response","12","275774","0.0-7.0-1.0","null","<span class='add_' style='color:yellow; font-size: 70px;'> 太慢! </span>","null","","","","","","","","","","","","","","","","","","","","","","","feedback_test"
"","","","","","psychophysics","13","278276","0.0-7.0-0.1","null","","null","","","","","","","","","","","","","key","null","8.33088963210698","768","428","j","false","img/H_ambi40.png","朋友","prac",""
"","","","","","html-keyboard-response","14","278777","0.0-7.0-1.1","null","<span class='add_' style='color:yellow; font-size: 70px;'> 太慢! </span>","null","","","","","","","","","","","","","","","","","","","","","","","feedback_test"
"","","","","","psychophysics","15","280457","0.0-7.0-0.2","679","","f","","","","","","","","","","","","","key","f","8.330830845771015","768","428","j","false","img/C_ambi40.png","自我","prac",""
"","","","","","html-keyboard-response","16","280958","0.0-7.0-1.2","null","<span style='color:red; font-size: 70px;'>错误! </span>","null","","","","","","","","","","","","","","","","","","","","","","","feedback_test"
"","","","","","psychophysics","17","282713","0.0-7.0-0.3","753","","f","","","","","","","","","","","","","key","f","8.3308333333335","768","428","j","false","img/C_ambi40.png","自我","prac",""
"","","","","","html-keyboard-response","18","283213","0.0-7.0-1.3","null","<span style='color:red; font-size: 70px;'>错误! </span>","null","","","","","","","","","","","","","","","","","","","","","","","feedback_test"
"","","","","","psychophysics","19","285019","0.0-7.0-0.4","804","","f","","","","","","","","","","","","","key","f","8.330781395348914","768","428","f","true","img/T_ambi40.png","をる","prac",""
"","","","","","html-keyboard-response","20","285520","0.0-7.0-1.4","null","<span style='color:GreenYellow; font-size: 70px;'>正确! </span>","null","","","","","","","","","","","","","","","","","","","","","","","feedback_test"
"","","","","","psychophysics","21","287192","0.0-7.0-0.5","671","","j","","","","","","","","","","","","","key","j","8.330914572864389","768","428","f","false","img/C_ambi40.png","生人","prac",""
"","","","","","html-keyboard-response","22","287693","0.0-7.0-1.5","null","<span style='color:red; font-size: 70px;'>错误! </span>","null","","","","","","","","","","","","","","","","","","","","","","","feedback_test"
"","","","","","psychophysics","23","289691","0.0-7.0-0.6","998","","j","","","","","","","","","","","","","key","j","8.330806722689152","768","428","f","false","img/H_ambi40.png","生人","prac",""
"","","","","","html-keyboard-response","24","290193","0.0-7.0-1.6","null","<span style='color:red; font-size: 70px;'>错误! </span>","null","","","","","","","","","","","","","","","","","","","","","","","feedback_test"
"","","","","","psychophysics","25","292117","0.0-7.0-0.7","923","","f","","","","","","","","","","","","","key","f","8.330895652173785","768","428","f","true","img/H_ambi40.png","自我","prac",""
"","","","","","html-keyboard-response","26","292619","0.0-7.0-1.7","null","<span style='color:GreenYellow; font-size: 70px;'>正确! </span>","null","","","","","","","","","","","","","","","","","","","","","","","feedback_test"
"","","","","","psychophysics","27","294587","0.0-7.0-0.8","967","","f","","","","","","","","","","","","","key","f","8.330757446808523","768","428","j","false","img/S_ambi40.png","生人","prac",""
"","","","","","html-keyboard-response","28","295088","0.0-7.0-1.8","null","<span style='color:red; font-size: 70px;'>错误! </span>","null","","","","","","","","","","","","","","","","","","","","","","","feedback_test"
"","","","","","psychophysics","29","296785","0.0-7.0-0.9","695","","f","","","","","","","","","","","","","key","f","8.330536945812746","768","428","f","true","img/T_ambi40.png","をる","prac",""
"","","","","","html-keyboard-response","30","297286","0.0-7.0-1.9","null","<span style='color:GreenYellow; font-size: 70px;'>正确! </span>","null","","","","","","","","","","","","","","","","","","","","","","","feedback_test"
"","","","","","psychophysics","31","298794","0.0-7.0-0.10","507","","j","","","","","","","","","","","","","key","j","8.330816666666458","768","428","f","false","img/C_ambi40.png","朋友","prac",""
"","","","","","html-keyboard-response","32","299295","0.0-7.0-1.10","null","<span style='color:red; font-size: 70px;'>错误! </span>","null","","","","","","","","","","","","","","","","","","","","","","","feedback_test"
"","","","","","psychophysics","33","300703","0.0-7.0-0.11","407","","f","","","","","","","","","","","","","key","f","8.330857142856985","768","428","j","false","img/H_ambi40.png","朋友","prac",""
"","","","","","html-keyboard-response","34","301204","0.0-7.0-1.11","null","<span style='color:red; font-size: 70px;'>错误! </span>","null","","","","","","","","","","","","","","","","","","","","","","","feedback_test"
"","","","","","psychophysics","35","302943","0.0-7.0-0.12","738","","f","","","","","","","","","","","","","key","f","8.326845410628051","768","428","f","true","img/S_ambi40.png","自我","prac",""
"","","","","","html-keyboard-response","36","303446","0.0-7.0-1.12","null","<span style='color:GreenYellow; font-size: 70px;'>正确! </span>","null","","","","","","","","","","","","","","","","","","","","","","","feedback_test"
"","","","","","psychophysics","37","304948","0.0-7.0-0.13","502","","f","","","","","","","","","","","","","key","f","8.324027932960835","768","428","j","false","img/S_ambi40.png","生人","prac",""
"","","","","","html-keyboard-response","38","305449","0.0-7.0-1.13","null","<span style='color:red; font-size: 70px;'>错误! </span>","null","","","","","","","","","","","","","","","","","","","","","","","feedback_test"
"","","","","","psychophysics","39","307140","0.0-7.0-0.14","690","","j","","","","","","","","","","","","","key","j","8.33066831683189","768","428","f","false","img/T_ambi40.png","をる","prac",""
"","","","","","html-keyboard-response","40","307641","0.0-7.0-1.14","null","<span style='color:red; font-size: 70px;'>错误! </span>","null","","","","","","","","","","","","","","","","","","","","","","","feedback_test"
"","","","","","psychophysics","41","310143","0.0-7.0-0.15","null","","null","","","","","","","","","","","","","key","null","8.330852842809326","768","428","f","false","img/T_ambi40.png","をる","prac",""
"","","","","","html-keyboard-response","42","310644","0.0-7.0-1.15","null","<span class='add_' style='color:yellow; font-size: 70px;'> 太慢! </span>","null","","","","","","","","","","","","","","","","","","","","","","","feedback_test"
"","","","","","psychophysics","43","312089","0.0-7.0-0.16","443","","f","","","","","","","","","","","","","key","f","8.330773255813847","768","428","f","true","img/C_ambi40.png","生人","prac",""
"","","","","","html-keyboard-response","44","312592","0.0-7.0-1.16","null","<span style='color:GreenYellow; font-size: 70px;'>正确! </span>","null","","","","","","","","","","","","","","","","","","","","","","","feedback_test"
"","","","","","psychophysics","45","314110","0.0-7.0-0.17","517","","f","","","","","","","","","","","","","key","f","8.331021978021894","768","428","f","true","img/T_ambi40.png","をる","prac",""
"","","","","","html-keyboard-response","46","314611","0.0-7.0-1.17","null","<span style='color:GreenYellow; font-size: 70px;'>正确! </span>","null","","","","","","","","","","","","","","","","","","","","","","","feedback_test"
"","","","","","psychophysics","47","315987","0.0-7.0-0.18","375","","f","","","","","","","","","","","","","key","f","8.330823170731735","768","428","f","true","img/H_ambi40.png","生人","prac",""
"","","","","","html-keyboard-response","48","316488","0.0-7.0-1.18","null","<span style='color:GreenYellow; font-size: 70px;'>正确! </span>","null","","","","","","","","","","","","","","","","","","","","","","","feedback_test"
"","","","","","psychophysics","49","317777","0.0-7.0-0.19","289","","f","","","","","","","","","","","","","key","f","8.330870129869927","768","428","j","false","img/H_ambi40.png","朋友","prac",""
"","","","","","html-keyboard-response","50","318278","0.0-7.0-1.19","null","<span style='color:red; font-size: 70px;'>错误! </span>","null","","","","","","","","","","","","","","","","","","","","","","","feedback_test"
"","","","","","psychophysics","51","319722","0.0-7.0-0.20","443","","f","","","","","","","","","","","","","key","f","8.330953488372087","768","428","f","true","img/T_ambi40.png","をる","prac",""
"","","","","","html-keyboard-response","52","320222","0.0-7.0-1.20","null","<span style='color:GreenYellow; font-size: 70px;'>正确! </span>","null","","","","","","","","","","","","","","","","","","","","","","","feedback_test"
"","","","","","psychophysics","53","321615","0.0-7.0-0.21","391","","j","","","","","","","","","","","","","key","j","8.330728915662727","768","428","j","true","img/S_ambi40.png","生人","prac",""
"","","","","","html-keyboard-response","54","322116","0.0-7.0-1.21","null","<span style='color:GreenYellow; font-size: 70px;'>正确! </span>","null","","","","","","","","","","","","","","","","","","","","","","","feedback_test"
"","","","","","psychophysics","55","323466","0.0-7.0-0.22","348","","j","","","","","","","","","","","","","key","j","8.330875776397564","768","428","j","true","img/C_ambi40.png","自我","prac",""
"","","","","","html-keyboard-response","56","323967","0.0-7.0-1.22","null","<span style='color:GreenYellow; font-size: 70px;'>正确! </span>","null","","","","","","","","","","","","","","","","","","","","","","","feedback_test"
"","","","","","psychophysics","57","325500","0.0-7.0-0.23","531","","f","","","","","","","","","","","","","key","f","8.330939890710571","768","428","f","true","img/C_ambi40.png","朋友","prac",""
"","","","","","html-keyboard-response","58","326001","0.0-7.0-1.23","null","<span style='color:GreenYellow; font-size: 70px;'>正确! </span>","null","","","","","","","","","","","","","","","","","","","","","","","feedback_test"
"","","","","","psychophysics","59","327298","0.0-7.0-0.24","296","","j","","","","","","","","","","","","","key","j","8.330896774193482","768","428","j","true","img/C_ambi40.png","自我","prac",""
"","","","","","html-keyboard-response","60","327800","0.0-7.0-1.24","null","<span style='color:GreenYellow; font-size: 70px;'>正确! </span>","null","","","","","","","","","","","","","","","","","","","","","","","feedback_test"
"","","","","","psychophysics","61","329165","0.0-7.0-0.25","364","","f","","","","","","","","","","","","","key","f","8.33089570552175","768","428","f","true","img/T_ambi40.png","をる","prac",""
"","","","","","html-keyboard-response","62","329666","0.0-7.0-1.25","null","<span style='color:GreenYellow; font-size: 70px;'>正确! </span>","null","","","","","","","","","","","","","","","","","","","","","","","feedback_test"
"","","","","","psychophysics","63","331008","0.0-7.0-0.26","341","","j","","","","","","","","","","","","","key","j","8.330806250000023","768","428","f","false","img/T_ambi40.png","をる","prac",""
"","","","","","html-keyboard-response","64","331509","0.0-7.0-1.26","null","<span style='color:red; font-size: 70px;'>错误! </span>","null","","","","","","","","","","","","","","","","","","","","","","","feedback_test"
"","","","","","psychophysics","65","332814","0.0-7.0-0.27","303","","f","","","","","","","","","","","","","key","f","8.330743589743715","768","428","f","true","img/S_ambi40.png","自我","prac",""
"","","","","","html-keyboard-response","66","333314","0.0-7.0-1.27","null","<span style='color:GreenYellow; font-size: 70px;'>正确! </span>","null","","","","","","","","","","","","","","","","","","","","","","","feedback_test"
"","","","","","psychophysics","67","334606","0.0-7.0-0.28","291","","f","","","","","","","","","","","","","key","f","8.33084415584423","768","428","j","false","img/S_ambi40.png","生人","prac",""
"","","","","","html-keyboard-response","68","335108","0.0-7.0-1.28","null","<span style='color:red; font-size: 70px;'>错误! </span>","null","","","","","","","","","","","","","","","","","","","","","","","feedback_test"
"","","","","","psychophysics","69","336482","0.0-7.0-0.29","374","","f","","","","","","","","","","","","","key","f","8.33090243902428","768","428","f","true","img/S_ambi40.png","朋友","prac",""
"","","","","","html-keyboard-response","70","336983","0.0-7.0-1.29","null","<span style='color:GreenYellow; font-size: 70px;'>正确! </span>","null","","","","","","","","","","","","","","","","","","","","","","","feedback_test"
"","","","","","psychophysics","71","338354","0.0-7.0-0.30","371","","j","","","","","","","","","","","","","key","j","8.330768292682833","768","428","j","true","img/H_ambi40.png","朋友","prac",""
"","","","","","html-keyboard-response","72","338856","0.0-7.0-1.30","null","<span style='color:GreenYellow; font-size: 70px;'>正确! </span>","null","","","","","","","","","","","","","","","","","","","","","","","feedback_test"
"","","","","","psychophysics","73","340457","0.0-7.0-0.31","598","","f","","","","","","","","","","","","","key","f","8.330801047120518","768","428","f","true","img/H_ambi40.png","自我","prac",""
"","","","","","html-keyboard-response","74","340957","0.0-7.0-1.31","null","<span style='color:GreenYellow; font-size: 70px;'>正确! </span>","null","","","","","","","","","","","","","","","","","","","","","","","feedback_test"
"","","","","","psychophysics","75","342350","0.0-8.0-0.0-0.0","391","","j","","","","","","","","","","","","","key","j","8.330867469879513","768","428","f","false","img/S_ambi40.png","自我","prac",""
"","","","","","html-keyboard-response","76","342851","0.0-8.0-0.0-1.0","null","<span style='color:red; font-size: 70px;'>错误! </span>","null","","","","","","","","","","","","","","","","","","","","","","","feedback_test"
"","","","","","psychophysics","77","344504","0.0-8.0-0.0-0.1","652","","f","","","","","","","","","","","","","key","f","8.330954314720685","768","428","j","false","img/C_ambi40.png","自我","prac",""
"","","","","","html-keyboard-response","78","345004","0.0-8.0-0.0-1.1","null","<span style='color:red; font-size: 70px;'>错误! </span>","null","","","","","","","","","","","","","","","","","","","","","","","feedback_test"
"","","","","","psychophysics","79","346511","0.0-8.0-0.0-0.2","505","","f","","","","","","","","","","","","","key","f","8.330916666666356","768","428","f","true","img/T_ambi40.png","をる","prac",""
"","","","","","html-keyboard-response","80","347013","0.0-8.0-0.0-1.2","null","<span style='color:GreenYellow; font-size: 70px;'>正确! </span>","null","","","","","","","","","","","","","","","","","","","","","","","feedback_test"
"","","","","","psychophysics","81","348432","0.0-8.0-0.0-0.3","418","","f","","","","","","","","","","","","","key","f","8.330650887573992","768","428","j","false","img/H_ambi40.png","朋友","prac",""
"","","","","","html-keyboard-response","82","348933","0.0-8.0-0.0-1.3","null","<span style='color:red; font-size: 70px;'>错误! </span>","null","","","","","","","","","","","","","","","","","","","","","","","feedback_test"
"","","","","","psychophysics","83","350537","0.0-8.0-0.0-0.4","603","","j","","","","","","","","","","","","","key","j","8.330832460732747","768","428","j","true","img/S_ambi40.png","生人","prac",""
"","","","","","html-keyboard-response","84","351038","0.0-8.0-0.0-1.4","null","<span style='color:GreenYellow; font-size: 70px;'>正确! </span>","null","","","","","","","","","","","","","","","","","","","","","","","feedback_test"
"","","","","","psychophysics","85","352566","0.0-8.0-0.0-0.5","527","","f","","","","","","","","","","","","","key","f","8.331060109289472","768","428","j","false","img/S_ambi40.png","生人","prac",""
"","","","","","html-keyboard-response","86","353067","0.0-8.0-0.0-1.5","null","<span style='color:red; font-size: 70px;'>错误! </span>","null","","","","","","","","","","","","","","","","","","","","","","","feedback_test"
"","","","","","psychophysics","87","354542","0.0-8.0-0.0-0.6","474","","f","","","","","","","","","","","","","key","f","8.330903409090917","768","428","f","true","img/T_ambi40.png","をる","prac",""
"","","","","","html-keyboard-response","88","355043","0.0-8.0-0.0-1.6","null","<span style='color:GreenYellow; font-size: 70px;'>正确! </span>","null","","","","","","","","","","","","","","","","","","","","","","","feedback_test"
"","","","","","psychophysics","89","356525","0.0-8.0-0.0-0.7","481","","j","","","","","","","","","","","","","key","j","8.330824858756962","768","428","j","true","img/C_ambi40.png","自我","prac",""
"","","","","","html-keyboard-response","90","357026","0.0-8.0-0.0-1.7","null","<span style='color:GreenYellow; font-size: 70px;'>正确! </span>","null","","","","","","","","","","","","","","","","","","","","","","","feedback_test"
"","","","","","psychophysics","91","358561","0.0-8.0-0.0-0.8","534","","f","","","","","","","","","","","","","key","f","8.330732240437344","768","428","f","true","img/T_ambi40.png","をる","prac",""
"","","","","","html-keyboard-response","92","359062","0.0-8.0-0.0-1.8","null","<span style='color:GreenYellow; font-size: 70px;'>正确! </span>","null","","","","","","","","","","","","","","","","","","","","","","","feedback_test"
"","","","","","psychophysics","93","360892","0.0-8.0-0.0-0.9","830","","f","","","","","","","","","","","","","key","f","8.327270642201974","768","428","f","true","img/C_ambi40.png","朋友","prac",""
"","","","","","html-keyboard-response","94","361393","0.0-8.0-0.0-1.9","null","<span style='color:GreenYellow; font-size: 70px;'>正确! </span>","null","","","","","","","","","","","","","","","","","","","","","","","feedback_test"
"","","","","","psychophysics","95","363140","0.0-8.0-0.0-0.10","745","","f","","","","","","","","","","","","","key","f","8.330827751196086","768","428","f","true","img/H_ambi40.png","自我","prac",""
"","","","","","html-keyboard-response","96","363641","0.0-8.0-0.0-1.10","null","<span style='color:GreenYellow; font-size: 70px;'>正确! </span>","null","","","","","","","","","","","","","","","","","","","","","","","feedback_test"
"","","","","","psychophysics","97","365039","0.0-8.0-0.0-0.11","397","","f","","","","","","","","","","","","","key","f","8.330419161676605","768","428","f","true","img/H_ambi40.png","生人","prac",""
"","","","","","html-keyboard-response","98","365540","0.0-8.0-0.0-1.11","null","<span style='color:GreenYellow; font-size: 70px;'>正确! </span>","null","","","","","","","","","","","","","","","","","","","","","","","feedback_test"
"","","","","","psychophysics","99","367170","0.0-8.0-0.0-0.12","628","","f","","","","","","","","","","","","","key","f","8.330964102564105","768","428","j","false","img/H_ambi40.png","朋友","prac",""
"","","","","","html-keyboard-response","100","367671","0.0-8.0-0.0-1.12","null","<span style='color:red; font-size: 70px;'>错误! </span>","null","","","","","","","","","","","","","","","","","","","","","","","feedback_test"
"","","","","","psychophysics","101","369298","0.0-8.0-0.0-0.13","626","","f","","","","","","","","","","","","","key","f","8.330963917525747","768","428","f","true","img/C_ambi40.png","生人","prac",""
"","","","","","html-keyboard-response","102","369799","0.0-8.0-0.0-1.13","null","<span style='color:GreenYellow; font-size: 70px;'>正确! </span>","null","","","","","","","","","","","","","","","","","","","","","","","feedback_test"
"","","","","","psychophysics","103","371292","0.0-8.0-0.0-0.14","491","","f","","","","","","","","","","","","","key","f","8.330865168539164","768","428","f","true","img/T_ambi40.png","をる","prac",""
"","","","","","html-keyboard-response","104","371792","0.0-8.0-0.0-1.14","null","<span style='color:GreenYellow; font-size: 70px;'>正确! </span>","null","","","","","","","","","","","","","","","","","","","","","","","feedback_test"
"","","","","","psychophysics","105","373313","0.0-8.0-0.0-0.15","521","","j","","","","","","","","","","","","","key","j","8.324331491712535","768","428","f","false","img/S_ambi40.png","朋友","prac",""
"","","","","","html-keyboard-response","106","373814","0.0-8.0-0.0-1.15","null","<span style='color:red; font-size: 70px;'>错误! </span>","null","","","","","","","","","","","","","","","","","","","","","","","feedback_test"
"","","","","","psychophysics","107","375706","0.0-8.0-0.0-0.16","890","","f","","","","","","","","","","","","","key","f","8.330862831858253","768","428","j","false","img/H_ambi40.png","朋友","prac",""
"","","","","","html-keyboard-response","108","376207","0.0-8.0-0.0-1.16","null","<span style='color:red; font-size: 70px;'>错误! </span>","null","","","","","","","","","","","","","","","","","","","","","","","feedback_test"
"","","","","","psychophysics","109","377815","0.0-8.0-0.0-0.17","607","","f","","","","","","","","","","","","","key","f","8.325895287958035","768","428","f","true","img/H_ambi40.png","自我","prac",""
"","","","","","html-keyboard-response","110","378315","0.0-8.0-0.0-1.17","null","<span style='color:GreenYellow; font-size: 70px;'>正确! </span>","null","","","","","","","","","","","","","","","","","","","","","","","feedback_test"
"","","","","","psychophysics","111","380150","0.0-8.0-0.0-0.18","834","","j","","","","","","","","","","","","","key","j","8.325538812785412","768","428","j","true","img/C_ambi40.png","自我","prac",""
"","","","","","html-keyboard-response","112","380651","0.0-8.0-0.0-1.18","null","<span style='color:GreenYellow; font-size: 70px;'>正确! </span>","null","","","","","","","","","","","","","","","","","","","","","","","feedback_test"
"","","","","","psychophysics","113","382133","0.0-8.0-0.0-0.19","480","","f","","","","","","","","","","","","","key","f","8.330870056497249","768","428","f","true","img/T_ambi40.png","をる","prac",""
"","","","","","html-keyboard-response","114","382634","0.0-8.0-0.0-1.19","null","<span style='color:GreenYellow; font-size: 70px;'>正确! </span>","null","","","","","","","","","","","","","","","","","","","","","","","feedback_test"
"","","","","","psychophysics","115","384066","0.0-8.0-0.0-0.20","431","","j","","","","","","","","","","","","","key","j","8.330824561403487","768","428","j","true","img/S_ambi40.png","生人","prac",""
"","","","","","html-keyboard-response","116","384567","0.0-8.0-0.0-1.20","null","<span style='color:GreenYellow; font-size: 70px;'>正确! </span>","null","","","","","","","","","","","","","","","","","","","","","","","feedback_test"
"","","","","","psychophysics","117","386137","0.0-8.0-0.0-0.21","569","","f","","","","","","","","","","","","","key","f","8.330935828877054","768","428","f","true","img/H_ambi40.png","生人","prac",""
"","","","","","html-keyboard-response","118","386637","0.0-8.0-0.0-1.21","null","<span style='color:GreenYellow; font-size: 70px;'>正确! </span>","null","","","","","","","","","","","","","","","","","","","","","","","feedback_test"
"","","","","","psychophysics","119","388187","0.0-8.0-0.0-0.22","549","","f","","","","","","","","","","","","","key","f","8.32584239130412","768","428","f","true","img/T_ambi40.png","をる","prac",""
"","","","","","html-keyboard-response","120","388688","0.0-8.0-0.0-1.22","null","<span style='color:GreenYellow; font-size: 70px;'>正确! </span>","null","","","","","","","","","","","","","","","","","","","","","","","feedback_test"
"","","","","","psychophysics","121","390282","0.0-8.0-0.0-0.23","593","","j","","","","","","","","","","","","","key","j","8.330768421052735","768","428","f","false","img/S_ambi40.png","自我","prac",""
"","","","","","html-keyboard-response","122","390782","0.0-8.0-0.0-1.23","null","<span style='color:red; font-size: 70px;'>错误! </span>","null","","","","","","","","","","","","","","","","","","","","","","","feedback_test"
"","","","","","psychophysics","123","392466","0.0-8.0-0.0-0.24","682","","f","","","","","","","","","","","","","key","f","8.330800995024775","768","428","j","false","img/C_ambi40.png","自我","prac",""
"","","","","","html-keyboard-response","124","392967","0.0-8.0-0.0-1.24","null","<span style='color:red; font-size: 70px;'>错误! </span>","null","","","","","","","","","","","","","","","","","","","","","","","feedback_test"
"","","","","","psychophysics","125","394831","0.0-8.0-0.0-0.25","863","","f","","","","","","","","","","","","","key","f","8.330901345291338","768","428","f","true","img/C_ambi40.png","朋友","prac",""
"","","","","","html-keyboard-response","126","395332","0.0-8.0-0.0-1.25","null","<span style='color:GreenYellow; font-size: 70px;'>正确! </span>","null","","","","","","","","","","","","","","","","","","","","","","","feedback_test"
"","","","","","psychophysics","127","396951","0.0-8.0-0.0-0.26","618","","f","","","","","","","","","","","","","key","f","8.330642487046699","768","428","j","false","img/S_ambi40.png","生人","prac",""
"","","","","","html-keyboard-response","128","397453","0.0-8.0-0.0-1.26","null","<span style='color:red; font-size: 70px;'>错误! </span>","null","","","","","","","","","","","","","","","","","","","","","","","feedback_test"
"","","","","","psychophysics","129","398833","0.0-8.0-0.0-0.27","379","","f","","","","","","","","","","","","","key","f","8.33079878048774","768","428","f","true","img/T_ambi40.png","をる","prac",""
"","","","","","html-keyboard-response","130","399334","0.0-8.0-0.0-1.27","null","<span style='color:GreenYellow; font-size: 70px;'>正确! </span>","null","","","","","","","","","","","","","","","","","","","","","","","feedback_test"
"","","","","","psychophysics","131","401087","0.0-8.0-0.0-0.28","753","","f","","","","","","","","","","","","","key","f","8.325961722488266","768","428","f","true","img/C_ambi40.png","生人","prac",""
"","","","","","html-keyboard-response","132","401588","0.0-8.0-0.0-1.28","null","<span style='color:GreenYellow; font-size: 70px;'>正确! </span>","null","","","","","","","","","","","","","","","","","","","","","","","feedback_test"
"","","","","","psychophysics","133","403321","0.0-8.0-0.0-0.29","732","","f","","","","","","","","","","","","","key","f","8.330618357488037","768","428","j","false","img/H_ambi40.png","朋友","prac",""
"","","","","","html-keyboard-response","134","403822","0.0-8.0-0.0-1.29","null","<span style='color:red; font-size: 70px;'>错误! </span>","null","","","","","","","","","","","","","","","","","","","","","","","feedback_test"
"","","","","","psychophysics","135","405582","0.0-8.0-0.0-0.30","759","","f","","","","","","","","","","","","","key","f","8.330880952380886","768","428","f","true","img/S_ambi40.png","朋友","prac",""
"","","","","","html-keyboard-response","136","406084","0.0-8.0-0.0-1.30","null","<span style='color:GreenYellow; font-size: 70px;'>正确! </span>","null","","","","","","","","","","","","","","","","","","","","","","","feedback_test"
"","","","","","psychophysics","137","407572","0.0-8.0-0.0-0.31","487","","f","","","","","","","","","","","","","key","f","8.330903954802299","768","428","f","true","img/T_ambi40.png","をる","prac",""
"","","","","","html-keyboard-response","138","408073","0.0-8.0-0.0-1.31","null","<span style='color:GreenYellow; font-size: 70px;'>正确! </span>","null","","","","","","","","","","","","","","","","","","","","","","","feedback_test"
"","","","","","html-keyboard-response","139","416729","0.0-8.0-1.0-0.0","8655","<style>.context{color:white; font-size: 35px; line-height:40px}</style>                          <div><p class='context'>您正确回答了66% 的试次。</p ><p class='context'>您的平均反应时为590毫秒。</p >","enter","","","","","","","","","","","","","","","","","","","","","","",""
"","","","","","instructions","140","428630","0.0-8.0-1.0-1.0","11899","","","","","","","","","","","","","","[{""page_index"":0,""viewing_time"":5204},{""page_index"":1,""viewing_time"":4468},{""page_index"":2,""viewing_time"":2226}]","","","","","","","","","","",""
"","","","","","psychophysics","141","431134","0.0-8.1-0.1-0.32","null","","null","","","","","","","","","","","","","key","null","8.330979933110331","768","428","j","false","img/H_ambi40.png","朋友","prac",""
"","","","","","html-keyboard-response","142","431634","0.0-8.1-0.1-1.32","null","<span class='add_' style='color:yellow; font-size: 70px;'> 太慢! </span>","null","","","","","","","","","","","","","","","","","","","","","","","feedback_test"
"","","","","","psychophysics","143","433441","0.0-8.1-0.1-0.33","805","","f","","","","","","","","","","","","","key","f","8.33093953488373","768","428","f","true","img/H_ambi40.png","生人","prac",""
"","","","","","html-keyboard-response","144","433942","0.0-8.1-0.1-1.33","null","<span style='color:GreenYellow; font-size: 70px;'>正确! </span>","null","","","","","","","","","","","","","","","","","","","","","","","feedback_test"
"","","","","","psychophysics","145","435752","0.0-8.1-0.1-0.34","809","","f","","","","","","","","","","","","","key","f","8.330791666666672","768","428","f","true","img/S_ambi40.png","自我","prac",""
"","","","","","html-keyboard-response","146","436253","0.0-8.1-0.1-1.34","null","<span style='color:GreenYellow; font-size: 70px;'>正确! </span>","null","","","","","","","","","","","","","","","","","","","","","","","feedback_test"
"","","","","","psychophysics","147","437807","0.0-8.1-0.1-0.35","553","","f","","","","","","","","","","","","","key","f","8.330929729729778","768","428","f","true","img/T_ambi40.png","をる","prac",""
"","","","","","html-keyboard-response","148","438308","0.0-8.1-0.1-1.35","null","<span style='color:GreenYellow; font-size: 70px;'>正确! </span>","null","","","","","","","","","","","","","","","","","","","","","","","feedback_test"
"","","","","","psychophysics","149","439953","0.0-8.1-0.1-0.36","642","","f","","","","","","","","","","","","","key","f","8.330775510204056","768","428","j","false","img/S_ambi40.png","生人","prac",""
"","","","","","html-keyboard-response","150","440453","0.0-8.1-0.1-1.36","null","<span style='color:red; font-size: 70px;'>错误! </span>","null","","","","","","","","","","","","","","","","","","","","","","","feedback_test"
"","","","","","psychophysics","151","442132","0.0-8.1-0.1-0.37","678","","j","","","","","","","","","","","","","key","j","8.330756218905274","768","428","j","true","img/H_ambi40.png","朋友","prac",""
"","","","","","html-keyboard-response","152","442632","0.0-8.1-0.1-1.37","null","<span style='color:GreenYellow; font-size: 70px;'>正确! </span>","null","","","","","","","","","","","","","","","","","","","","","","","feedback_test"
"","","","","","psychophysics","153","444394","0.0-8.1-0.1-0.38","760","","f","","","","","","","","","","","","","key","f","8.330371428571553","768","428","f","true","img/C_ambi40.png","朋友","prac",""
"","","","","","html-keyboard-response","154","444894","0.0-8.1-0.1-1.38","null","<span style='color:GreenYellow; font-size: 70px;'>正确! </span>","null","","","","","","","","","","","","","","","","","","","","","","","feedback_test"
"","","","","","psychophysics","155","446524","0.0-8.1-0.1-0.39","629","","f","","","","","","","","","","","","","key","f","8.330876923076964","768","428","f","true","img/C_ambi40.png","生人","prac",""
"","","","","","html-keyboard-response","156","447026","0.0-8.1-0.1-1.39","null","<span style='color:GreenYellow; font-size: 70px;'>正确! </span>","null","","","","","","","","","","","","","","","","","","","","","","","feedback_test"
"","","","","","psychophysics","157","448751","0.0-8.1-0.1-0.40","724","","j","","","","","","","","","","","","","key","j","8.330800970873877","768","428","f","false","img/H_ambi40.png","自我","prac",""
"","","","","","html-keyboard-response","158","449251","0.0-8.1-0.1-1.40","null","<span style='color:red; font-size: 70px;'>错误! </span>","null","","","","","","","","","","","","","","","","","","","","","","","feedback_test"
"","","","","","psychophysics","159","450727","0.0-8.1-0.1-0.41","474","","f","","","","","","","","","","","","","key","f","8.330698863636577","768","428","f","true","img/T_ambi40.png","をる","prac",""
"","","","","","html-keyboard-response","160","451228","0.0-8.1-0.1-1.41","null","<span style='color:GreenYellow; font-size: 70px;'>正确! </span>","null","","","","","","","","","","","","","","","","","","","","","","","feedback_test"
"","","","","","psychophysics","161","452834","0.0-8.1-0.1-0.42","603","","f","","","","","","","","","","","","","key","f","8.330801047120518","768","428","f","true","img/S_ambi40.png","朋友","prac",""
"","","","","","html-keyboard-response","162","453334","0.0-8.1-0.1-1.42","null","<span style='color:GreenYellow; font-size: 70px;'>正确! </span>","null","","","","","","","","","","","","","","","","","","","","","","","feedback_test"
"","","","","","psychophysics","163","454891","0.0-8.1-0.1-0.43","556","","f","","","","","","","","","","","","","key","f","8.32595135135123","768","428","f","true","img/T_ambi40.png","をる","prac",""
"","","","","","html-keyboard-response","164","455392","0.0-8.1-0.1-1.43","null","<span style='color:GreenYellow; font-size: 70px;'>正确! </span>","null","","","","","","","","","","","","","","","","","","","","","","","feedback_test"
"","","","","","psychophysics","165","457071","0.0-8.1-0.1-0.44","678","","j","","","","","","","","","","","","","key","j","8.325070000000123","768","428","j","true","img/S_ambi40.png","生人","prac",""
"","","","","","html-keyboard-response","166","457572","0.0-8.1-0.1-1.44","null","<span style='color:GreenYellow; font-size: 70px;'>正确! </span>","null","","","","","","","","","","","","","","","","","","","","","","","feedback_test"
"","","","","","psychophysics","167","458993","0.0-8.1-0.1-0.45","419","","f","","","","","","","","","","","","","key","f","8.330723529411754","768","428","f","true","img/T_ambi40.png","をる","prac",""
"","","","","","html-keyboard-response","168","459493","0.0-8.1-0.1-1.45","null","<span style='color:GreenYellow; font-size: 70px;'>正确! </span>","null","","","","","","","","","","","","","","","","","","","","","","","feedback_test"
"","","","","","psychophysics","169","461160","0.0-8.1-0.1-0.46","664","","j","","","","","","","","","","","","","key","j","8.330824120603173","768","428","j","true","img/C_ambi40.png","自我","prac",""
"","","","","","html-keyboard-response","170","461662","0.0-8.1-0.1-1.46","null","<span style='color:GreenYellow; font-size: 70px;'>正确! </span>","null","","","","","","","","","","","","","","","","","","","","","","","feedback_test"
"","","","","","psychophysics","171","463169","0.0-8.1-0.1-0.47","505","","j","","","","","","","","","","","","","key","j","8.33078333333348","768","428","j","true","img/C_ambi40.png","自我","prac",""
"","","","","","html-keyboard-response","172","463670","0.0-8.1-0.1-1.47","null","<span style='color:GreenYellow; font-size: 70px;'>正确! </span>","null","","","","","","","","","","","","","","","","","","","","","","","feedback_test"
"","","","","","psychophysics","173","465212","0.0-8.1-0.1-0.48","540","","f","","","","","","","","","","","","","key","f","8.330994565217344","768","428","j","false","img/S_ambi40.png","生人","prac",""
"","","","","","html-keyboard-response","174","465712","0.0-8.1-0.1-1.48","null","<span style='color:red; font-size: 70px;'>错误! </span>","null","","","","","","","","","","","","","","","","","","","","","","","feedback_test"
"","","","","","psychophysics","175","467305","0.0-8.1-0.1-0.49","592","","f","","","","","","","","","","","","","key","f","8.330821052631425","768","428","f","true","img/T_ambi40.png","をる","prac",""
"","","","","","html-keyboard-response","176","467806","0.0-8.1-0.1-1.49","null","<span style='color:GreenYellow; font-size: 70px;'>正确! </span>","null","","","","","","","","","","","","","","","","","","","","","","","feedback_test"
"","","","","","psychophysics","177","469205","0.0-8.1-0.1-0.50","398","","f","","","","","","","","","","","","","key","f","8.330873493975833","768","428","f","true","img/T_ambi40.png","をる","prac",""
"","","","","","html-keyboard-response","178","469706","0.0-8.1-0.1-1.50","null","<span style='color:GreenYellow; font-size: 70px;'>正确! </span>","null","","","","","","","","","","","","","","","","","","","","","","","feedback_test"
"","","","","","psychophysics","179","471081","0.0-8.1-0.1-0.51","373","","f","","","","","","","","","","","","","key","f","8.330823170731382","768","428","f","true","img/T_ambi40.png","をる","prac",""
"","","","","","html-keyboard-response","180","471583","0.0-8.1-0.1-1.51","null","<span style='color:GreenYellow; font-size: 70px;'>正确! </span>","null","","","","","","","","","","","","","","","","","","","","","","","feedback_test"
"","","","","","psychophysics","181","473214","0.0-8.1-0.1-0.52","631","","j","","","","","","","","","","","","","key","j","8.33090256410233","768","428","j","true","img/H_ambi40.png","朋友","prac",""
"","","","","","html-keyboard-response","182","473716","0.0-8.1-0.1-1.52","null","<span style='color:GreenYellow; font-size: 70px;'>正确! </span>","null","","","","","","","","","","","","","","","","","","","","","","","feedback_test"
"","","","","","psychophysics","183","475434","0.0-8.1-0.1-0.53","716","","j","","","","","","","","","","","","","key","j","8.330843902438902","768","428","f","false","img/H_ambi40.png","自我","prac",""
"","","","","","html-keyboard-response","184","475935","0.0-8.1-0.1-1.53","null","<span style='color:red; font-size: 70px;'>错误! </span>","null","","","","","","","","","","","","","","","","","","","","","","","feedback_test"
"","","","","","psychophysics","185","477404","0.0-8.1-0.1-0.54","468","","f","","","","","","","","","","","","","key","f","8.330806818181538","768","428","f","true","img/T_ambi40.png","をる","prac",""
"","","","","","html-keyboard-response","186","477906","0.0-8.1-0.1-1.54","null","<span style='color:GreenYellow; font-size: 70px;'>正确! </span>","null","","","","","","","","","","","","","","","","","","","","","","","feedback_test"
"","","","","","psychophysics","187","479731","0.0-8.1-0.1-0.55","824","","j","","","","","","","","","","","","","key","j","8.33088532110079","768","428","j","true","img/C_ambi40.png","自我","prac",""
"","","","","","html-keyboard-response","188","480232","0.0-8.1-0.1-1.55","null","<span style='color:GreenYellow; font-size: 70px;'>正确! </span>","null","","","","","","","","","","","","","","","","","","","","","","","feedback_test"
"","","","","","psychophysics","189","481951","0.0-8.1-0.1-0.56","717","","j","","","","","","","","","","","","","key","j","8.330858536585371","768","428","j","true","img/H_ambi40.png","朋友","prac",""
"","","","","","html-keyboard-response","190","482452","0.0-8.1-0.1-1.56","null","<span style='color:GreenYellow; font-size: 70px;'>正确! </span>","null","","","","","","","","","","","","","","","","","","","","","","","feedback_test"
"","","","","","psychophysics","191","484163","0.0-8.1-0.1-0.57","710","","f","","","","","","","","","","","","","key","f","8.330833333333288","768","428","j","false","img/C_ambi40.png","自我","prac",""
"","","","","","html-keyboard-response","192","484664","0.0-8.1-0.1-1.57","null","<span style='color:red; font-size: 70px;'>错误! </span>","null","","","","","","","","","","","","","","","","","","","","","","","feedback_test"
"","","","","","psychophysics","193","486431","0.0-8.1-0.1-0.58","766","","f","","","","","","","","","","","","","key","f","8.330682464454862","768","428","f","true","img/S_ambi40.png","朋友","prac",""
"","","","","","html-keyboard-response","194","486932","0.0-8.1-0.1-1.58","null","<span style='color:GreenYellow; font-size: 70px;'>正确! </span>","null","","","","","","","","","","","","","","","","","","","","","","","feedback_test"
"","","","","","psychophysics","195","488764","0.0-8.1-0.1-0.59","832","","f","","","","","","","","","","","","","key","f","8.330689497717037","768","428","f","true","img/S_ambi40.png","自我","prac",""
"","","","","","html-keyboard-response","196","489265","0.0-8.1-0.1-1.59","null","<span style='color:GreenYellow; font-size: 70px;'>正确! </span>","null","","","","","","","","","","","","","","","","","","","","","","","feedback_test"
"","","","","","psychophysics","197","490901","0.0-8.1-0.1-0.60","635","","f","","","","","","","","","","","","","key","f","8.326974358974407","768","428","f","true","img/C_ambi40.png","朋友","prac",""
"","","","","","html-keyboard-response","198","491402","0.0-8.1-0.1-1.60","null","<span style='color:GreenYellow; font-size: 70px;'>正确! </span>","null","","","","","","","","","","","","","","","","","","","","","","","feedback_test"
"","","","","","psychophysics","199","492908","0.0-8.1-0.1-0.61","504","","f","","","","","","","","","","","","","key","f","8.330849999999757","768","428","j","false","img/S_ambi40.png","生人","prac",""
"","","","","","html-keyboard-response","200","493409","0.0-8.1-0.1-1.61","null","<span style='color:red; font-size: 70px;'>错误! </span>","null","","","","","","","","","","","","","","","","","","","","","","","feedback_test"
"","","","","","psychophysics","201","495106","0.0-8.1-0.1-0.62","695","","f","","","","","","","","","","","","","key","f","8.33091584158402","768","428","f","true","img/H_ambi40.png","生人","prac",""
"","","","","","html-keyboard-response","202","495606","0.0-8.1-0.1-1.62","null","<span style='color:GreenYellow; font-size: 70px;'>正确! </span>","null","","","","","","","","","","","","","","","","","","","","","","","feedback_test"
"","","","","","psychophysics","203","497302","0.0-8.1-0.1-0.63","695","","f","","","","","","","","","","","","","key","f","8.330910891089312","768","428","f","true","img/C_ambi40.png","生人","prac",""
"","","","","","html-keyboard-response","204","497802","0.0-8.1-0.1-1.63","null","<span style='color:GreenYellow; font-size: 70px;'>正确! </span>","null","","","","","","","","","","","","","","","","","","","","","","","feedback_test"
"","","","","","html-keyboard-response","205","508178","0.0-9.0","10374","<style>.context{color:white; font-size: 35px; line-height:40px}</style>                          <div><p class='context'>您正确回答了78% 的试次。</p ><p class='context'>您的平均反应时为630毫秒。</p ><p class='context'>恭喜您完成练习。按任意键进入正式实验。</p ><p class='footer' style='font-size: 35px; line-height:40px;'>请在进入正式实验实验之前将您的<span style='color: lightgreen;'>食指</span>放在电脑键盘的相应键位上进行按键。</p >","enter","","","","","","","","","","","","","","","","","","","","","","",""
"","","","","","psychophysics","206","510683","0.0-10.0-0.0-0.0-0.0-0.0","null","","null","","","","","","","","","","","","","key","null","8.330839464883242","768","428","j","false","img/S_ambi40.png","生人","same",""
"","","","","","html-keyboard-response","207","511184","0.0-10.0-0.0-0.0-0.0-1.0","null","<span class='add_' style='color:yellow; font-size: 70px;'> 太慢! </span>","null","","","","","","","","","","","","","","","","","","","","","","","feedback_test"
"","","","","","psychophysics","208","512844","0.0-10.0-0.0-0.0-0.0-0.1","659","","f","","","","","","","","","","","","","key","f","8.32498989898989","768","428","f","true","img/H_ambi40.png","生人","same",""
"","","","","","html-keyboard-response","209","513345","0.0-10.0-0.0-0.0-0.0-1.1","null","<span style='color:GreenYellow; font-size: 70px;'>正确! </span>","null","","","","","","","","","","","","","","","","","","","","","","","feedback_test"
"","","","","","psychophysics","210","515090","0.0-10.0-0.0-0.0-0.0-0.2","744","","j","","","","","","","","","","","","","key","j","8.330754807692406","768","428","f","false","img/S_ambi40.png","朋友","same",""
"","","","","","html-keyboard-response","211","515591","0.0-10.0-0.0-0.0-0.0-1.2","null","<span style='color:red; font-size: 70px;'>错误! </span>","null","","","","","","","","","","","","","","","","","","","","","","","feedback_test"
"","","","","","psychophysics","212","517275","0.0-10.0-0.0-0.0-0.0-0.3","682","","j","","","","","","","","","","","","","key","j","8.33074499999988","768","428","f","false","img/H_ambi40.png","自我","same",""
"","","","","","html-keyboard-response","213","517775","0.0-10.0-0.0-0.0-0.0-1.3","null","<span style='color:red; font-size: 70px;'>错误! </span>","null","","","","","","","","","","","","","","","","","","","","","","","feedback_test"
"","","","","","psychophysics","214","519363","0.0-10.0-0.0-0.0-0.0-0.4","587","","f","","","","","","","","","","","","","key","f","8.330867724867646","768","428","j","false","img/S_ambi40.png","生人","same",""
"","","","","","html-keyboard-response","215","519865","0.0-10.0-0.0-0.0-0.0-1.4","null","<span style='color:red; font-size: 70px;'>错误! </span>","null","","","","","","","","","","","","","","","","","","","","","","","feedback_test"
"","","","","","psychophysics","216","521395","0.0-10.0-0.0-0.0-0.0-0.5","529","","f","","","","","","","","","","","","","key","f","8.330664835164738","768","428","f","true","img/T_ambi40.png","をる","same",""
"","","","","","html-keyboard-response","217","521896","0.0-10.0-0.0-0.0-0.0-1.5","null","<span style='color:GreenYellow; font-size: 70px;'>正确! </span>","null","","","","","","","","","","","","","","","","","","","","","","","feedback_test"
"","","","","","psychophysics","218","523383","0.0-10.0-0.0-0.0-0.0-0.6","486","","j","","","","","","","","","","","","","key","j","8.330803370786036","768","428","f","false","img/C_ambi40.png","朋友","same",""
"","","","","","html-keyboard-response","219","523884","0.0-10.0-0.0-0.0-0.0-1.6","null","<span style='color:red; font-size: 70px;'>错误! </span>","null","","","","","","","","","","","","","","","","","","","","","","","feedback_test"
"","","","","","psychophysics","220","525604","0.0-10.0-0.0-0.0-0.0-0.7","719","","f","","","","","","","","","","","","","key","f","8.330834146341445","768","428","j","false","img/H_ambi40.png","朋友","same",""
"","","","","","html-keyboard-response","221","526105","0.0-10.0-0.0-0.0-0.0-1.7","null","<span style='color:red; font-size: 70px;'>错误! </span>","null","","","","","","","","","","","","","","","","","","","","","","","feedback_test"
"","","","","","psychophysics","222","527900","0.0-10.0-0.0-0.0-0.0-0.8","794","","j","","","","","","","","","","","","","key","j","8.330761682242699","768","428","j","true","img/C_ambi40.png","自我","same",""
"","","","","","html-keyboard-response","223","528402","0.0-10.0-0.0-0.0-0.0-1.8","null","<span style='color:GreenYellow; font-size: 70px;'>正确! </span>","null","","","","","","","","","","","","","","","","","","","","","","","feedback_test"
"","","","","","psychophysics","224","530141","0.0-10.0-0.0-0.0-0.0-0.9","738","","f","","","","","","","","","","","","","key","f","8.33081250000004","768","428","f","true","img/C_ambi40.png","生人","same",""
"","","","","","html-keyboard-response","225","530642","0.0-10.0-0.0-0.0-0.0-1.9","null","<span style='color:GreenYellow; font-size: 70px;'>正确! </span>","null","","","","","","","","","","","","","","","","","","","","","","","feedback_test"
"","","","","","psychophysics","226","532181","0.0-10.0-0.0-0.0-0.0-0.10","538","","f","","","","","","","","","","","","","key","f","8.330760869565141","768","428","f","true","img/T_ambi40.png","をる","same",""
"","","","","","html-keyboard-response","227","532682","0.0-10.0-0.0-0.0-0.0-1.10","null","<span style='color:GreenYellow; font-size: 70px;'>正确! </span>","null","","","","","","","","","","","","","","","","","","","","","","","feedback_test"
"","","","","","psychophysics","228","534445","0.0-10.0-0.0-0.0-0.0-0.11","761","","f","","","","","","","","","","","","","key","f","8.33095238095238","768","428","f","true","img/S_ambi40.png","自我","same",""
"","","","","","html-keyboard-response","229","534946","0.0-10.0-0.0-0.0-0.0-1.11","null","<span style='color:GreenYellow; font-size: 70px;'>正确! </span>","null","","","","","","","","","","","","","","","","","","","","","","","feedback_test"
"","","","","","psychophysics","230","536471","0.0-10.0-0.0-0.0-0.0-0.12","525","","f","","","","","","","","","","","","","key","f","8.330939560439079","768","428","f","true","img/T_ambi40.png","をる","same",""
"","","","","","html-keyboard-response","231","536973","0.0-10.0-0.0-0.0-0.0-1.12","null","<span style='color:GreenYellow; font-size: 70px;'>正确! </span>","null","","","","","","","","","","","","","","","","","","","","","","","feedback_test"
"","","","","","psychophysics","232","538685","0.0-10.0-0.0-0.0-0.0-0.13","709","","j","","","","","","","","","","","","","key","j","8.330828431372842","768","428","j","true","img/C_ambi40.png","自我","same",""
"","","","","","html-keyboard-response","233","539186","0.0-10.0-0.0-0.0-0.0-1.13","null","<span style='color:GreenYellow; font-size: 70px;'>正确! </span>","null","","","","","","","","","","","","","","","","","","","","","","","feedback_test"
"","","","","","psychophysics","234","540816","0.0-10.0-0.0-0.0-0.0-0.14","629","","j","","","","","","","","","","","","","key","j","8.330737113402364","768","428","j","true","img/C_ambi40.png","自我","same",""
"","","","","","html-keyboard-response","235","541317","0.0-10.0-0.0-0.0-0.0-1.14","null","<span style='color:GreenYellow; font-size: 70px;'>正确! </span>","null","","","","","","","","","","","","","","","","","","","","","","","feedback_test"
"","","","","","psychophysics","236","542914","0.0-10.0-0.0-0.0-0.0-0.15","595","","f","","","","","","","","","","","","","key","f","8.330963157894287","768","428","j","false","img/H_ambi40.png","朋友","same",""
"","","","","","html-keyboard-response","237","543415","0.0-10.0-0.0-0.0-0.0-1.15","null","<span style='color:red; font-size: 70px;'>错误! </span>","null","","","","","","","","","","","","","","","","","","","","","","","feedback_test"
"","","","","","psychophysics","238","544975","0.0-10.0-0.0-0.0-0.0-0.16","559","","j","","","","","","","","","","","","","key","j","8.324430107527101","768","428","j","true","img/S_ambi40.png","生人","same",""
"","","","","","html-keyboard-response","239","545476","0.0-10.0-0.0-0.0-0.0-1.16","null","<span style='color:GreenYellow; font-size: 70px;'>正确! </span>","null","","","","","","","","","","","","","","","","","","","","","","","feedback_test"
"","","","","","psychophysics","240","547020","0.0-10.0-0.0-0.0-0.0-0.17","543","","j","","","","","","","","","","","","","key","j","8.330842391304348","768","428","j","true","img/H_ambi40.png","朋友","same",""
"","","","","","html-keyboard-response","241","547521","0.0-10.0-0.0-0.0-0.0-1.17","null","<span style='color:GreenYellow; font-size: 70px;'>正确! </span>","null","","","","","","","","","","","","","","","","","","","","","","","feedback_test"
"","","","","","psychophysics","242","549005","0.0-10.0-0.0-0.0-0.0-0.18","483","","f","","","","","","","","","","","","","key","f","8.330819209039838","768","428","f","true","img/T_ambi40.png","をる","same",""
"","","","","","html-keyboard-response","243","549506","0.0-10.0-0.0-0.0-0.0-1.18","null","<span style='color:GreenYellow; font-size: 70px;'>正确! </span>","null","","","","","","","","","","","","","","","","","","","","","","","feedback_test"
"","","","","","psychophysics","244","551422","0.0-10.0-0.0-0.0-0.0-0.19","916","","j","","","","","","","","","","","","","key","j","8.330978070175389","768","428","f","false","img/H_ambi40.png","自我","same",""
"","","","","","html-keyboard-response","245","551923","0.0-10.0-0.0-0.0-0.0-1.19","null","<span style='color:red; font-size: 70px;'>错误! </span>","null","","","","","","","","","","","","","","","","","","","","","","","feedback_test"
"","","","","","psychophysics","246","553716","0.0-10.0-0.0-0.0-0.0-0.20","792","","f","","","","","","","","","","","","","key","f","8.33085981308413","768","428","f","true","img/S_ambi40.png","朋友","same",""
"","","","","","html-keyboard-response","247","554217","0.0-10.0-0.0-0.0-0.0-1.20","null","<span style='color:GreenYellow; font-size: 70px;'>正确! </span>","null","","","","","","","","","","","","","","","","","","","","","","","feedback_test"
"","","","","","psychophysics","248","555828","0.0-10.0-0.0-0.0-0.0-0.21","609","","f","","","","","","","","","","","","","key","f","8.330833333332825","768","428","f","true","img/C_ambi40.png","朋友","same",""
"","","","","","html-keyboard-response","249","556329","0.0-10.0-0.0-0.0-0.0-1.21","null","<span style='color:GreenYellow; font-size: 70px;'>正确! </span>","null","","","","","","","","","","","","","","","","","","","","","","","feedback_test"
"","","","","","psychophysics","250","558105","0.0-10.0-0.0-0.0-0.0-0.22","775","","f","","","","","","","","","","","","","key","f","8.330830188678965","768","428","j","false","img/S_ambi40.png","生人","same",""
"","","","","","html-keyboard-response","251","558606","0.0-10.0-0.0-0.0-0.0-1.22","null","<span style='color:red; font-size: 70px;'>错误! </span>","null","","","","","","","","","","","","","","","","","","","","","","","feedback_test"
"","","","","","psychophysics","252","560245","0.0-10.0-0.0-0.0-0.0-0.23","638","","f","","","","","","","","","","","","","key","f","8.330943877550974","768","428","f","true","img/S_ambi40.png","自我","same",""
"","","","","","html-keyboard-response","253","560746","0.0-10.0-0.0-0.0-0.0-1.23","null","<span style='color:GreenYellow; font-size: 70px;'>正确! </span>","null","","","","","","","","","","","","","","","","","","","","","","","feedback_test"
"","","","","","psychophysics","254","562491","0.0-10.0-0.0-0.0-0.0-0.24","743","","j","","","","","","","","","","","","","key","j","8.330956730769405","768","428","j","true","img/S_ambi40.png","生人","same",""
"","","","","","html-keyboard-response","255","562993","0.0-10.0-0.0-0.0-0.0-1.24","null","<span style='color:GreenYellow; font-size: 70px;'>正确! </span>","null","","","","","","","","","","","","","","","","","","","","","","","feedback_test"
"","","","","","psychophysics","256","564749","0.0-10.0-0.0-0.0-0.0-0.25","755","","j","","","","","","","","","","","","","key","j","8.326296650717685","768","428","j","true","img/S_ambi40.png","生人","same",""
"","","","","","html-keyboard-response","257","565250","0.0-10.0-0.0-0.0-0.0-1.25","null","<span style='color:GreenYellow; font-size: 70px;'>正确! </span>","null","","","","","","","","","","","","","","","","","","","","","","","feedback_test"
"","","","","","psychophysics","258","566969","0.0-10.0-0.0-0.0-0.0-0.26","718","","j","","","","","","","","","","","","","key","j","8.323365853658151","768","428","f","false","img/H_ambi40.png","生人","same",""
"","","","","","html-keyboard-response","259","567469","0.0-10.0-0.0-0.0-0.0-1.26","null","<span style='color:red; font-size: 70px;'>错误! </span>","null","","","","","","","","","","","","","","","","","","","","","","","feedback_test"
"","","","","","psychophysics","260","569182","0.0-10.0-0.0-0.0-0.0-0.27","711","","j","","","","","","","","","","","","","key","j","8.330926470588619","768","428","j","true","img/C_ambi40.png","自我","same",""
"","","","","","html-keyboard-response","261","569685","0.0-10.0-0.0-0.0-0.0-1.27","null","<span style='color:GreenYellow; font-size: 70px;'>正确! </span>","null","","","","","","","","","","","","","","","","","","","","","","","feedback_test"
"","","","","","psychophysics","262","571161","0.0-10.0-0.0-0.0-0.0-0.28","475","","f","","","","","","","","","","","","","key","f","8.33085795454562","768","428","f","true","img/T_ambi40.png","をる","same",""
"","","","","","html-keyboard-response","263","571662","0.0-10.0-0.0-0.0-0.0-1.28","null","<span style='color:GreenYellow; font-size: 70px;'>正确! </span>","null","","","","","","","","","","","","","","","","","","","","","","","feedback_test"
"","","","","","psychophysics","264","573586","0.0-10.0-0.0-0.0-0.0-0.29","923","","j","","","","","","","","","","","","","key","j","8.330839130434754","768","428","j","true","img/H_ambi40.png","朋友","same",""
"","","","","","html-keyboard-response","265","574089","0.0-10.0-0.0-0.0-0.0-1.29","null","<span style='color:GreenYellow; font-size: 70px;'>正确! </span>","null","","","","","","","","","","","","","","","","","","","","","","","feedback_test"
"","","","","","psychophysics","266","575949","0.0-10.0-0.0-0.0-0.0-0.30","859","","j","","","","","","","","","","","","","key","j","8.326148648648774","768","428","f","false","img/C_ambi40.png","生人","same",""
"","","","","","html-keyboard-response","267","576450","0.0-10.0-0.0-0.0-0.0-1.30","null","<span style='color:red; font-size: 70px;'>错误! </span>","null","","","","","","","","","","","","","","","","","","","","","","","feedback_test"
"","","","","","psychophysics","268","577989","0.0-10.0-0.0-0.0-0.0-0.31","538","","f","","","","","","","","","","","","","key","f","8.330841530054615","768","428","f","true","img/T_ambi40.png","をる","same",""
"","","","","","html-keyboard-response","269","578491","0.0-10.0-0.0-0.0-0.0-1.31","null","<span style='color:GreenYellow; font-size: 70px;'>正确! </span>","null","","","","","","","","","","","","","","","","","","","","","","","feedback_test"
"","","","","","psychophysics","270","580368","0.0-10.0-0.0-0.0-0.0-0.32","877","","j","","","","","","","","","","","","","key","j","8.33087499999965","768","428","j","true","img/H_ambi40.png","朋友","same",""
"","","","","","html-keyboard-response","271","580869","0.0-10.0-0.0-0.0-0.0-1.32","null","<span style='color:GreenYellow; font-size: 70px;'>正确! </span>","null","","","","","","","","","","","","","","","","","","","","","","","feedback_test"
"","","","","","psychophysics","272","582449","0.0-10.0-0.0-0.0-0.0-0.33","579","","j","","","","","","","","","","","","","key","j","8.330756613756801","768","428","j","true","img/C_ambi40.png","自我","same",""
"","","","","","html-keyboard-response","273","582950","0.0-10.0-0.0-0.0-0.0-1.33","null","<span style='color:GreenYellow; font-size: 70px;'>正确! </span>","null","","","","","","","","","","","","","","","","","","","","","","","feedback_test"
"","","","","","psychophysics","274","584395","0.0-10.0-0.0-0.0-0.0-0.34","444","","j","","","","","","","","","","","","","key","j","8.330726744186101","768","428","j","true","img/C_ambi40.png","自我","same",""
"","","","","","html-keyboard-response","275","584896","0.0-10.0-0.0-0.0-0.0-1.34","null","<span style='color:GreenYellow; font-size: 70px;'>正确! </span>","null","","","","","","","","","","","","","","","","","","","","","","","feedback_test"
"","","","","","psychophysics","276","586506","0.0-10.0-0.0-0.0-0.0-0.35","608","","j","","","","","","","","","","","","","key","j","8.330942708333168","768","428","j","true","img/H_ambi40.png","朋友","same",""
"","","","","","html-keyboard-response","277","587007","0.0-10.0-0.0-0.0-0.0-1.35","null","<span style='color:GreenYellow; font-size: 70px;'>正确! </span>","null","","","","","","","","","","","","","","","","","","","","","","","feedback_test"
"","","","","","psychophysics","278","588424","0.0-10.0-0.0-0.0-0.0-0.36","416","","j","","","","","","","","","","","","","key","j","8.330875739644656","768","428","f","false","img/H_ambi40.png","自我","same",""
"","","","","","html-keyboard-response","279","588927","0.0-10.0-0.0-0.0-0.0-1.36","null","<span style='color:red; font-size: 70px;'>错误! </span>","null","","","","","","","","","","","","","","","","","","","","","","","feedback_test"
"","","","","","psychophysics","280","590520","0.0-10.0-0.0-0.0-0.0-0.37","593","","j","","","","","","","","","","","","","key","j","8.326573684210521","768","428","j","true","img/H_ambi40.png","朋友","same",""
"","","","","","html-keyboard-response","281","591021","0.0-10.0-0.0-0.0-0.0-1.37","null","<span style='color:GreenYellow; font-size: 70px;'>正确! </span>","null","","","","","","","","","","","","","","","","","","","","","","","feedback_test"
"","","","","","psychophysics","282","592655","0.0-10.0-0.0-0.0-0.0-0.38","632","","j","","","","","","","","","","","","","key","j","8.330984615384697","768","428","j","true","img/S_ambi40.png","生人","same",""
"","","","","","html-keyboard-response","283","593156","0.0-10.0-0.0-0.0-0.0-1.38","null","<span style='color:GreenYellow; font-size: 70px;'>正确! </span>","null","","","","","","","","","","","","","","","","","","","","","","","feedback_test"
"","","","","","psychophysics","284","594733","0.0-10.0-0.0-0.0-0.0-0.39","575","","f","","","","","","","","","","","","","key","f","8.330819148936264","768","428","f","true","img/C_ambi40.png","生人","same",""
"","","","","","html-keyboard-response","285","595234","0.0-10.0-0.0-0.0-0.0-1.39","null","<span style='color:GreenYellow; font-size: 70px;'>正确! </span>","null","","","","","","","","","","","","","","","","","","","","","","","feedback_test"
"","","","","","psychophysics","286","596880","0.0-10.0-0.0-0.0-0.0-0.40","645","","j","","","","","","","","","","","","","key","j","8.330887755101703","768","428","j","true","img/C_ambi40.png","自我","same",""
"","","","","","html-keyboard-response","287","597380","0.0-10.0-0.0-0.0-0.0-1.40","null","<span style='color:GreenYellow; font-size: 70px;'>正确! </span>","null","","","","","","","","","","","","","","","","","","","","","","","feedback_test"
"","","","","","psychophysics","288","598987","0.0-10.0-0.0-0.0-0.0-0.41","606","","f","","","","","","","","","","","","","key","f","8.330750000000384","768","428","f","true","img/T_ambi40.png","をる","same",""
"","","","","","html-keyboard-response","289","599490","0.0-10.0-0.0-0.0-0.0-1.41","null","<span style='color:GreenYellow; font-size: 70px;'>正确! </span>","null","","","","","","","","","","","","","","","","","","","","","","","feedback_test"
"","","","","","psychophysics","290","601310","0.0-10.0-0.0-0.0-0.0-0.42","820","","j","","","","","","","","","","","","","key","j","8.33084862385321","768","428","j","true","img/S_ambi40.png","生人","same",""
"","","","","","html-keyboard-response","291","601811","0.0-10.0-0.0-0.0-0.0-1.42","null","<span style='color:GreenYellow; font-size: 70px;'>正确! </span>","null","","","","","","","","","","","","","","","","","","","","","","","feedback_test"
"","","","","","psychophysics","292","603446","0.0-10.0-0.0-0.0-0.0-0.43","633","","j","","","","","","","","","","","","","key","j","8.330676923077315","768","428","j","true","img/H_ambi40.png","朋友","same",""
"","","","","","html-keyboard-response","293","603946","0.0-10.0-0.0-0.0-0.0-1.43","null","<span style='color:GreenYellow; font-size: 70px;'>正确! </span>","null","","","","","","","","","","","","","","","","","","","","","","","feedback_test"
"","","","","","psychophysics","294","605582","0.0-10.0-0.0-0.0-0.0-0.44","634","","f","","","","","","","","","","","","","key","f","8.330830769231303","768","428","f","true","img/H_ambi40.png","生人","same",""
"","","","","","html-keyboard-response","295","606082","0.0-10.0-0.0-0.0-0.0-1.44","null","<span style='color:GreenYellow; font-size: 70px;'>正确! </span>","null","","","","","","","","","","","","","","","","","","","","","","","feedback_test"
"","","","","","psychophysics","296","607879","0.0-10.0-0.0-0.0-0.0-0.45","796","","j","","","","","","","","","","","","","key","j","8.330967289719853","768","428","j","true","img/H_ambi40.png","朋友","same",""
"","","","","","html-keyboard-response","297","608381","0.0-10.0-0.0-0.0-0.0-1.45","null","<span style='color:GreenYellow; font-size: 70px;'>正确! </span>","null","","","","","","","","","","","","","","","","","","","","","","","feedback_test"
"","","","","","psychophysics","298","610001","0.0-10.0-0.0-0.0-0.0-0.46","620","","f","","","","","","","","","","","","","key","f","8.324233160621409","768","428","f","true","img/C_ambi40.png","朋友","same",""
"","","","","","html-keyboard-response","299","610502","0.0-10.0-0.0-0.0-0.0-1.46","null","<span style='color:GreenYellow; font-size: 70px;'>正确! </span>","null","","","","","","","","","","","","","","","","","","","","","","","feedback_test"
"","","","","","psychophysics","300","611926","0.0-10.0-0.0-0.0-0.0-0.47","423","","j","","","","","","","","","","","","","key","j","8.330905882353374","768","428","j","true","img/C_ambi40.png","自我","same",""
"","","","","","html-keyboard-response","301","612426","0.0-10.0-0.0-0.0-0.0-1.47","null","<span style='color:GreenYellow; font-size: 70px;'>正确! </span>","null","","","","","","","","","","","","","","","","","","","","","","","feedback_test"
"","","","","","psychophysics","302","614085","0.0-10.0-0.0-0.0-0.0-0.48","657","","f","","","","","","","","","","","","","key","f","8.330772727272812","768","428","f","true","img/S_ambi40.png","朋友","same",""
"","","","","","html-keyboard-response","303","614586","0.0-10.0-0.0-0.0-0.0-1.48","null","<span style='color:GreenYellow; font-size: 70px;'>正确! </span>","null","","","","","","","","","","","","","","","","","","","","","","","feedback_test"
"","","","","","psychophysics","304","616044","0.0-10.0-0.0-0.0-0.0-0.49","457","","j","","","","","","","","","","","","","key","j","8.330821839080931","768","428","f","false","img/T_ambi40.png","をる","same",""
"","","","","","html-keyboard-response","305","616545","0.0-10.0-0.0-0.0-0.0-1.49","null","<span style='color:red; font-size: 70px;'>错误! </span>","null","","","","","","","","","","","","","","","","","","","","","","","feedback_test"
"","","","","","psychophysics","306","618141","0.0-10.0-0.0-0.0-0.0-0.50","596","","f","","","","","","","","","","","","","key","f","8.325505263157998","768","428","f","true","img/T_ambi40.png","をる","same",""
"","","","","","html-keyboard-response","307","618642","0.0-10.0-0.0-0.0-0.0-1.50","null","<span style='color:GreenYellow; font-size: 70px;'>正确! </span>","null","","","","","","","","","","","","","","","","","","","","","","","feedback_test"
"","","","","","psychophysics","308","620327","0.0-10.0-0.0-0.0-0.0-0.51","684","","f","","","","","","","","","","","","","key","f","8.3308059701491","768","428","f","true","img/S_ambi40.png","自我","same",""
"","","","","","html-keyboard-response","309","620828","0.0-10.0-0.0-0.0-0.0-1.51","null","<span style='color:GreenYellow; font-size: 70px;'>正确! </span>","null","","","","","","","","","","","","","","","","","","","","","","","feedback_test"
"","","","","","psychophysics","310","622405","0.0-10.0-0.0-0.0-0.0-0.52","576","","f","","","","","","","","","","","","","key","f","8.331069148936374","768","428","j","false","img/S_ambi40.png","生人","same",""
"","","","","","html-keyboard-response","311","622907","0.0-10.0-0.0-0.0-0.0-1.52","null","<span style='color:red; font-size: 70px;'>错误! </span>","null","","","","","","","","","","","","","","","","","","","","","","","feedback_test"
"","","","","","psychophysics","312","624575","0.0-10.0-0.0-0.0-0.0-0.53","668","","j","","","","","","","","","","","","","key","j","8.330864321607768","768","428","j","true","img/C_ambi40.png","自我","same",""
"","","","","","html-keyboard-response","313","625077","0.0-10.0-0.0-0.0-0.0-1.53","null","<span style='color:GreenYellow; font-size: 70px;'>正确! </span>","null","","","","","","","","","","","","","","","","","","","","","","","feedback_test"
"","","","","","psychophysics","314","627155","0.0-10.0-0.0-0.0-0.0-0.54","1077","","f","","","","","","","","","","","","","key","f","8.330850806451522","768","428","f","true","img/S_ambi40.png","朋友","same",""
"","","","","","html-keyboard-response","315","627657","0.0-10.0-0.0-0.0-0.0-1.54","null","<span style='color:GreenYellow; font-size: 70px;'>正确! </span>","null","","","","","","","","","","","","","","","","","","","","","","","feedback_test"
"","","","","","psychophysics","316","629203","0.0-10.0-0.0-0.0-0.0-0.55","545","","j","","","","","","","","","","","","","key","j","8.330718918919336","768","428","j","true","img/H_ambi40.png","朋友","same",""
"","","","","","html-keyboard-response","317","629705","0.0-10.0-0.0-0.0-0.0-1.55","null","<span style='color:GreenYellow; font-size: 70px;'>正确! </span>","null","","","","","","","","","","","","","","","","","","","","","","","feedback_test"
"","","","","","psychophysics","318","631304","0.0-10.0-0.0-0.0-0.0-0.56","598","","j","","","","","","","","","","","","","key","j","8.331020942408255","768","428","f","false","img/H_ambi40.png","生人","same",""
"","","","","","html-keyboard-response","319","631804","0.0-10.0-0.0-0.0-0.0-1.56","null","<span style='color:red; font-size: 70px;'>错误! </span>","null","","","","","","","","","","","","","","","","","","","","","","","feedback_test"
"","","","","","psychophysics","320","633532","0.0-10.0-0.0-0.0-0.0-0.57","727","","f","","","","","","","","","","","","","key","f","8.330825242717994","768","428","j","false","img/S_ambi40.png","生人","same",""
"","","","","","html-keyboard-response","321","634033","0.0-10.0-0.0-0.0-0.0-1.57","null","<span style='color:red; font-size: 70px;'>错误! </span>","null","","","","","","","","","","","","","","","","","","","","","","","feedback_test"
"","","","","","psychophysics","322","635681","0.0-10.0-0.0-0.0-0.0-0.58","644","","j","","","","","","","","","","","","","key","j","8.330857142857134","768","428","j","true","img/S_ambi40.png","生人","same",""
"","","","","","html-keyboard-response","323","636182","0.0-10.0-0.0-0.0-0.0-1.58","null","<span style='color:GreenYellow; font-size: 70px;'>正确! </span>","null","","","","","","","","","","","","","","","","","","","","","","","feedback_test"
"","","","","","psychophysics","324","637763","0.0-10.0-0.0-0.0-0.0-0.59","579","","f","","","","","","","","","","","","","key","f","8.330829787234023","768","428","f","true","img/T_ambi40.png","をる","same",""
"","","","","","html-keyboard-response","325","638264","0.0-10.0-0.0-0.0-0.0-1.59","null","<span style='color:GreenYellow; font-size: 70px;'>正确! </span>","null","","","","","","","","","","","","","","","","","","","","","","","feedback_test"
"","","","","","psychophysics","326","640133","0.0-10.0-0.0-0.0-0.0-0.60","868","","f","","","","","","","","","","","","","key","f","8.330860986547114","768","428","f","true","img/T_ambi40.png","をる","same",""
"","","","","","html-keyboard-response","327","640634","0.0-10.0-0.0-0.0-0.0-1.60","null","<span style='color:GreenYellow; font-size: 70px;'>正确! </span>","null","","","","","","","","","","","","","","","","","","","","","","","feedback_test"
"","","","","","psychophysics","328","642140","0.0-10.0-0.0-0.0-0.0-0.61","505","","f","","","","","","","","","","","","","key","f","8.33094999999998","768","428","f","true","img/T_ambi40.png","をる","same",""
"","","","","","html-keyboard-response","329","642640","0.0-10.0-0.0-0.0-0.0-1.61","null","<span style='color:GreenYellow; font-size: 70px;'>正确! </span>","null","","","","","","","","","","","","","","","","","","","","","","","feedback_test"
"","","","","","psychophysics","330","644173","0.0-10.0-0.0-0.0-0.0-0.62","531","","j","","","","","","","","","","","","","key","j","8.330792349726318","768","428","f","false","img/C_ambi40.png","生人","same",""
"","","","","","html-keyboard-response","331","644674","0.0-10.0-0.0-0.0-0.0-1.62","null","<span style='color:red; font-size: 70px;'>错误! </span>","null","","","","","","","","","","","","","","","","","","","","","","","feedback_test"
"","","","","","psychophysics","332","646372","0.0-10.0-0.0-0.0-0.0-0.63","695","","f","","","","","","","","","","","","","key","f","8.330931034482777","768","428","f","true","img/C_ambi40.png","朋友","same",""
"","","","","","html-keyboard-response","333","646872","0.0-10.0-0.0-0.0-0.0-1.63","null","<span style='color:GreenYellow; font-size: 70px;'>正确! </span>","null","","","","","","","","","","","","","","","","","","","","","","","feedback_test"
"","","","","","psychophysics","334","648729","0.0-10.0-0.0-0.0-0.0-0.64","856","","j","","","","","","","","","","","","","key","j","8.330914414414364","768","428","f","false","img/H_ambi40.png","自我","same",""
"","","","","","html-keyboard-response","335","649231","0.0-10.0-0.0-0.0-0.0-1.64","null","<span style='color:red; font-size: 70px;'>错误! </span>","null","","","","","","","","","","","","","","","","","","","","","","","feedback_test"
"","","","","","psychophysics","336","651086","0.0-10.0-0.0-0.0-0.0-0.65","854","","j","","","","","","","","","","","","","key","j","8.33059909909928","768","428","j","true","img/H_ambi40.png","朋友","same",""
"","","","","","html-keyboard-response","337","651589","0.0-10.0-0.0-0.0-0.0-1.65","null","<span style='color:GreenYellow; font-size: 70px;'>正确! </span>","null","","","","","","","","","","","","","","","","","","","","","","","feedback_test"
"","","","","","psychophysics","338","653111","0.0-10.0-0.0-0.0-0.0-0.66","520","","j","","","","","","","","","","","","","key","j","8.330978021978089","768","428","j","true","img/H_ambi40.png","朋友","same",""
"","","","","","html-keyboard-response","339","653613","0.0-10.0-0.0-0.0-0.0-1.66","null","<span style='color:GreenYellow; font-size: 70px;'>正确! </span>","null","","","","","","","","","","","","","","","","","","","","","","","feedback_test"
"","","","","","psychophysics","340","655310","0.0-10.0-0.0-0.0-0.0-0.67","696","","j","","","","","","","","","","","","","key","j","8.330921182266133","768","428","j","true","img/C_ambi40.png","自我","same",""
"","","","","","html-keyboard-response","341","655811","0.0-10.0-0.0-0.0-0.0-1.67","null","<span style='color:GreenYellow; font-size: 70px;'>正确! </span>","null","","","","","","","","","","","","","","","","","","","","","","","feedback_test"
"","","","","","psychophysics","342","657498","0.0-10.0-0.0-0.0-0.0-0.68","687","","f","","","","","","","","","","","","","key","f","8.330880597014842","768","428","f","true","img/S_ambi40.png","自我","same",""
"","","","","","html-keyboard-response","343","657999","0.0-10.0-0.0-0.0-0.0-1.68","null","<span style='color:GreenYellow; font-size: 70px;'>正确! </span>","null","","","","","","","","","","","","","","","","","","","","","","","feedback_test"
"","","","","","psychophysics","344","659519","0.0-10.0-0.0-0.0-0.0-0.69","520","","f","","","","","","","","","","","","","key","f","8.326309392265383","768","428","j","false","img/S_ambi40.png","生人","same",""
"","","","","","html-keyboard-response","345","660020","0.0-10.0-0.0-0.0-0.0-1.69","null","<span style='color:red; font-size: 70px;'>错误! </span>","null","","","","","","","","","","","","","","","","","","","","","","","feedback_test"
"","","","","","psychophysics","346","661550","0.0-10.0-0.0-0.0-0.0-0.70","529","","j","","","","","","","","","","","","","key","j","8.330901639344543","768","428","j","true","img/C_ambi40.png","自我","same",""
"","","","","","html-keyboard-response","347","662051","0.0-10.0-0.0-0.0-0.0-1.70","null","<span style='color:GreenYellow; font-size: 70px;'>正确! </span>","null","","","","","","","","","","","","","","","","","","","","","","","feedback_test"
"","","","","","psychophysics","348","663535","0.0-10.0-0.0-0.0-0.0-0.71","483","","j","","","","","","","","","","","","","key","j","8.330887005649938","768","428","j","true","img/C_ambi40.png","自我","same",""
"","","","","","html-keyboard-response","349","664036","0.0-10.0-0.0-0.0-0.0-1.71","null","<span style='color:GreenYellow; font-size: 70px;'>正确! </span>","null","","","","","","","","","","","","","","","","","","","","","","","feedback_test"
"","","","","","psychophysics","350","665660","0.0-10.0-0.0-0.0-0.0-0.72","623","","j","","","","","","","","","","","","","key","j","8.330953608247206","768","428","j","true","img/H_ambi40.png","朋友","same",""
"","","","","","html-keyboard-response","351","666162","0.0-10.0-0.0-0.0-0.0-1.72","null","<span style='color:GreenYellow; font-size: 70px;'>正确! </span>","null","","","","","","","","","","","","","","","","","","","","","","","feedback_test"
"","","","","","psychophysics","352","667717","0.0-10.0-0.0-0.0-0.0-0.73","554","","j","","","","","","","","","","","","","key","j","8.33089247311876","768","428","j","true","img/C_ambi40.png","自我","same",""
"","","","","","html-keyboard-response","353","668218","0.0-10.0-0.0-0.0-0.0-1.73","null","<span style='color:GreenYellow; font-size: 70px;'>正确! </span>","null","","","","","","","","","","","","","","","","","","","","","","","feedback_test"
"","","","","","psychophysics","354","669961","0.0-10.0-0.0-0.0-0.0-0.74","741","","f","","","","","","","","","","","","","key","f","8.330932692307844","768","428","f","true","img/T_ambi40.png","をる","same",""
"","","","","","html-keyboard-response","355","670462","0.0-10.0-0.0-0.0-0.0-1.74","null","<span style='color:GreenYellow; font-size: 70px;'>正确! </span>","null","","","","","","","","","","","","","","","","","","","","","","","feedback_test"
"","","","","","psychophysics","356","671960","0.0-10.0-0.0-0.0-0.0-0.75","498","","j","","","","","","","","","","","","","key","j","8.326943820224699","768","428","j","true","img/C_ambi40.png","自我","same",""
"","","","","","html-keyboard-response","357","672461","0.0-10.0-0.0-0.0-0.0-1.75","null","<span style='color:GreenYellow; font-size: 70px;'>正确! </span>","null","","","","","","","","","","","","","","","","","","","","","","","feedback_test"
"","","","","","psychophysics","358","674036","0.0-10.0-0.0-0.0-0.0-0.76","574","","f","","","","","","","","","","","","","key","f","8.330893617021193","768","428","f","true","img/C_ambi40.png","生人","same",""
"","","","","","html-keyboard-response","359","674538","0.0-10.0-0.0-0.0-0.0-1.76","null","<span style='color:GreenYellow; font-size: 70px;'>正确! </span>","null","","","","","","","","","","","","","","","","","","","","","","","feedback_test"
"","","","","","psychophysics","360","676271","0.0-10.0-0.0-0.0-0.0-0.77","733","","j","","","","","","","","","","","","","key","j","8.330879227052991","768","428","j","true","img/S_ambi40.png","生人","same",""
"","","","","","html-keyboard-response","361","676772","0.0-10.0-0.0-0.0-0.0-1.77","null","<span style='color:GreenYellow; font-size: 70px;'>正确! </span>","null","","","","","","","","","","","","","","","","","","","","","","","feedback_test"
"","","","","","psychophysics","362","678447","0.0-10.0-0.0-0.0-0.0-0.78","674","","j","","","","","","","","","","","","","key","j","8.33085999999952","768","428","j","true","img/H_ambi40.png","朋友","same",""
"","","","","","html-keyboard-response","363","678949","0.0-10.0-0.0-0.0-0.0-1.78","null","<span style='color:GreenYellow; font-size: 70px;'>正确! </span>","null","","","","","","","","","","","","","","","","","","","","","","","feedback_test"
"","","","","","psychophysics","364","680709","0.0-10.0-0.0-0.0-0.0-0.79","760","","f","","","","","","","","","","","","","key","f","8.330985714285635","768","428","f","true","img/S_ambi40.png","朋友","same",""
"","","","","","html-keyboard-response","365","681209","0.0-10.0-0.0-0.0-0.0-1.79","null","<span style='color:GreenYellow; font-size: 70px;'>正确! </span>","null","","","","","","","","","","","","","","","","","","","","","","","feedback_test"
"","","","","","psychophysics","366","682792","0.0-10.0-0.0-0.0-0.0-0.80","582","","j","","","","","","","","","","","","","key","j","8.330872340425676","768","428","j","true","img/C_ambi40.png","自我","same",""
"","","","","","html-keyboard-response","367","683293","0.0-10.0-0.0-0.0-0.0-1.80","null","<span style='color:GreenYellow; font-size: 70px;'>正确! </span>","null","","","","","","","","","","","","","","","","","","","","","","","feedback_test"
"","","","","","psychophysics","368","684898","0.0-10.0-0.0-0.0-0.0-0.81","603","","f","","","","","","","","","","","","","key","f","8.330821989528976","768","428","j","false","img/S_ambi40.png","生人","same",""
"","","","","","html-keyboard-response","369","685399","0.0-10.0-0.0-0.0-0.0-1.81","null","<span style='color:red; font-size: 70px;'>错误! </span>","null","","","","","","","","","","","","","","","","","","","","","","","feedback_test"
"","","","","","psychophysics","370","687140","0.0-10.0-0.0-0.0-0.0-0.82","740","","f","","","","","","","","","","","","","key","f","8.32485990338185","768","428","f","true","img/H_ambi40.png","生人","same",""
"","","","","","html-keyboard-response","371","687641","0.0-10.0-0.0-0.0-0.0-1.82","null","<span style='color:GreenYellow; font-size: 70px;'>正确! </span>","null","","","","","","","","","","","","","","","","","","","","","","","feedback_test"
"","","","","","psychophysics","372","689212","0.0-10.0-0.0-0.0-0.0-0.83","571","","j","","","","","","","","","","","","","key","j","8.330807486631196","768","428","f","false","img/T_ambi40.png","をる","same",""
"","","","","","html-keyboard-response","373","689714","0.0-10.0-0.0-0.0-0.0-1.83","null","<span style='color:red; font-size: 70px;'>错误! </span>","null","","","","","","","","","","","","","","","","","","","","","","","feedback_test"
"","","","","","psychophysics","374","691277","0.0-10.0-0.0-0.0-0.0-0.84","563","","j","","","","","","","","","","","","","key","j","8.330786096257093","768","428","f","false","img/H_ambi40.png","自我","same",""
"","","","","","html-keyboard-response","375","691778","0.0-10.0-0.0-0.0-0.0-1.84","null","<span style='color:red; font-size: 70px;'>错误! </span>","null","","","","","","","","","","","","","","","","","","","","","","","feedback_test"
"","","","","","psychophysics","376","693522","0.0-10.0-0.0-0.0-0.0-0.85","743","","f","","","","","","","","","","","","","key","f","8.330927884615308","768","428","f","true","img/S_ambi40.png","自我","same",""
"","","","","","html-keyboard-response","377","694023","0.0-10.0-0.0-0.0-0.0-1.85","null","<span style='color:GreenYellow; font-size: 70px;'>正确! </span>","null","","","","","","","","","","","","","","","","","","","","","","","feedback_test"
"","","","","","psychophysics","378","695673","0.0-10.0-0.0-0.0-0.0-0.86","649","","j","","","","","","","","","","","","","key","j","8.330842639593795","768","428","j","true","img/S_ambi40.png","生人","same",""
"","","","","","html-keyboard-response","379","696173","0.0-10.0-0.0-0.0-0.0-1.86","null","<span style='color:GreenYellow; font-size: 70px;'>正确! </span>","null","","","","","","","","","","","","","","","","","","","","","","","feedback_test"
"","","","","","psychophysics","380","697928","0.0-10.0-0.0-0.0-0.0-0.87","753","","f","","","","","","","","","","","","","key","f","8.330803827751366","768","428","f","true","img/C_ambi40.png","朋友","same",""
"","","","","","html-keyboard-response","381","698430","0.0-10.0-0.0-0.0-0.0-1.87","null","<span style='color:GreenYellow; font-size: 70px;'>正确! </span>","null","","","","","","","","","","","","","","","","","","","","","","","feedback_test"
"","","","","","psychophysics","382","700038","0.0-10.0-0.0-0.0-0.0-0.88","607","","j","","","","","","","","","","","","","key","j","8.330869791666677","768","428","j","true","img/H_ambi40.png","朋友","same",""
"","","","","","html-keyboard-response","383","700539","0.0-10.0-0.0-0.0-0.0-1.88","null","<span style='color:GreenYellow; font-size: 70px;'>正确! </span>","null","","","","","","","","","","","","","","","","","","","","","","","feedback_test"
"","","","","","psychophysics","384","701874","0.0-10.0-0.0-0.0-0.0-0.89","334","","f","","","","","","","","","","","","","key","f","8.33085534591213","768","428","f","true","img/T_ambi40.png","をる","same",""
"","","","","","html-keyboard-response","385","702376","0.0-10.0-0.0-0.0-0.0-1.89","null","<span style='color:GreenYellow; font-size: 70px;'>正确! </span>","null","","","","","","","","","","","","","","","","","","","","","","","feedback_test"
"","","","","","psychophysics","386","704286","0.0-10.0-0.0-0.0-0.0-0.90","909","","j","","","","","","","","","","","","","key","j","8.330798245614124","768","428","j","true","img/S_ambi40.png","生人","same",""
"","","","","","html-keyboard-response","387","704787","0.0-10.0-0.0-0.0-0.0-1.90","null","<span style='color:GreenYellow; font-size: 70px;'>正确! </span>","null","","","","","","","","","","","","","","","","","","","","","","","feedback_test"
"","","","","","psychophysics","388","706338","0.0-10.0-0.0-0.0-0.0-0.91","550","","j","","","","","","","","","","","","","key","j","8.330794594594831","768","428","j","true","img/H_ambi40.png","朋友","same",""
"","","","","","html-keyboard-response","389","706839","0.0-10.0-0.0-0.0-0.0-1.91","null","<span style='color:GreenYellow; font-size: 70px;'>正确! </span>","null","","","","","","","","","","","","","","","","","","","","","","","feedback_test"
"","","","","","psychophysics","390","708564","0.0-10.0-0.0-0.0-0.0-0.92","722","","j","","","","","","","","","","","","","key","j","8.330898058252608","768","428","j","true","img/C_ambi40.png","自我","same",""
"","","","","","html-keyboard-response","391","709065","0.0-10.0-0.0-0.0-0.0-1.92","null","<span style='color:GreenYellow; font-size: 70px;'>正确! </span>","null","","","","","","","","","","","","","","","","","","","","","","","feedback_test"
"","","","","","psychophysics","392","710758","0.0-10.0-0.0-0.0-0.0-0.93","693","","j","","","","","","","","","","","","","key","j","8.330777227722965","768","428","f","false","img/H_ambi40.png","生人","same",""
"","","","","","html-keyboard-response","393","711261","0.0-10.0-0.0-0.0-0.0-1.93","null","<span style='color:red; font-size: 70px;'>错误! </span>","null","","","","","","","","","","","","","","","","","","","","","","","feedback_test"
"","","","","","psychophysics","394","713219","0.0-10.0-0.0-0.0-0.0-0.94","957","","f","","","","","","","","","","","","","key","f","8.330893162393178","768","428","f","true","img/S_ambi40.png","自我","same",""
"","","","","","html-keyboard-response","395","713720","0.0-10.0-0.0-0.0-0.0-1.94","null","<span style='color:GreenYellow; font-size: 70px;'>正确! </span>","null","","","","","","","","","","","","","","","","","","","","","","","feedback_test"
"","","","","","psychophysics","396","715815","0.0-10.0-0.0-0.0-0.0-0.95","1093","","f","","","","","","","","","","","","","key","f","8.330856000000145","768","428","f","true","img/C_ambi40.png","朋友","same",""
"","","","","","html-keyboard-response","397","716315","0.0-10.0-0.0-0.0-0.0-1.95","null","<span style='color:GreenYellow; font-size: 70px;'>正确! </span>","null","","","","","","","","","","","","","","","","","","","","","","","feedback_test"
"","","","","","psychophysics","398","718150","0.0-10.0-0.0-0.0-0.0-0.96","834","","f","","","","","","","","","","","","","key","f","8.324894977168958","768","428","j","false","img/S_ambi40.png","生人","same",""
"","","","","","html-keyboard-response","399","718651","0.0-10.0-0.0-0.0-0.0-1.96","null","<span style='color:red; font-size: 70px;'>错误! </span>","null","","","","","","","","","","","","","","","","","","","","","","","feedback_test"
"","","","","","psychophysics","400","720676","0.0-10.0-0.0-0.0-0.0-0.97","1024","","j","","","","","","","","","","","","","key","j","8.330834710743945","768","428","j","true","img/H_ambi40.png","朋友","same",""
"","","","","","html-keyboard-response","401","721178","0.0-10.0-0.0-0.0-0.0-1.97","null","<span style='color:GreenYellow; font-size: 70px;'>正确! </span>","null","","","","","","","","","","","","","","","","","","","","","","","feedback_test"
"","","","","","psychophysics","402","722716","0.0-10.0-0.0-0.0-0.0-0.98","537","","j","","","","","","","","","","","","","key","j","8.330842391304348","768","428","j","true","img/C_ambi40.png","自我","same",""
"","","","","","html-keyboard-response","403","723217","0.0-10.0-0.0-0.0-0.0-1.98","null","<span style='color:GreenYellow; font-size: 70px;'>正确! </span>","null","","","","","","","","","","","","","","","","","","","","","","","feedback_test"
"","","","","","psychophysics","404","724767","0.0-10.0-0.0-0.0-0.0-0.99","549","","f","","","","","","","","","","","","","key","f","8.3309891891886","768","428","f","true","img/T_ambi40.png","をる","same",""
"","","","","","html-keyboard-response","405","725268","0.0-10.0-0.0-0.0-0.0-1.99","null","<span style='color:GreenYellow; font-size: 70px;'>正确! </span>","null","","","","","","","","","","","","","","","","","","","","","","","feedback_test"
"","","","","","psychophysics","406","727180","0.0-10.0-0.0-0.0-0.0-0.100","912","","j","","","","","","","","","","","","","key","j","8.330681222707021","768","428","j","true","img/H_ambi40.png","朋友","same",""
"","","","","","html-keyboard-response","407","727681","0.0-10.0-0.0-0.0-0.0-1.100","null","<span style='color:GreenYellow; font-size: 70px;'>正确! </span>","null","","","","","","","","","","","","","","","","","","","","","","","feedback_test"
"","","","","","psychophysics","408","729418","0.0-10.0-0.0-0.0-0.0-0.101","736","","f","","","","","","","","","","","","","key","f","8.330835748792307","768","428","f","true","img/S_ambi40.png","朋友","same",""
"","","","","","html-keyboard-response","409","729919","0.0-10.0-0.0-0.0-0.0-1.101","null","<span style='color:GreenYellow; font-size: 70px;'>正确! </span>","null","","","","","","","","","","","","","","","","","","","","","","","feedback_test"
"","","","","","psychophysics","410","731512","0.0-10.0-0.0-0.0-0.0-0.102","593","","f","","","","","","","","","","","","","key","f","8.331000000000103","768","428","f","true","img/T_ambi40.png","をる","same",""
"","","","","","html-keyboard-response","411","732012","0.0-10.0-0.0-0.0-0.0-1.102","null","<span style='color:GreenYellow; font-size: 70px;'>正确! </span>","null","","","","","","","","","","","","","","","","","","","","","","","feedback_test"
"","","","","","psychophysics","412","733481","0.0-10.0-0.0-0.0-0.0-0.103","468","","f","","","","","","","","","","","","","key","f","8.330731428571578","768","428","f","true","img/T_ambi40.png","をる","same",""
"","","","","","html-keyboard-response","413","733982","0.0-10.0-0.0-0.0-0.0-1.103","null","<span style='color:GreenYellow; font-size: 70px;'>正确! </span>","null","","","","","","","","","","","","","","","","","","","","","","","feedback_test"
"","","","","","psychophysics","414","735545","0.0-10.0-0.0-0.0-0.0-0.104","561","","j","","","","","","","","","","","","","key","j","8.330983957219097","768","428","j","true","img/C_ambi40.png","自我","same",""
"","","","","","html-keyboard-response","415","736046","0.0-10.0-0.0-0.0-0.0-1.104","null","<span style='color:GreenYellow; font-size: 70px;'>正确! </span>","null","","","","","","","","","","","","","","","","","","","","","","","feedback_test"
"","","","","","psychophysics","416","737866","0.0-10.0-0.0-0.0-0.0-0.105","818","","f","","","","","","","","","","","","","key","f","8.330834101382342","768","428","j","false","img/S_ambi40.png","生人","same",""
"","","","","","html-keyboard-response","417","738366","0.0-10.0-0.0-0.0-0.0-1.105","null","<span style='color:red; font-size: 70px;'>错误! </span>","null","","","","","","","","","","","","","","","","","","","","","","","feedback_test"
"","","","","","psychophysics","418","739900","0.0-10.0-0.0-0.0-0.0-0.106","533","","j","","","","","","","","","","","","","key","j","8.330841530054615","768","428","f","false","img/H_ambi40.png","自我","same",""
"","","","","","html-keyboard-response","419","740400","0.0-10.0-0.0-0.0-0.0-1.106","null","<span style='color:red; font-size: 70px;'>错误! </span>","null","","","","","","","","","","","","","","","","","","","","","","","feedback_test"
"","","","","","psychophysics","420","742165","0.0-10.0-0.0-0.0-0.0-0.107","763","","f","","","","","","","","","","","","","key","f","8.33078571428556","768","428","f","true","img/C_ambi40.png","生人","same",""
"","","","","","html-keyboard-response","421","742666","0.0-10.0-0.0-0.0-0.0-1.107","null","<span style='color:GreenYellow; font-size: 70px;'>正确! </span>","null","","","","","","","","","","","","","","","","","","","","","","","feedback_test"
"","","","","","html-keyboard-response","422","746608","0.0-10.0-0.0-0.0-1.0","3941","<style>.context{color:white; font-size: 35px; line-height:40px}</style>                          <div><p class='context'>您正确回答了76% 的试次。</p><p class='context'>您的平均反应时为663毫秒。</p><p class='context'>请按任意键进入休息</p></div>","enter","","","","","","","","","","","","","","","","","","","","","","",""
"","","","","","html-button-response","423","808700","0.0-10.0-0.0-0.0-2.0","62090","
                    <p>您当前还剩余5组实验</p>
                    <p>现在是休息时间，当您结束休息后，您可以点击 结束休息 按钮 继续</p>
                    <p>建议休息时间还剩余<span id=""iii"">60</span>秒</p>","0","","","","","","","","","","","","","","","","","","","","","","",""
"","","","","","psychophysics","424","811203","0.0-10.0-0.0-0.0-0.1-0.108","null","","null","","","","","","","","","","","","","key","null","8.330765886287544","768","428","f","false","img/T_ambi40.png","をる","same",""
"","","","","","html-keyboard-response","425","811704","0.0-10.0-0.0-0.0-0.1-1.108","null","<span class='add_' style='color:yellow; font-size: 70px;'> 太慢! </span>","null","","","","","","","","","","","","","","","","","","","","","","","feedback_test"
"","","","","","psychophysics","426","813549","0.0-10.0-0.0-0.0-0.1-0.109","843","","f","","","","","","","","","","","","","key","f","8.330859090909573","768","428","f","true","img/S_ambi40.png","朋友","same",""
"","","","","","html-keyboard-response","427","814050","0.0-10.0-0.0-0.0-0.1-1.109","null","<span style='color:GreenYellow; font-size: 70px;'>正确! </span>","null","","","","","","","","","","","","","","","","","","","","","","","feedback_test"
"","","","","","psychophysics","428","815707","0.0-10.0-0.0-0.0-0.1-0.110","656","","f","","","","","","","","","","","","","key","f","8.330823232323365","768","428","f","true","img/T_ambi40.png","をる","same",""
"","","","","","html-keyboard-response","429","816208","0.0-10.0-0.0-0.0-0.1-1.110","null","<span style='color:GreenYellow; font-size: 70px;'>正确! </span>","null","","","","","","","","","","","","","","","","","","","","","","","feedback_test"
"","","","","","psychophysics","430","817759","0.0-10.0-0.0-0.0-0.1-0.111","550","","j","","","","","","","","","","","","","key","j","8.330783783784137","768","428","j","true","img/C_ambi40.png","自我","same",""
"","","","","","html-keyboard-response","431","818261","0.0-10.0-0.0-0.0-0.1-1.111","null","<span style='color:GreenYellow; font-size: 70px;'>正确! </span>","null","","","","","","","","","","","","","","","","","","","","","","","feedback_test"
"","","","","","psychophysics","432","819945","0.0-10.0-0.0-0.0-0.1-0.112","683","","f","","","","","","","","","","","","","key","f","8.330850746268894","768","428","j","false","img/S_ambi40.png","生人","same",""
"","","","","","html-keyboard-response","433","820446","0.0-10.0-0.0-0.0-0.1-1.112","null","<span style='color:red; font-size: 70px;'>错误! </span>","null","","","","","","","","","","","","","","","","","","","","","","","feedback_test"
"","","","","","psychophysics","434","822294","0.0-10.0-0.0-0.0-0.1-0.113","845","","f","","","","","","","","","","","","","key","f","8.330877828054083","768","428","f","true","img/C_ambi40.png","朋友","same",""
"","","","","","html-keyboard-response","435","822794","0.0-10.0-0.0-0.0-0.1-1.113","null","<span style='color:GreenYellow; font-size: 70px;'>正确! </span>","null","","","","","","","","","","","","","","","","","","","","","","","feedback_test"
"","","","","","psychophysics","436","824392","0.0-10.0-0.0-0.0-0.1-0.114","596","","j","","","","","","","","","","","","","key","j","8.330884210526404","768","428","j","true","img/H_ambi40.png","朋友","same",""
"","","","","","html-keyboard-response","437","824892","0.0-10.0-0.0-0.0-0.1-1.114","null","<span style='color:GreenYellow; font-size: 70px;'>正确! </span>","null","","","","","","","","","","","","","","","","","","","","","","","feedback_test"
"","","","","","psychophysics","438","826793","0.0-10.0-0.0-0.0-0.1-0.115","899","","j","","","","","","","","","","","","","key","j","8.33085022026433","768","428","j","true","img/C_ambi40.png","自我","same",""
"","","","","","html-keyboard-response","439","827294","0.0-10.0-0.0-0.0-0.1-1.115","null","<span style='color:GreenYellow; font-size: 70px;'>正确! </span>","null","","","","","","","","","","","","","","","","","","","","","","","feedback_test"
"","","","","","psychophysics","440","829211","0.0-10.0-0.0-0.0-0.1-0.116","916","","f","","","","","","","","","","","","","key","f","8.330807860262029","768","428","j","false","img/S_ambi40.png","生人","same",""
"","","","","","html-keyboard-response","441","829712","0.0-10.0-0.0-0.0-0.1-1.116","null","<span style='color:red; font-size: 70px;'>错误! </span>","null","","","","","","","","","","","","","","","","","","","","","","","feedback_test"
"","","","","","psychophysics","442","831486","0.0-10.0-0.0-0.0-0.1-0.117","772","","f","","","","","","","","","","","","","key","f","8.330839622641676","768","428","f","true","img/S_ambi40.png","自我","same",""
"","","","","","html-keyboard-response","443","831987","0.0-10.0-0.0-0.0-0.1-1.117","null","<span style='color:GreenYellow; font-size: 70px;'>正确! </span>","null","","","","","","","","","","","","","","","","","","","","","","","feedback_test"
"","","","","","psychophysics","444","833525","0.0-10.0-0.0-0.0-0.1-0.118","537","","j","","","","","","","","","","","","","key","j","8.330750000000041","768","428","j","true","img/C_ambi40.png","自我","same",""
"","","","","","html-keyboard-response","445","834026","0.0-10.0-0.0-0.0-0.1-1.118","null","<span style='color:GreenYellow; font-size: 70px;'>正确! </span>","null","","","","","","","","","","","","","","","","","","","","","","","feedback_test"
"","","","","","psychophysics","446","835905","0.0-10.0-0.0-0.0-0.1-0.119","879","","j","","","","","","","","","","","","","key","j","8.33093750000002","768","428","f","false","img/H_ambi40.png","生人","same",""
