"success","timeout","failed_images","failed_audio","failed_video","trial_type","trial_index","time_elapsed","internal_node_id","rt","stimulus","response","value","item_width_mm","item_height_mm","item_width_px","px2mm","view_dist_mm","item_width_deg","px2deg","scale_factor","win_width_deg","win_height_deg","view_history","response_type","key_press","avg_frame_time","center_x","center_y","correct_response","correct","Image","word","condition","screen_id"
"true","false","[]","[]","[]","preload","0","43905","0.0-0.0","","","","","","","","","","","","","","","","","","","","","","","","","",""
"","","","","","html-keyboard-response","1","85174","0.0-1.0","41268","
     <p>您好，欢迎参加本次实验。</p>
     <p>为充分保障您的权利，请确保您已经知晓并同意《参与实验同意书》以及《数据公开知情同意书》。</p>
     <p>如果您未见过上述内容，请咨询实验员。</p>
     <p>如果您选择继续实验，则表示您已经清楚两份知情同意书的内容并同意。</p>
     <p> <div style = ""color: green""><按任意键至下页></div> </p>
     ","i","","","","","","","","","","","","","","","","","","","","","","",""
"","","","","","html-keyboard-response","2","89969","0.0-2.0","4795","
     <p>本实验首先需要您填写一些基本个人信息。</p>
     <p> <div style = ""color: green""><按任意键至下页></div></p>
     ","i","","","","","","","","","","","","","","","","","","","","","","",""
"","","","","","call-function","3","89970","0.0-3.0-0.0","","","","","","","","","","","","","","","","","","","","","","","","","",""
"","","","","","survey-html-form","4","98100","0.0-3.0-1.0","8087","","{""Q0"":""20""}","","","","","","","","","","","","","","","","","","","","","","",""
"","","","","","html-button-response","5","99446","0.0-3.0-2.0","1344","<p style = 'color : white'>您的性别</p>","1","","","","","","","","","","","","","","","","","","","","","","",""
"","","","","","survey-html-form","6","104545","0.0-3.0-3.0","5099","","{""Q0"":""1998""}","","","","","","","","","","","","","","","","","","","","","","",""
"","","","","","survey-html-form","7","107839","0.0-3.0-4.0","3293","","{""Q0"":""5""}","","","","","","","","","","","","","","","","","","","","","","",""
"","","","","","virtual-chinrest","8","225049","0.0-4.0","117208","","","","85.6","53.98","492.68137084601483","5.752117527643827","496.51","9.853627416920297","50","0.7997054959139966","27.32","13.14","","","","","","","","","","","",""
"true","","","","","fullscreen","9","262537","0.0-5.0","","","","","","","","","","","","","","","","","","","","","","","","","",""
"","","","","","instructions","10","330429","0.0-6.0","67892","","","","","","","","","","","","","","[{""page_index"":0,""viewing_time"":4576},{""page_index"":1,""viewing_time"":38748},{""page_index"":2,""viewing_time"":11419},{""page_index"":3,""viewing_time"":6006},{""page_index"":2,""viewing_time"":628},{""page_index"":1,""viewing_time"":4593},{""page_index"":2,""viewing_time"":1027},{""page_index"":3,""viewing_time"":896}]","","","","","","","","","","",""
"","","","","","psychophysics","11","332765","0.0-7.0-0.0","1327","","f","","","","","","","","","","","","","key","f","16.91877272727266","683","380","j","false","img/H_ambi40.png","朋友","prac",""
"","","","","","html-keyboard-response","12","333273","0.0-7.0-1.0","null","<span style='color:red; font-size: 70px;'>错误! </span>","null","","","","","","","","","","","","","","","","","","","","","","","feedback_test"
"","","","","","psychophysics","13","334995","0.0-7.0-0.1","710","","f","","","","","","","","","","","","","key","f","16.666553398058525","683","380","f","true","img/S_ambi40.png","自我","prac",""
"","","","","","html-keyboard-response","14","335506","0.0-7.0-1.1","null","<span style='color:GreenYellow; font-size: 70px;'>正确! </span>","null","","","","","","","","","","","","","","","","","","","","","","","feedback_test"
"","","","","","psychophysics","15","338011","0.0-7.0-0.2","null","","null","","","","","","","","","","","","","key","null","16.77985234899351","683","380","j","false","img/T_ambi40.png","をる","prac",""
"","","","","","html-keyboard-response","16","338523","0.0-7.0-1.2","null","<span class='add_' style='color:yellow; font-size: 70px;'> 太慢! </span>","null","","","","","","","","","","","","","","","","","","","","","","","feedback_test"
"","","","","","psychophysics","17","340193","0.0-7.0-0.3","656","","j","","","","","","","","","","","","","key","j","16.665970000000087","683","380","j","true","img/S_ambi40.png","生人","prac",""
"","","","","","html-keyboard-response","18","340700","0.0-7.0-1.3","null","<span style='color:GreenYellow; font-size: 70px;'>正确! </span>","null","","","","","","","","","","","","","","","","","","","","","","","feedback_test"
"","","","","","psychophysics","19","342434","0.0-7.0-0.4","729","","j","","","","","","","","","","","","","key","j","16.668941747572937","683","380","f","false","img/H_ambi40.png","生人","prac",""
"","","","","","html-keyboard-response","20","342947","0.0-7.0-1.4","null","<span style='color:red; font-size: 70px;'>错误! </span>","null","","","","","","","","","","","","","","","","","","","","","","","feedback_test"
"","","","","","psychophysics","21","345213","0.0-7.0-0.5","1261","","f","","","","","","","","","","","","","key","f","16.66847407407412","683","380","j","false","img/S_ambi40.png","朋友","prac",""
"","","","","","html-keyboard-response","22","345722","0.0-7.0-1.5","null","<span style='color:red; font-size: 70px;'>错误! </span>","null","","","","","","","","","","","","","","","","","","","","","","","feedback_test"
"","","","","","psychophysics","23","347752","0.0-7.0-0.6","1023","","f","","","","","","","","","","","","","key","f","16.66351666666645","683","380","f","true","img/S_ambi40.png","自我","prac",""
"","","","","","html-keyboard-response","24","348256","0.0-7.0-1.6","null","<span style='color:GreenYellow; font-size: 70px;'>正确! </span>","null","","","","","","","","","","","","","","","","","","","","","","","feedback_test"
"","","","","","psychophysics","25","350017","0.0-7.0-0.7","760","","f","","","","","","","","","","","","","key","f","16.668780952381038","683","380","f","true","img/C_ambi40.png","朋友","prac",""
"","","","","","html-keyboard-response","26","350520","0.0-7.0-1.7","null","<span style='color:GreenYellow; font-size: 70px;'>正确! </span>","null","","","","","","","","","","","","","","","","","","","","","","","feedback_test"
"","","","","","psychophysics","27","352206","0.0-7.0-0.8","685","","j","","","","","","","","","","","","","key","j","16.666689999999946","683","380","j","true","img/T_ambi40.png","をる","prac",""
"","","","","","html-keyboard-response","28","352713","0.0-7.0-1.8","null","<span style='color:GreenYellow; font-size: 70px;'>正确! </span>","null","","","","","","","","","","","","","","","","","","","","","","","feedback_test"
"","","","","","psychophysics","29","354808","0.0-7.0-0.9","1088","","j","","","","","","","","","","","","","key","j","16.668200000000187","683","380","j","true","img/C_ambi40.png","生人","prac",""
"","","","","","html-keyboard-response","30","355309","0.0-7.0-1.9","null","<span style='color:GreenYellow; font-size: 70px;'>正确! </span>","null","","","","","","","","","","","","","","","","","","","","","","","feedback_test"
"","","","","","psychophysics","31","357078","0.0-7.0-0.10","766","","j","","","","","","","","","","","","","key","j","16.66883962264148","683","380","f","false","img/H_ambi40.png","生人","prac",""
"","","","","","html-keyboard-response","32","357584","0.0-7.0-1.10","null","<span style='color:red; font-size: 70px;'>错误! </span>","null","","","","","","","","","","","","","","","","","","","","","","","feedback_test"
"","","","","","psychophysics","33","359425","0.0-7.0-0.11","837","","j","","","","","","","","","","","","","key","j","16.66827272727281","683","380","j","true","img/T_ambi40.png","をる","prac",""
"","","","","","html-keyboard-response","34","359935","0.0-7.0-1.11","null","<span style='color:GreenYellow; font-size: 70px;'>正确! </span>","null","","","","","","","","","","","","","","","","","","","","","","","feedback_test"
"","","","","","psychophysics","35","362437","0.0-7.0-0.12","null","","null","","","","","","","","","","","","","key","null","16.66617449664436","683","380","f","false","img/C_ambi40.png","朋友","prac",""
"","","","","","html-keyboard-response","36","362939","0.0-7.0-1.12","null","<span class='add_' style='color:yellow; font-size: 70px;'> 太慢! </span>","null","","","","","","","","","","","","","","","","","","","","","","","feedback_test"
"","","","","","psychophysics","37","365038","0.0-7.0-0.13","1092","","j","","","","","","","","","","","","","key","j","16.66947619047613","683","380","j","true","img/H_ambi40.png","自我","prac",""
"","","","","","html-keyboard-response","38","365539","0.0-7.0-1.13","null","<span style='color:GreenYellow; font-size: 70px;'>正确! </span>","null","","","","","","","","","","","","","","","","","","","","","","","feedback_test"
"","","","","","psychophysics","39","367669","0.0-7.0-0.14","1116","","j","","","","","","","","","","","","","key","j","16.666333333333206","683","380","j","true","img/C_ambi40.png","自我","prac",""
"","","","","","html-keyboard-response","40","368172","0.0-7.0-1.14","null","<span style='color:GreenYellow; font-size: 70px;'>正确! </span>","null","","","","","","","","","","","","","","","","","","","","","","","feedback_test"
"","","","","","psychophysics","41","369790","0.0-7.0-0.15","607","","j","","","","","","","","","","","","","key","j","16.66608247422666","683","380","j","true","img/T_ambi40.png","をる","prac",""
"","","","","","html-keyboard-response","42","370306","0.0-7.0-1.15","null","<span style='color:GreenYellow; font-size: 70px;'>正确! </span>","null","","","","","","","","","","","","","","","","","","","","","","","feedback_test"
"","","","","","psychophysics","43","372266","0.0-7.0-0.16","951","","j","","","","","","","","","","","","","key","j","16.667431034482433","683","380","j","true","img/S_ambi40.png","生人","prac",""
"","","","","","html-keyboard-response","44","372777","0.0-7.0-1.16","null","<span style='color:GreenYellow; font-size: 70px;'>正确! </span>","null","","","","","","","","","","","","","","","","","","","","","","","feedback_test"
"","","","","","psychophysics","45","374363","0.0-7.0-0.17","579","","j","","","","","","","","","","","","","key","j","16.667244680851272","683","380","j","true","img/T_ambi40.png","をる","prac",""
"","","","","","html-keyboard-response","46","374878","0.0-7.0-1.17","null","<span style='color:GreenYellow; font-size: 70px;'>正确! </span>","null","","","","","","","","","","","","","","","","","","","","","","","feedback_test"
"","","","","","psychophysics","47","376817","0.0-7.0-0.18","931","","f","","","","","","","","","","","","","key","f","16.66448275862083","683","380","f","true","img/H_ambi40.png","生人","prac",""
"","","","","","html-keyboard-response","48","377331","0.0-7.0-1.18","null","<span style='color:GreenYellow; font-size: 70px;'>正确! </span>","null","","","","","","","","","","","","","","","","","","","","","","","feedback_test"
"","","","","","psychophysics","49","379313","0.0-7.0-0.19","977","","j","","","","","","","","","","","","","key","j","16.6665338983047","683","380","j","true","img/C_ambi40.png","生人","prac",""
"","","","","","html-keyboard-response","50","379823","0.0-7.0-1.19","null","<span style='color:GreenYellow; font-size: 70px;'>正确! </span>","null","","","","","","","","","","","","","","","","","","","","","","","feedback_test"
"","","","","","psychophysics","51","381981","0.0-7.0-0.20","1148","","j","","","","","","","","","","","","","key","j","16.662757812499876","683","380","j","true","img/C_ambi40.png","自我","prac",""
"","","","","","html-keyboard-response","52","382482","0.0-7.0-1.20","null","<span style='color:GreenYellow; font-size: 70px;'>正确! </span>","null","","","","","","","","","","","","","","","","","","","","","","","feedback_test"
"","","","","","psychophysics","53","384552","0.0-7.0-0.21","1067","","j","","","","","","","","","","","","","key","j","16.799838709677363","683","380","f","false","img/H_ambi40.png","生人","prac",""
"","","","","","html-keyboard-response","54","385058","0.0-7.0-1.21","null","<span style='color:red; font-size: 70px;'>错误! </span>","null","","","","","","","","","","","","","","","","","","","","","","","feedback_test"
"","","","","","psychophysics","55","387125","0.0-7.0-0.22","1057","","j","","","","","","","","","","","","","key","j","16.666097560975555","683","380","j","true","img/H_ambi40.png","朋友","prac",""
"","","","","","html-keyboard-response","56","387626","0.0-7.0-1.22","null","<span style='color:GreenYellow; font-size: 70px;'>正确! </span>","null","","","","","","","","","","","","","","","","","","","","","","","feedback_test"
"","","","","","psychophysics","57","389338","0.0-7.0-0.23","702","","f","","","","","","","","","","","","","key","f","16.666921568627576","683","380","f","true","img/S_ambi40.png","自我","prac",""
"","","","","","html-keyboard-response","58","389841","0.0-7.0-1.23","null","<span style='color:GreenYellow; font-size: 70px;'>正确! </span>","null","","","","","","","","","","","","","","","","","","","","","","","feedback_test"
"","","","","","psychophysics","59","391412","0.0-7.0-0.24","563","","j","","","","","","","","","","","","","key","j","16.669795698925018","683","380","j","true","img/T_ambi40.png","をる","prac",""
"","","","","","html-keyboard-response","60","391919","0.0-7.0-1.24","null","<span style='color:GreenYellow; font-size: 70px;'>正确! </span>","null","","","","","","","","","","","","","","","","","","","","","","","feedback_test"
"","","","","","psychophysics","61","393599","0.0-7.0-0.25","679","","f","","","","","","","","","","","","","key","f","16.664929999999586","683","380","f","true","img/C_ambi40.png","朋友","prac",""
"","","","","","html-keyboard-response","62","394110","0.0-7.0-1.25","null","<span style='color:GreenYellow; font-size: 70px;'>正确! </span>","null","","","","","","","","","","","","","","","","","","","","","","","feedback_test"
"","","","","","psychophysics","63","396099","0.0-7.0-0.26","980","","f","","","","","","","","","","","","","key","f","16.666084033613654","683","380","f","true","img/C_ambi40.png","朋友","prac",""
"","","","","","html-keyboard-response","64","396600","0.0-7.0-1.26","null","<span style='color:GreenYellow; font-size: 70px;'>正确! </span>","null","","","","","","","","","","","","","","","","","","","","","","","feedback_test"
"","","","","","psychophysics","65","398242","0.0-7.0-0.27","640","","j","","","","","","","","","","","","","key","j","16.666010204081932","683","380","j","true","img/S_ambi40.png","朋友","prac",""
"","","","","","html-keyboard-response","66","398743","0.0-7.0-1.27","null","<span style='color:GreenYellow; font-size: 70px;'>正确! </span>","null","","","","","","","","","","","","","","","","","","","","","","","feedback_test"
"","","","","","psychophysics","67","400335","0.0-7.0-0.28","584","","j","","","","","","","","","","","","","key","j","16.66385263157886","683","380","j","true","img/T_ambi40.png","をる","prac",""
"","","","","","html-keyboard-response","68","400837","0.0-7.0-1.28","null","<span style='color:GreenYellow; font-size: 70px;'>正确! </span>","null","","","","","","","","","","","","","","","","","","","","","","","feedback_test"
"","","","","","psychophysics","69","402981","0.0-7.0-0.29","1133","","j","","","","","","","","","","","","","key","j","16.665445312500196","683","380","j","true","img/H_ambi40.png","自我","prac",""
"","","","","","html-keyboard-response","70","403482","0.0-7.0-1.29","null","<span style='color:GreenYellow; font-size: 70px;'>正确! </span>","null","","","","","","","","","","","","","","","","","","","","","","","feedback_test"
"","","","","","psychophysics","71","404921","0.0-7.0-0.30","436","","f","","","","","","","","","","","","","key","f","16.86289534883758","683","380","f","true","img/S_ambi40.png","自我","prac",""
"","","","","","html-keyboard-response","72","405427","0.0-7.0-1.30","null","<span style='color:GreenYellow; font-size: 70px;'>正确! </span>","null","","","","","","","","","","","","","","","","","","","","","","","feedback_test"
"","","","","","psychophysics","73","407039","0.0-7.0-0.31","604","","j","","","","","","","","","","","","","key","j","16.666546391752266","683","380","j","true","img/T_ambi40.png","をる","prac",""
"","","","","","html-keyboard-response","74","407545","0.0-7.0-1.31","null","<span style='color:GreenYellow; font-size: 70px;'>正确! </span>","null","","","","","","","","","","","","","","","","","","","","","","","feedback_test"
"","","","","","psychophysics","75","410051","0.0-8.0-0.0-0.0","null","","null","","","","","","","","","","","","","key","null","16.665900662251893","683","380","j","false","img/H_ambi40.png","朋友","prac",""
"","","","","","html-keyboard-response","76","410566","0.0-8.0-0.0-1.0","null","<span class='add_' style='color:yellow; font-size: 70px;'> 太慢! </span>","null","","","","","","","","","","","","","","","","","","","","","","","feedback_test"
"","","","","","psychophysics","77","412489","0.0-8.0-0.0-0.1","921","","f","","","","","","","","","","","","","key","f","16.666447368420847","683","380","j","false","img/S_ambi40.png","生人","prac",""
"","","","","","html-keyboard-response","78","412991","0.0-8.0-0.0-1.1","null","<span style='color:red; font-size: 70px;'>错误! </span>","null","","","","","","","","","","","","","","","","","","","","","","","feedback_test"
"","","","","","psychophysics","79","414637","0.0-8.0-0.0-0.2","636","","f","","","","","","","","","","","","","key","f","16.66125510204037","683","380","f","true","img/C_ambi40.png","朋友","prac",""
"","","","","","html-keyboard-response","80","415144","0.0-8.0-0.0-1.2","null","<span style='color:GreenYellow; font-size: 70px;'>正确! </span>","null","","","","","","","","","","","","","","","","","","","","","","","feedback_test"
"","","","","","psychophysics","81","416692","0.0-8.0-0.0-0.3","540","","j","","","","","","","","","","","","","key","j","16.67081521739158","683","380","f","false","img/H_ambi40.png","生人","prac",""
"","","","","","html-keyboard-response","82","417198","0.0-8.0-0.0-1.3","null","<span style='color:red; font-size: 70px;'>错误! </span>","null","","","","","","","","","","","","","","","","","","","","","","","feedback_test"
"","","","","","psychophysics","83","419241","0.0-8.0-0.0-0.4","1040","","j","","","","","","","","","","","","","key","j","16.66596721311493","683","380","j","true","img/C_ambi40.png","生人","prac",""
"","","","","","html-keyboard-response","84","419742","0.0-8.0-0.0-1.4","null","<span style='color:GreenYellow; font-size: 70px;'>正确! </span>","null","","","","","","","","","","","","","","","","","","","","","","","feedback_test"
"","","","","","psychophysics","85","422249","0.0-8.0-0.0-0.5","null","","null","","","","","","","","","","","","","key","null","16.664483221476324","683","380","f","false","img/H_ambi40.png","生人","prac",""
"","","","","","html-keyboard-response","86","422750","0.0-8.0-0.0-1.5","null","<span class='add_' style='color:yellow; font-size: 70px;'> 太慢! </span>","null","","","","","","","","","","","","","","","","","","","","","","","feedback_test"
"","","","","","psychophysics","87","424333","0.0-8.0-0.0-0.6","582","","j","","","","","","","","","","","","","key","j","16.66695744680808","683","380","j","true","img/T_ambi40.png","をる","prac",""
"","","","","","html-keyboard-response","88","424846","0.0-8.0-0.0-1.6","null","<span style='color:GreenYellow; font-size: 70px;'>正确! </span>","null","","","","","","","","","","","","","","","","","","","","","","","feedback_test"
"","","","","","psychophysics","89","426398","0.0-8.0-0.0-0.7","547","","j","","","","","","","","","","","","","key","j","16.666119565217347","683","380","j","true","img/T_ambi40.png","をる","prac",""
"","","","","","html-keyboard-response","90","426911","0.0-8.0-0.0-1.7","null","<span style='color:GreenYellow; font-size: 70px;'>正确! </span>","null","","","","","","","","","","","","","","","","","","","","","","","feedback_test"
"","","","","","psychophysics","91","428531","0.0-8.0-0.0-0.8","614","","j","","","","","","","","","","","","","key","j","16.667906250000062","683","380","j","true","img/T_ambi40.png","をる","prac",""
"","","","","","html-keyboard-response","92","429032","0.0-8.0-0.0-1.8","null","<span style='color:GreenYellow; font-size: 70px;'>正确! </span>","null","","","","","","","","","","","","","","","","","","","","","","","feedback_test"
"","","","","","psychophysics","93","430566","0.0-8.0-0.0-0.9","533","","j","","","","","","","","","","","","","key","j","16.66478888888895","683","380","j","true","img/T_ambi40.png","をる","prac",""
"","","","","","html-keyboard-response","94","431069","0.0-8.0-0.0-1.9","null","<span style='color:GreenYellow; font-size: 70px;'>正确! </span>","null","","","","","","","","","","","","","","","","","","","","","","","feedback_test"
"","","","","","psychophysics","95","433031","0.0-8.0-0.0-0.10","950","","f","","","","","","","","","","","","","key","f","16.66953846153855","683","380","f","true","img/C_ambi40.png","朋友","prac",""
"","","","","","html-keyboard-response","96","433542","0.0-8.0-0.0-1.10","null","<span style='color:GreenYellow; font-size: 70px;'>正确! </span>","null","","","","","","","","","","","","","","","","","","","","","","","feedback_test"
"","","","","","psychophysics","97","435007","0.0-8.0-0.0-0.11","457","","f","","","","","","","","","","","","","key","f","16.666586206896746","683","380","f","true","img/S_ambi40.png","自我","prac",""
"","","","","","html-keyboard-response","98","435520","0.0-8.0-0.0-1.11","null","<span style='color:GreenYellow; font-size: 70px;'>正确! </span>","null","","","","","","","","","","","","","","","","","","","","","","","feedback_test"
"","","","","","psychophysics","99","437573","0.0-8.0-0.0-0.12","1050","","j","","","","","","","","","","","","","key","j","16.666237704918174","683","380","j","true","img/C_ambi40.png","自我","prac",""
"","","","","","html-keyboard-response","100","438087","0.0-8.0-0.0-1.12","null","<span style='color:GreenYellow; font-size: 70px;'>正确! </span>","null","","","","","","","","","","","","","","","","","","","","","","","feedback_test"
"","","","","","psychophysics","101","439719","0.0-8.0-0.0-0.13","623","","f","","","","","","","","","","","","","key","f","16.667402061855796","683","380","f","true","img/S_ambi40.png","自我","prac",""
"","","","","","html-keyboard-response","102","440228","0.0-8.0-0.0-1.13","null","<span style='color:GreenYellow; font-size: 70px;'>正确! </span>","null","","","","","","","","","","","","","","","","","","","","","","","feedback_test"
"","","","","","psychophysics","103","442081","0.0-8.0-0.0-0.14","848","","j","","","","","","","","","","","","","key","j","16.665754545454615","683","380","j","true","img/S_ambi40.png","朋友","prac",""
"","","","","","html-keyboard-response","104","442588","0.0-8.0-0.0-1.14","null","<span style='color:GreenYellow; font-size: 70px;'>正确! </span>","null","","","","","","","","","","","","","","","","","","","","","","","feedback_test"
"","","","","","psychophysics","105","444318","0.0-8.0-0.0-0.15","721","","j","","","","","","","","","","","","","key","j","16.666611650485084","683","380","j","true","img/H_ambi40.png","自我","prac",""
"","","","","","html-keyboard-response","106","444828","0.0-8.0-0.0-1.15","null","<span style='color:GreenYellow; font-size: 70px;'>正确! </span>","null","","","","","","","","","","","","","","","","","","","","","","","feedback_test"
"","","","","","psychophysics","107","446630","0.0-8.0-0.0-0.16","797","","j","","","","","","","","","","","","","key","j","16.666280373831924","683","380","j","true","img/S_ambi40.png","生人","prac",""
"","","","","","html-keyboard-response","108","447131","0.0-8.0-0.0-1.16","null","<span style='color:GreenYellow; font-size: 70px;'>正确! </span>","null","","","","","","","","","","","","","","","","","","","","","","","feedback_test"
"","","","","","psychophysics","109","448777","0.0-8.0-0.0-0.17","644","","f","","","","","","","","","","","","","key","f","16.665855670102978","683","380","f","true","img/S_ambi40.png","自我","prac",""
"","","","","","html-keyboard-response","110","449291","0.0-8.0-0.0-1.17","null","<span style='color:GreenYellow; font-size: 70px;'>正确! </span>","null","","","","","","","","","","","","","","","","","","","","","","","feedback_test"
"","","","","","psychophysics","111","450928","0.0-8.0-0.0-0.18","629","","j","","","","","","","","","","","","","key","j","16.666298969072102","683","380","j","true","img/C_ambi40.png","生人","prac",""
"","","","","","html-keyboard-response","112","451439","0.0-8.0-0.0-1.18","null","<span style='color:GreenYellow; font-size: 70px;'>正确! </span>","null","","","","","","","","","","","","","","","","","","","","","","","feedback_test"
"","","","","","psychophysics","113","453383","0.0-8.0-0.0-0.19","934","","f","","","","","","","","","","","","","key","f","16.660777777778165","683","380","f","true","img/S_ambi40.png","自我","prac",""
"","","","","","html-keyboard-response","114","453886","0.0-8.0-0.0-1.19","null","<span style='color:GreenYellow; font-size: 70px;'>正确! </span>","null","","","","","","","","","","","","","","","","","","","","","","","feedback_test"
"","","","","","psychophysics","115","455449","0.0-8.0-0.0-0.20","551","","j","","","","","","","","","","","","","key","j","16.666627659574473","683","380","j","true","img/T_ambi40.png","をる","prac",""
"","","","","","html-keyboard-response","116","455951","0.0-8.0-0.0-1.20","null","<span style='color:GreenYellow; font-size: 70px;'>正确! </span>","null","","","","","","","","","","","","","","","","","","","","","","","feedback_test"
"","","","","","psychophysics","117","458110","0.0-8.0-0.0-0.21","1146","","j","","","","","","","","","","","","","key","j","16.666000000000167","683","380","j","true","img/C_ambi40.png","自我","prac",""
"","","","","","html-keyboard-response","118","458610","0.0-8.0-0.0-1.21","null","<span style='color:GreenYellow; font-size: 70px;'>正确! </span>","null","","","","","","","","","","","","","","","","","","","","","","","feedback_test"
"","","","","","psychophysics","119","460101","0.0-8.0-0.0-0.22","485","","j","","","","","","","","","","","","","key","j","16.664033707865027","683","380","j","true","img/T_ambi40.png","をる","prac",""
"","","","","","html-keyboard-response","120","460614","0.0-8.0-0.0-1.22","null","<span style='color:GreenYellow; font-size: 70px;'>正确! </span>","null","","","","","","","","","","","","","","","","","","","","","","","feedback_test"
"","","","","","psychophysics","121","462428","0.0-8.0-0.0-0.23","813","","j","","","","","","","","","","","","","key","j","16.66913084112158","683","380","f","false","img/C_ambi40.png","朋友","prac",""
"","","","","","html-keyboard-response","122","462931","0.0-8.0-0.0-1.23","null","<span style='color:red; font-size: 70px;'>错误! </span>","null","","","","","","","","","","","","","","","","","","","","","","","feedback_test"
"","","","","","psychophysics","123","464679","0.0-8.0-0.0-0.24","746","","j","","","","","","","","","","","","","key","j","16.667980582524518","683","380","j","true","img/T_ambi40.png","をる","prac",""
"","","","","","html-keyboard-response","124","465189","0.0-8.0-0.0-1.24","null","<span style='color:GreenYellow; font-size: 70px;'>正确! </span>","null","","","","","","","","","","","","","","","","","","","","","","","feedback_test"
"","","","","","psychophysics","125","466821","0.0-8.0-0.0-0.25","621","","j","","","","","","","","","","","","","key","j","16.665360824742653","683","380","j","true","img/T_ambi40.png","をる","prac",""
"","","","","","html-keyboard-response","126","467333","0.0-8.0-0.0-1.25","null","<span style='color:GreenYellow; font-size: 70px;'>正确! </span>","null","","","","","","","","","","","","","","","","","","","","","","","feedback_test"
"","","","","","psychophysics","127","469049","0.0-8.0-0.0-0.26","706","","f","","","","","","","","","","","","","key","f","16.664666666666403","683","380","f","true","img/H_ambi40.png","生人","prac",""
"","","","","","html-keyboard-response","128","469561","0.0-8.0-0.0-1.26","null","<span style='color:GreenYellow; font-size: 70px;'>正确! </span>","null","","","","","","","","","","","","","","","","","","","","","","","feedback_test"
"","","","","","psychophysics","129","471210","0.0-8.0-0.0-0.27","647","","f","","","","","","","","","","","","","key","f","16.668408163265465","683","380","f","true","img/H_ambi40.png","生人","prac",""
"","","","","","html-keyboard-response","130","471716","0.0-8.0-0.0-1.27","null","<span style='color:GreenYellow; font-size: 70px;'>正确! </span>","null","","","","","","","","","","","","","","","","","","","","","","","feedback_test"
"","","","","","psychophysics","131","473342","0.0-8.0-0.0-0.28","624","","f","","","","","","","","","","","","","key","f","16.666802083333096","683","380","f","true","img/C_ambi40.png","朋友","prac",""
"","","","","","html-keyboard-response","132","473849","0.0-8.0-0.0-1.28","null","<span style='color:GreenYellow; font-size: 70px;'>正确! </span>","null","","","","","","","","","","","","","","","","","","","","","","","feedback_test"
"","","","","","psychophysics","133","476362","0.0-8.0-0.0-0.29","null","","null","","","","","","","","","","","","","key","null","16.667583892617653","683","380","j","false","img/H_ambi40.png","朋友","prac",""
"","","","","","html-keyboard-response","134","476870","0.0-8.0-0.0-1.29","null","<span class='add_' style='color:yellow; font-size: 70px;'> 太慢! </span>","null","","","","","","","","","","","","","","","","","","","","","","","feedback_test"
"","","","","","psychophysics","135","478534","0.0-8.0-0.0-0.30","655","","f","","","","","","","","","","","","","key","f","16.668090909090942","683","380","j","false","img/S_ambi40.png","朋友","prac",""
"","","","","","html-keyboard-response","136","479046","0.0-8.0-0.0-1.30","null","<span style='color:red; font-size: 70px;'>错误! </span>","null","","","","","","","","","","","","","","","","","","","","","","","feedback_test"
"","","","","","psychophysics","137","481128","0.0-8.0-0.0-0.31","1081","","j","","","","","","","","","","","","","key","j","16.554983739837212","683","380","j","true","img/H_ambi40.png","自我","prac",""
"","","","","","html-keyboard-response","138","481645","0.0-8.0-0.0-1.31","null","<span style='color:GreenYellow; font-size: 70px;'>正确! </span>","null","","","","","","","","","","","","","","","","","","","","","","","feedback_test"
"","","","","","html-keyboard-response","139","496729","0.0-9.0","15082","<style>.context{color:white; font-size: 35px; line-height:40px}</style>                          <div><p class='context'>您正确回答了78% 的试次。</p ><p class='context'>您的平均反应时为728毫秒。</p ><p class='context'>恭喜您完成练习。按任意键进入正式实验。</p ><p class='footer' style='font-size: 35px; line-height:40px;'>请在进入正式实验实验之前将您的<span style='color: lightgreen;'>食指</span>放在电脑键盘的相应键位上进行按键。</p >","l","","","","","","","","","","","","","","","","","","","","","","",""
"","","","","","psychophysics","140","498361","0.0-10.0-0.0-0.0-0.0-0.0","629","","j","","","","","","","","","","","","","key","j","16.61447916666657","683","380","j","true","img/T_ambi40.png","をる","same",""
"","","","","","html-keyboard-response","141","498869","0.0-10.0-0.0-0.0-0.0-1.0","null","<span style='color:GreenYellow; font-size: 70px;'>正确! </span>","null","","","","","","","","","","","","","","","","","","","","","","","feedback_test"
"","","","","","psychophysics","142","500426","0.0-10.0-0.0-0.0-0.0-0.1","546","","f","","","","","","","","","","","","","key","f","16.6625434782599","683","380","f","true","img/S_ambi40.png","自我","same",""
"","","","","","html-keyboard-response","143","500929","0.0-10.0-0.0-0.0-0.0-1.1","null","<span style='color:GreenYellow; font-size: 70px;'>正确! </span>","null","","","","","","","","","","","","","","","","","","","","","","","feedback_test"
"","","","","","psychophysics","144","502466","0.0-10.0-0.0-0.0-0.0-0.2","535","","j","","","","","","","","","","","","","key","j","16.666582417582255","683","380","j","true","img/T_ambi40.png","をる","same",""
"","","","","","html-keyboard-response","145","502979","0.0-10.0-0.0-0.0-0.0-1.2","null","<span style='color:GreenYellow; font-size: 70px;'>正确! </span>","null","","","","","","","","","","","","","","","","","","","","","","","feedback_test"
"","","","","","psychophysics","146","504590","0.0-10.0-0.0-0.0-0.0-0.3","609","","f","","","","","","","","","","","","","key","f","16.666694736842214","683","380","f","true","img/C_ambi40.png","朋友","same",""
"","","","","","html-keyboard-response","147","505095","0.0-10.0-0.0-0.0-0.0-1.3","null","<span style='color:GreenYellow; font-size: 70px;'>正确! </span>","null","","","","","","","","","","","","","","","","","","","","","","","feedback_test"
"","","","","","psychophysics","148","506739","0.0-10.0-0.0-0.0-0.0-0.4","642","","f","","","","","","","","","","","","","key","f","16.664505154639723","683","380","f","true","img/H_ambi40.png","生人","same",""
"","","","","","html-keyboard-response","149","507243","0.0-10.0-0.0-0.0-0.0-1.4","null","<span style='color:GreenYellow; font-size: 70px;'>正确! </span>","null","","","","","","","","","","","","","","","","","","","","","","","feedback_test"
"","","","","","psychophysics","150","508861","0.0-10.0-0.0-0.0-0.0-0.5","615","","f","","","","","","","","","","","","","key","f","16.66549473684281","683","380","f","true","img/H_ambi40.png","生人","same",""
"","","","","","html-keyboard-response","151","509368","0.0-10.0-0.0-0.0-0.0-1.5","null","<span style='color:GreenYellow; font-size: 70px;'>正确! </span>","null","","","","","","","","","","","","","","","","","","","","","","","feedback_test"
"","","","","","psychophysics","152","510990","0.0-10.0-0.0-0.0-0.0-0.6","619","","j","","","","","","","","","","","","","key","j","16.665697916665522","683","380","j","true","img/T_ambi40.png","をる","same",""
"","","","","","html-keyboard-response","153","511491","0.0-10.0-0.0-0.0-0.0-1.6","null","<span style='color:GreenYellow; font-size: 70px;'>正确! </span>","null","","","","","","","","","","","","","","","","","","","","","","","feedback_test"
"","","","","","psychophysics","154","513037","0.0-10.0-0.0-0.0-0.0-0.7","541","","f","","","","","","","","","","","","","key","f","16.666043478260374","683","380","f","true","img/S_ambi40.png","自我","same",""
"","","","","","html-keyboard-response","155","513553","0.0-10.0-0.0-0.0-0.0-1.7","null","<span style='color:GreenYellow; font-size: 70px;'>正确! </span>","null","","","","","","","","","","","","","","","","","","","","","","","feedback_test"
"","","","","","psychophysics","156","515128","0.0-10.0-0.0-0.0-0.0-0.8","566","","f","","","","","","","","","","","","","key","f","16.66189247311809","683","380","j","false","img/H_ambi40.png","自我","same",""
"","","","","","html-keyboard-response","157","515635","0.0-10.0-0.0-0.0-0.0-1.8","null","<span style='color:red; font-size: 70px;'>错误! </span>","null","","","","","","","","","","","","","","","","","","","","","","","feedback_test"
"","","","","","psychophysics","158","517310","0.0-10.0-0.0-0.0-0.0-0.9","665","","f","","","","","","","","","","","","","key","f","16.666909090908845","683","380","j","false","img/S_ambi40.png","朋友","same",""
"","","","","","html-keyboard-response","159","517813","0.0-10.0-0.0-0.0-0.0-1.9","null","<span style='color:red; font-size: 70px;'>错误! </span>","null","","","","","","","","","","","","","","","","","","","","","","","feedback_test"
"","","","","","psychophysics","160","519651","0.0-10.0-0.0-0.0-0.0-0.10","832","","f","","","","","","","","","","","","","key","f","16.66821100917504","683","380","f","true","img/H_ambi40.png","生人","same",""
"","","","","","html-keyboard-response","161","520153","0.0-10.0-0.0-0.0-0.0-1.10","null","<span style='color:GreenYellow; font-size: 70px;'>正确! </span>","null","","","","","","","","","","","","","","","","","","","","","","","feedback_test"
"","","","","","psychophysics","162","521751","0.0-10.0-0.0-0.0-0.0-0.11","596","","f","","","","","","","","","","","","","key","f","16.66578947368421","683","380","f","true","img/S_ambi40.png","自我","same",""
"","","","","","html-keyboard-response","163","522261","0.0-10.0-0.0-0.0-0.0-1.11","null","<span style='color:GreenYellow; font-size: 70px;'>正确! </span>","null","","","","","","","","","","","","","","","","","","","","","","","feedback_test"
"","","","","","psychophysics","164","523950","0.0-10.0-0.0-0.0-0.0-0.12","688","","j","","","","","","","","","","","","","key","j","16.666380000000355","683","380","j","true","img/H_ambi40.png","朋友","same",""
"","","","","","html-keyboard-response","165","524460","0.0-10.0-0.0-0.0-0.0-1.12","null","<span style='color:GreenYellow; font-size: 70px;'>正确! </span>","null","","","","","","","","","","","","","","","","","","","","","","","feedback_test"
"","","","","","psychophysics","166","526006","0.0-10.0-0.0-0.0-0.0-0.13","545","","f","","","","","","","","","","","","","key","f","16.66883516483454","683","380","f","true","img/C_ambi40.png","朋友","same",""
"","","","","","html-keyboard-response","167","526510","0.0-10.0-0.0-0.0-0.0-1.13","null","<span style='color:GreenYellow; font-size: 70px;'>正确! </span>","null","","","","","","","","","","","","","","","","","","","","","","","feedback_test"
"","","","","","psychophysics","168","528269","0.0-10.0-0.0-0.0-0.0-0.14","756","","j","","","","","","","","","","","","","key","j","16.54112500000002","683","380","j","true","img/S_ambi40.png","生人","same",""
"","","","","","html-keyboard-response","169","528781","0.0-10.0-0.0-0.0-0.0-1.14","null","<span style='color:GreenYellow; font-size: 70px;'>正确! </span>","null","","","","","","","","","","","","","","","","","","","","","","","feedback_test"
"","","","","","psychophysics","170","530821","0.0-10.0-0.0-0.0-0.0-0.15","1029","","j","","","","","","","","","","","","","key","j","16.665272727272903","683","380","j","true","img/C_ambi40.png","生人","same",""
"","","","","","html-keyboard-response","171","531334","0.0-10.0-0.0-0.0-0.0-1.15","null","<span style='color:GreenYellow; font-size: 70px;'>正确! </span>","null","","","","","","","","","","","","","","","","","","","","","","","feedback_test"
"","","","","","psychophysics","172","533281","0.0-10.0-0.0-0.0-0.0-0.16","938","","f","","","","","","","","","","","","","key","f","16.669384615385354","683","380","j","false","img/C_ambi40.png","自我","same",""
"","","","","","html-keyboard-response","173","533791","0.0-10.0-0.0-0.0-0.0-1.16","null","<span style='color:red; font-size: 70px;'>错误! </span>","null","","","","","","","","","","","","","","","","","","","","","","","feedback_test"
"","","","","","psychophysics","174","535739","0.0-10.0-0.0-0.0-0.0-0.17","944","","j","","","","","","","","","","","","","key","j","16.665878260869572","683","380","f","false","img/C_ambi40.png","朋友","same",""
"","","","","","html-keyboard-response","175","536248","0.0-10.0-0.0-0.0-0.0-1.17","null","<span style='color:red; font-size: 70px;'>错误! </span>","null","","","","","","","","","","","","","","","","","","","","","","","feedback_test"
"","","","","","psychophysics","176","538269","0.0-10.0-0.0-0.0-0.0-0.18","1014","","j","","","","","","","","","","","","","key","j","16.671115702478993","683","380","f","false","img/C_ambi40.png","朋友","same",""
"","","","","","html-keyboard-response","177","538781","0.0-10.0-0.0-0.0-0.0-1.18","null","<span style='color:red; font-size: 70px;'>错误! </span>","null","","","","","","","","","","","","","","","","","","","","","","","feedback_test"
"","","","","","psychophysics","178","540530","0.0-10.0-0.0-0.0-0.0-0.19","737","","f","","","","","","","","","","","","","key","f","16.664259615384463","683","380","f","true","img/H_ambi40.png","生人","same",""
"","","","","","html-keyboard-response","179","541041","0.0-10.0-0.0-0.0-0.0-1.19","null","<span style='color:GreenYellow; font-size: 70px;'>正确! </span>","null","","","","","","","","","","","","","","","","","","","","","","","feedback_test"
"","","","","","psychophysics","180","543135","0.0-10.0-0.0-0.0-0.0-0.20","1091","","j","","","","","","","","","","","","","key","j","16.666256000000054","683","380","f","false","img/C_ambi40.png","朋友","same",""
"","","","","","html-keyboard-response","181","543642","0.0-10.0-0.0-0.0-0.0-1.20","null","<span style='color:red; font-size: 70px;'>错误! </span>","null","","","","","","","","","","","","","","","","","","","","","","","feedback_test"
"","","","","","psychophysics","182","545282","0.0-10.0-0.0-0.0-0.0-0.21","638","","f","","","","","","","","","","","","","key","f","16.666959183674297","683","380","j","false","img/C_ambi40.png","生人","same",""
"","","","","","html-keyboard-response","183","545788","0.0-10.0-0.0-0.0-0.0-1.21","null","<span style='color:red; font-size: 70px;'>错误! </span>","null","","","","","","","","","","","","","","","","","","","","","","","feedback_test"
"","","","","","psychophysics","184","547315","0.0-10.0-0.0-0.0-0.0-0.22","521","","j","","","","","","","","","","","","","key","j","16.667208791208957","683","380","j","true","img/T_ambi40.png","をる","same",""
"","","","","","html-keyboard-response","185","547826","0.0-10.0-0.0-0.0-0.0-1.22","null","<span style='color:GreenYellow; font-size: 70px;'>正确! </span>","null","","","","","","","","","","","","","","","","","","","","","","","feedback_test"
"","","","","","psychophysics","186","549394","0.0-10.0-0.0-0.0-0.0-0.23","566","","j","","","","","","","","","","","","","key","j","16.665967741936086","683","380","j","true","img/T_ambi40.png","をる","same",""
"","","","","","html-keyboard-response","187","549895","0.0-10.0-0.0-0.0-0.0-1.23","null","<span style='color:GreenYellow; font-size: 70px;'>正确! </span>","null","","","","","","","","","","","","","","","","","","","","","","","feedback_test"
"","","","","","psychophysics","188","551782","0.0-10.0-0.0-0.0-0.0-0.24","872","","j","","","","","","","","","","","","","key","j","16.668991071428795","683","380","j","true","img/H_ambi40.png","自我","same",""
"","","","","","html-keyboard-response","189","552294","0.0-10.0-0.0-0.0-0.0-1.24","null","<span style='color:GreenYellow; font-size: 70px;'>正确! </span>","null","","","","","","","","","","","","","","","","","","","","","","","feedback_test"
"","","","","","psychophysics","190","554270","0.0-10.0-0.0-0.0-0.0-0.25","973","","j","","","","","","","","","","","","","key","j","16.66367521367541","683","380","j","true","img/S_ambi40.png","生人","same",""
"","","","","","html-keyboard-response","191","554774","0.0-10.0-0.0-0.0-0.0-1.25","null","<span style='color:GreenYellow; font-size: 70px;'>正确! </span>","null","","","","","","","","","","","","","","","","","","","","","","","feedback_test"
"","","","","","psychophysics","192","556624","0.0-10.0-0.0-0.0-0.0-0.26","847","","f","","","","","","","","","","","","","key","f","16.819145454545716","683","380","f","true","img/S_ambi40.png","自我","same",""
"","","","","","html-keyboard-response","193","557131","0.0-10.0-0.0-0.0-0.0-1.26","null","<span style='color:GreenYellow; font-size: 70px;'>正确! </span>","null","","","","","","","","","","","","","","","","","","","","","","","feedback_test"
"","","","","","psychophysics","194","558750","0.0-10.0-0.0-0.0-0.0-0.27","609","","f","","","","","","","","","","","","","key","f","16.66736458333374","683","380","j","false","img/C_ambi40.png","自我","same",""
"","","","","","html-keyboard-response","195","559263","0.0-10.0-0.0-0.0-0.0-1.27","null","<span style='color:red; font-size: 70px;'>错误! </span>","null","","","","","","","","","","","","","","","","","","","","","","","feedback_test"
"","","","","","psychophysics","196","560981","0.0-10.0-0.0-0.0-0.0-0.28","705","","f","","","","","","","","","","","","","key","f","16.666466019418117","683","380","f","true","img/C_ambi40.png","朋友","same",""
"","","","","","html-keyboard-response","197","561488","0.0-10.0-0.0-0.0-0.0-1.28","null","<span style='color:GreenYellow; font-size: 70px;'>正确! </span>","null","","","","","","","","","","","","","","","","","","","","","","","feedback_test"
"","","","","","psychophysics","198","563119","0.0-10.0-0.0-0.0-0.0-0.29","626","","j","","","","","","","","","","","","","key","j","16.668443298969446","683","380","j","true","img/H_ambi40.png","朋友","same",""
"","","","","","html-keyboard-response","199","563629","0.0-10.0-0.0-0.0-0.0-1.29","null","<span style='color:GreenYellow; font-size: 70px;'>正确! </span>","null","","","","","","","","","","","","","","","","","","","","","","","feedback_test"
"","","","","","psychophysics","200","565188","0.0-10.0-0.0-0.0-0.0-0.30","546","","f","","","","","","","","","","","","","key","f","16.665967741934832","683","380","f","true","img/S_ambi40.png","自我","same",""
"","","","","","html-keyboard-response","201","565692","0.0-10.0-0.0-0.0-0.0-1.30","null","<span style='color:GreenYellow; font-size: 70px;'>正确! </span>","null","","","","","","","","","","","","","","","","","","","","","","","feedback_test"
"","","","","","psychophysics","202","567611","0.0-10.0-0.0-0.0-0.0-0.31","918","","f","","","","","","","","","","","","","key","f","16.665939130434644","683","380","j","false","img/S_ambi40.png","朋友","same",""
"","","","","","html-keyboard-response","203","568118","0.0-10.0-0.0-0.0-0.0-1.31","null","<span style='color:red; font-size: 70px;'>错误! </span>","null","","","","","","","","","","","","","","","","","","","","","","","feedback_test"
"","","","","","psychophysics","204","570369","0.0-10.0-0.0-0.0-0.0-0.32","1242","","f","","","","","","","","","","","","","key","f","16.667666666666737","683","380","f","true","img/S_ambi40.png","自我","same",""
"","","","","","html-keyboard-response","205","570883","0.0-10.0-0.0-0.0-0.0-1.32","null","<span style='color:GreenYellow; font-size: 70px;'>正确! </span>","null","","","","","","","","","","","","","","","","","","","","","","","feedback_test"
"","","","","","psychophysics","206","572528","0.0-10.0-0.0-0.0-0.0-0.33","634","","f","","","","","","","","","","","","","key","f","16.6666363636361","683","380","f","true","img/H_ambi40.png","生人","same",""
"","","","","","html-keyboard-response","207","573037","0.0-10.0-0.0-0.0-0.0-1.33","null","<span style='color:GreenYellow; font-size: 70px;'>正确! </span>","null","","","","","","","","","","","","","","","","","","","","","","","feedback_test"
"","","","","","psychophysics","208","574480","0.0-10.0-0.0-0.0-0.0-0.34","436","","j","","","","","","","","","","","","","key","j","16.667639534883904","683","380","j","true","img/T_ambi40.png","をる","same",""
"","","","","","html-keyboard-response","209","574983","0.0-10.0-0.0-0.0-0.0-1.34","null","<span style='color:GreenYellow; font-size: 70px;'>正确! </span>","null","","","","","","","","","","","","","","","","","","","","","","","feedback_test"
"","","","","","psychophysics","210","576777","0.0-10.0-0.0-0.0-0.0-0.35","784","","f","","","","","","","","","","","","","key","f","16.667738317757863","683","380","f","true","img/H_ambi40.png","生人","same",""
"","","","","","html-keyboard-response","211","577282","0.0-10.0-0.0-0.0-0.0-1.35","null","<span style='color:GreenYellow; font-size: 70px;'>正确! </span>","null","","","","","","","","","","","","","","","","","","","","","","","feedback_test"
"","","","","","psychophysics","212","578769","0.0-10.0-0.0-0.0-0.0-0.36","481","","f","","","","","","","","","","","","","key","f","16.668431818182317","683","380","f","true","img/C_ambi40.png","朋友","same",""
"","","","","","html-keyboard-response","213","579281","0.0-10.0-0.0-0.0-0.0-1.36","null","<span style='color:GreenYellow; font-size: 70px;'>正确! </span>","null","","","","","","","","","","","","","","","","","","","","","","","feedback_test"
"","","","","","psychophysics","214","581484","0.0-10.0-0.0-0.0-0.0-0.37","1199","","j","","","","","","","","","","","","","key","j","16.664343511450234","683","380","j","true","img/H_ambi40.png","自我","same",""
"","","","","","html-keyboard-response","215","581999","0.0-10.0-0.0-0.0-0.0-1.37","null","<span style='color:GreenYellow; font-size: 70px;'>正确! </span>","null","","","","","","","","","","","","","","","","","","","","","","","feedback_test"
"","","","","","psychophysics","216","583718","0.0-10.0-0.0-0.0-0.0-0.38","709","","f","","","","","","","","","","","","","key","f","16.666650485437255","683","380","f","true","img/S_ambi40.png","自我","same",""
"","","","","","html-keyboard-response","217","584221","0.0-10.0-0.0-0.0-0.0-1.38","null","<span style='color:GreenYellow; font-size: 70px;'>正确! </span>","null","","","","","","","","","","","","","","","","","","","","","","","feedback_test"
"","","","","","psychophysics","218","585965","0.0-10.0-0.0-0.0-0.0-0.39","738","","f","","","","","","","","","","","","","key","f","16.6699423076923","683","380","f","true","img/S_ambi40.png","自我","same",""
"","","","","","html-keyboard-response","219","586473","0.0-10.0-0.0-0.0-0.0-1.39","null","<span style='color:GreenYellow; font-size: 70px;'>正确! </span>","null","","","","","","","","","","","","","","","","","","","","","","","feedback_test"
"","","","","","psychophysics","220","588286","0.0-10.0-0.0-0.0-0.0-0.40","809","","f","","","","","","","","","","","","","key","f","16.54834579439316","683","380","f","true","img/H_ambi40.png","生人","same",""
"","","","","","html-keyboard-response","221","588796","0.0-10.0-0.0-0.0-0.0-1.40","null","<span style='color:GreenYellow; font-size: 70px;'>正确! </span>","null","","","","","","","","","","","","","","","","","","","","","","","feedback_test"
"","","","","","psychophysics","222","590580","0.0-10.0-0.0-0.0-0.0-0.41","778","","f","","","","","","","","","","","","","key","f","16.66834905660351","683","380","f","true","img/H_ambi40.png","生人","same",""
"","","","","","html-keyboard-response","223","591090","0.0-10.0-0.0-0.0-0.0-1.41","null","<span style='color:GreenYellow; font-size: 70px;'>正确! </span>","null","","","","","","","","","","","","","","","","","","","","","","","feedback_test"
"","","","","","psychophysics","224","592804","0.0-10.0-0.0-0.0-0.0-0.42","713","","j","","","","","","","","","","","","","key","j","16.668068627451373","683","380","j","true","img/C_ambi40.png","自我","same",""
"","","","","","html-keyboard-response","225","593313","0.0-10.0-0.0-0.0-0.0-1.42","null","<span style='color:GreenYellow; font-size: 70px;'>正确! </span>","null","","","","","","","","","","","","","","","","","","","","","","","feedback_test"
"","","","","","psychophysics","226","595294","0.0-10.0-0.0-0.0-0.0-0.43","973","","j","","","","","","","","","","","","","key","j","16.664378151261374","683","380","j","true","img/S_ambi40.png","朋友","same",""
"","","","","","html-keyboard-response","227","595800","0.0-10.0-0.0-0.0-0.0-1.43","null","<span style='color:GreenYellow; font-size: 70px;'>正确! </span>","null","","","","","","","","","","","","","","","","","","","","","","","feedback_test"
"","","","","","psychophysics","228","597370","0.0-10.0-0.0-0.0-0.0-0.44","561","","j","","","","","","","","","","","","","key","j","16.66633333333252","683","380","j","true","img/T_ambi40.png","をる","same",""
"","","","","","html-keyboard-response","229","597871","0.0-10.0-0.0-0.0-0.0-1.44","null","<span style='color:GreenYellow; font-size: 70px;'>正确! </span>","null","","","","","","","","","","","","","","","","","","","","","","","feedback_test"
"","","","","","psychophysics","230","599794","0.0-10.0-0.0-0.0-0.0-0.45","918","","j","","","","","","","","","","","","","key","j","16.66626724137941","683","380","j","true","img/C_ambi40.png","生人","same",""
"","","","","","html-keyboard-response","231","600304","0.0-10.0-0.0-0.0-0.0-1.45","null","<span style='color:GreenYellow; font-size: 70px;'>正确! </span>","null","","","","","","","","","","","","","","","","","","","","","","","feedback_test"
"","","","","","psychophysics","232","602043","0.0-10.0-0.0-0.0-0.0-0.46","734","","f","","","","","","","","","","","","","key","f","16.66781730769211","683","380","f","true","img/C_ambi40.png","朋友","same",""
"","","","","","html-keyboard-response","233","602552","0.0-10.0-0.0-0.0-0.0-1.46","null","<span style='color:GreenYellow; font-size: 70px;'>正确! </span>","null","","","","","","","","","","","","","","","","","","","","","","","feedback_test"
"","","","","","psychophysics","234","604659","0.0-10.0-0.0-0.0-0.0-0.47","1101","","f","","","","","","","","","","","","","key","f","16.66664285714265","683","380","f","true","img/C_ambi40.png","朋友","same",""
"","","","","","html-keyboard-response","235","605160","0.0-10.0-0.0-0.0-0.0-1.47","null","<span style='color:GreenYellow; font-size: 70px;'>正确! </span>","null","","","","","","","","","","","","","","","","","","","","","","","feedback_test"
"","","","","","psychophysics","236","606757","0.0-10.0-0.0-0.0-0.0-0.48","587","","j","","","","","","","","","","","","","key","j","16.669915789473606","683","380","j","true","img/T_ambi40.png","をる","same",""
"","","","","","html-keyboard-response","237","607260","0.0-10.0-0.0-0.0-0.0-1.48","null","<span style='color:GreenYellow; font-size: 70px;'>正确! </span>","null","","","","","","","","","","","","","","","","","","","","","","","feedback_test"
"","","","","","psychophysics","238","608845","0.0-10.0-0.0-0.0-0.0-0.49","584","","j","","","","","","","","","","","","","key","j","16.666221052631247","683","380","j","true","img/T_ambi40.png","をる","same",""
"","","","","","html-keyboard-response","239","609361","0.0-10.0-0.0-0.0-0.0-1.49","null","<span style='color:GreenYellow; font-size: 70px;'>正确! </span>","null","","","","","","","","","","","","","","","","","","","","","","","feedback_test"
"","","","","","psychophysics","240","611214","0.0-10.0-0.0-0.0-0.0-0.50","849","","j","","","","","","","","","","","","","key","j","16.665945945946323","683","380","j","true","img/S_ambi40.png","生人","same",""
"","","","","","html-keyboard-response","241","611727","0.0-10.0-0.0-0.0-0.0-1.50","null","<span style='color:GreenYellow; font-size: 70px;'>正确! </span>","null","","","","","","","","","","","","","","","","","","","","","","","feedback_test"
"","","","","","psychophysics","242","613379","0.0-10.0-0.0-0.0-0.0-0.51","640","","f","","","","","","","","","","","","","key","f","16.664663265306","683","380","f","true","img/H_ambi40.png","生人","same",""
"","","","","","html-keyboard-response","243","613887","0.0-10.0-0.0-0.0-0.0-1.51","null","<span style='color:GreenYellow; font-size: 70px;'>正确! </span>","null","","","","","","","","","","","","","","","","","","","","","","","feedback_test"
"","","","","","psychophysics","244","615647","0.0-10.0-0.0-0.0-0.0-0.52","755","","f","","","","","","","","","","","","","key","f","16.667019047619153","683","380","f","true","img/S_ambi40.png","自我","same",""
"","","","","","html-keyboard-response","245","616150","0.0-10.0-0.0-0.0-0.0-1.52","null","<span style='color:GreenYellow; font-size: 70px;'>正确! </span>","null","","","","","","","","","","","","","","","","","","","","","","","feedback_test"
"","","","","","psychophysics","246","617972","0.0-10.0-0.0-0.0-0.0-0.53","817","","j","","","","","","","","","","","","","key","j","16.668898148147424","683","380","j","true","img/H_ambi40.png","朋友","same",""
"","","","","","html-keyboard-response","247","618478","0.0-10.0-0.0-0.0-0.0-1.53","null","<span style='color:GreenYellow; font-size: 70px;'>正确! </span>","null","","","","","","","","","","","","","","","","","","","","","","","feedback_test"
"","","","","","psychophysics","248","620393","0.0-10.0-0.0-0.0-0.0-0.54","901","","j","","","","","","","","","","","","","key","j","16.66035652174007","683","380","j","true","img/S_ambi40.png","生人","same",""
"","","","","","html-keyboard-response","249","620903","0.0-10.0-0.0-0.0-0.0-1.54","null","<span style='color:GreenYellow; font-size: 70px;'>正确! </span>","null","","","","","","","","","","","","","","","","","","","","","","","feedback_test"
"","","","","","psychophysics","250","622488","0.0-10.0-0.0-0.0-0.0-0.55","580","","j","","","","","","","","","","","","","key","j","16.665694736842507","683","380","j","true","img/T_ambi40.png","をる","same",""
"","","","","","html-keyboard-response","251","622993","0.0-10.0-0.0-0.0-0.0-1.55","null","<span style='color:GreenYellow; font-size: 70px;'>正确! </span>","null","","","","","","","","","","","","","","","","","","","","","","","feedback_test"
"","","","","","psychophysics","252","624653","0.0-10.0-0.0-0.0-0.0-0.56","646","","f","","","","","","","","","","","","","key","f","16.669418367346967","683","380","f","true","img/S_ambi40.png","自我","same",""
"","","","","","html-keyboard-response","253","625158","0.0-10.0-0.0-0.0-0.0-1.56","null","<span style='color:GreenYellow; font-size: 70px;'>正确! </span>","null","","","","","","","","","","","","","","","","","","","","","","","feedback_test"
"","","","","","psychophysics","254","626698","0.0-10.0-0.0-0.0-0.0-0.57","539","","j","","","","","","","","","","","","","key","j","16.66868478260965","683","380","j","true","img/T_ambi40.png","をる","same",""
"","","","","","html-keyboard-response","255","627199","0.0-10.0-0.0-0.0-0.0-1.57","null","<span style='color:GreenYellow; font-size: 70px;'>正确! </span>","null","","","","","","","","","","","","","","","","","","","","","","","feedback_test"
"","","","","","psychophysics","256","628958","0.0-10.0-0.0-0.0-0.0-0.58","750","","f","","","","","","","","","","","","","key","f","16.66627619047649","683","380","f","true","img/S_ambi40.png","自我","same",""
"","","","","","html-keyboard-response","257","629461","0.0-10.0-0.0-0.0-0.0-1.58","null","<span style='color:GreenYellow; font-size: 70px;'>正确! </span>","null","","","","","","","","","","","","","","","","","","","","","","","feedback_test"
"","","","","","psychophysics","258","631398","0.0-10.0-0.0-0.0-0.0-0.59","926","","j","","","","","","","","","","","","","key","j","16.66823478260928","683","380","j","true","img/H_ambi40.png","朋友","same",""
"","","","","","html-keyboard-response","259","631905","0.0-10.0-0.0-0.0-0.0-1.59","null","<span style='color:GreenYellow; font-size: 70px;'>正确! </span>","null","","","","","","","","","","","","","","","","","","","","","","","feedback_test"
"","","","","","psychophysics","260","633476","0.0-10.0-0.0-0.0-0.0-0.60","569","","j","","","","","","","","","","","","","key","j","16.66241935483851","683","380","j","true","img/T_ambi40.png","をる","same",""
"","","","","","html-keyboard-response","261","633981","0.0-10.0-0.0-0.0-0.0-1.60","null","<span style='color:GreenYellow; font-size: 70px;'>正确! </span>","null","","","","","","","","","","","","","","","","","","","","","","","feedback_test"
"","","","","","psychophysics","262","636008","0.0-10.0-0.0-0.0-0.0-0.61","1018","","f","","","","","","","","","","","","","key","f","16.666363636363673","683","380","f","true","img/H_ambi40.png","生人","same",""
"","","","","","html-keyboard-response","263","636515","0.0-10.0-0.0-0.0-0.0-1.61","null","<span style='color:GreenYellow; font-size: 70px;'>正确! </span>","null","","","","","","","","","","","","","","","","","","","","","","","feedback_test"
"","","","","","psychophysics","264","638310","0.0-10.0-0.0-0.0-0.0-0.62","786","","j","","","","","","","","","","","","","key","j","16.667379629630076","683","380","j","true","img/S_ambi40.png","朋友","same",""
"","","","","","html-keyboard-response","265","638817","0.0-10.0-0.0-0.0-0.0-1.62","null","<span style='color:GreenYellow; font-size: 70px;'>正确! </span>","null","","","","","","","","","","","","","","","","","","","","","","","feedback_test"
"","","","","","psychophysics","266","640470","0.0-10.0-0.0-0.0-0.0-0.63","646","","f","","","","","","","","","","","","","key","f","16.668928571429095","683","380","f","true","img/H_ambi40.png","生人","same",""
"","","","","","html-keyboard-response","267","640972","0.0-10.0-0.0-0.0-0.0-1.63","null","<span style='color:GreenYellow; font-size: 70px;'>正确! </span>","null","","","","","","","","","","","","","","","","","","","","","","","feedback_test"
"","","","","","psychophysics","268","642882","0.0-10.0-0.0-0.0-0.0-0.64","909","","j","","","","","","","","","","","","","key","j","16.54582300884917","683","380","j","true","img/C_ambi40.png","自我","same",""
"","","","","","html-keyboard-response","269","643384","0.0-10.0-0.0-0.0-0.0-1.64","null","<span style='color:GreenYellow; font-size: 70px;'>正确! </span>","null","","","","","","","","","","","","","","","","","","","","","","","feedback_test"
"","","","","","psychophysics","270","644854","0.0-10.0-0.0-0.0-0.0-0.65","464","","f","","","","","","","","","","","","","key","f","16.66994252873601","683","380","f","true","img/C_ambi40.png","朋友","same",""
"","","","","","html-keyboard-response","271","645365","0.0-10.0-0.0-0.0-0.0-1.65","null","<span style='color:GreenYellow; font-size: 70px;'>正确! </span>","null","","","","","","","","","","","","","","","","","","","","","","","feedback_test"
"","","","","","psychophysics","272","647154","0.0-10.0-0.0-0.0-0.0-0.66","781","","f","","","","","","","","","","","","","key","f","16.665849056604475","683","380","f","true","img/S_ambi40.png","自我","same",""
"","","","","","html-keyboard-response","273","647660","0.0-10.0-0.0-0.0-0.0-1.66","null","<span style='color:GreenYellow; font-size: 70px;'>正确! </span>","null","","","","","","","","","","","","","","","","","","","","","","","feedback_test"
"","","","","","psychophysics","274","649346","0.0-10.0-0.0-0.0-0.0-0.67","674","","f","","","","","","","","","","","","","key","f","16.666230000000215","683","380","f","true","img/C_ambi40.png","朋友","same",""
"","","","","","html-keyboard-response","275","649851","0.0-10.0-0.0-0.0-0.0-1.67","null","<span style='color:GreenYellow; font-size: 70px;'>正确! </span>","null","","","","","","","","","","","","","","","","","","","","","","","feedback_test"
"","","","","","psychophysics","276","651472","0.0-10.0-0.0-0.0-0.0-0.68","616","","f","","","","","","","","","","","","","key","f","16.663302083333594","683","380","f","true","img/H_ambi40.png","生人","same",""
"","","","","","html-keyboard-response","277","651981","0.0-10.0-0.0-0.0-0.0-1.68","null","<span style='color:GreenYellow; font-size: 70px;'>正确! </span>","null","","","","","","","","","","","","","","","","","","","","","","","feedback_test"
"","","","","","psychophysics","278","654105","0.0-10.0-0.0-0.0-0.0-0.69","1117","","f","","","","","","","","","","","","","key","f","16.667738095237244","683","380","f","true","img/C_ambi40.png","朋友","same",""
"","","","","","html-keyboard-response","279","654607","0.0-10.0-0.0-0.0-0.0-1.69","null","<span style='color:GreenYellow; font-size: 70px;'>正确! </span>","null","","","","","","","","","","","","","","","","","","","","","","","feedback_test"
"","","","","","psychophysics","280","656352","0.0-10.0-0.0-0.0-0.0-0.70","735","","j","","","","","","","","","","","","","key","j","16.664805825243622","683","380","j","true","img/C_ambi40.png","生人","same",""
"","","","","","html-keyboard-response","281","656852","0.0-10.0-0.0-0.0-0.0-1.70","null","<span style='color:GreenYellow; font-size: 70px;'>正确! </span>","null","","","","","","","","","","","","","","","","","","","","","","","feedback_test"
"","","","","","psychophysics","282","658669","0.0-10.0-0.0-0.0-0.0-0.71","814","","j","","","","","","","","","","","","","key","j","16.666240740739912","683","380","j","true","img/H_ambi40.png","自我","same",""
"","","","","","html-keyboard-response","283","659184","0.0-10.0-0.0-0.0-0.0-1.71","null","<span style='color:GreenYellow; font-size: 70px;'>正确! </span>","null","","","","","","","","","","","","","","","","","","","","","","","feedback_test"
"","","","","","psychophysics","284","661179","0.0-10.0-0.0-0.0-0.0-0.72","991","","f","","","","","","","","","","","","","key","f","16.66613445378167","683","380","f","true","img/C_ambi40.png","朋友","same",""
"","","","","","html-keyboard-response","285","661682","0.0-10.0-0.0-0.0-0.0-1.72","null","<span style='color:GreenYellow; font-size: 70px;'>正确! </span>","null","","","","","","","","","","","","","","","","","","","","","","","feedback_test"
"","","","","","psychophysics","286","664183","0.0-10.0-0.0-0.0-0.0-0.73","null","","null","","","","","","","","","","","","","key","null","16.665932885906347","683","380","j","false","img/T_ambi40.png","をる","same",""
"","","","","","html-keyboard-response","287","664685","0.0-10.0-0.0-0.0-0.0-1.73","null","<span class='add_' style='color:yellow; font-size: 70px;'> 太慢! </span>","null","","","","","","","","","","","","","","","","","","","","","","","feedback_test"
"","","","","","psychophysics","288","666684","0.0-10.0-0.0-0.0-0.0-0.74","996","","f","","","","","","","","","","","","","key","f","16.665756302520812","683","380","j","false","img/H_ambi40.png","自我","same",""
"","","","","","html-keyboard-response","289","667194","0.0-10.0-0.0-0.0-0.0-1.74","null","<span style='color:red; font-size: 70px;'>错误! </span>","null","","","","","","","","","","","","","","","","","","","","","","","feedback_test"
"","","","","","psychophysics","290","669100","0.0-10.0-0.0-0.0-0.0-0.75","895","","f","","","","","","","","","","","","","key","f","16.663805309734595","683","380","f","true","img/C_ambi40.png","朋友","same",""
"","","","","","html-keyboard-response","291","669609","0.0-10.0-0.0-0.0-0.0-1.75","null","<span style='color:GreenYellow; font-size: 70px;'>正确! </span>","null","","","","","","","","","","","","","","","","","","","","","","","feedback_test"
"","","","","","psychophysics","292","671623","0.0-10.0-0.0-0.0-0.0-0.76","1002","","j","","","","","","","","","","","","","key","j","16.66462500000004","683","380","j","true","img/S_ambi40.png","朋友","same",""
"","","","","","html-keyboard-response","293","672127","0.0-10.0-0.0-0.0-0.0-1.76","null","<span style='color:GreenYellow; font-size: 70px;'>正确! </span>","null","","","","","","","","","","","","","","","","","","","","","","","feedback_test"
"","","","","","psychophysics","294","674006","0.0-10.0-0.0-0.0-0.0-0.77","869","","j","","","","","","","","","","","","","key","j","16.66927678571457","683","380","j","true","img/C_ambi40.png","生人","same",""
"","","","","","html-keyboard-response","295","674515","0.0-10.0-0.0-0.0-0.0-1.77","null","<span style='color:GreenYellow; font-size: 70px;'>正确! </span>","null","","","","","","","","","","","","","","","","","","","","","","","feedback_test"
"","","","","","psychophysics","296","676989","0.0-10.0-0.0-0.0-0.0-0.78","1468","","j","","","","","","","","","","","","","key","j","16.663234899329154","683","380","f","false","img/S_ambi40.png","自我","same",""
"","","","","","html-keyboard-response","297","677504","0.0-10.0-0.0-0.0-0.0-1.78","null","<span style='color:red; font-size: 70px;'>错误! </span>","null","","","","","","","","","","","","","","","","","","","","","","","feedback_test"
"","","","","","psychophysics","298","679035","0.0-10.0-0.0-0.0-0.0-0.79","530","","f","","","","","","","","","","","","","key","f","16.668944444445273","683","380","j","false","img/S_ambi40.png","生人","same",""
"","","","","","html-keyboard-response","299","679544","0.0-10.0-0.0-0.0-0.0-1.79","null","<span style='color:red; font-size: 70px;'>错误! </span>","null","","","","","","","","","","","","","","","","","","","","","","","feedback_test"
"","","","","","psychophysics","300","681245","0.0-10.0-0.0-0.0-0.0-0.80","694","","f","","","","","","","","","","","","","key","f","16.664633663366594","683","380","f","true","img/H_ambi40.png","生人","same",""
"","","","","","html-keyboard-response","301","681747","0.0-10.0-0.0-0.0-0.0-1.80","null","<span style='color:GreenYellow; font-size: 70px;'>正确! </span>","null","","","","","","","","","","","","","","","","","","","","","","","feedback_test"
"","","","","","psychophysics","302","683413","0.0-10.0-0.0-0.0-0.0-0.81","658","","f","","","","","","","","","","","","","key","f","16.66689000000013","683","380","f","true","img/H_ambi40.png","生人","same",""
"","","","","","html-keyboard-response","303","683922","0.0-10.0-0.0-0.0-0.0-1.81","null","<span style='color:GreenYellow; font-size: 70px;'>正确! </span>","null","","","","","","","","","","","","","","","","","","","","","","","feedback_test"
"","","","","","psychophysics","304","685863","0.0-10.0-0.0-0.0-0.0-0.82","932","","f","","","","","","","","","","","","","key","f","16.668465517241515","683","380","f","true","img/C_ambi40.png","朋友","same",""
"","","","","","html-keyboard-response","305","686365","0.0-10.0-0.0-0.0-0.0-1.82","null","<span style='color:GreenYellow; font-size: 70px;'>正确! </span>","null","","","","","","","","","","","","","","","","","","","","","","","feedback_test"
"","","","","","psychophysics","306","687907","0.0-10.0-0.0-0.0-0.0-0.83","536","","f","","","","","","","","","","","","","key","f","16.66764516128923","683","380","f","true","img/S_ambi40.png","自我","same",""
"","","","","","html-keyboard-response","307","688413","0.0-10.0-0.0-0.0-0.0-1.83","null","<span style='color:GreenYellow; font-size: 70px;'>正确! </span>","null","","","","","","","","","","","","","","","","","","","","","","","feedback_test"
"","","","","","psychophysics","308","690410","0.0-10.0-0.0-0.0-0.0-0.84","994","","j","","","","","","","","","","","","","key","j","16.668890756302506","683","380","j","true","img/T_ambi40.png","をる","same",""
"","","","","","html-keyboard-response","309","690914","0.0-10.0-0.0-0.0-0.0-1.84","null","<span style='color:GreenYellow; font-size: 70px;'>正确! </span>","null","","","","","","","","","","","","","","","","","","","","","","","feedback_test"
"","","","","","psychophysics","310","692607","0.0-10.0-0.0-0.0-0.0-0.85","685","","f","","","","","","","","","","","","","key","f","16.666099009900538","683","380","f","true","img/H_ambi40.png","生人","same",""
"","","","","","html-keyboard-response","311","693114","0.0-10.0-0.0-0.0-0.0-1.85","null","<span style='color:GreenYellow; font-size: 70px;'>正确! </span>","null","","","","","","","","","","","","","","","","","","","","","","","feedback_test"
"","","","","","psychophysics","312","694717","0.0-10.0-0.0-0.0-0.0-0.86","596","","f","","","","","","","","","","","","","key","f","16.66817708333353","683","380","j","false","img/H_ambi40.png","朋友","same",""
"","","","","","html-keyboard-response","313","695232","0.0-10.0-0.0-0.0-0.0-1.86","null","<span style='color:red; font-size: 70px;'>错误! </span>","null","","","","","","","","","","","","","","","","","","","","","","","feedback_test"
"","","","","","psychophysics","314","697117","0.0-10.0-0.0-0.0-0.0-0.87","880","","f","","","","","","","","","","","","","key","f","16.668437499999918","683","380","j","false","img/C_ambi40.png","自我","same",""
"","","","","","html-keyboard-response","315","697619","0.0-10.0-0.0-0.0-0.0-1.87","null","<span style='color:red; font-size: 70px;'>错误! </span>","null","","","","","","","","","","","","","","","","","","","","","","","feedback_test"
"","","","","","psychophysics","316","699190","0.0-10.0-0.0-0.0-0.0-0.88","570","","f","","","","","","","","","","","","","key","f","16.66958510638289","683","380","f","true","img/S_ambi40.png","自我","same",""
"","","","","","html-keyboard-response","317","699700","0.0-10.0-0.0-0.0-0.0-1.88","null","<span style='color:GreenYellow; font-size: 70px;'>正确! </span>","null","","","","","","","","","","","","","","","","","","","","","","","feedback_test"
"","","","","","psychophysics","318","701248","0.0-10.0-0.0-0.0-0.0-0.89","544","","j","","","","","","","","","","","","","key","j","16.670130434782628","683","380","j","true","img/T_ambi40.png","をる","same",""
"","","","","","html-keyboard-response","319","701752","0.0-10.0-0.0-0.0-0.0-1.89","null","<span style='color:GreenYellow; font-size: 70px;'>正确! </span>","null","","","","","","","","","","","","","","","","","","","","","","","feedback_test"
"","","","","","psychophysics","320","703546","0.0-10.0-0.0-0.0-0.0-0.90","793","","f","","","","","","","","","","","","","key","f","16.666934579438923","683","380","f","true","img/H_ambi40.png","生人","same",""
"","","","","","html-keyboard-response","321","704055","0.0-10.0-0.0-0.0-0.0-1.90","null","<span style='color:GreenYellow; font-size: 70px;'>正确! </span>","null","","","","","","","","","","","","","","","","","","","","","","","feedback_test"
"","","","","","psychophysics","322","705679","0.0-10.0-0.0-0.0-0.0-0.91","614","","f","","","","","","","","","","","","","key","f","16.66432989690784","683","380","f","true","img/S_ambi40.png","自我","same",""
"","","","","","html-keyboard-response","323","706195","0.0-10.0-0.0-0.0-0.0-1.91","null","<span style='color:GreenYellow; font-size: 70px;'>正确! </span>","null","","","","","","","","","","","","","","","","","","","","","","","feedback_test"
"","","","","","psychophysics","324","707881","0.0-10.0-0.0-0.0-0.0-0.92","677","","f","","","","","","","","","","","","","key","f","16.663534653466424","683","380","j","false","img/H_ambi40.png","自我","same",""
"","","","","","html-keyboard-response","325","708394","0.0-10.0-0.0-0.0-0.0-1.92","null","<span style='color:red; font-size: 70px;'>错误! </span>","null","","","","","","","","","","","","","","","","","","","","","","","feedback_test"
"","","","","","psychophysics","326","710239","0.0-10.0-0.0-0.0-0.0-0.93","843","","f","","","","","","","","","","","","","key","f","16.664272727272262","683","380","j","false","img/S_ambi40.png","生人","same",""
"","","","","","html-keyboard-response","327","710746","0.0-10.0-0.0-0.0-0.0-1.93","null","<span style='color:red; font-size: 70px;'>错误! </span>","null","","","","","","","","","","","","","","","","","","","","","","","feedback_test"
"","","","","","psychophysics","328","712450","0.0-10.0-0.0-0.0-0.0-0.94","697","","f","","","","","","","","","","","","","key","f","16.669435643564476","683","380","f","true","img/C_ambi40.png","朋友","same",""
"","","","","","html-keyboard-response","329","712957","0.0-10.0-0.0-0.0-0.0-1.94","null","<span style='color:GreenYellow; font-size: 70px;'>正确! </span>","null","","","","","","","","","","","","","","","","","","","","","","","feedback_test"
"","","","","","psychophysics","330","714592","0.0-10.0-0.0-0.0-0.0-0.95","627","","f","","","","","","","","","","","","","key","f","16.67196938775513","683","380","f","true","img/S_ambi40.png","自我","same",""
"","","","","","html-keyboard-response","331","715105","0.0-10.0-0.0-0.0-0.0-1.95","null","<span style='color:GreenYellow; font-size: 70px;'>正确! </span>","null","","","","","","","","","","","","","","","","","","","","","","","feedback_test"
"","","","","","psychophysics","332","716672","0.0-10.0-0.0-0.0-0.0-0.96","562","","j","","","","","","","","","","","","","key","j","16.66956989247332","683","380","j","true","img/T_ambi40.png","をる","same",""
"","","","","","html-keyboard-response","333","717188","0.0-10.0-0.0-0.0-0.0-1.96","null","<span style='color:GreenYellow; font-size: 70px;'>正确! </span>","null","","","","","","","","","","","","","","","","","","","","","","","feedback_test"
"","","","","","psychophysics","334","719314","0.0-10.0-0.0-0.0-0.0-0.97","1115","","j","","","","","","","","","","","","","key","j","16.666285714286097","683","380","j","true","img/C_ambi40.png","自我","same",""
"","","","","","html-keyboard-response","335","719815","0.0-10.0-0.0-0.0-0.0-1.97","null","<span style='color:GreenYellow; font-size: 70px;'>正确! </span>","null","","","","","","","","","","","","","","","","","","","","","","","feedback_test"
"","","","","","psychophysics","336","721581","0.0-10.0-0.0-0.0-0.0-0.98","761","","f","","","","","","","","","","","","","key","f","16.666019047619333","683","380","f","true","img/H_ambi40.png","生人","same",""
"","","","","","html-keyboard-response","337","722083","0.0-10.0-0.0-0.0-0.0-1.98","null","<span style='color:GreenYellow; font-size: 70px;'>正确! </span>","null","","","","","","","","","","","","","","","","","","","","","","","feedback_test"
"","","","","","psychophysics","338","723826","0.0-10.0-0.0-0.0-0.0-0.99","741","","j","","","","","","","","","","","","","key","j","16.829048076923264","683","380","j","true","img/H_ambi40.png","朋友","same",""
"","","","","","html-keyboard-response","339","724335","0.0-10.0-0.0-0.0-0.0-1.99","null","<span style='color:GreenYellow; font-size: 70px;'>正确! </span>","null","","","","","","","","","","","","","","","","","","","","","","","feedback_test"
"","","","","","psychophysics","340","726018","0.0-10.0-0.0-0.0-0.0-0.100","681","","j","","","","","","","","","","","","","key","j","16.666149999999906","683","380","j","true","img/C_ambi40.png","生人","same",""
"","","","","","html-keyboard-response","341","726527","0.0-10.0-0.0-0.0-0.0-1.100","null","<span style='color:GreenYellow; font-size: 70px;'>正确! </span>","null","","","","","","","","","","","","","","","","","","","","","","","feedback_test"
"","","","","","psychophysics","342","728344","0.0-10.0-0.0-0.0-0.0-0.101","812","","f","","","","","","","","","","","","","key","f","16.66375000000052","683","380","f","true","img/C_ambi40.png","朋友","same",""
"","","","","","html-keyboard-response","343","728860","0.0-10.0-0.0-0.0-0.0-1.101","null","<span style='color:GreenYellow; font-size: 70px;'>正确! </span>","null","","","","","","","","","","","","","","","","","","","","","","","feedback_test"
"","","","","","psychophysics","344","730545","0.0-10.0-0.0-0.0-0.0-0.102","677","","f","","","","","","","","","","","","","key","f","16.668089108910447","683","380","f","true","img/S_ambi40.png","自我","same",""
"","","","","","html-keyboard-response","345","731051","0.0-10.0-0.0-0.0-0.0-1.102","null","<span style='color:GreenYellow; font-size: 70px;'>正确! </span>","null","","","","","","","","","","","","","","","","","","","","","","","feedback_test"
"","","","","","psychophysics","346","732666","0.0-10.0-0.0-0.0-0.0-0.103","614","","j","","","","","","","","","","","","","key","j","16.665715789472635","683","380","j","true","img/T_ambi40.png","をる","same",""
"","","","","","html-keyboard-response","347","733174","0.0-10.0-0.0-0.0-0.0-1.103","null","<span style='color:GreenYellow; font-size: 70px;'>正确! </span>","null","","","","","","","","","","","","","","","","","","","","","","","feedback_test"
"","","","","","psychophysics","348","734959","0.0-10.0-0.0-0.0-0.0-0.104","775","","f","","","","","","","","","","","","","key","f","16.669141509434","683","380","f","true","img/H_ambi40.png","生人","same",""
"","","","","","html-keyboard-response","349","735461","0.0-10.0-0.0-0.0-0.0-1.104","null","<span style='color:GreenYellow; font-size: 70px;'>正确! </span>","null","","","","","","","","","","","","","","","","","","","","","","","feedback_test"
"","","","","","psychophysics","350","737121","0.0-10.0-0.0-0.0-0.0-0.105","652","","j","","","","","","","","","","","","","key","j","16.669636363636307","683","380","j","true","img/T_ambi40.png","をる","same",""
"","","","","","html-keyboard-response","351","737627","0.0-10.0-0.0-0.0-0.0-1.105","null","<span style='color:GreenYellow; font-size: 70px;'>正确! </span>","null","","","","","","","","","","","","","","","","","","","","","","","feedback_test"
"","","","","","psychophysics","352","739311","0.0-10.0-0.0-0.0-0.0-0.106","681","","f","","","","","","","","","","","","","key","f","16.667841584158896","683","380","j","false","img/S_ambi40.png","朋友","same",""
"","","","","","html-keyboard-response","353","739813","0.0-10.0-0.0-0.0-0.0-1.106","null","<span style='color:red; font-size: 70px;'>错误! </span>","null","","","","","","","","","","","","","","","","","","","","","","","feedback_test"
"","","","","","psychophysics","354","741403","0.0-10.0-0.0-0.0-0.0-0.107","584","","f","","","","","","","","","","","","","key","f","16.665708333333896","683","380","f","true","img/C_ambi40.png","朋友","same",""
"","","","","","html-keyboard-response","355","741913","0.0-10.0-0.0-0.0-0.0-1.107","null","<span style='color:GreenYellow; font-size: 70px;'>正确! </span>","null","","","","","","","","","","","","","","","","","","","","","","","feedback_test"
"","","","","","html-keyboard-response","356","747585","0.0-10.0-0.0-0.0-1.0","5671","<style>.context{color:white; font-size: 35px; line-height:40px}</style>                          <div><p class='context'>您正确回答了83% 的试次。</p><p class='context'>您的平均反应时为735毫秒。</p><p class='context'>请按任意键进入休息</p></div>","o","","","","","","","","","","","","","","","","","","","","","","",""
"","","","","","html-button-response","357","779174","0.0-10.0-0.0-0.0-2.0","31588","
                    <p>您当前还剩余5组实验</p>
                    <p>现在是休息时间，当您结束休息后，您可以点击 结束休息 按钮 继续</p>
                    <p>建议休息时间还剩余<span id=""iii"">60</span>秒</p>","0","","","","","","","","","","","","","","","","","","","","","","",""
"","","","","","psychophysics","358","781015","0.0-10.0-0.0-0.0-0.1-0.108","833","","j","","","","","","","","","","","","","key","j","16.66940366972447","683","380","j","true","img/T_ambi40.png","をる","same",""
"","","","","","html-keyboard-response","359","781526","0.0-10.0-0.0-0.0-0.1-1.108","null","<span style='color:GreenYellow; font-size: 70px;'>正确! </span>","null","","","","","","","","","","","","","","","","","","","","","","","feedback_test"
"","","","","","psychophysics","360","783442","0.0-10.0-0.0-0.0-0.1-0.109","913","","f","","","","","","","","","","","","","key","f","16.666271929825214","683","380","f","true","img/C_ambi40.png","朋友","same",""
"","","","","","html-keyboard-response","361","783946","0.0-10.0-0.0-0.0-0.1-1.109","null","<span style='color:GreenYellow; font-size: 70px;'>正确! </span>","null","","","","","","","","","","","","","","","","","","","","","","","feedback_test"
"","","","","","psychophysics","362","785540","0.0-10.0-0.0-0.0-0.1-0.110","590","","j","","","","","","","","","","","","","key","j","16.84144210526352","683","380","j","true","img/T_ambi40.png","をる","same",""
"","","","","","html-keyboard-response","363","786050","0.0-10.0-0.0-0.0-0.1-1.110","null","<span style='color:GreenYellow; font-size: 70px;'>正确! </span>","null","","","","","","","","","","","","","","","","","","","","","","","feedback_test"
"","","","","","psychophysics","364","787908","0.0-10.0-0.0-0.0-0.1-0.111","849","","j","","","","","","","","","","","","","key","j","16.66560909090966","683","380","j","true","img/H_ambi40.png","自我","same",""
"","","","","","html-keyboard-response","365","788413","0.0-10.0-0.0-0.0-0.1-1.111","null","<span style='color:GreenYellow; font-size: 70px;'>正确! </span>","null","","","","","","","","","","","","","","","","","","","","","","","feedback_test"
"","","","","","psychophysics","366","790018","0.0-10.0-0.0-0.0-0.1-0.112","603","","f","","","","","","","","","","","","","key","f","16.66759375000038","683","380","f","true","img/H_ambi40.png","生人","same",""
"","","","","","html-keyboard-response","367","790524","0.0-10.0-0.0-0.0-0.1-1.112","null","<span style='color:GreenYellow; font-size: 70px;'>正确! </span>","null","","","","","","","","","","","","","","","","","","","","","","","feedback_test"
"","","","","","psychophysics","368","792273","0.0-10.0-0.0-0.0-0.1-0.113","741","","j","","","","","","","","","","","","","key","j","16.67179807692278","683","380","j","true","img/C_ambi40.png","自我","same",""
"","","","","","html-keyboard-response","369","792782","0.0-10.0-0.0-0.0-0.1-1.113","null","<span style='color:GreenYellow; font-size: 70px;'>正确! </span>","null","","","","","","","","","","","","","","","","","","","","","","","feedback_test"
"","","","","","psychophysics","370","794394","0.0-10.0-0.0-0.0-0.1-0.114","602","","f","","","","","","","","","","","","","key","f","16.66585416666688","683","380","f","true","img/C_ambi40.png","朋友","same",""
"","","","","","html-keyboard-response","371","794900","0.0-10.0-0.0-0.0-0.1-1.114","null","<span style='color:GreenYellow; font-size: 70px;'>正确! </span>","null","","","","","","","","","","","","","","","","","","","","","","","feedback_test"
"","","","","","psychophysics","372","796636","0.0-10.0-0.0-0.0-0.1-0.115","733","","f","","","","","","","","","","","","","key","f","16.667923076923426","683","380","f","true","img/S_ambi40.png","自我","same",""
"","","","","","html-keyboard-response","373","797143","0.0-10.0-0.0-0.0-0.1-1.115","null","<span style='color:GreenYellow; font-size: 70px;'>正确! </span>","null","","","","","","","","","","","","","","","","","","","","","","","feedback_test"
"","","","","","psychophysics","374","798870","0.0-10.0-0.0-0.0-0.1-0.116","721","","f","","","","","","","","","","","","","key","f","16.667922330096825","683","380","f","true","img/S_ambi40.png","自我","same",""
"","","","","","html-keyboard-response","375","799385","0.0-10.0-0.0-0.0-0.1-1.116","null","<span style='color:GreenYellow; font-size: 70px;'>正确! </span>","null","","","","","","","","","","","","","","","","","","","","","","","feedback_test"
"","","","","","psychophysics","376","801038","0.0-10.0-0.0-0.0-0.1-0.117","646","","f","","","","","","","","","","","","","key","f","16.662306122448562","683","380","f","true","img/S_ambi40.png","自我","same",""
"","","","","","html-keyboard-response","377","801549","0.0-10.0-0.0-0.0-0.1-1.117","null","<span style='color:GreenYellow; font-size: 70px;'>正确! </span>","null","","","","","","","","","","","","","","","","","","","","","","","feedback_test"
"","","","","","psychophysics","378","803154","0.0-10.0-0.0-0.0-0.1-0.118","597","","j","","","","","","","","","","","","","key","j","16.665916666667425","683","380","j","true","img/H_ambi40.png","朋友","same",""
"","","","","","html-keyboard-response","379","803661","0.0-10.0-0.0-0.0-0.1-1.118","null","<span style='color:GreenYellow; font-size: 70px;'>正确! </span>","null","","","","","","","","","","","","","","","","","","","","","","","feedback_test"
"","","","","","psychophysics","380","805386","0.0-10.0-0.0-0.0-0.1-0.119","722","","f","","","","","","","","","","","","","key","f","16.6681941747575","683","380","f","true","img/H_ambi40.png","生人","same",""
"","","","","","html-keyboard-response","381","805901","0.0-10.0-0.0-0.0-0.1-1.119","null","<span style='color:GreenYellow; font-size: 70px;'>正确! </span>","null","","","","","","","","","","","","","","","","","","","","","","","feedback_test"
"","","","","","psychophysics","382","807753","0.0-10.0-0.0-0.0-0.1-0.120","843","","j","","","","","","","","","","","","","key","j","16.66636363636406","683","380","j","true","img/C_ambi40.png","生人","same",""
"","","","","","html-keyboard-response","383","808263","0.0-10.0-0.0-0.0-0.1-1.120","null","<span style='color:GreenYellow; font-size: 70px;'>正确! </span>","null","","","","","","","","","","","","","","","","","","","","","","","feedback_test"
"","","","","","psychophysics","384","810047","0.0-10.0-0.0-0.0-0.1-0.121","782","","j","","","","","","","","","","","","","key","j","16.669342857142468","683","380","j","true","img/S_ambi40.png","朋友","same",""
"","","","","","html-keyboard-response","385","810562","0.0-10.0-0.0-0.0-0.1-1.121","null","<span style='color:GreenYellow; font-size: 70px;'>正确! </span>","null","","","","","","","","","","","","","","","","","","","","","","","feedback_test"
"","","","","","psychophysics","386","812391","0.0-10.0-0.0-0.0-0.1-0.122","827","","f","","","","","","","","","","","","","key","f","16.66525925925924","683","380","f","true","img/H_ambi40.png","生人","same",""
"","","","","","html-keyboard-response","387","812894","0.0-10.0-0.0-0.0-0.1-1.122","null","<span style='color:GreenYellow; font-size: 70px;'>正确! </span>","null","","","","","","","","","","","","","","","","","","","","","","","feedback_test"
"","","","","","psychophysics","388","814966","0.0-10.0-0.0-0.0-0.1-0.123","1068","","j","","","","","","","","","","","","","key","j","16.798798387096593","683","380","j","true","img/S_ambi40.png","生人","same",""
"","","","","","html-keyboard-response","389","815476","0.0-10.0-0.0-0.0-0.1-1.123","null","<span style='color:GreenYellow; font-size: 70px;'>正确! </span>","null","","","","","","","","","","","","","","","","","","","","","","","feedback_test"
"","","","","","psychophysics","390","817061","0.0-10.0-0.0-0.0-0.1-0.124","580","","f","","","","","","","","","","","","","key","f","16.662199999999842","683","380","f","true","img/C_ambi40.png","朋友","same",""
"","","","","","html-keyboard-response","391","817565","0.0-10.0-0.0-0.0-0.1-1.124","null","<span style='color:GreenYellow; font-size: 70px;'>正确! </span>","null","","","","","","","","","","","","","","","","","","","","","","","feedback_test"
"","","","","","psychophysics","392","819151","0.0-10.0-0.0-0.0-0.1-0.125","580","","j","","","","","","","","","","","","","key","j","16.662842105262865","683","380","j","true","img/T_ambi40.png","をる","same",""
"","","","","","html-keyboard-response","393","819661","0.0-10.0-0.0-0.0-0.1-1.125","null","<span style='color:GreenYellow; font-size: 70px;'>正确! </span>","null","","","","","","","","","","","","","","","","","","","","","","","feedback_test"
"","","","","","psychophysics","394","821166","0.0-10.0-0.0-0.0-0.1-0.126","502","","j","","","","","","","","","","","","","key","j","16.85420000000029","683","380","j","true","img/T_ambi40.png","をる","same",""
"","","","","","html-keyboard-response","395","821668","0.0-10.0-0.0-0.0-0.1-1.126","null","<span style='color:GreenYellow; font-size: 70px;'>正确! </span>","null","","","","","","","","","","","","","","","","","","","","","","","feedback_test"
"","","","","","psychophysics","396","823469","0.0-10.0-0.0-0.0-0.1-0.127","792","","f","","","","","","","","","","","","","key","f","16.664383177569345","683","380","f","true","img/H_ambi40.png","生人","same",""
"","","","","","html-keyboard-response","397","823986","0.0-10.0-0.0-0.0-0.1-1.127","null","<span style='color:GreenYellow; font-size: 70px;'>正确! </span>","null","","","","","","","","","","","","","","","","","","","","","","","feedback_test"
"","","","","","psychophysics","398","825825","0.0-10.0-0.0-0.0-0.1-0.128","828","","j","","","","","","","","","","","","","key","j","16.66821100917397","683","380","j","true","img/T_ambi40.png","をる","same",""
"","","","","","html-keyboard-response","399","826334","0.0-10.0-0.0-0.0-0.1-1.128","null","<span style='color:GreenYellow; font-size: 70px;'>正确! </span>","null","","","","","","","","","","","","","","","","","","","","","","","feedback_test"
"","","","","","psychophysics","400","828095","0.0-10.0-0.0-0.0-0.1-0.129","751","","j","","","","","","","","","","","","","key","j","16.665704761904532","683","380","j","true","img/S_ambi40.png","朋友","same",""
"","","","","","html-keyboard-response","401","828605","0.0-10.0-0.0-0.0-0.1-1.129","null","<span style='color:GreenYellow; font-size: 70px;'>正确! </span>","null","","","","","","","","","","","","","","","","","","","","","","","feedback_test"
"","","","","","psychophysics","402","830197","0.0-10.0-0.0-0.0-0.1-0.130","583","","f","","","","","","","","","","","","","key","f","16.66971578947391","683","380","f","true","img/C_ambi40.png","朋友","same",""
"","","","","","html-keyboard-response","403","830702","0.0-10.0-0.0-0.0-0.1-1.130","null","<span style='color:GreenYellow; font-size: 70px;'>正确! </span>","null","","","","","","","","","","","","","","","","","","","","","","","feedback_test"
"","","","","","psychophysics","404","832457","0.0-10.0-0.0-0.0-0.1-0.131","744","","j","","","","","","","","","","","","","key","j","16.663895238095538","683","380","j","true","img/C_ambi40.png","自我","same",""
"","","","","","html-keyboard-response","405","832970","0.0-10.0-0.0-0.0-0.1-1.131","null","<span style='color:GreenYellow; font-size: 70px;'>正确! </span>","null","","","","","","","","","","","","","","","","","","","","","","","feedback_test"
"","","","","","psychophysics","406","834568","0.0-10.0-0.0-0.0-0.1-0.132","592","","f","","","","","","","","","","","","","key","f","16.670084210526884","683","380","j","false","img/H_ambi40.png","自我","same",""
"","","","","","html-keyboard-response","407","835080","0.0-10.0-0.0-0.0-0.1-1.132","null","<span style='color:red; font-size: 70px;'>错误! </span>","null","","","","","","","","","","","","","","","","","","","","","","","feedback_test"
"","","","","","psychophysics","408","836720","0.0-10.0-0.0-0.0-0.1-0.133","640","","f","","","","","","","","","","","","","key","f","16.664711340205724","683","380","f","true","img/C_ambi40.png","朋友","same",""
"","","","","","html-keyboard-response","409","837221","0.0-10.0-0.0-0.0-0.1-1.133","null","<span style='color:GreenYellow; font-size: 70px;'>正确! </span>","null","","","","","","","","","","","","","","","","","","","","","","","feedback_test"
"","","","","","psychophysics","410","839103","0.0-10.0-0.0-0.0-0.1-0.134","873","","f","","","","","","","","","","","","","key","f","16.671061946902284","683","380","f","true","img/C_ambi40.png","朋友","same",""
"","","","","","html-keyboard-response","411","839612","0.0-10.0-0.0-0.0-0.1-1.134","null","<span style='color:GreenYellow; font-size: 70px;'>正确! </span>","null","","","","","","","","","","","","","","","","","","","","","","","feedback_test"
"","","","","","psychophysics","412","841318","0.0-10.0-0.0-0.0-0.1-0.135","705","","f","","","","","","","","","","","","","key","f","16.666168316831065","683","380","f","true","img/S_ambi40.png","自我","same",""
"","","","","","html-keyboard-response","413","841824","0.0-10.0-0.0-0.0-0.1-1.135","null","<span style='color:GreenYellow; font-size: 70px;'>正确! </span>","null","","","","","","","","","","","","","","","","","","","","","","","feedback_test"
"","","","","","psychophysics","414","843437","0.0-10.0-0.0-0.0-0.1-0.136","608","","f","","","","","","","","","","","","","key","f","16.665541666666588","683","380","f","true","img/S_ambi40.png","自我","same",""
"","","","","","html-keyboard-response","415","843948","0.0-10.0-0.0-0.0-0.1-1.136","null","<span style='color:GreenYellow; font-size: 70px;'>正确! </span>","null","","","","","","","","","","","","","","","","","","","","","","","feedback_test"
"","","","","","psychophysics","416","845710","0.0-10.0-0.0-0.0-0.1-0.137","758","","j","","","","","","","","","","","","","key","j","16.66583653846129","683","380","f","false","img/H_ambi40.png","生人","same",""
"","","","","","html-keyboard-response","417","846221","0.0-10.0-0.0-0.0-0.1-1.137","null","<span style='color:red; font-size: 70px;'>错误! </span>","null","","","","","","","","","","","","","","","","","","","","","","","feedback_test"
"","","","","","psychophysics","418","847880","0.0-10.0-0.0-0.0-0.1-0.138","651","","j","","","","","","","","","","","","","key","j","16.669414141414112","683","380","j","true","img/C_ambi40.png","生人","same",""
"","","","","","html-keyboard-response","419","848384","0.0-10.0-0.0-0.0-0.1-1.138","null","<span style='color:GreenYellow; font-size: 70px;'>正确! </span>","null","","","","","","","","","","","","","","","","","","","","","","","feedback_test"
"","","","","","psychophysics","420","849995","0.0-10.0-0.0-0.0-0.1-0.139","605","","f","","","","","","","","","","","","","key","f","16.668326315789876","683","380","f","true","img/S_ambi40.png","自我","same",""
"","","","","","html-keyboard-response","421","850510","0.0-10.0-0.0-0.0-0.1-1.139","null","<span style='color:GreenYellow; font-size: 70px;'>正确! </span>","null","","","","","","","","","","","","","","","","","","","","","","","feedback_test"
"","","","","","psychophysics","422","852433","0.0-10.0-0.0-0.0-0.1-0.140","921","","j","","","","","","","","","","","","","key","j","16.544780701754224","683","380","j","true","img/S_ambi40.png","生人","same",""
"","","","","","html-keyboard-response","423","852937","0.0-10.0-0.0-0.0-0.1-1.140","null","<span style='color:GreenYellow; font-size: 70px;'>正确! </span>","null","","","","","","","","","","","","","","","","","","","","","","","feedback_test"
"","","","","","psychophysics","424","854461","0.0-10.0-0.0-0.0-0.1-0.141","515","","j","","","","","","","","","","","","","key","j","16.67084615384638","683","380","j","true","img/T_ambi40.png","をる","same",""
"","","","","","html-keyboard-response","425","854977","0.0-10.0-0.0-0.0-0.1-1.141","null","<span style='color:GreenYellow; font-size: 70px;'>正确! </span>","null","","","","","","","","","","","","","","","","","","","","","","","feedback_test"
"","","","","","psychophysics","426","857021","0.0-10.0-0.0-0.0-0.1-0.142","1042","","j","","","","","","","","","","","","","key","j","16.66568032786876","683","380","j","true","img/H_ambi40.png","朋友","same",""
"","","","","","html-keyboard-response","427","857528","0.0-10.0-0.0-0.0-0.1-1.142","null","<span style='color:GreenYellow; font-size: 70px;'>正确! </span>","null","","","","","","","","","","","","","","","","","","","","","","","feedback_test"
"","","","","","psychophysics","428","859175","0.0-10.0-0.0-0.0-0.1-0.143","646","","f","","","","","","","","","","","","","key","f","16.66957731958786","683","380","f","true","img/H_ambi40.png","生人","same",""
"","","","","","html-keyboard-response","429","859680","0.0-10.0-0.0-0.0-0.1-1.143","null","<span style='color:GreenYellow; font-size: 70px;'>正确! </span>","null","","","","","","","","","","","","","","","","","","","","","","","feedback_test"
"","","","","","psychophysics","430","861468","0.0-10.0-0.0-0.0-0.1-0.144","777","","j","","","","","","","","","","","","","key","j","16.66349056603734","683","380","j","true","img/C_ambi40.png","自我","same",""
"","","","","","html-keyboard-response","431","861981","0.0-10.0-0.0-0.0-0.1-1.144","null","<span style='color:GreenYellow; font-size: 70px;'>正确! </span>","null","","","","","","","","","","","","","","","","","","","","","","","feedback_test"
"","","","","","psychophysics","432","863637","0.0-10.0-0.0-0.0-0.1-0.145","642","","j","","","","","","","","","","","","","key","j","16.66341836734708","683","380","f","false","img/H_ambi40.png","生人","same",""
"","","","","","html-keyboard-response","433","864150","0.0-10.0-0.0-0.0-0.1-1.145","null","<span style='color:red; font-size: 70px;'>错误! </span>","null","","","","","","","","","","","","","","","","","","","","","","","feedback_test"
"","","","","","psychophysics","434","865690","0.0-10.0-0.0-0.0-0.1-0.146","529","","j","","","","","","","","","","","","","key","j","16.66613186813205","683","380","j","true","img/T_ambi40.png","をる","same",""
"","","","","","html-keyboard-response","435","866206","0.0-10.0-0.0-0.0-0.1-1.146","null","<span style='color:GreenYellow; font-size: 70px;'>正确! </span>","null","","","","","","","","","","","","","","","","","","","","","","","feedback_test"
"","","","","","psychophysics","436","867830","0.0-10.0-0.0-0.0-0.1-0.147","618","","f","","","","","","","","","","","","","key","f","16.66527835051433","683","380","f","true","img/S_ambi40.png","自我","same",""
"","","","","","html-keyboard-response","437","868341","0.0-10.0-0.0-0.0-0.1-1.147","null","<span style='color:GreenYellow; font-size: 70px;'>正确! </span>","null","","","","","","","","","","","","","","","","","","","","","","","feedback_test"
"","","","","","psychophysics","438","870046","0.0-10.0-0.0-0.0-0.1-0.148","700","","f","","","","","","","","","","","","","key","f","16.666598039215852","683","380","f","true","img/H_ambi40.png","生人","same",""
"","","","","","html-keyboard-response","439","870549","0.0-10.0-0.0-0.0-0.1-1.148","null","<span style='color:GreenYellow; font-size: 70px;'>正确! </span>","null","","","","","","","","","","","","","","","","","","","","","","","feedback_test"
"","","","","","psychophysics","440","872275","0.0-10.0-0.0-0.0-0.1-0.149","714","","f","","","","","","","","","","","","","key","f","16.668392156863668","683","380","f","true","img/S_ambi40.png","自我","same",""
"","","","","","html-keyboard-response","441","872790","0.0-10.0-0.0-0.0-0.1-1.149","null","<span style='color:GreenYellow; font-size: 70px;'>正确! </span>","null","","","","","","","","","","","","","","","","","","","","","","","feedback_test"
"","","","","","psychophysics","442","874373","0.0-10.0-0.0-0.0-0.1-0.150","578","","j","","","","","","","","","","","","","key","j","16.667638297872667","683","380","j","true","img/T_ambi40.png","をる","same",""
