"success","timeout","failed_images","failed_audio","failed_video","trial_type","trial_index","time_elapsed","internal_node_id","rt","stimulus","response","value","item_width_mm","item_height_mm","item_width_px","px2mm","view_dist_mm","item_width_deg","px2deg","scale_factor","win_width_deg","win_height_deg","view_history","response_type","key_press","avg_frame_time","center_x","center_y","correct_response","correct","Image","word","condition","screen_id"
"true","false","[]","[]","[]","preload","0","1782","0.0-0.0","","","","","","","","","","","","","","","","","","","","","","","","","",""
"","","","","","html-keyboard-response","1","76221","0.0-1.0","74438","
     <p>您好，欢迎参加本次实验。</p>
     <p>为充分保障您的权利，请确保您已经知晓并同意《参与实验同意书》以及《数据公开知情同意书》。</p>
     <p>如果您未见过上述内容，请咨询实验员。</p>
     <p>如果您选择继续实验，则表示您已经清楚两份知情同意书的内容并同意。</p>
     <p> <div style = ""color: green""><按任意键至下页></div> </p>
     "," ","","","","","","","","","","","","","","","","","","","","","","",""
"","","","","","html-keyboard-response","2","78096","0.0-2.0","1874","
     <p>本实验首先需要您填写一些基本个人信息。</p>
     <p> <div style = ""color: green""><按任意键至下页></div></p>
     "," ","","","","","","","","","","","","","","","","","","","","","","",""
"","","","","","call-function","3","78097","0.0-3.0-0.0","","","","","","","","","","","","","","","","","","","","","","","","","",""
"","","","","","survey-html-form","4","83210","0.0-3.0-1.0","5105","","{""Q0"":""6""}","","","","","","","","","","","","","","","","","","","","","","",""
"","","","","","html-button-response","5","84926","0.0-3.0-2.0","1714","<p style = 'color : white'>您的性别</p>","1","","","","","","","","","","","","","","","","","","","","","","",""
"","","","","","survey-html-form","6","88535","0.0-3.0-3.0","3608","","{""Q0"":""2000""}","","","","","","","","","","","","","","","","","","","","","","",""
"","","","","","survey-html-form","7","100105","0.0-3.0-4.0","11569","","{""Q0"":""5""}","","","","","","","","","","","","","","","","","","","","","","",""
"","","","","","virtual-chinrest","8","268747","0.0-4.0","168640","","","","85.6","53.98","532.6055179798843","6.218774655958309","459.1","10.652110359597687","50","0.6609019022842615","24.78","11.36","","","","","","","","","","","",""
"true","","","","","fullscreen","9","275006","0.0-5.0","","","","","","","","","","","","","","","","","","","","","","","","","",""
"","","","","","instructions","10","335174","0.0-6.0","60167","","","","","","","","","","","","","","[{""page_index"":0,""viewing_time"":15297},{""page_index"":1,""viewing_time"":36942},{""page_index"":2,""viewing_time"":4140},{""page_index"":3,""viewing_time"":3787}]","","","","","","","","","","",""
"","","","","","psychophysics","11","337684","0.0-7.0-0.0","null","","null","","","","","","","","","","","","","key","null","17.168055172413908","640","356","j","false","img/T_ambi40.png","をる","prac",""
"","","","","","html-keyboard-response","12","338200","0.0-7.0-1.0","null","<span class='add_' style='color:yellow; font-size: 70px;'> 太慢! </span>","null","","","","","","","","","","","","","","","","","","","","","","","feedback_test"
"","","","","","psychophysics","13","340703","0.0-7.0-0.1","null","","null","","","","","","","","","","","","","key","null","16.601362416107403","640","356","j","false","img/C_ambi40.png","生人","prac",""
"","","","","","html-keyboard-response","14","341210","0.0-7.0-1.1","null","<span class='add_' style='color:yellow; font-size: 70px;'> 太慢! </span>","null","","","","","","","","","","","","","","","","","","","","","","","feedback_test"
"","","","","","psychophysics","15","343715","0.0-7.0-0.2","null","","null","","","","","","","","","","","","","key","null","16.653382550335518","640","356","j","false","img/H_ambi40.png","自我","prac",""
"","","","","","html-keyboard-response","16","344220","0.0-7.0-1.2","null","<span class='add_' style='color:yellow; font-size: 70px;'> 太慢! </span>","null","","","","","","","","","","","","","","","","","","","","","","","feedback_test"
"","","","","","psychophysics","17","346523","0.0-7.0-0.3","1301","","j","","","","","","","","","","","","","key","j","16.68354744525511","640","356","f","false","img/C_ambi40.png","自我","prac",""
"","","","","","html-keyboard-response","18","347039","0.0-7.0-1.3","null","<span style='color:red; font-size: 70px;'>错误! </span>","null","","","","","","","","","","","","","","","","","","","","","","","feedback_test"
"","","","","","psychophysics","19","349543","0.0-7.0-0.4","null","","null","","","","","","","","","","","","","key","null","16.67390604026814","640","356","f","false","img/H_ambi40.png","生人","prac",""
"","","","","","html-keyboard-response","20","350050","0.0-7.0-1.4","null","<span class='add_' style='color:yellow; font-size: 70px;'> 太慢! </span>","null","","","","","","","","","","","","","","","","","","","","","","","feedback_test"
"","","","","","psychophysics","21","351090","0.0-7.0-0.5","38","","f","","","","","","","","","","","","","key","f","16.603131147540463","640","356","j","false","img/T_ambi40.png","をる","prac",""
"","","","","","html-keyboard-response","22","351610","0.0-7.0-1.5","null","<span style='color:yellow; font-size: 70px;'>过快! </span>","null","","","","","","","","","","","","","","","","","","","","","","","feedback_test"
"","","","","","psychophysics","23","353404","0.0-7.0-0.6","792","","f","","","","","","","","","","","","","key","f","16.602532710280013","640","356","j","false","img/C_ambi40.png","朋友","prac",""
"","","","","","html-keyboard-response","24","353920","0.0-7.0-1.6","null","<span style='color:red; font-size: 70px;'>错误! </span>","null","","","","","","","","","","","","","","","","","","","","","","","feedback_test"
"","","","","","psychophysics","25","356424","0.0-7.0-0.7","null","","null","","","","","","","","","","","","","key","null","16.650852348992988","640","356","j","false","img/S_ambi40.png","自我","prac",""
"","","","","","html-keyboard-response","26","356930","0.0-7.0-1.7","null","<span class='add_' style='color:yellow; font-size: 70px;'> 太慢! </span>","null","","","","","","","","","","","","","","","","","","","","","","","feedback_test"
"","","","","","psychophysics","27","358870","0.0-7.0-0.8","939","","f","","","","","","","","","","","","","key","f","16.651956521739436","640","356","f","true","img/S_ambi40.png","朋友","prac",""
"","","","","","html-keyboard-response","28","359390","0.0-7.0-1.8","null","<span style='color:GreenYellow; font-size: 70px;'>正确! </span>","null","","","","","","","","","","","","","","","","","","","","","","","feedback_test"
"","","","","","psychophysics","29","361488","0.0-7.0-0.9","1097","","j","","","","","","","","","","","","","key","j","16.651379032258127","640","356","j","true","img/T_ambi40.png","をる","prac",""
"","","","","","html-keyboard-response","30","361999","0.0-7.0-1.9","null","<span style='color:GreenYellow; font-size: 70px;'>正确! </span>","null","","","","","","","","","","","","","","","","","","","","","","","feedback_test"
"","","","","","psychophysics","31","363378","0.0-7.0-0.10","376","","f","","","","","","","","","","","","","key","f","16.648439024390495","640","356","j","false","img/S_ambi40.png","生人","prac",""
"","","","","","html-keyboard-response","32","363891","0.0-7.0-1.10","null","<span style='color:red; font-size: 70px;'>错误! </span>","null","","","","","","","","","","","","","","","","","","","","","","","feedback_test"
"","","","","","psychophysics","33","365795","0.0-7.0-0.11","901","","f","","","","","","","","","","","","","key","f","16.648079646017766","640","356","f","true","img/S_ambi40.png","朋友","prac",""
"","","","","","html-keyboard-response","34","366304","0.0-7.0-1.11","null","<span style='color:GreenYellow; font-size: 70px;'>正确! </span>","null","","","","","","","","","","","","","","","","","","","","","","","feedback_test"
"","","","","","psychophysics","35","368331","0.0-7.0-0.12","1024","","j","","","","","","","","","","","","","key","j","16.641391666666703","640","356","j","true","img/H_ambi40.png","朋友","prac",""
"","","","","","html-keyboard-response","36","368850","0.0-7.0-1.12","null","<span style='color:GreenYellow; font-size: 70px;'>正确! </span>","null","","","","","","","","","","","","","","","","","","","","","","","feedback_test"
"","","","","","psychophysics","37","371352","0.0-7.0-0.13","null","","null","","","","","","","","","","","","","key","null","16.651463087248512","640","356","f","false","img/H_ambi40.png","生人","prac",""
"","","","","","html-keyboard-response","38","371860","0.0-7.0-1.13","null","<span class='add_' style='color:yellow; font-size: 70px;'> 太慢! </span>","null","","","","","","","","","","","","","","","","","","","","","","","feedback_test"
"","","","","","psychophysics","39","373591","0.0-7.0-0.14","730","","j","","","","","","","","","","","","","key","j","16.650578431372516","640","356","f","false","img/C_ambi40.png","自我","prac",""
"","","","","","html-keyboard-response","40","374100","0.0-7.0-1.14","null","<span style='color:red; font-size: 70px;'>错误! </span>","null","","","","","","","","","","","","","","","","","","","","","","","feedback_test"
"","","","","","psychophysics","41","375975","0.0-7.0-0.15","873","","f","","","","","","","","","","","","","key","f","16.65096428571425","640","356","j","false","img/T_ambi40.png","をる","prac",""
"","","","","","html-keyboard-response","42","376489","0.0-7.0-1.15","null","<span style='color:red; font-size: 70px;'>错误! </span>","null","","","","","","","","","","","","","","","","","","","","","","","feedback_test"
"","","","","","psychophysics","43","378849","0.0-7.0-0.16","1357","","j","","","","","","","","","","","","","key","j","16.651871428571344","640","356","j","true","img/C_ambi40.png","生人","prac",""
"","","","","","html-keyboard-response","44","379361","0.0-7.0-1.16","null","<span style='color:GreenYellow; font-size: 70px;'>正确! </span>","null","","","","","","","","","","","","","","","","","","","","","","","feedback_test"
"","","","","","psychophysics","45","381315","0.0-7.0-0.17","951","","f","","","","","","","","","","","","","key","f","16.651724137931335","640","356","j","false","img/S_ambi40.png","自我","prac",""
"","","","","","html-keyboard-response","46","381819","0.0-7.0-1.17","null","<span style='color:red; font-size: 70px;'>错误! </span>","null","","","","","","","","","","","","","","","","","","","","","","","feedback_test"
"","","","","","psychophysics","47","384305","0.0-7.0-0.18","1484","","j","","","","","","","","","","","","","key","j","16.651432432432507","640","356","j","true","img/H_ambi40.png","自我","prac",""
"","","","","","html-keyboard-response","48","384810","0.0-7.0-1.18","null","<span style='color:GreenYellow; font-size: 70px;'>正确! </span>","null","","","","","","","","","","","","","","","","","","","","","","","feedback_test"
"","","","","","psychophysics","49","386758","0.0-7.0-0.19","946","","f","","","","","","","","","","","","","key","f","16.651568965517196","640","356","f","true","img/C_ambi40.png","自我","prac",""
"","","","","","html-keyboard-response","50","387259","0.0-7.0-1.19","null","<span style='color:GreenYellow; font-size: 70px;'>正确! </span>","null","","","","","","","","","","","","","","","","","","","","","","","feedback_test"
"","","","","","psychophysics","51","389463","0.0-7.0-0.20","1201","","f","","","","","","","","","","","","","key","f","16.651946564885264","640","356","f","true","img/S_ambi40.png","朋友","prac",""
"","","","","","html-keyboard-response","52","389981","0.0-7.0-1.20","null","<span style='color:GreenYellow; font-size: 70px;'>正确! </span>","null","","","","","","","","","","","","","","","","","","","","","","","feedback_test"
"","","","","","psychophysics","53","392413","0.0-7.0-0.21","1431","","j","","","","","","","","","","","","","key","j","16.651489655172114","640","356","j","true","img/T_ambi40.png","をる","prac",""
"","","","","","html-keyboard-response","54","392924","0.0-7.0-1.21","null","<span style='color:GreenYellow; font-size: 70px;'>正确! </span>","null","","","","","","","","","","","","","","","","","","","","","","","feedback_test"
"","","","","","psychophysics","55","395006","0.0-7.0-0.22","1080","","j","","","","","","","","","","","","","key","j","16.651341463414557","640","356","j","true","img/C_ambi40.png","朋友","prac",""
"","","","","","html-keyboard-response","56","395510","0.0-7.0-1.22","null","<span style='color:GreenYellow; font-size: 70px;'>正确! </span>","null","","","","","","","","","","","","","","","","","","","","","","","feedback_test"
"","","","","","psychophysics","57","397322","0.0-7.0-0.23","809","","f","","","","","","","","","","","","","key","f","16.650710280373733","640","356","j","false","img/T_ambi40.png","をる","prac",""
"","","","","","html-keyboard-response","58","397831","0.0-7.0-1.23","null","<span style='color:red; font-size: 70px;'>错误! </span>","null","","","","","","","","","","","","","","","","","","","","","","","feedback_test"
"","","","","","psychophysics","59","399791","0.0-7.0-0.24","958","","f","","","","","","","","","","","","","key","f","16.65076923076935","640","356","f","true","img/C_ambi40.png","自我","prac",""
"","","","","","html-keyboard-response","60","400306","0.0-7.0-1.24","null","<span style='color:GreenYellow; font-size: 70px;'>正确! </span>","null","","","","","","","","","","","","","","","","","","","","","","","feedback_test"
"","","","","","psychophysics","61","402517","0.0-7.0-0.25","1210","","j","","","","","","","","","","","","","key","j","16.651160305343257","640","356","j","true","img/H_ambi40.png","朋友","prac",""
"","","","","","html-keyboard-response","62","403027","0.0-7.0-1.25","null","<span style='color:GreenYellow; font-size: 70px;'>正确! </span>","null","","","","","","","","","","","","","","","","","","","","","","","feedback_test"
"","","","","","psychophysics","63","404862","0.0-7.0-0.26","834","","f","","","","","","","","","","","","","key","f","16.650036697247632","640","356","f","true","img/S_ambi40.png","朋友","prac",""
"","","","","","html-keyboard-response","64","405381","0.0-7.0-1.26","null","<span style='color:GreenYellow; font-size: 70px;'>正确! </span>","null","","","","","","","","","","","","","","","","","","","","","","","feedback_test"
"","","","","","psychophysics","65","407272","0.0-7.0-0.27","890","","j","","","","","","","","","","","","","key","j","16.65111607142847","640","356","j","true","img/S_ambi40.png","生人","prac",""
"","","","","","html-keyboard-response","66","407790","0.0-7.0-1.27","null","<span style='color:GreenYellow; font-size: 70px;'>正确! </span>","null","","","","","","","","","","","","","","","","","","","","","","","feedback_test"
"","","","","","psychophysics","67","409516","0.0-7.0-0.28","723","","j","","","","","","","","","","","","","key","j","16.652184466019303","640","356","f","false","img/H_ambi40.png","生人","prac",""
"","","","","","html-keyboard-response","68","410031","0.0-7.0-1.28","null","<span style='color:red; font-size: 70px;'>错误! </span>","null","","","","","","","","","","","","","","","","","","","","","","","feedback_test"
"","","","","","psychophysics","69","411885","0.0-7.0-0.29","852","","j","","","","","","","","","","","","","key","j","16.651145454545357","640","356","j","true","img/T_ambi40.png","をる","prac",""
"","","","","","html-keyboard-response","70","412399","0.0-7.0-1.29","null","<span style='color:GreenYellow; font-size: 70px;'>正确! </span>","null","","","","","","","","","","","","","","","","","","","","","","","feedback_test"
"","","","","","psychophysics","71","414095","0.0-7.0-0.30","693","","j","","","","","","","","","","","","","key","j","16.651356435643674","640","356","j","true","img/T_ambi40.png","をる","prac",""
"","","","","","html-keyboard-response","72","414606","0.0-7.0-1.30","null","<span style='color:GreenYellow; font-size: 70px;'>正确! </span>","null","","","","","","","","","","","","","","","","","","","","","","","feedback_test"
"","","","","","psychophysics","73","416737","0.0-7.0-0.31","1130","","f","","","","","","","","","","","","","key","f","16.651380952380666","640","356","f","true","img/H_ambi40.png","生人","prac",""
"","","","","","html-keyboard-response","74","417241","0.0-7.0-1.31","null","<span style='color:GreenYellow; font-size: 70px;'>正确! </span>","null","","","","","","","","","","","","","","","","","","","","","","","feedback_test"
"","","","","","psychophysics","75","419219","0.0-8.0-0.0-0.0","976","","j","","","","","","","","","","","","","key","j","16.652550847457537","640","356","j","true","img/H_ambi40.png","朋友","prac",""
"","","","","","html-keyboard-response","76","419720","0.0-8.0-0.0-1.0","null","<span style='color:GreenYellow; font-size: 70px;'>正确! </span>","null","","","","","","","","","","","","","","","","","","","","","","","feedback_test"
"","","","","","psychophysics","77","421622","0.0-8.0-0.0-0.1","899","","f","","","","","","","","","","","","","key","f","16.651690265486753","640","356","f","true","img/S_ambi40.png","朋友","prac",""
"","","","","","html-keyboard-response","78","422140","0.0-8.0-0.0-1.1","null","<span style='color:GreenYellow; font-size: 70px;'>正确! </span>","null","","","","","","","","","","","","","","","","","","","","","","","feedback_test"
"","","","","","psychophysics","79","423846","0.0-8.0-0.0-0.2","704","","j","","","","","","","","","","","","","key","j","16.651504950495298","640","356","j","true","img/T_ambi40.png","をる","prac",""
"","","","","","html-keyboard-response","80","424351","0.0-8.0-0.0-1.2","null","<span style='color:GreenYellow; font-size: 70px;'>正确! </span>","null","","","","","","","","","","","","","","","","","","","","","","","feedback_test"
"","","","","","psychophysics","81","426109","0.0-8.0-0.0-0.3","755","","f","","","","","","","","","","","","","key","f","16.65125000000038","640","356","j","false","img/S_ambi40.png","自我","prac",""
"","","","","","html-keyboard-response","82","426610","0.0-8.0-0.0-1.3","null","<span style='color:red; font-size: 70px;'>错误! </span>","null","","","","","","","","","","","","","","","","","","","","","","","feedback_test"
"","","","","","psychophysics","83","428543","0.0-8.0-0.0-0.4","930","","f","","","","","","","","","","","","","key","f","16.652307017543965","640","356","j","false","img/C_ambi40.png","朋友","prac",""
"","","","","","html-keyboard-response","84","429061","0.0-8.0-0.0-1.4","null","<span style='color:red; font-size: 70px;'>错误! </span>","null","","","","","","","","","","","","","","","","","","","","","","","feedback_test"
"","","","","","psychophysics","85","430832","0.0-8.0-0.0-0.5","769","","j","","","","","","","","","","","","","key","j","16.650780952380902","640","356","j","true","img/T_ambi40.png","をる","prac",""
"","","","","","html-keyboard-response","86","431341","0.0-8.0-0.0-1.5","null","<span style='color:GreenYellow; font-size: 70px;'>正确! </span>","null","","","","","","","","","","","","","","","","","","","","","","","feedback_test"
"","","","","","psychophysics","87","433395","0.0-8.0-0.0-0.6","1052","","f","","","","","","","","","","","","","key","f","16.65077049180352","640","356","j","false","img/T_ambi40.png","をる","prac",""
"","","","","","html-keyboard-response","88","433910","0.0-8.0-0.0-1.6","null","<span style='color:red; font-size: 70px;'>错误! </span>","null","","","","","","","","","","","","","","","","","","","","","","","feedback_test"
"","","","","","psychophysics","89","435701","0.0-8.0-0.0-0.7","789","","j","","","","","","","","","","","","","key","j","16.658622641509556","640","356","j","true","img/H_ambi40.png","自我","prac",""
"","","","","","html-keyboard-response","90","436210","0.0-8.0-0.0-1.7","null","<span style='color:GreenYellow; font-size: 70px;'>正确! </span>","null","","","","","","","","","","","","","","","","","","","","","","","feedback_test"
"","","","","","psychophysics","91","437941","0.0-8.0-0.0-0.8","729","","f","","","","","","","","","","","","","key","f","16.651650485436846","640","356","f","true","img/C_ambi40.png","自我","prac",""
"","","","","","html-keyboard-response","92","438450","0.0-8.0-0.0-1.8","null","<span style='color:GreenYellow; font-size: 70px;'>正确! </span>","null","","","","","","","","","","","","","","","","","","","","","","","feedback_test"
"","","","","","psychophysics","93","440253","0.0-8.0-0.0-0.9","802","","j","","","","","","","","","","","","","key","j","16.651383177570402","640","356","f","false","img/H_ambi40.png","生人","prac",""
"","","","","","html-keyboard-response","94","440760","0.0-8.0-0.0-1.9","null","<span style='color:red; font-size: 70px;'>错误! </span>","null","","","","","","","","","","","","","","","","","","","","","","","feedback_test"
"","","","","","psychophysics","95","442536","0.0-8.0-0.0-0.10","774","","f","","","","","","","","","","","","","key","f","16.6513047619052","640","356","f","true","img/C_ambi40.png","自我","prac",""
"","","","","","html-keyboard-response","96","443040","0.0-8.0-0.0-1.10","null","<span style='color:GreenYellow; font-size: 70px;'>正确! </span>","null","","","","","","","","","","","","","","","","","","","","","","","feedback_test"
"","","","","","psychophysics","97","444639","0.0-8.0-0.0-0.11","596","","f","","","","","","","","","","","","","key","f","16.651252631579013","640","356","j","false","img/C_ambi40.png","生人","prac",""
"","","","","","html-keyboard-response","98","445140","0.0-8.0-0.0-1.11","null","<span style='color:red; font-size: 70px;'>错误! </span>","null","","","","","","","","","","","","","","","","","","","","","","","feedback_test"
"","","","","","psychophysics","99","446995","0.0-8.0-0.0-0.12","853","","f","","","","","","","","","","","","","key","f","16.65229999999971","640","356","j","false","img/S_ambi40.png","生人","prac",""
"","","","","","html-keyboard-response","100","447510","0.0-8.0-0.0-1.12","null","<span style='color:red; font-size: 70px;'>错误! </span>","null","","","","","","","","","","","","","","","","","","","","","","","feedback_test"
"","","","","","psychophysics","101","449222","0.0-8.0-0.0-0.13","708","","j","","","","","","","","","","","","","key","j","16.651356435643674","640","356","j","true","img/T_ambi40.png","をる","prac",""
"","","","","","html-keyboard-response","102","449735","0.0-8.0-0.0-1.13","null","<span style='color:GreenYellow; font-size: 70px;'>正确! </span>","null","","","","","","","","","","","","","","","","","","","","","","","feedback_test"
"","","","","","psychophysics","103","451719","0.0-8.0-0.0-0.14","983","","f","","","","","","","","","","","","","key","f","16.65089743589718","640","356","f","true","img/H_ambi40.png","生人","prac",""
"","","","","","html-keyboard-response","104","452240","0.0-8.0-0.0-1.14","null","<span style='color:GreenYellow; font-size: 70px;'>正确! </span>","null","","","","","","","","","","","","","","","","","","","","","","","feedback_test"
"","","","","","psychophysics","105","454005","0.0-8.0-0.0-0.15","763","","f","","","","","","","","","","","","","key","f","16.65255238095221","640","356","f","true","img/S_ambi40.png","朋友","prac",""
"","","","","","html-keyboard-response","106","454510","0.0-8.0-0.0-1.15","null","<span style='color:GreenYellow; font-size: 70px;'>正确! </span>","null","","","","","","","","","","","","","","","","","","","","","","","feedback_test"
"","","","","","psychophysics","107","457001","0.0-8.0-0.0-0.16","1487","","f","","","","","","","","","","","","","key","f","16.601114093959676","640","356","j","false","img/H_ambi40.png","朋友","prac",""
"","","","","","html-keyboard-response","108","457520","0.0-8.0-0.0-1.16","null","<span style='color:red; font-size: 70px;'>错误! </span>","null","","","","","","","","","","","","","","","","","","","","","","","feedback_test"
"","","","","","psychophysics","109","459342","0.0-8.0-0.0-0.17","820","","j","","","","","","","","","","","","","key","j","16.650453703703263","640","356","f","false","img/H_ambi40.png","生人","prac",""
"","","","","","html-keyboard-response","110","459860","0.0-8.0-0.0-1.17","null","<span style='color:red; font-size: 70px;'>错误! </span>","null","","","","","","","","","","","","","","","","","","","","","","","feedback_test"
"","","","","","psychophysics","111","461935","0.0-8.0-0.0-0.18","1073","","j","","","","","","","","","","","","","key","j","16.650869918699428","640","356","j","true","img/C_ambi40.png","生人","prac",""
"","","","","","html-keyboard-response","112","462450","0.0-8.0-0.0-1.18","null","<span style='color:GreenYellow; font-size: 70px;'>正确! </span>","null","","","","","","","","","","","","","","","","","","","","","","","feedback_test"
"","","","","","psychophysics","113","464361","0.0-8.0-0.0-0.19","908","","f","","","","","","","","","","","","","key","f","16.65016666666672","640","356","f","true","img/C_ambi40.png","自我","prac",""
"","","","","","html-keyboard-response","114","464880","0.0-8.0-0.0-1.19","null","<span style='color:GreenYellow; font-size: 70px;'>正确! </span>","null","","","","","","","","","","","","","","","","","","","","","","","feedback_test"
"","","","","","psychophysics","115","466882","0.0-8.0-0.0-0.20","1000","","f","","","","","","","","","","","","","key","f","16.6521596638657","640","356","j","false","img/C_ambi40.png","朋友","prac",""
"","","","","","html-keyboard-response","116","467400","0.0-8.0-0.0-1.20","null","<span style='color:red; font-size: 70px;'>错误! </span>","null","","","","","","","","","","","","","","","","","","","","","","","feedback_test"
"","","","","","psychophysics","117","469315","0.0-8.0-0.0-0.21","912","","j","","","","","","","","","","","","","key","j","16.651166666666732","640","356","j","true","img/T_ambi40.png","をる","prac",""
"","","","","","html-keyboard-response","118","469820","0.0-8.0-0.0-1.21","null","<span style='color:GreenYellow; font-size: 70px;'>正确! </span>","null","","","","","","","","","","","","","","","","","","","","","","","feedback_test"
"","","","","","psychophysics","119","472248","0.0-8.0-0.0-0.22","1425","","f","","","","","","","","","","","","","key","f","16.650770833333404","640","356","f","true","img/S_ambi40.png","朋友","prac",""
"","","","","","html-keyboard-response","120","472750","0.0-8.0-0.0-1.22","null","<span style='color:GreenYellow; font-size: 70px;'>正确! </span>","null","","","","","","","","","","","","","","","","","","","","","","","feedback_test"
"","","","","","psychophysics","121","475013","0.0-8.0-0.0-0.23","1261","","j","","","","","","","","","","","","","key","j","16.65120895522379","640","356","j","true","img/S_ambi40.png","生人","prac",""
"","","","","","html-keyboard-response","122","475520","0.0-8.0-0.0-1.23","null","<span style='color:GreenYellow; font-size: 70px;'>正确! </span>","null","","","","","","","","","","","","","","","","","","","","","","","feedback_test"
"","","","","","psychophysics","123","477120","0.0-8.0-0.0-0.24","598","","j","","","","","","","","","","","","","key","j","16.650810526315688","640","356","j","true","img/T_ambi40.png","をる","prac",""
"","","","","","html-keyboard-response","124","477640","0.0-8.0-0.0-1.24","null","<span style='color:GreenYellow; font-size: 70px;'>正确! </span>","null","","","","","","","","","","","","","","","","","","","","","","","feedback_test"
"","","","","","psychophysics","125","479464","0.0-8.0-0.0-0.25","822","","f","","","","","","","","","","","","","key","f","16.652229357798106","640","356","f","true","img/C_ambi40.png","自我","prac",""
"","","","","","html-keyboard-response","126","479970","0.0-8.0-0.0-1.25","null","<span style='color:GreenYellow; font-size: 70px;'>正确! </span>","null","","","","","","","","","","","","","","","","","","","","","","","feedback_test"
"","","","","","psychophysics","127","481683","0.0-8.0-0.0-0.26","711","","j","","","","","","","","","","","","","key","j","16.762950495049694","640","356","j","true","img/H_ambi40.png","自我","prac",""
"","","","","","html-keyboard-response","128","482200","0.0-8.0-0.0-1.26","null","<span style='color:GreenYellow; font-size: 70px;'>正确! </span>","null","","","","","","","","","","","","","","","","","","","","","","","feedback_test"
"","","","","","psychophysics","129","483969","0.0-8.0-0.0-0.27","768","","j","","","","","","","","","","","","","key","j","17.418770000000368","640","356","j","true","img/T_ambi40.png","をる","prac",""
"","","","","","html-keyboard-response","130","484480","0.0-8.0-0.0-1.27","null","<span style='color:GreenYellow; font-size: 70px;'>正确! </span>","null","","","","","","","","","","","","","","","","","","","","","","","feedback_test"
"","","","","","psychophysics","131","486335","0.0-8.0-0.0-0.28","852","","f","","","","","","","","","","","","","key","f","16.593127272727326","640","356","f","true","img/H_ambi40.png","生人","prac",""
"","","","","","html-keyboard-response","132","486850","0.0-8.0-0.0-1.28","null","<span style='color:GreenYellow; font-size: 70px;'>正确! </span>","null","","","","","","","","","","","","","","","","","","","","","","","feedback_test"
"","","","","","psychophysics","133","489318","0.0-8.0-0.0-0.29","1466","","j","","","","","","","","","","","","","key","j","16.685705479451737","640","356","j","true","img/S_ambi40.png","自我","prac",""
"","","","","","html-keyboard-response","134","489820","0.0-8.0-0.0-1.29","null","<span style='color:GreenYellow; font-size: 70px;'>正确! </span>","null","","","","","","","","","","","","","","","","","","","","","","","feedback_test"
"","","","","","psychophysics","135","491594","0.0-8.0-0.0-0.30","771","","f","","","","","","","","","","","","","key","f","16.734628571428004","640","356","f","true","img/S_ambi40.png","朋友","prac",""
"","","","","","html-keyboard-response","136","492101","0.0-8.0-0.0-1.30","null","<span style='color:GreenYellow; font-size: 70px;'>正确! </span>","null","","","","","","","","","","","","","","","","","","","","","","","feedback_test"
"","","","","","psychophysics","137","493767","0.0-8.0-0.0-0.31","664","","j","","","","","","","","","","","","","key","j","16.664929292929084","640","356","j","true","img/T_ambi40.png","をる","prac",""
"","","","","","html-keyboard-response","138","494270","0.0-8.0-0.0-1.31","null","<span style='color:GreenYellow; font-size: 70px;'>正确! </span>","null","","","","","","","","","","","","","","","","","","","","","","","feedback_test"
"","","","","","html-keyboard-response","139","519940","0.0-9.0","25675","<style>.context{color:white; font-size: 35px; line-height:40px}</style>                          <div><p class='context'>您正确回答了72% 的试次。</p ><p class='context'>您的平均反应时为884毫秒。</p ><p class='context'>恭喜您完成练习。按任意键进入正式实验。</p ><p class='footer' style='font-size: 35px; line-height:40px;'>请在进入正式实验实验之前将您的<span style='color: lightgreen;'>食指</span>放在电脑键盘的相应键位上进行按键。</p >"," ","","","","","","","","","","","","","","","","","","","","","","",""
"","","","","","psychophysics","140","521589","0.0-10.0-0.0-0.0-0.0-0.0","642","","j","","","","","","","","","","","","","key","j","16.718536082473967","640","356","j","true","img/T_ambi40.png","をる","same",""
"","","","","","html-keyboard-response","141","522103","0.0-10.0-0.0-0.0-0.0-1.0","null","<span style='color:GreenYellow; font-size: 70px;'>正确! </span>","null","","","","","","","","","","","","","","","","","","","","","","","feedback_test"
"","","","","","psychophysics","142","523835","0.0-10.0-0.0-0.0-0.0-0.1","730","","f","","","","","","","","","","","","","key","f","16.666194174757443","640","356","f","true","img/S_ambi40.png","朋友","same",""
"","","","","","html-keyboard-response","143","524352","0.0-10.0-0.0-0.0-0.0-1.1","null","<span style='color:GreenYellow; font-size: 70px;'>正确! </span>","null","","","","","","","","","","","","","","","","","","","","","","","feedback_test"
"","","","","","psychophysics","144","525839","0.0-10.0-0.0-0.0-0.0-0.2","486","","f","","","","","","","","","","","","","key","f","16.64640909090866","640","356","f","true","img/S_ambi40.png","朋友","same",""
"","","","","","html-keyboard-response","145","526352","0.0-10.0-0.0-0.0-0.0-1.2","null","<span style='color:GreenYellow; font-size: 70px;'>正确! </span>","null","","","","","","","","","","","","","","","","","","","","","","","feedback_test"
"","","","","","psychophysics","146","527977","0.0-10.0-0.0-0.0-0.0-0.3","622","","j","","","","","","","","","","","","","key","j","16.59994845360892","640","356","j","true","img/H_ambi40.png","朋友","same",""
"","","","","","html-keyboard-response","147","528482","0.0-10.0-0.0-0.0-0.0-1.3","null","<span style='color:GreenYellow; font-size: 70px;'>正确! </span>","null","","","","","","","","","","","","","","","","","","","","","","","feedback_test"
"","","","","","psychophysics","148","530254","0.0-10.0-0.0-0.0-0.0-0.4","770","","f","","","","","","","","","","","","","key","f","16.641333333333023","640","356","f","true","img/C_ambi40.png","自我","same",""
"","","","","","html-keyboard-response","149","530762","0.0-10.0-0.0-0.0-0.0-1.4","null","<span style='color:GreenYellow; font-size: 70px;'>正确! </span>","null","","","","","","","","","","","","","","","","","","","","","","","feedback_test"
"","","","","","psychophysics","150","532462","0.0-10.0-0.0-0.0-0.0-0.5","698","","j","","","","","","","","","","","","","key","j","16.625831683167476","640","356","j","true","img/T_ambi40.png","をる","same",""
"","","","","","html-keyboard-response","151","532972","0.0-10.0-0.0-0.0-0.0-1.5","null","<span style='color:GreenYellow; font-size: 70px;'>正确! </span>","null","","","","","","","","","","","","","","","","","","","","","","","feedback_test"
"","","","","","psychophysics","152","534922","0.0-10.0-0.0-0.0-0.0-0.6","947","","f","","","","","","","","","","","","","key","f","16.642517241379366","640","356","j","false","img/C_ambi40.png","生人","same",""
"","","","","","html-keyboard-response","153","535432","0.0-10.0-0.0-0.0-0.0-1.6","null","<span style='color:red; font-size: 70px;'>错误! </span>","null","","","","","","","","","","","","","","","","","","","","","","","feedback_test"
"","","","","","psychophysics","154","537278","0.0-10.0-0.0-0.0-0.0-0.7","844","","j","","","","","","","","","","","","","key","j","16.64317431192687","640","356","j","true","img/H_ambi40.png","自我","same",""
"","","","","","html-keyboard-response","155","537793","0.0-10.0-0.0-0.0-0.0-1.7","null","<span style='color:GreenYellow; font-size: 70px;'>正确! </span>","null","","","","","","","","","","","","","","","","","","","","","","","feedback_test"
"","","","","","psychophysics","156","539617","0.0-10.0-0.0-0.0-0.0-0.8","822","","j","","","","","","","","","","","","","key","j","16.65023853210946","640","356","j","true","img/T_ambi40.png","をる","same",""
"","","","","","html-keyboard-response","157","540128","0.0-10.0-0.0-0.0-0.0-1.8","null","<span style='color:GreenYellow; font-size: 70px;'>正确! </span>","null","","","","","","","","","","","","","","","","","","","","","","","feedback_test"
"","","","","","psychophysics","158","542112","0.0-10.0-0.0-0.0-0.0-0.9","983","","f","","","","","","","","","","","","","key","f","16.650813559322792","640","356","j","false","img/S_ambi40.png","自我","same",""
"","","","","","html-keyboard-response","159","542632","0.0-10.0-0.0-0.0-0.0-1.9","null","<span style='color:red; font-size: 70px;'>错误! </span>","null","","","","","","","","","","","","","","","","","","","","","","","feedback_test"
"","","","","","psychophysics","160","544394","0.0-10.0-0.0-0.0-0.0-0.10","760","","f","","","","","","","","","","","","","key","f","16.649638095237535","640","356","f","true","img/S_ambi40.png","朋友","same",""
"","","","","","html-keyboard-response","161","544912","0.0-10.0-0.0-0.0-0.0-1.10","null","<span style='color:GreenYellow; font-size: 70px;'>正确! </span>","null","","","","","","","","","","","","","","","","","","","","","","","feedback_test"
"","","","","","psychophysics","162","546609","0.0-10.0-0.0-0.0-0.0-0.11","694","","j","","","","","","","","","","","","","key","j","16.649841584158036","640","356","j","true","img/C_ambi40.png","朋友","same",""
"","","","","","html-keyboard-response","163","547112","0.0-10.0-0.0-0.0-0.0-1.11","null","<span style='color:GreenYellow; font-size: 70px;'>正确! </span>","null","","","","","","","","","","","","","","","","","","","","","","","feedback_test"
"","","","","","psychophysics","164","548845","0.0-10.0-0.0-0.0-0.0-0.12","731","","f","","","","","","","","","","","","","key","f","16.651174757281517","640","356","j","false","img/S_ambi40.png","生人","same",""
"","","","","","html-keyboard-response","165","549362","0.0-10.0-0.0-0.0-0.0-1.12","null","<span style='color:red; font-size: 70px;'>错误! </span>","null","","","","","","","","","","","","","","","","","","","","","","","feedback_test"
"","","","","","psychophysics","166","550985","0.0-10.0-0.0-0.0-0.0-0.13","620","","f","","","","","","","","","","","","","key","f","16.651114583333158","640","356","f","true","img/H_ambi40.png","生人","same",""
"","","","","","html-keyboard-response","167","551492","0.0-10.0-0.0-0.0-0.0-1.13","null","<span style='color:GreenYellow; font-size: 70px;'>正确! </span>","null","","","","","","","","","","","","","","","","","","","","","","","feedback_test"
"","","","","","psychophysics","168","553215","0.0-10.0-0.0-0.0-0.0-0.14","721","","f","","","","","","","","","","","","","key","f","16.65142156862809","640","356","f","true","img/C_ambi40.png","自我","same",""
"","","","","","html-keyboard-response","169","553732","0.0-10.0-0.0-0.0-0.0-1.14","null","<span style='color:GreenYellow; font-size: 70px;'>正确! </span>","null","","","","","","","","","","","","","","","","","","","","","","","feedback_test"
"","","","","","psychophysics","170","555509","0.0-10.0-0.0-0.0-0.0-0.15","776","","f","","","","","","","","","","","","","key","f","16.65163809523829","640","356","f","true","img/H_ambi40.png","生人","same",""
"","","","","","html-keyboard-response","171","556022","0.0-10.0-0.0-0.0-0.0-1.15","null","<span style='color:GreenYellow; font-size: 70px;'>正确! </span>","null","","","","","","","","","","","","","","","","","","","","","","","feedback_test"
"","","","","","psychophysics","172","557837","0.0-10.0-0.0-0.0-0.0-0.16","814","","f","","","","","","","","","","","","","key","f","16.650953703704378","640","356","f","true","img/H_ambi40.png","生人","same",""
"","","","","","html-keyboard-response","173","558342","0.0-10.0-0.0-0.0-0.0-1.16","null","<span style='color:GreenYellow; font-size: 70px;'>正确! </span>","null","","","","","","","","","","","","","","","","","","","","","","","feedback_test"
"","","","","","psychophysics","174","560134","0.0-10.0-0.0-0.0-0.0-0.17","789","","f","","","","","","","","","","","","","key","f","16.65409433962294","640","356","f","true","img/C_ambi40.png","自我","same",""
"","","","","","html-keyboard-response","175","560652","0.0-10.0-0.0-0.0-0.0-1.17","null","<span style='color:GreenYellow; font-size: 70px;'>正确! </span>","null","","","","","","","","","","","","","","","","","","","","","","","feedback_test"
"","","","","","psychophysics","176","562316","0.0-10.0-0.0-0.0-0.0-0.18","662","","j","","","","","","","","","","","","","key","j","16.651939393939553","640","356","j","true","img/T_ambi40.png","をる","same",""
"","","","","","html-keyboard-response","177","562832","0.0-10.0-0.0-0.0-0.0-1.18","null","<span style='color:GreenYellow; font-size: 70px;'>正确! </span>","null","","","","","","","","","","","","","","","","","","","","","","","feedback_test"
"","","","","","psychophysics","178","564645","0.0-10.0-0.0-0.0-0.0-0.19","811","","f","","","","","","","","","","","","","key","f","16.650546296295943","640","356","f","true","img/C_ambi40.png","自我","same",""
"","","","","","html-keyboard-response","179","565162","0.0-10.0-0.0-0.0-0.0-1.19","null","<span style='color:GreenYellow; font-size: 70px;'>正确! </span>","null","","","","","","","","","","","","","","","","","","","","","","","feedback_test"
"","","","","","psychophysics","180","567114","0.0-10.0-0.0-0.0-0.0-0.20","950","","j","","","","","","","","","","","","","key","j","16.651310344827802","640","356","j","true","img/T_ambi40.png","をる","same",""
"","","","","","html-keyboard-response","181","567632","0.0-10.0-0.0-0.0-0.0-1.20","null","<span style='color:GreenYellow; font-size: 70px;'>正确! </span>","null","","","","","","","","","","","","","","","","","","","","","","","feedback_test"
"","","","","","psychophysics","182","569346","0.0-10.0-0.0-0.0-0.0-0.21","712","","j","","","","","","","","","","","","","key","j","16.65136274509817","640","356","j","true","img/C_ambi40.png","生人","same",""
"","","","","","html-keyboard-response","183","569862","0.0-10.0-0.0-0.0-0.0-1.21","null","<span style='color:GreenYellow; font-size: 70px;'>正确! </span>","null","","","","","","","","","","","","","","","","","","","","","","","feedback_test"
"","","","","","psychophysics","184","571615","0.0-10.0-0.0-0.0-0.0-0.22","751","","f","","","","","","","","","","","","","key","f","16.64850961538412","640","356","f","true","img/H_ambi40.png","生人","same",""
"","","","","","html-keyboard-response","185","572132","0.0-10.0-0.0-0.0-0.0-1.22","null","<span style='color:GreenYellow; font-size: 70px;'>正确! </span>","null","","","","","","","","","","","","","","","","","","","","","","","feedback_test"
"","","","","","psychophysics","186","573740","0.0-10.0-0.0-0.0-0.0-0.23","606","","f","","","","","","","","","","","","","key","f","16.64550526315763","640","356","f","true","img/H_ambi40.png","生人","same",""
"","","","","","html-keyboard-response","187","574242","0.0-10.0-0.0-0.0-0.0-1.23","null","<span style='color:GreenYellow; font-size: 70px;'>正确! </span>","null","","","","","","","","","","","","","","","","","","","","","","","feedback_test"
"","","","","","psychophysics","188","575840","0.0-10.0-0.0-0.0-0.0-0.24","595","","j","","","","","","","","","","","","","key","j","16.610863157894805","640","356","j","true","img/S_ambi40.png","自我","same",""
"","","","","","html-keyboard-response","189","576356","0.0-10.0-0.0-0.0-0.0-1.24","null","<span style='color:GreenYellow; font-size: 70px;'>正确! </span>","null","","","","","","","","","","","","","","","","","","","","","","","feedback_test"
"","","","","","psychophysics","190","578258","0.0-10.0-0.0-0.0-0.0-0.25","900","","f","","","","","","","","","","","","","key","f","16.650221238938876","640","356","j","false","img/C_ambi40.png","朋友","same",""
"","","","","","html-keyboard-response","191","578762","0.0-10.0-0.0-0.0-0.0-1.25","null","<span style='color:red; font-size: 70px;'>错误! </span>","null","","","","","","","","","","","","","","","","","","","","","","","feedback_test"
"","","","","","psychophysics","192","580579","0.0-10.0-0.0-0.0-0.0-0.26","807","","f","","","","","","","","","","","","","key","f","16.651869158878505","640","356","f","true","img/S_ambi40.png","朋友","same",""
"","","","","","html-keyboard-response","193","581090","0.0-10.0-0.0-0.0-0.0-1.26","null","<span style='color:GreenYellow; font-size: 70px;'>正确! </span>","null","","","","","","","","","","","","","","","","","","","","","","","feedback_test"
"","","","","","psychophysics","194","582993","0.0-10.0-0.0-0.0-0.0-0.27","903","","f","","","","","","","","","","","","","key","f","16.651070796460143","640","356","f","true","img/C_ambi40.png","自我","same",""
"","","","","","html-keyboard-response","195","583499","0.0-10.0-0.0-0.0-0.0-1.27","null","<span style='color:GreenYellow; font-size: 70px;'>正确! </span>","null","","","","","","","","","","","","","","","","","","","","","","","feedback_test"
"","","","","","psychophysics","196","585974","0.0-10.0-0.0-0.0-0.0-0.28","1474","","j","","","","","","","","","","","","","key","j","16.64785034013643","640","356","j","true","img/S_ambi40.png","生人","same",""
"","","","","","html-keyboard-response","197","586480","0.0-10.0-0.0-0.0-0.0-1.28","null","<span style='color:GreenYellow; font-size: 70px;'>正确! </span>","null","","","","","","","","","","","","","","","","","","","","","","","feedback_test"
"","","","","","psychophysics","198","588391","0.0-10.0-0.0-0.0-0.0-0.29","908","","j","","","","","","","","","","","","","key","j","16.65064601769951","640","356","j","true","img/T_ambi40.png","をる","same",""
"","","","","","html-keyboard-response","199","588899","0.0-10.0-0.0-0.0-0.0-1.29","null","<span style='color:GreenYellow; font-size: 70px;'>正确! </span>","null","","","","","","","","","","","","","","","","","","","","","","","feedback_test"
"","","","","","psychophysics","200","590733","0.0-10.0-0.0-0.0-0.0-0.30","833","","f","","","","","","","","","","","","","key","f","16.65016513761483","640","356","f","true","img/S_ambi40.png","朋友","same",""
"","","","","","html-keyboard-response","201","591249","0.0-10.0-0.0-0.0-0.0-1.30","null","<span style='color:GreenYellow; font-size: 70px;'>正确! </span>","null","","","","","","","","","","","","","","","","","","","","","","","feedback_test"
"","","","","","psychophysics","202","593109","0.0-10.0-0.0-0.0-0.0-0.31","858","","j","","","","","","","","","","","","","key","j","16.651153153153597","640","356","j","true","img/H_ambi40.png","朋友","same",""
"","","","","","html-keyboard-response","203","593619","0.0-10.0-0.0-0.0-0.0-1.31","null","<span style='color:GreenYellow; font-size: 70px;'>正确! </span>","null","","","","","","","","","","","","","","","","","","","","","","","feedback_test"
"","","","","","psychophysics","204","595393","0.0-10.0-0.0-0.0-0.0-0.32","772","","f","","","","","","","","","","","","","key","f","16.651028571428643","640","356","f","true","img/C_ambi40.png","自我","same",""
"","","","","","html-keyboard-response","205","595899","0.0-10.0-0.0-0.0-0.0-1.32","null","<span style='color:GreenYellow; font-size: 70px;'>正确! </span>","null","","","","","","","","","","","","","","","","","","","","","","","feedback_test"
"","","","","","psychophysics","206","597607","0.0-10.0-0.0-0.0-0.0-0.33","706","","f","","","","","","","","","","","","","key","f","16.65253465346494","640","356","f","true","img/S_ambi40.png","朋友","same",""
"","","","","","html-keyboard-response","207","598109","0.0-10.0-0.0-0.0-0.0-1.33","null","<span style='color:GreenYellow; font-size: 70px;'>正确! </span>","null","","","","","","","","","","","","","","","","","","","","","","","feedback_test"
"","","","","","psychophysics","208","599925","0.0-10.0-0.0-0.0-0.0-0.34","813","","j","","","","","","","","","","","","","key","j","16.651472222222733","640","356","j","true","img/H_ambi40.png","自我","same",""
"","","","","","html-keyboard-response","209","600436","0.0-10.0-0.0-0.0-0.0-1.34","null","<span style='color:GreenYellow; font-size: 70px;'>正确! </span>","null","","","","","","","","","","","","","","","","","","","","","","","feedback_test"
"","","","","","psychophysics","210","602289","0.0-10.0-0.0-0.0-0.0-0.35","851","","f","","","","","","","","","","","","","key","f","16.650845454545394","640","356","f","true","img/H_ambi40.png","生人","same",""
"","","","","","html-keyboard-response","211","602800","0.0-10.0-0.0-0.0-0.0-1.35","null","<span style='color:GreenYellow; font-size: 70px;'>正确! </span>","null","","","","","","","","","","","","","","","","","","","","","","","feedback_test"
"","","","","","psychophysics","212","604607","0.0-10.0-0.0-0.0-0.0-0.36","804","","j","","","","","","","","","","","","","key","j","16.65343925233704","640","356","j","true","img/H_ambi40.png","朋友","same",""
"","","","","","html-keyboard-response","213","605109","0.0-10.0-0.0-0.0-0.0-1.36","null","<span style='color:GreenYellow; font-size: 70px;'>正确! </span>","null","","","","","","","","","","","","","","","","","","","","","","","feedback_test"
"","","","","","psychophysics","214","606925","0.0-10.0-0.0-0.0-0.0-0.37","815","","j","","","","","","","","","","","","","key","j","16.652157407408122","640","356","f","false","img/H_ambi40.png","生人","same",""
"","","","","","html-keyboard-response","215","607429","0.0-10.0-0.0-0.0-0.0-1.37","null","<span style='color:red; font-size: 70px;'>错误! </span>","null","","","","","","","","","","","","","","","","","","","","","","","feedback_test"
"","","","","","psychophysics","216","609128","0.0-10.0-0.0-0.0-0.0-0.38","696","","j","","","","","","","","","","","","","key","j","16.65093069306879","640","356","j","true","img/S_ambi40.png","生人","same",""
"","","","","","html-keyboard-response","217","609629","0.0-10.0-0.0-0.0-0.0-1.38","null","<span style='color:GreenYellow; font-size: 70px;'>正确! </span>","null","","","","","","","","","","","","","","","","","","","","","","","feedback_test"
"","","","","","psychophysics","218","611277","0.0-10.0-0.0-0.0-0.0-0.39","646","","f","","","","","","","","","","","","","key","f","16.652367346937893","640","356","f","true","img/S_ambi40.png","朋友","same",""
"","","","","","html-keyboard-response","219","611779","0.0-10.0-0.0-0.0-0.0-1.39","null","<span style='color:GreenYellow; font-size: 70px;'>正确! </span>","null","","","","","","","","","","","","","","","","","","","","","","","feedback_test"
"","","","","","psychophysics","220","613657","0.0-10.0-0.0-0.0-0.0-0.40","875","","f","","","","","","","","","","","","","key","f","16.6509464285721","640","356","f","true","img/C_ambi40.png","自我","same",""
"","","","","","html-keyboard-response","221","614159","0.0-10.0-0.0-0.0-0.0-1.40","null","<span style='color:GreenYellow; font-size: 70px;'>正确! </span>","null","","","","","","","","","","","","","","","","","","","","","","","feedback_test"
"","","","","","psychophysics","222","616127","0.0-10.0-0.0-0.0-0.0-0.41","966","","f","","","","","","","","","","","","","key","f","16.655162393162225","640","356","f","true","img/S_ambi40.png","朋友","same",""
"","","","","","html-keyboard-response","223","616630","0.0-10.0-0.0-0.0-0.0-1.41","null","<span style='color:GreenYellow; font-size: 70px;'>正确! </span>","null","","","","","","","","","","","","","","","","","","","","","","","feedback_test"
"","","","","","psychophysics","224","618416","0.0-10.0-0.0-0.0-0.0-0.42","785","","f","","","","","","","","","","","","","key","f","16.651745283018517","640","356","j","false","img/C_ambi40.png","朋友","same",""
"","","","","","html-keyboard-response","225","618929","0.0-10.0-0.0-0.0-0.0-1.42","null","<span style='color:red; font-size: 70px;'>错误! </span>","null","","","","","","","","","","","","","","","","","","","","","","","feedback_test"
"","","","","","psychophysics","226","620490","0.0-10.0-0.0-0.0-0.0-0.43","559","","f","","","","","","","","","","","","","key","f","16.651891304347057","640","356","f","true","img/S_ambi40.png","朋友","same",""
"","","","","","html-keyboard-response","227","621000","0.0-10.0-0.0-0.0-0.0-1.43","null","<span style='color:GreenYellow; font-size: 70px;'>正确! </span>","null","","","","","","","","","","","","","","","","","","","","","","","feedback_test"
"","","","","","psychophysics","228","622599","0.0-10.0-0.0-0.0-0.0-0.44","596","","f","","","","","","","","","","","","","key","f","16.717212765956884","640","356","f","true","img/C_ambi40.png","自我","same",""
"","","","","","html-keyboard-response","229","623120","0.0-10.0-0.0-0.0-0.0-1.44","null","<span style='color:GreenYellow; font-size: 70px;'>正确! </span>","null","","","","","","","","","","","","","","","","","","","","","","","feedback_test"
"","","","","","psychophysics","230","624835","0.0-10.0-0.0-0.0-0.0-0.45","713","","f","","","","","","","","","","","","","key","f","16.65035294117657","640","356","f","true","img/H_ambi40.png","生人","same",""
"","","","","","html-keyboard-response","231","625350","0.0-10.0-0.0-0.0-0.0-1.45","null","<span style='color:GreenYellow; font-size: 70px;'>正确! </span>","null","","","","","","","","","","","","","","","","","","","","","","","feedback_test"
"","","","","","psychophysics","232","627269","0.0-10.0-0.0-0.0-0.0-0.46","917","","j","","","","","","","","","","","","","key","j","16.64970175438589","640","356","j","true","img/C_ambi40.png","生人","same",""
"","","","","","html-keyboard-response","233","627780","0.0-10.0-0.0-0.0-0.0-1.46","null","<span style='color:GreenYellow; font-size: 70px;'>正确! </span>","null","","","","","","","","","","","","","","","","","","","","","","","feedback_test"
"","","","","","psychophysics","234","629512","0.0-10.0-0.0-0.0-0.0-0.47","721","","j","","","","","","","","","","","","","key","j","16.690155339805926","640","356","j","true","img/T_ambi40.png","をる","same",""
"","","","","","html-keyboard-response","235","630019","0.0-10.0-0.0-0.0-0.0-1.47","null","<span style='color:GreenYellow; font-size: 70px;'>正确! </span>","null","","","","","","","","","","","","","","","","","","","","","","","feedback_test"
"","","","","","psychophysics","236","631598","0.0-10.0-0.0-0.0-0.0-0.48","578","","j","","","","","","","","","","","","","key","j","17.590886363635285","640","356","j","true","img/T_ambi40.png","をる","same",""
"","","","","","html-keyboard-response","237","632100","0.0-10.0-0.0-0.0-0.0-1.48","null","<span style='color:GreenYellow; font-size: 70px;'>正确! </span>","null","","","","","","","","","","","","","","","","","","","","","","","feedback_test"
"","","","","","psychophysics","238","634436","0.0-10.0-0.0-0.0-0.0-0.49","1335","","f","","","","","","","","","","","","","key","f","16.64997841726667","640","356","f","true","img/C_ambi40.png","自我","same",""
"","","","","","html-keyboard-response","239","634949","0.0-10.0-0.0-0.0-0.0-1.49","null","<span style='color:GreenYellow; font-size: 70px;'>正确! </span>","null","","","","","","","","","","","","","","","","","","","","","","","feedback_test"
"","","","","","psychophysics","240","636827","0.0-10.0-0.0-0.0-0.0-0.50","877","","j","","","","","","","","","","","","","key","j","16.619027027027546","640","356","j","true","img/S_ambi40.png","自我","same",""
"","","","","","html-keyboard-response","241","637340","0.0-10.0-0.0-0.0-0.0-1.50","null","<span style='color:GreenYellow; font-size: 70px;'>正确! </span>","null","","","","","","","","","","","","","","","","","","","","","","","feedback_test"
"","","","","","psychophysics","242","639144","0.0-10.0-0.0-0.0-0.0-0.51","803","","j","","","","","","","","","","","","","key","j","16.640467289719886","640","356","j","true","img/H_ambi40.png","自我","same",""
"","","","","","html-keyboard-response","243","639650","0.0-10.0-0.0-0.0-0.0-1.51","null","<span style='color:GreenYellow; font-size: 70px;'>正确! </span>","null","","","","","","","","","","","","","","","","","","","","","","","feedback_test"
"","","","","","psychophysics","244","641520","0.0-10.0-0.0-0.0-0.0-0.52","867","","f","","","","","","","","","","","","","key","f","16.70072727272689","640","356","f","true","img/H_ambi40.png","生人","same",""
"","","","","","html-keyboard-response","245","642030","0.0-10.0-0.0-0.0-0.0-1.52","null","<span style='color:GreenYellow; font-size: 70px;'>正确! </span>","null","","","","","","","","","","","","","","","","","","","","","","","feedback_test"
"","","","","","psychophysics","246","643647","0.0-10.0-0.0-0.0-0.0-0.53","615","","j","","","","","","","","","","","","","key","j","16.588270833332597","640","356","j","true","img/T_ambi40.png","をる","same",""
"","","","","","html-keyboard-response","247","644160","0.0-10.0-0.0-0.0-0.0-1.53","null","<span style='color:GreenYellow; font-size: 70px;'>正确! </span>","null","","","","","","","","","","","","","","","","","","","","","","","feedback_test"
"","","","","","psychophysics","248","646168","0.0-10.0-0.0-0.0-0.0-0.54","1006","","j","","","","","","","","","","","","","key","j","16.602630252100745","640","356","j","true","img/S_ambi40.png","自我","same",""
"","","","","","html-keyboard-response","249","646679","0.0-10.0-0.0-0.0-0.0-1.54","null","<span style='color:GreenYellow; font-size: 70px;'>正确! </span>","null","","","","","","","","","","","","","","","","","","","","","","","feedback_test"
"","","","","","psychophysics","250","648420","0.0-10.0-0.0-0.0-0.0-0.55","739","","f","","","","","","","","","","","","","key","f","16.65156730769265","640","356","f","true","img/S_ambi40.png","朋友","same",""
"","","","","","html-keyboard-response","251","648930","0.0-10.0-0.0-0.0-0.0-1.55","null","<span style='color:GreenYellow; font-size: 70px;'>正确! </span>","null","","","","","","","","","","","","","","","","","","","","","","","feedback_test"
"","","","","","psychophysics","252","650707","0.0-10.0-0.0-0.0-0.0-0.56","776","","j","","","","","","","","","","","","","key","j","16.64565094339635","640","356","j","true","img/H_ambi40.png","朋友","same",""
"","","","","","html-keyboard-response","253","651220","0.0-10.0-0.0-0.0-0.0-1.56","null","<span style='color:GreenYellow; font-size: 70px;'>正确! </span>","null","","","","","","","","","","","","","","","","","","","","","","","feedback_test"
"","","","","","psychophysics","254","652882","0.0-10.0-0.0-0.0-0.0-0.57","660","","j","","","","","","","","","","","","","key","j","16.642795918366815","640","356","j","true","img/T_ambi40.png","をる","same",""
"","","","","","html-keyboard-response","255","653399","0.0-10.0-0.0-0.0-0.0-1.57","null","<span style='color:GreenYellow; font-size: 70px;'>正确! </span>","null","","","","","","","","","","","","","","","","","","","","","","","feedback_test"
"","","","","","psychophysics","256","655201","0.0-10.0-0.0-0.0-0.0-0.58","799","","j","","","","","","","","","","","","","key","j","16.643869158878235","640","356","f","false","img/C_ambi40.png","自我","same",""
"","","","","","html-keyboard-response","257","655719","0.0-10.0-0.0-0.0-0.0-1.58","null","<span style='color:red; font-size: 70px;'>错误! </span>","null","","","","","","","","","","","","","","","","","","","","","","","feedback_test"
"","","","","","psychophysics","258","657318","0.0-10.0-0.0-0.0-0.0-0.59","597","","f","","","","","","","","","","","","","key","f","16.649378947368334","640","356","f","true","img/C_ambi40.png","自我","same",""
"","","","","","html-keyboard-response","259","657830","0.0-10.0-0.0-0.0-0.0-1.59","null","<span style='color:GreenYellow; font-size: 70px;'>正确! </span>","null","","","","","","","","","","","","","","","","","","","","","","","feedback_test"
"","","","","","psychophysics","260","659538","0.0-10.0-0.0-0.0-0.0-0.60","705","","f","","","","","","","","","","","","","key","f","16.64790099009982","640","356","f","true","img/S_ambi40.png","朋友","same",""
"","","","","","html-keyboard-response","261","660050","0.0-10.0-0.0-0.0-0.0-1.60","null","<span style='color:GreenYellow; font-size: 70px;'>正确! </span>","null","","","","","","","","","","","","","","","","","","","","","","","feedback_test"
"","","","","","psychophysics","262","661643","0.0-10.0-0.0-0.0-0.0-0.61","592","","j","","","","","","","","","","","","","key","j","16.649610526315673","640","356","j","true","img/T_ambi40.png","をる","same",""
"","","","","","html-keyboard-response","263","662150","0.0-10.0-0.0-0.0-0.0-1.61","null","<span style='color:GreenYellow; font-size: 70px;'>正确! </span>","null","","","","","","","","","","","","","","","","","","","","","","","feedback_test"
"","","","","","psychophysics","264","663938","0.0-10.0-0.0-0.0-0.0-0.62","786","","f","","","","","","","","","","","","","key","f","16.651719626168738","640","356","f","true","img/H_ambi40.png","生人","same",""
"","","","","","html-keyboard-response","265","664440","0.0-10.0-0.0-0.0-0.0-1.62","null","<span style='color:GreenYellow; font-size: 70px;'>正确! </span>","null","","","","","","","","","","","","","","","","","","","","","","","feedback_test"
"","","","","","psychophysics","266","666137","0.0-10.0-0.0-0.0-0.0-0.63","696","","j","","","","","","","","","","","","","key","j","16.6207326732675","640","356","j","true","img/C_ambi40.png","生人","same",""
"","","","","","html-keyboard-response","267","666650","0.0-10.0-0.0-0.0-0.0-1.63","null","<span style='color:GreenYellow; font-size: 70px;'>正确! </span>","null","","","","","","","","","","","","","","","","","","","","","","","feedback_test"
"","","","","","psychophysics","268","668328","0.0-10.0-0.0-0.0-0.0-0.64","677","","f","","","","","","","","","","","","","key","f","16.650797979798018","640","356","f","true","img/S_ambi40.png","朋友","same",""
"","","","","","html-keyboard-response","269","668840","0.0-10.0-0.0-0.0-0.0-1.64","null","<span style='color:GreenYellow; font-size: 70px;'>正确! </span>","null","","","","","","","","","","","","","","","","","","","","","","","feedback_test"
"","","","","","psychophysics","270","670565","0.0-10.0-0.0-0.0-0.0-0.65","723","","f","","","","","","","","","","","","","key","f","16.650372549019497","640","356","f","true","img/C_ambi40.png","自我","same",""
"","","","","","html-keyboard-response","271","671070","0.0-10.0-0.0-0.0-0.0-1.65","null","<span style='color:GreenYellow; font-size: 70px;'>正确! </span>","null","","","","","","","","","","","","","","","","","","","","","","","feedback_test"
"","","","","","psychophysics","272","672952","0.0-10.0-0.0-0.0-0.0-0.66","879","","j","","","","","","","","","","","","","key","j","16.65140178571372","640","356","j","true","img/H_ambi40.png","自我","same",""
"","","","","","html-keyboard-response","273","673460","0.0-10.0-0.0-0.0-0.0-1.66","null","<span style='color:GreenYellow; font-size: 70px;'>正确! </span>","null","","","","","","","","","","","","","","","","","","","","","","","feedback_test"
"","","","","","psychophysics","274","675230","0.0-10.0-0.0-0.0-0.0-0.67","768","","f","","","","","","","","","","","","","key","f","16.651657142857132","640","356","j","false","img/S_ambi40.png","生人","same",""
"","","","","","html-keyboard-response","275","675750","0.0-10.0-0.0-0.0-0.0-1.67","null","<span style='color:red; font-size: 70px;'>错误! </span>","null","","","","","","","","","","","","","","","","","","","","","","","feedback_test"
"","","","","","psychophysics","276","677394","0.0-10.0-0.0-0.0-0.0-0.68","642","","f","","","","","","","","","","","","","key","f","16.613795918367366","640","356","f","true","img/H_ambi40.png","生人","same",""
"","","","","","html-keyboard-response","277","677910","0.0-10.0-0.0-0.0-0.0-1.68","null","<span style='color:GreenYellow; font-size: 70px;'>正确! </span>","null","","","","","","","","","","","","","","","","","","","","","","","feedback_test"
"","","","","","psychophysics","278","679501","0.0-10.0-0.0-0.0-0.0-0.69","589","","f","","","","","","","","","","","","","key","f","16.62579787233993","640","356","f","true","img/H_ambi40.png","生人","same",""
"","","","","","html-keyboard-response","279","680020","0.0-10.0-0.0-0.0-0.0-1.69","null","<span style='color:GreenYellow; font-size: 70px;'>正确! </span>","null","","","","","","","","","","","","","","","","","","","","","","","feedback_test"
"","","","","","psychophysics","280","681716","0.0-10.0-0.0-0.0-0.0-0.70","695","","j","","","","","","","","","","","","","key","j","16.650810000000057","640","356","j","true","img/C_ambi40.png","朋友","same",""
"","","","","","html-keyboard-response","281","682220","0.0-10.0-0.0-0.0-0.0-1.70","null","<span style='color:GreenYellow; font-size: 70px;'>正确! </span>","null","","","","","","","","","","","","","","","","","","","","","","","feedback_test"
"","","","","","psychophysics","282","683836","0.0-10.0-0.0-0.0-0.0-0.71","613","","j","","","","","","","","","","","","","key","j","16.65255208333353","640","356","j","true","img/T_ambi40.png","をる","same",""
"","","","","","html-keyboard-response","283","684350","0.0-10.0-0.0-0.0-0.0-1.71","null","<span style='color:GreenYellow; font-size: 70px;'>正确! </span>","null","","","","","","","","","","","","","","","","","","","","","","","feedback_test"
"","","","","","psychophysics","284","686106","0.0-10.0-0.0-0.0-0.0-0.72","754","","f","","","","","","","","","","","","","key","f","16.651355769231138","640","356","f","true","img/C_ambi40.png","自我","same",""
"","","","","","html-keyboard-response","285","686620","0.0-10.0-0.0-0.0-0.0-1.72","null","<span style='color:GreenYellow; font-size: 70px;'>正确! </span>","null","","","","","","","","","","","","","","","","","","","","","","","feedback_test"
"","","","","","psychophysics","286","688290","0.0-10.0-0.0-0.0-0.0-0.73","668","","j","","","","","","","","","","","","","key","j","16.65195959595954","640","356","j","true","img/C_ambi40.png","生人","same",""
"","","","","","html-keyboard-response","287","688800","0.0-10.0-0.0-0.0-0.0-1.73","null","<span style='color:GreenYellow; font-size: 70px;'>正确! </span>","null","","","","","","","","","","","","","","","","","","","","","","","feedback_test"
"","","","","","psychophysics","288","690507","0.0-10.0-0.0-0.0-0.0-0.74","705","","f","","","","","","","","","","","","","key","f","16.650663366336097","640","356","f","true","img/S_ambi40.png","朋友","same",""
"","","","","","html-keyboard-response","289","691010","0.0-10.0-0.0-0.0-0.0-1.74","null","<span style='color:GreenYellow; font-size: 70px;'>正确! </span>","null","","","","","","","","","","","","","","","","","","","","","","","feedback_test"
"","","","","","psychophysics","290","692593","0.0-10.0-0.0-0.0-0.0-0.75","581","","j","","","","","","","","","","","","","key","j","16.65141935483928","640","356","j","true","img/T_ambi40.png","をる","same",""
"","","","","","html-keyboard-response","291","693109","0.0-10.0-0.0-0.0-0.0-1.75","null","<span style='color:GreenYellow; font-size: 70px;'>正确! </span>","null","","","","","","","","","","","","","","","","","","","","","","","feedback_test"
"","","","","","psychophysics","292","694655","0.0-10.0-0.0-0.0-0.0-0.76","543","","j","","","","","","","","","","","","","key","j","16.65135164835214","640","356","j","true","img/T_ambi40.png","をる","same",""
"","","","","","html-keyboard-response","293","695166","0.0-10.0-0.0-0.0-0.0-1.76","null","<span style='color:GreenYellow; font-size: 70px;'>正确! </span>","null","","","","","","","","","","","","","","","","","","","","","","","feedback_test"
"","","","","","psychophysics","294","696918","0.0-10.0-0.0-0.0-0.0-0.77","750","","f","","","","","","","","","","","","","key","f","16.652009615384696","640","356","f","true","img/S_ambi40.png","朋友","same",""
"","","","","","html-keyboard-response","295","697420","0.0-10.0-0.0-0.0-0.0-1.77","null","<span style='color:GreenYellow; font-size: 70px;'>正确! </span>","null","","","","","","","","","","","","","","","","","","","","","","","feedback_test"
"","","","","","psychophysics","296","698994","0.0-10.0-0.0-0.0-0.0-0.78","572","","j","","","","","","","","","","","","","key","j","16.65326881720384","640","356","j","true","img/C_ambi40.png","朋友","same",""
"","","","","","html-keyboard-response","297","699500","0.0-10.0-0.0-0.0-0.0-1.78","null","<span style='color:GreenYellow; font-size: 70px;'>正确! </span>","null","","","","","","","","","","","","","","","","","","","","","","","feedback_test"
"","","","","","psychophysics","298","701911","0.0-10.0-0.0-0.0-0.0-0.79","1409","","f","","","","","","","","","","","","","key","f","16.654437499999606","640","356","j","false","img/H_ambi40.png","自我","same",""
"","","","","","html-keyboard-response","299","702430","0.0-10.0-0.0-0.0-0.0-1.79","null","<span style='color:red; font-size: 70px;'>错误! </span>","null","","","","","","","","","","","","","","","","","","","","","","","feedback_test"
"","","","","","psychophysics","300","704666","0.0-10.0-0.0-0.0-0.0-0.80","1234","","f","","","","","","","","","","","","","key","f","16.650375939849624","640","356","f","true","img/H_ambi40.png","生人","same",""
"","","","","","html-keyboard-response","301","705180","0.0-10.0-0.0-0.0-0.0-1.80","null","<span style='color:GreenYellow; font-size: 70px;'>正确! </span>","null","","","","","","","","","","","","","","","","","","","","","","","feedback_test"
"","","","","","psychophysics","302","707018","0.0-10.0-0.0-0.0-0.0-0.81","836","","f","","","","","","","","","","","","","key","f","16.650623853210522","640","356","j","false","img/S_ambi40.png","生人","same",""
"","","","","","html-keyboard-response","303","707520","0.0-10.0-0.0-0.0-0.0-1.81","null","<span style='color:red; font-size: 70px;'>错误! </span>","null","","","","","","","","","","","","","","","","","","","","","","","feedback_test"
"","","","","","psychophysics","304","709090","0.0-10.0-0.0-0.0-0.0-0.82","568","","j","","","","","","","","","","","","","key","j","16.65041935483935","640","356","j","true","img/T_ambi40.png","をる","same",""
"","","","","","html-keyboard-response","305","709611","0.0-10.0-0.0-0.0-0.0-1.82","null","<span style='color:GreenYellow; font-size: 70px;'>正确! </span>","null","","","","","","","","","","","","","","","","","","","","","","","feedback_test"
"","","","","","psychophysics","306","711324","0.0-10.0-0.0-0.0-0.0-0.83","713","","f","","","","","","","","","","","","","key","f","16.651623762376367","640","356","f","true","img/H_ambi40.png","生人","same",""
"","","","","","html-keyboard-response","307","711840","0.0-10.0-0.0-0.0-0.0-1.83","null","<span style='color:GreenYellow; font-size: 70px;'>正确! </span>","null","","","","","","","","","","","","","","","","","","","","","","","feedback_test"
"","","","","","psychophysics","308","713567","0.0-10.0-0.0-0.0-0.0-0.84","725","","f","","","","","","","","","","","","","key","f","16.65163725490257","640","356","f","true","img/C_ambi40.png","自我","same",""
"","","","","","html-keyboard-response","309","714071","0.0-10.0-0.0-0.0-0.0-1.84","null","<span style='color:GreenYellow; font-size: 70px;'>正确! </span>","null","","","","","","","","","","","","","","","","","","","","","","","feedback_test"
"","","","","","psychophysics","310","715826","0.0-10.0-0.0-0.0-0.0-0.85","753","","j","","","","","","","","","","","","","key","j","16.64972115384612","640","356","j","true","img/S_ambi40.png","自我","same",""
"","","","","","html-keyboard-response","311","716330","0.0-10.0-0.0-0.0-0.0-1.85","null","<span style='color:GreenYellow; font-size: 70px;'>正确! </span>","null","","","","","","","","","","","","","","","","","","","","","","","feedback_test"
"","","","","","psychophysics","312","718232","0.0-10.0-0.0-0.0-0.0-0.86","900","","j","","","","","","","","","","","","","key","j","16.65138938053062","640","356","f","false","img/S_ambi40.png","朋友","same",""
"","","","","","html-keyboard-response","313","718741","0.0-10.0-0.0-0.0-0.0-1.86","null","<span style='color:red; font-size: 70px;'>错误! </span>","null","","","","","","","","","","","","","","","","","","","","","","","feedback_test"
"","","","","","psychophysics","314","720798","0.0-10.0-0.0-0.0-0.0-0.87","1055","","j","","","","","","","","","","","","","key","j","16.65130327868783","640","356","j","true","img/H_ambi40.png","朋友","same",""
"","","","","","html-keyboard-response","315","721300","0.0-10.0-0.0-0.0-0.0-1.87","null","<span style='color:GreenYellow; font-size: 70px;'>正确! </span>","null","","","","","","","","","","","","","","","","","","","","","","","feedback_test"
"","","","","","psychophysics","316","723060","0.0-10.0-0.0-0.0-0.0-0.88","758","","f","","","","","","","","","","","","","key","f","16.64976923076924","640","356","f","true","img/H_ambi40.png","生人","same",""
"","","","","","html-keyboard-response","317","723570","0.0-10.0-0.0-0.0-0.0-1.88","null","<span style='color:GreenYellow; font-size: 70px;'>正确! </span>","null","","","","","","","","","","","","","","","","","","","","","","","feedback_test"
"","","","","","psychophysics","318","725286","0.0-10.0-0.0-0.0-0.0-0.89","715","","f","","","","","","","","","","","","","key","f","16.652539215686357","640","356","f","true","img/C_ambi40.png","自我","same",""
"","","","","","html-keyboard-response","319","725790","0.0-10.0-0.0-0.0-0.0-1.89","null","<span style='color:GreenYellow; font-size: 70px;'>正确! </span>","null","","","","","","","","","","","","","","","","","","","","","","","feedback_test"
"","","","","","psychophysics","320","727403","0.0-10.0-0.0-0.0-0.0-0.90","610","","f","","","","","","","","","","","","","key","f","16.653072916667345","640","356","f","true","img/C_ambi40.png","自我","same",""
"","","","","","html-keyboard-response","321","727920","0.0-10.0-0.0-0.0-0.0-1.90","null","<span style='color:GreenYellow; font-size: 70px;'>正确! </span>","null","","","","","","","","","","","","","","","","","","","","","","","feedback_test"
"","","","","","psychophysics","322","729488","0.0-10.0-0.0-0.0-0.0-0.91","567","","j","","","","","","","","","","","","","key","j","16.651354838709686","640","356","j","true","img/T_ambi40.png","をる","same",""
"","","","","","html-keyboard-response","323","730000","0.0-10.0-0.0-0.0-0.0-1.91","null","<span style='color:GreenYellow; font-size: 70px;'>正确! </span>","null","","","","","","","","","","","","","","","","","","","","","","","feedback_test"
"","","","","","psychophysics","324","731727","0.0-10.0-0.0-0.0-0.0-0.92","724","","f","","","","","","","","","","","","","key","f","16.650922330096364","640","356","j","false","img/S_ambi40.png","自我","same",""
"","","","","","html-keyboard-response","325","732231","0.0-10.0-0.0-0.0-0.0-1.92","null","<span style='color:red; font-size: 70px;'>错误! </span>","null","","","","","","","","","","","","","","","","","","","","","","","feedback_test"
"","","","","","psychophysics","326","734438","0.0-10.0-0.0-0.0-0.0-0.93","1205","","f","","","","","","","","","","","","","key","f","16.649832061068903","640","356","f","true","img/S_ambi40.png","朋友","same",""
"","","","","","html-keyboard-response","327","734941","0.0-10.0-0.0-0.0-0.0-1.93","null","<span style='color:GreenYellow; font-size: 70px;'>正确! </span>","null","","","","","","","","","","","","","","","","","","","","","","","feedback_test"
"","","","","","psychophysics","328","736579","0.0-10.0-0.0-0.0-0.0-0.94","637","","j","","","","","","","","","","","","","key","j","16.652762886598833","640","356","j","true","img/T_ambi40.png","をる","same",""
"","","","","","html-keyboard-response","329","737080","0.0-10.0-0.0-0.0-0.0-1.94","null","<span style='color:GreenYellow; font-size: 70px;'>正确! </span>","null","","","","","","","","","","","","","","","","","","","","","","","feedback_test"
"","","","","","psychophysics","330","739180","0.0-10.0-0.0-0.0-0.0-0.95","1099","","j","","","","","","","","","","","","","key","j","16.650944000000134","640","356","j","true","img/H_ambi40.png","自我","same",""
"","","","","","html-keyboard-response","331","739690","0.0-10.0-0.0-0.0-0.0-1.95","null","<span style='color:GreenYellow; font-size: 70px;'>正确! </span>","null","","","","","","","","","","","","","","","","","","","","","","","feedback_test"
"","","","","","psychophysics","332","741773","0.0-10.0-0.0-0.0-0.0-0.96","1081","","j","","","","","","","","","","","","","key","j","16.651209677419356","640","356","j","true","img/S_ambi40.png","生人","same",""
"","","","","","html-keyboard-response","333","742290","0.0-10.0-0.0-0.0-0.0-1.96","null","<span style='color:GreenYellow; font-size: 70px;'>正确! </span>","null","","","","","","","","","","","","","","","","","","","","","","","feedback_test"
"","","","","","psychophysics","334","744335","0.0-10.0-0.0-0.0-0.0-0.97","1044","","j","","","","","","","","","","","","","key","j","16.65131967213123","640","356","j","true","img/C_ambi40.png","朋友","same",""
"","","","","","html-keyboard-response","335","744840","0.0-10.0-0.0-0.0-0.0-1.97","null","<span style='color:GreenYellow; font-size: 70px;'>正确! </span>","null","","","","","","","","","","","","","","","","","","","","","","","feedback_test"
"","","","","","psychophysics","336","746635","0.0-10.0-0.0-0.0-0.0-0.98","792","","f","","","","","","","","","","","","","key","f","16.65140566037735","640","356","f","true","img/H_ambi40.png","生人","same",""
"","","","","","html-keyboard-response","337","747140","0.0-10.0-0.0-0.0-0.0-1.98","null","<span style='color:GreenYellow; font-size: 70px;'>正确! </span>","null","","","","","","","","","","","","","","","","","","","","","","","feedback_test"
"","","","","","psychophysics","338","748770","0.0-10.0-0.0-0.0-0.0-0.99","628","","f","","","","","","","","","","","","","key","f","16.65140625000034","640","356","f","true","img/S_ambi40.png","朋友","same",""
"","","","","","html-keyboard-response","339","749280","0.0-10.0-0.0-0.0-0.0-1.99","null","<span style='color:GreenYellow; font-size: 70px;'>正确! </span>","null","","","","","","","","","","","","","","","","","","","","","","","feedback_test"
"","","","","","psychophysics","340","751103","0.0-10.0-0.0-0.0-0.0-0.100","822","","j","","","","","","","","","","","","","key","j","16.651148148148355","640","356","j","true","img/C_ambi40.png","生人","same",""
"","","","","","html-keyboard-response","341","751610","0.0-10.0-0.0-0.0-0.0-1.100","null","<span style='color:GreenYellow; font-size: 70px;'>正确! </span>","null","","","","","","","","","","","","","","","","","","","","","","","feedback_test"
"","","","","","psychophysics","342","753364","0.0-10.0-0.0-0.0-0.0-0.101","752","","f","","","","","","","","","","","","","key","f","16.649884615384508","640","356","f","true","img/C_ambi40.png","自我","same",""
"","","","","","html-keyboard-response","343","753880","0.0-10.0-0.0-0.0-0.0-1.101","null","<span style='color:GreenYellow; font-size: 70px;'>正确! </span>","null","","","","","","","","","","","","","","","","","","","","","","","feedback_test"
"","","","","","psychophysics","344","756137","0.0-10.0-0.0-0.0-0.0-0.102","1256","","j","","","","","","","","","","","","","key","j","16.65111851851904","640","356","f","false","img/H_ambi40.png","生人","same",""
"","","","","","html-keyboard-response","345","756650","0.0-10.0-0.0-0.0-0.0-1.102","null","<span style='color:red; font-size: 70px;'>错误! </span>","null","","","","","","","","","","","","","","","","","","","","","","","feedback_test"
"","","","","","psychophysics","346","759022","0.0-10.0-0.0-0.0-0.0-0.103","1372","","f","","","","","","","","","","","","","key","f","16.6507659574462","640","356","f","true","img/H_ambi40.png","生人","same",""
"","","","","","html-keyboard-response","347","759530","0.0-10.0-0.0-0.0-0.0-1.103","null","<span style='color:GreenYellow; font-size: 70px;'>正确! </span>","null","","","","","","","","","","","","","","","","","","","","","","","feedback_test"
"","","","","","psychophysics","348","761801","0.0-10.0-0.0-0.0-0.0-0.104","1270","","f","","","","","","","","","","","","","key","f","16.650681481481943","640","356","j","false","img/H_ambi40.png","朋友","same",""
"","","","","","html-keyboard-response","349","762319","0.0-10.0-0.0-0.0-0.0-1.104","null","<span style='color:red; font-size: 70px;'>错误! </span>","null","","","","","","","","","","","","","","","","","","","","","","","feedback_test"
"","","","","","psychophysics","350","764170","0.0-10.0-0.0-0.0-0.0-0.105","848","","f","","","","","","","","","","","","","key","f","16.65107272727182","640","356","f","true","img/S_ambi40.png","朋友","same",""
"","","","","","html-keyboard-response","351","764679","0.0-10.0-0.0-0.0-0.0-1.105","null","<span style='color:GreenYellow; font-size: 70px;'>正确! </span>","null","","","","","","","","","","","","","","","","","","","","","","","feedback_test"
"","","","","","psychophysics","352","766321","0.0-10.0-0.0-0.0-0.0-0.106","640","","j","","","","","","","","","","","","","key","j","16.651567010309776","640","356","f","false","img/C_ambi40.png","自我","same",""
"","","","","","html-keyboard-response","353","766839","0.0-10.0-0.0-0.0-0.0-1.106","null","<span style='color:red; font-size: 70px;'>错误! </span>","null","","","","","","","","","","","","","","","","","","","","","","","feedback_test"
"","","","","","psychophysics","354","768401","0.0-10.0-0.0-0.0-0.0-0.107","560","","j","","","","","","","","","","","","","key","j","16.650923913042313","640","356","j","true","img/T_ambi40.png","をる","same",""
"","","","","","html-keyboard-response","355","768911","0.0-10.0-0.0-0.0-0.0-1.107","null","<span style='color:GreenYellow; font-size: 70px;'>正确! </span>","null","","","","","","","","","","","","","","","","","","","","","","","feedback_test"
"","","","","","html-keyboard-response","356","771812","0.0-10.0-0.0-0.0-1.0","2898","<style>.context{color:white; font-size: 35px; line-height:40px}</style>                          <div><p class='context'>您正确回答了86% 的试次。</p><p class='context'>您的平均反应时为773毫秒。</p><p class='context'>请按任意键进入休息</p></div>"," ","","","","","","","","","","","","","","","","","","","","","","",""
"","","","","","html-button-response","357","821281","0.0-10.0-0.0-0.0-2.0","49464","
                    <p>您当前还剩余5组实验</p>
                    <p>现在是休息时间，当您结束休息后，您可以点击 结束休息 按钮 继续</p>
                    <p>建议休息时间还剩余<span id=""iii"">60</span>秒</p>","0","","","","","","","","","","","","","","","","","","","","","","",""
"","","","","","psychophysics","358","823785","0.0-10.0-0.0-0.0-0.1-0.108","null","","null","","","","","","","","","","","","","key","null","16.653147651006048","640","356","f","false","img/S_ambi40.png","朋友","same",""
"","","","","","html-keyboard-response","359","824290","0.0-10.0-0.0-0.0-0.1-1.108","null","<span class='add_' style='color:yellow; font-size: 70px;'> 太慢! </span>","null","","","","","","","","","","","","","","","","","","","","","","","feedback_test"
"","","","","","psychophysics","360","825974","0.0-10.0-0.0-0.0-0.1-0.109","682","","j","","","","","","","","","","","","","key","j","16.59689999999944","640","356","j","true","img/S_ambi40.png","自我","same",""
"","","","","","html-keyboard-response","361","826491","0.0-10.0-0.0-0.0-0.1-1.109","null","<span style='color:GreenYellow; font-size: 70px;'>正确! </span>","null","","","","","","","","","","","","","","","","","","","","","","","feedback_test"
"","","","","","psychophysics","362","828581","0.0-10.0-0.0-0.0-0.1-0.110","1090","","j","","","","","","","","","","","","","key","j","16.64920161290267","640","356","j","true","img/S_ambi40.png","生人","same",""
"","","","","","html-keyboard-response","363","829090","0.0-10.0-0.0-0.0-0.1-1.110","null","<span style='color:GreenYellow; font-size: 70px;'>正确! </span>","null","","","","","","","","","","","","","","","","","","","","","","","feedback_test"
"","","","","","psychophysics","364","830826","0.0-10.0-0.0-0.0-0.1-0.111","733","","j","","","","","","","","","","","","","key","j","16.657679611649726","640","356","f","false","img/C_ambi40.png","自我","same",""
"","","","","","html-keyboard-response","365","831340","0.0-10.0-0.0-0.0-0.1-1.111","null","<span style='color:red; font-size: 70px;'>错误! </span>","null","","","","","","","","","","","","","","","","","","","","","","","feedback_test"
"","","","","","psychophysics","366","832947","0.0-10.0-0.0-0.0-0.1-0.112","603","","j","","","","","","","","","","","","","key","j","16.652473684210378","640","356","j","true","img/T_ambi40.png","をる","same",""
"","","","","","html-keyboard-response","367","833450","0.0-10.0-0.0-0.0-0.1-1.112","null","<span style='color:GreenYellow; font-size: 70px;'>正确! </span>","null","","","","","","","","","","","","","","","","","","","","","","","feedback_test"
"","","","","","psychophysics","368","835157","0.0-10.0-0.0-0.0-0.1-0.113","706","","j","","","","","","","","","","","","","key","j","16.57588118811871","640","356","j","true","img/T_ambi40.png","をる","same",""
"","","","","","html-keyboard-response","369","835670","0.0-10.0-0.0-0.0-0.1-1.113","null","<span style='color:GreenYellow; font-size: 70px;'>正确! </span>","null","","","","","","","","","","","","","","","","","","","","","","","feedback_test"
"","","","","","psychophysics","370","837324","0.0-10.0-0.0-0.0-0.1-0.114","651","","f","","","","","","","","","","","","","key","f","16.644908163265317","640","356","f","true","img/S_ambi40.png","朋友","same",""
"","","","","","html-keyboard-response","371","837841","0.0-10.0-0.0-0.0-0.1-1.114","null","<span style='color:GreenYellow; font-size: 70px;'>正确! </span>","null","","","","","","","","","","","","","","","","","","","","","","","feedback_test"
"","","","","","psychophysics","372","839394","0.0-10.0-0.0-0.0-0.1-0.115","552","","f","","","","","","","","","","","","","key","f","16.652663043478718","640","356","j","false","img/H_ambi40.png","朋友","same",""
"","","","","","html-keyboard-response","373","839903","0.0-10.0-0.0-0.0-0.1-1.115","null","<span style='color:red; font-size: 70px;'>错误! </span>","null","","","","","","","","","","","","","","","","","","","","","","","feedback_test"
"","","","","","psychophysics","374","841652","0.0-10.0-0.0-0.0-0.1-0.116","747","","j","","","","","","","","","","","","","key","j","16.64812621359207","640","356","j","true","img/H_ambi40.png","自我","same",""
"","","","","","html-keyboard-response","375","842170","0.0-10.0-0.0-0.0-0.1-1.116","null","<span style='color:GreenYellow; font-size: 70px;'>正确! </span>","null","","","","","","","","","","","","","","","","","","","","","","","feedback_test"
"","","","","","psychophysics","376","844054","0.0-10.0-0.0-0.0-0.1-0.117","882","","f","","","","","","","","","","","","","key","f","16.65103571428543","640","356","f","true","img/H_ambi40.png","生人","same",""
"","","","","","html-keyboard-response","377","844570","0.0-10.0-0.0-0.0-0.1-1.117","null","<span style='color:GreenYellow; font-size: 70px;'>正确! </span>","null","","","","","","","","","","","","","","","","","","","","","","","feedback_test"
"","","","","","psychophysics","378","846340","0.0-10.0-0.0-0.0-0.1-0.118","768","","j","","","","","","","","","","","","","key","j","16.649961904762314","640","356","f","false","img/C_ambi40.png","自我","same",""
"","","","","","html-keyboard-response","379","846850","0.0-10.0-0.0-0.0-0.1-1.118","null","<span style='color:red; font-size: 70px;'>错误! </span>","null","","","","","","","","","","","","","","","","","","","","","","","feedback_test"
"","","","","","psychophysics","380","848948","0.0-10.0-0.0-0.0-0.1-0.119","1096","","f","","","","","","","","","","","","","key","f","16.65116935483867","640","356","f","true","img/S_ambi40.png","朋友","same",""
"","","","","","html-keyboard-response","381","849461","0.0-10.0-0.0-0.0-0.1-1.119","null","<span style='color:GreenYellow; font-size: 70px;'>正确! </span>","null","","","","","","","","","","","","","","","","","","","","","","","feedback_test"
"","","","","","psychophysics","382","851432","0.0-10.0-0.0-0.0-0.1-0.120","969","","j","","","","","","","","","","","","","key","j","16.64912820512799","640","356","j","true","img/C_ambi40.png","生人","same",""
"","","","","","html-keyboard-response","383","851940","0.0-10.0-0.0-0.0-0.1-1.120","null","<span style='color:GreenYellow; font-size: 70px;'>正确! </span>","null","","","","","","","","","","","","","","","","","","","","","","","feedback_test"
"","","","","","psychophysics","384","854157","0.0-10.0-0.0-0.0-0.1-0.121","1215","","j","","","","","","","","","","","","","key","j","16.651106060606033","640","356","j","true","img/C_ambi40.png","朋友","same",""
"","","","","","html-keyboard-response","385","854666","0.0-10.0-0.0-0.0-0.1-1.121","null","<span style='color:GreenYellow; font-size: 70px;'>正确! </span>","null","","","","","","","","","","","","","","","","","","","","","","","feedback_test"
"","","","","","psychophysics","386","856290","0.0-10.0-0.0-0.0-0.1-0.122","622","","f","","","","","","","","","","","","","key","f","16.651875000000775","640","356","f","true","img/C_ambi40.png","自我","same",""
"","","","","","html-keyboard-response","387","856793","0.0-10.0-0.0-0.0-0.1-1.122","null","<span style='color:GreenYellow; font-size: 70px;'>正确! </span>","null","","","","","","","","","","","","","","","","","","","","","","","feedback_test"
"","","","","","psychophysics","388","858432","0.0-10.0-0.0-0.0-0.1-0.123","638","","j","","","","","","","","","","","","","key","j","16.651113402062414","640","356","j","true","img/T_ambi40.png","をる","same",""
"","","","","","html-keyboard-response","389","858937","0.0-10.0-0.0-0.0-0.1-1.123","null","<span style='color:GreenYellow; font-size: 70px;'>正确! </span>","null","","","","","","","","","","","","","","","","","","","","","","","feedback_test"
"","","","","","psychophysics","390","860771","0.0-10.0-0.0-0.0-0.1-0.124","833","","f","","","","","","","","","","","","","key","f","16.656194444443962","640","356","f","true","img/H_ambi40.png","生人","same",""
"","","","","","html-keyboard-response","391","861276","0.0-10.0-0.0-0.0-0.1-1.124","null","<span style='color:GreenYellow; font-size: 70px;'>正确! </span>","null","","","","","","","","","","","","","","","","","","","","","","","feedback_test"
"","","","","","psychophysics","392","863184","0.0-10.0-0.0-0.0-0.1-0.125","905","","f","","","","","","","","","","","","","key","f","16.593469026547947","640","356","f","true","img/H_ambi40.png","生人","same",""
"","","","","","html-keyboard-response","393","863690","0.0-10.0-0.0-0.0-0.1-1.125","null","<span style='color:GreenYellow; font-size: 70px;'>正确! </span>","null","","","","","","","","","","","","","","","","","","","","","","","feedback_test"
"","","","","","psychophysics","394","865544","0.0-10.0-0.0-0.0-0.1-0.126","851","","f","","","","","","","","","","","","","key","f","16.64839090909068","640","356","f","true","img/C_ambi40.png","自我","same",""
"","","","","","html-keyboard-response","395","866047","0.0-10.0-0.0-0.0-0.1-1.126","null","<span style='color:GreenYellow; font-size: 70px;'>正确! </span>","null","","","","","","","","","","","","","","","","","","","","","","","feedback_test"
"","","","","","psychophysics","396","867687","0.0-10.0-0.0-0.0-0.1-0.127","639","","j","","","","","","","","","","","","","key","j","16.643134020619364","640","356","j","true","img/T_ambi40.png","をる","same",""
"","","","","","html-keyboard-response","397","868201","0.0-10.0-0.0-0.0-0.1-1.127","null","<span style='color:GreenYellow; font-size: 70px;'>正确! </span>","null","","","","","","","","","","","","","","","","","","","","","","","feedback_test"
"","","","","","psychophysics","398","870092","0.0-10.0-0.0-0.0-0.1-0.128","888","","f","","","","","","","","","","","","","key","f","16.647151785713504","640","356","j","false","img/C_ambi40.png","生人","same",""
"","","","","","html-keyboard-response","399","870610","0.0-10.0-0.0-0.0-0.1-1.128","null","<span style='color:red; font-size: 70px;'>错误! </span>","null","","","","","","","","","","","","","","","","","","","","","","","feedback_test"
"","","","","","psychophysics","400","872466","0.0-10.0-0.0-0.0-0.1-0.129","855","","j","","","","","","","","","","","","","key","j","16.6513909090903","640","356","j","true","img/H_ambi40.png","朋友","same",""
"","","","","","html-keyboard-response","401","872980","0.0-10.0-0.0-0.0-0.1-1.129","null","<span style='color:GreenYellow; font-size: 70px;'>正确! </span>","null","","","","","","","","","","","","","","","","","","","","","","","feedback_test"
"","","","","","psychophysics","402","874559","0.0-10.0-0.0-0.0-0.1-0.130","576","","f","","","","","","","","","","","","","key","f","16.651734042553567","640","356","f","true","img/C_ambi40.png","自我","same",""
"","","","","","html-keyboard-response","403","875080","0.0-10.0-0.0-0.0-0.1-1.130","null","<span style='color:GreenYellow; font-size: 70px;'>正确! </span>","null","","","","","","","","","","","","","","","","","","","","","","","feedback_test"
"","","","","","psychophysics","404","877363","0.0-10.0-0.0-0.0-0.1-0.131","1282","","f","","","","","","","","","","","","","key","f","16.65116911764712","640","356","f","true","img/H_ambi40.png","生人","same",""
"","","","","","html-keyboard-response","405","877868","0.0-10.0-0.0-0.0-0.1-1.131","null","<span style='color:GreenYellow; font-size: 70px;'>正确! </span>","null","","","","","","","","","","","","","","","","","","","","","","","feedback_test"
"","","","","","psychophysics","406","879450","0.0-10.0-0.0-0.0-0.1-0.132","580","","f","","","","","","","","","","","","","key","f","16.65172043010863","640","356","j","false","img/S_ambi40.png","生人","same",""
"","","","","","html-keyboard-response","407","879966","0.0-10.0-0.0-0.0-0.1-1.132","null","<span style='color:red; font-size: 70px;'>错误! </span>","null","","","","","","","","","","","","","","","","","","","","","","","feedback_test"
"","","","","","psychophysics","408","881645","0.0-10.0-0.0-0.0-0.1-0.133","677","","j","","","","","","","","","","","","","key","j","16.651494949495167","640","356","j","true","img/T_ambi40.png","をる","same",""
"","","","","","html-keyboard-response","409","882150","0.0-10.0-0.0-0.0-0.1-1.133","null","<span style='color:GreenYellow; font-size: 70px;'>正确! </span>","null","","","","","","","","","","","","","","","","","","","","","","","feedback_test"
"","","","","","psychophysics","410","883792","0.0-10.0-0.0-0.0-0.1-0.134","640","","j","","","","","","","","","","","","","key","j","16.65103092783529","640","356","j","true","img/S_ambi40.png","自我","same",""
"","","","","","html-keyboard-response","411","884294","0.0-10.0-0.0-0.0-0.1-1.134","null","<span style='color:GreenYellow; font-size: 70px;'>正确! </span>","null","","","","","","","","","","","","","","","","","","","","","","","feedback_test"
"","","","","","psychophysics","412","885954","0.0-10.0-0.0-0.0-0.1-0.135","658","","j","","","","","","","","","","","","","key","j","16.65041836734614","640","356","j","true","img/H_ambi40.png","自我","same",""
"","","","","","html-keyboard-response","413","886459","0.0-10.0-0.0-0.0-0.1-1.135","null","<span style='color:GreenYellow; font-size: 70px;'>正确! </span>","null","","","","","","","","","","","","","","","","","","","","","","","feedback_test"
"","","","","","psychophysics","414","888125","0.0-10.0-0.0-0.0-0.1-0.136","664","","f","","","","","","","","","","","","","key","f","16.65174489795962","640","356","f","true","img/S_ambi40.png","朋友","same",""
"","","","","","html-keyboard-response","415","888629","0.0-10.0-0.0-0.0-0.1-1.136","null","<span style='color:GreenYellow; font-size: 70px;'>正确! </span>","null","","","","","","","","","","","","","","","","","","","","","","","feedback_test"
"","","","","","psychophysics","416","890408","0.0-10.0-0.0-0.0-0.1-0.137","777","","j","","","","","","","","","","","","","key","j","16.650580952380828","640","356","f","false","img/H_ambi40.png","生人","same",""
"","","","","","html-keyboard-response","417","890910","0.0-10.0-0.0-0.0-0.1-1.137","null","<span style='color:red; font-size: 70px;'>错误! </span>","null","","","","","","","","","","","","","","","","","","","","","","","feedback_test"
"","","","","","psychophysics","418","892705","0.0-10.0-0.0-0.0-0.1-0.138","793","","f","","","","","","","","","","","","","key","f","16.651575471698482","640","356","f","true","img/S_ambi40.png","朋友","same",""
"","","","","","html-keyboard-response","419","893210","0.0-10.0-0.0-0.0-0.1-1.138","null","<span style='color:GreenYellow; font-size: 70px;'>正确! </span>","null","","","","","","","","","","","","","","","","","","","","","","","feedback_test"
"","","","","","psychophysics","420","894925","0.0-10.0-0.0-0.0-0.1-0.139","713","","f","","","","","","","","","","","","","key","f","16.651431372548984","640","356","f","true","img/H_ambi40.png","生人","same",""
"","","","","","html-keyboard-response","421","895440","0.0-10.0-0.0-0.0-0.1-1.139","null","<span style='color:GreenYellow; font-size: 70px;'>正确! </span>","null","","","","","","","","","","","","","","","","","","","","","","","feedback_test"
"","","","","","psychophysics","422","897146","0.0-10.0-0.0-0.0-0.1-0.140","704","","f","","","","","","","","","","","","","key","f","16.65138613861423","640","356","f","true","img/C_ambi40.png","自我","same",""
"","","","","","html-keyboard-response","423","897649","0.0-10.0-0.0-0.0-0.1-1.140","null","<span style='color:GreenYellow; font-size: 70px;'>正确! </span>","null","","","","","","","","","","","","","","","","","","","","","","","feedback_test"
"","","","","","psychophysics","424","899376","0.0-10.0-0.0-0.0-0.1-0.141","724","","j","","","","","","","","","","","","","key","j","16.651558823529722","640","356","j","true","img/C_ambi40.png","朋友","same",""
"","","","","","html-keyboard-response","425","899889","0.0-10.0-0.0-0.0-0.1-1.141","null","<span style='color:GreenYellow; font-size: 70px;'>正确! </span>","null","","","","","","","","","","","","","","","","","","","","","","","feedback_test"
"","","","","","psychophysics","426","901474","0.0-10.0-0.0-0.0-0.1-0.142","580","","j","","","","","","","","","","","","","key","j","16.57609574468014","640","356","j","true","img/T_ambi40.png","をる","same",""
"","","","","","html-keyboard-response","427","901981","0.0-10.0-0.0-0.0-0.1-1.142","null","<span style='color:GreenYellow; font-size: 70px;'>正确! </span>","null","","","","","","","","","","","","","","","","","","","","","","","feedback_test"
"","","","","","psychophysics","428","903576","0.0-10.0-0.0-0.0-0.1-0.143","593","","f","","","","","","","","","","","","","key","f","16.650595744681652","640","356","f","true","img/S_ambi40.png","朋友","same",""
"","","","","","html-keyboard-response","429","904079","0.0-10.0-0.0-0.0-0.1-1.143","null","<span style='color:GreenYellow; font-size: 70px;'>正确! </span>","null","","","","","","","","","","","","","","","","","","","","","","","feedback_test"
"","","","","","psychophysics","430","905780","0.0-10.0-0.0-0.0-0.1-0.144","698","","f","","","","","","","","","","","","","key","f","16.65100000000047","640","356","f","true","img/C_ambi40.png","自我","same",""
"","","","","","html-keyboard-response","431","906294","0.0-10.0-0.0-0.0-0.1-1.144","null","<span style='color:GreenYellow; font-size: 70px;'>正确! </span>","null","","","","","","","","","","","","","","","","","","","","","","","feedback_test"
"","","","","","psychophysics","432","907982","0.0-10.0-0.0-0.0-0.1-0.145","687","","f","","","","","","","","","","","","","key","f","16.652099999999628","640","356","j","false","img/S_ambi40.png","生人","same",""
"","","","","","html-keyboard-response","433","908495","0.0-10.0-0.0-0.0-0.1-1.145","null","<span style='color:red; font-size: 70px;'>错误! </span>","null","","","","","","","","","","","","","","","","","","","","","","","feedback_test"
"","","","","","psychophysics","434","910047","0.0-10.0-0.0-0.0-0.1-0.146","551","","f","","","","","","","","","","","","","key","f","16.656195652173864","640","356","f","true","img/H_ambi40.png","生人","same",""
"","","","","","html-keyboard-response","435","910559","0.0-10.0-0.0-0.0-0.1-1.146","null","<span style='color:GreenYellow; font-size: 70px;'>正确! </span>","null","","","","","","","","","","","","","","","","","","","","","","","feedback_test"
"","","","","","psychophysics","436","912193","0.0-10.0-0.0-0.0-0.1-0.147","632","","f","","","","","","","","","","","","","key","f","16.650185567011203","640","356","f","true","img/S_ambi40.png","朋友","same",""
"","","","","","html-keyboard-response","437","912699","0.0-10.0-0.0-0.0-0.1-1.147","null","<span style='color:GreenYellow; font-size: 70px;'>正确! </span>","null","","","","","","","","","","","","","","","","","","","","","","","feedback_test"
"","","","","","psychophysics","438","914394","0.0-10.0-0.0-0.0-0.1-0.148","693","","f","","","","","","","","","","","","","key","f","16.649440000000176","640","356","f","true","img/H_ambi40.png","生人","same",""
"","","","","","html-keyboard-response","439","914910","0.0-10.0-0.0-0.0-0.1-1.148","null","<span style='color:GreenYellow; font-size: 70px;'>正确! </span>","null","","","","","","","","","","","","","","","","","","","","","","","feedback_test"
"","","","","","psychophysics","440","916616","0.0-10.0-0.0-0.0-0.1-0.149","704","","j","","","","","","","","","","","","","key","j","16.65182178217853","640","356","j","true","img/C_ambi40.png","生人","same",""
"","","","","","html-keyboard-response","441","917130","0.0-10.0-0.0-0.0-0.1-1.149","null","<span style='color:GreenYellow; font-size: 70px;'>正确! </span>","null","","","","","","","","","","","","","","","","","","","","","","","feedback_test"
"","","","","","psychophysics","442","919352","0.0-10.0-0.0-0.0-0.1-0.150","1220","","j","","","","","","","","","","","","","key","j","16.651568181818053","640","356","j","true","img/C_ambi40.png","朋友","same",""
"","","","","","html-keyboard-response","443","919859","0.0-10.0-0.0-0.0-0.1-1.150","null","<span style='color:GreenYellow; font-size: 70px;'>正确! </span>","null","","","","","","","","","","","","","","","","","","","","","","","feedback_test"
