"success","timeout","failed_images","failed_audio","failed_video","trial_type","trial_index","time_elapsed","internal_node_id","rt","stimulus","response","value","item_width_mm","item_height_mm","item_width_px","px2mm","view_dist_mm","item_width_deg","px2deg","scale_factor","win_width_deg","win_height_deg","view_history","response_type","key_press","avg_frame_time","center_x","center_y","correct_response","correct","Image","text","condition","screen_id","label"
"true","false","[]","[]","[]","preload","0","299","0.0-0.0","","","","","","","","","","","","","","","","","","","","","","","","","","",""
"","","","","","html-keyboard-response","1","2234","0.0-1.0","1934","
  <p>您好，欢迎参加本次实验。</p>
  <p>为充分保障您的权利，请确保您已经知晓并同意《参与实验同意书》以及《数据公开知情同意书》。</p>
  <p>如果您未见过上述内容，请咨询实验员。</p>
  <p>如果您选择继续实验，则表示您已经清楚两份知情同意书的内容并同意。</p>
  <p> <div style = ""color: green""><按任意键至下页></div> </p>
  "," ","","","","","","","","","","","","","","","","","","","","","","","",""
"","","","","","html-keyboard-response","2","5591","0.0-2.0","3356","
  <p>本实验首先需要您填写一些基本个人信息。</p>
  <p> <div style = ""color: green""><按任意键至下页></div></p>
  "," ","","","","","","","","","","","","","","","","","","","","","","","",""
"","","","","","call-function","3","5592","0.0-3.0-0.0","","","","","","","","","","","","","","","","","","","","","","","","","","",""
"","","","","","survey-html-form","4","7799","0.0-3.0-1.0","2204","","{""Q0"":""20""}","","","","","","","","","","","","","","","","","","","","","","","",""
"","","","","","html-button-response","5","8446","0.0-3.0-2.0","647","<p style = 'color : white'>您的性别</p>","1","","","","","","","","","","","","","","","","","","","","","","","",""
"","","","","","survey-html-form","6","11431","0.0-3.0-3.0","2982","","{""Q0"":""2000""}","","","","","","","","","","","","","","","","","","","","","","","",""
"","","","","","survey-html-form","7","13277","0.0-3.0-4.0","1845","","{""Q0"":""6""}","","","","","","","","","","","","","","","","","","","","","","","",""
"","","","","","virtual-chinrest","8","42502","0.0-4.0","29224","","","","85.6","53.98","528.6783196818792","6.172070005720053","462.53","10.573566393637584","50","0.8019999765739076","34.14","15.18","","","","","","","","","","","","",""
"true","","","","","fullscreen","9","45145","0.0-5.0","","","","","","","","","","","","","","","","","","","","","","","","","","",""
"","","","","","instructions","10","66701","0.0-6.0","21556","","","","","","","","","","","","","","[{""page_index"":0,""viewing_time"":1660},{""page_index"":1,""viewing_time"":1443},{""page_index"":2,""viewing_time"":2562},{""page_index"":1,""viewing_time"":8470},{""page_index"":2,""viewing_time"":4173},{""page_index"":3,""viewing_time"":1938},{""page_index"":4,""viewing_time"":1310}]","","","","","","","","","","","",""
"","","","","","instructions","11","68060","0.0-7.0","1358","","","","","","","","","","","","","","[{""page_index"":0,""viewing_time"":1358}]","","","","","","","","","","","",""
"","","","","","psychophysics","12","73376","0.0-8.0-0.0-0.0","4301","","j","","","","","","","","","","","","","key","j","6.080894495412837","853.3333333333334","476","j","true","img/C_28.png","自我","freeprac_self","",""
"","","","","","html-keyboard-response","13","73691","0.0-8.0-0.0-1.0","null","<span style='color:GreenYellow; font-size: 70px;'>正确! </span>","null","","","","","","","","","","","","","","","","","","","","","","","feedback_test",""
"","","","","","psychophysics","14","76556","0.0-8.0-0.0-0.1","1861","","k","","","","","","","","","","","","","key","k","6.060042462845008","853.3333333333334","476","k","true","img/H_28.png","生人","freeprac_self","",""
"","","","","","html-keyboard-response","15","76866","0.0-8.0-0.0-1.1","null","<span style='color:GreenYellow; font-size: 70px;'>正确! </span>","null","","","","","","","","","","","","","","","","","","","","","","","feedback_test",""
"","","","","","psychophysics","16","79863","0.0-8.0-0.0-0.2","1987","","d","","","","","","","","","","","","","key","d","6.060081135902657","853.3333333333334","476","d","true","img/S_28.png","自我","freeprac_self","",""
"","","","","","html-keyboard-response","17","80175","0.0-8.0-0.0-1.2","null","<span style='color:GreenYellow; font-size: 70px;'>正确! </span>","null","","","","","","","","","","","","","","","","","","","","","","","feedback_test",""
"","","","","","psychophysics","18","83047","0.0-8.0-0.0-0.3","1868","","j","","","","","","","","","","","","","key","j","6.059872881355921","853.3333333333334","476","k","false","img/C_28.png","朋友","freeprac_self","",""
"","","","","","html-keyboard-response","19","83355","0.0-8.0-0.0-1.3","null","<span style='color:red; font-size: 70px;'>错误! </span>","null","","","","","","","","","","","","","","","","","","","","","","","feedback_test",""
"","","","","","psychophysics","20","87115","0.0-8.0-0.0-0.4","2753","","j","","","","","","","","","","","","","key","j","6.0600646203554005","853.3333333333334","476","j","true","img/H_28.png","朋友","freeprac_self","",""
"","","","","","html-keyboard-response","21","87430","0.0-8.0-0.0-1.4","null","<span style='color:GreenYellow; font-size: 70px;'>正确! </span>","null","","","","","","","","","","","","","","","","","","","","","","","feedback_test",""
"","","","","","psychophysics","22","90435","0.0-8.0-0.0-0.5","1997","","k","","","","","","","","","","","","","key","k","6.060080971659934","853.3333333333334","476","k","true","img/H_28.png","生人","freeprac_self","",""
"","","","","","html-keyboard-response","23","90741","0.0-8.0-0.0-1.5","null","<span style='color:GreenYellow; font-size: 70px;'>正确! </span>","null","","","","","","","","","","","","","","","","","","","","","","","feedback_test",""
"","","","","","psychophysics","24","93731","0.0-8.0-0.0-0.6","1974","","f","","","","","","","","","","","","","key","f","6.0600000000000085","853.3333333333334","476","f","true","img/S_28.png","朋友","freeprac_self","",""
"","","","","","html-keyboard-response","25","94037","0.0-8.0-0.0-1.6","null","<span style='color:GreenYellow; font-size: 70px;'>正确! </span>","null","","","","","","","","","","","","","","","","","","","","","","","feedback_test",""
"","","","","","psychophysics","26","100340","0.0-8.0-0.0-0.7","5296","","k","","","","","","","","","","","","","key","k","6.060077071290944","853.3333333333334","476","j","false","img/H_28.png","自我","freeprac_self","",""
"","","","","","html-keyboard-response","27","100656","0.0-8.0-0.0-1.7","null","<span style='color:red; font-size: 70px;'>错误! </span>","null","","","","","","","","","","","","","","","","","","","","","","","feedback_test",""
"","","","","","psychophysics","28","105815","0.0-8.0-0.0-0.8","4150","","k","","","","","","","","","","","","","key","k","6.060117647058814","853.3333333333334","476","j","false","img/C_28.png","生人","freeprac_self","",""
"","","","","","html-keyboard-response","29","106125","0.0-8.0-0.0-1.8","null","<span style='color:red; font-size: 70px;'>错误! </span>","null","","","","","","","","","","","","","","","","","","","","","","","feedback_test",""
"","","","","","psychophysics","30","108187","0.0-8.0-0.0-0.9","1054","","d","","","","","","","","","","","","","key","d","6.060058997050149","853.3333333333334","476","d","true","img/S_28.png","自我","freeprac_self","",""
"","","","","","html-keyboard-response","31","108499","0.0-8.0-0.0-1.9","null","<span style='color:GreenYellow; font-size: 70px;'>正确! </span>","null","","","","","","","","","","","","","","","","","","","","","","","feedback_test",""
"","","","","","psychophysics","32","115719","0.0-8.0-0.0-0.10","6207","","j","","","","","","","","","","","","","key","j","6.060100840336125","853.3333333333334","476","f","false","img/S_28.png","生人","freeprac_self","",""
"","","","","","html-keyboard-response","33","116023","0.0-8.0-0.0-1.10","null","<span style='color:red; font-size: 70px;'>错误! </span>","null","","","","","","","","","","","","","","","","","","","","","","","feedback_test",""
"","","","","","psychophysics","34","120204","0.0-8.0-0.0-0.11","3168","","k","","","","","","","","","","","","","key","k","6.060087209302321","853.3333333333334","476","k","true","img/C_28.png","朋友","freeprac_self","",""
"","","","","","html-keyboard-response","35","120514","0.0-8.0-0.0-1.11","null","<span style='color:GreenYellow; font-size: 70px;'>正确! </span>","null","","","","","","","","","","","","","","","","","","","","","","","feedback_test",""
"","","","","","html-keyboard-response","36","124211","0.0-8.0-1.0-0.0","3696","<style>.context{color:white; font-size: 35px; line-height:40px}</style>                           <div><p class='context'>您正确回答了67% 的试次。</p><p class='context'>您的平均反应时为2387毫秒。</p>"," ","","","","","","","","","","","","","","","","","","","","","","","",""
"","","","","","instructions","37","137834","0.0-8.0-1.0-1.0","13621","","","","","","","","","","","","","","[{""page_index"":0,""viewing_time"":1911},{""page_index"":1,""viewing_time"":9673},{""page_index"":2,""viewing_time"":2037}]","","","","","","","","","","","",""
"","","","","","psychophysics","38","154720","0.0-8.1-0.1-0.12","15875","","j","","","","","","","","","","","","","key","j","6.060100574712647","853.3333333333334","476","j","true","img/C_28.png","生人","freeprac_self","",""
"","","","","","html-keyboard-response","39","155032","0.0-8.1-0.1-1.12","null","<span style='color:GreenYellow; font-size: 70px;'>正确! </span>","null","","","","","","","","","","","","","","","","","","","","","","","feedback_test",""
"","","","","","psychophysics","40","158644","0.0-8.1-0.1-0.13","2603","","f","","","","","","","","","","","","","key","f","6.06010084033615","853.3333333333334","476","f","true","img/S_28.png","生人","freeprac_self","",""
"","","","","","html-keyboard-response","41","158947","0.0-8.1-0.1-1.13","null","<span style='color:GreenYellow; font-size: 70px;'>正确! </span>","null","","","","","","","","","","","","","","","","","","","","","","","feedback_test",""
"","","","","","psychophysics","42","163551","0.0-8.1-0.1-0.14","3593","","j","","","","","","","","","","","","","key","j","6.060052700922249","853.3333333333334","476","j","true","img/C_28.png","自我","freeprac_self","",""
"","","","","","html-keyboard-response","43","163858","0.0-8.1-0.1-1.14","null","<span style='color:GreenYellow; font-size: 70px;'>正确! </span>","null","","","","","","","","","","","","","","","","","","","","","","","feedback_test",""
"","","","","","psychophysics","44","167439","0.0-8.1-0.1-0.15","2568","","j","","","","","","","","","","","","","key","j","6.060101867572146","853.3333333333334","476","j","true","img/H_28.png","自我","freeprac_self","",""
"","","","","","html-keyboard-response","45","167750","0.0-8.1-0.1-1.15","null","<span style='color:GreenYellow; font-size: 70px;'>正确! </span>","null","","","","","","","","","","","","","","","","","","","","","","","feedback_test",""
"","","","","","psychophysics","46","170648","0.0-8.1-0.1-0.16","1891","","k","","","","","","","","","","","","","key","k","6.060083857442355","853.3333333333334","476","k","true","img/C_28.png","朋友","freeprac_self","",""
"","","","","","html-keyboard-response","47","170949","0.0-8.1-0.1-1.16","null","<span style='color:GreenYellow; font-size: 70px;'>正确! </span>","null","","","","","","","","","","","","","","","","","","","","","","","feedback_test",""
"","","","","","psychophysics","48","172771","0.0-8.1-0.1-0.17","812","","d","","","","","","","","","","","","","key","d","6.060133779264151","853.3333333333334","476","d","true","img/S_28.png","自我","freeprac_self","",""
"","","","","","html-keyboard-response","49","173079","0.0-8.1-0.1-1.17","null","<span style='color:GreenYellow; font-size: 70px;'>正确! </span>","null","","","","","","","","","","","","","","","","","","","","","","","feedback_test",""
"","","","","","psychophysics","50","177071","0.0-8.1-0.1-0.18","2989","","k","","","","","","","","","","","","","key","k","6.0600911854103465","853.3333333333334","476","k","true","img/H_28.png","生人","freeprac_self","",""
"","","","","","html-keyboard-response","51","177382","0.0-8.1-0.1-1.18","null","<span style='color:GreenYellow; font-size: 70px;'>正确! </span>","null","","","","","","","","","","","","","","","","","","","","","","","feedback_test",""
"","","","","","psychophysics","52","179379","0.0-8.1-0.1-0.19","990","","k","","","","","","","","","","","","","key","k","6.060121951219516","853.3333333333334","476","k","true","img/C_28.png","朋友","freeprac_self","",""
"","","","","","html-keyboard-response","53","179694","0.0-8.1-0.1-1.19","null","<span style='color:GreenYellow; font-size: 70px;'>正确! </span>","null","","","","","","","","","","","","","","","","","","","","","","","feedback_test",""
"","","","","","psychophysics","54","182979","0.0-8.1-0.1-0.20","2278","","j","","","","","","","","","","","","","key","j","6.060036968576729","853.3333333333334","476","j","true","img/H_28.png","朋友","freeprac_self","",""
"","","","","","html-keyboard-response","55","183294","0.0-8.1-0.1-1.20","null","<span style='color:GreenYellow; font-size: 70px;'>正确! </span>","null","","","","","","","","","","","","","","","","","","","","","","","feedback_test",""
"","","","","","psychophysics","56","185215","0.0-8.1-0.1-0.21","914","","d","","","","","","","","","","","","","key","d","6.059936507936523","853.3333333333334","476","d","true","img/S_28.png","自我","freeprac_self","",""
"","","","","","html-keyboard-response","57","185528","0.0-8.1-0.1-1.21","null","<span style='color:GreenYellow; font-size: 70px;'>正确! </span>","null","","","","","","","","","","","","","","","","","","","","","","","feedback_test",""
"","","","","","psychophysics","58","187992","0.0-8.1-0.1-0.22","1456","","f","","","","","","","","","","","","","key","f","6.060000000000043","853.3333333333334","476","f","true","img/S_28.png","朋友","freeprac_self","",""
"","","","","","html-keyboard-response","59","188298","0.0-8.1-0.1-1.22","null","<span style='color:GreenYellow; font-size: 70px;'>正确! </span>","null","","","","","","","","","","","","","","","","","","","","","","","feedback_test",""
"","","","","","psychophysics","60","190991","0.0-8.1-0.1-0.23","1681","","k","","","","","","","","","","","","","key","k","6.059909706546228","853.3333333333334","476","k","true","img/H_28.png","生人","freeprac_self","",""
"","","","","","html-keyboard-response","61","191297","0.0-8.1-0.1-1.23","null","<span style='color:GreenYellow; font-size: 70px;'>正确! </span>","null","","","","","","","","","","","","","","","","","","","","","","","feedback_test",""
"","","","","","html-keyboard-response","62","193686","0.0-9.0","2387","[""<style>.context{color:white; font-size: 35px; line-height:40px}</style>           <div><p class='context'>您正确回答了100% 的试次。</p><p class='context'>您的平均反应时为3138毫秒。</p><p class='context'>恭喜您完成这一阶段的练习。按任意键进入<span style='color: yellow;'>重点关注图形为“朋友”</span>的练习。</p></div><p class='footer' style='font-size:35px; line-height:30px;'>任务要求：\n           <p class='footer' style='font-size:35px; line-height:35px;'>对于与“朋友”对应的图形：如果 匹配 ，请按 <span style=\""color: lightgreen;\"">d键</span></p><p class='footer' style='font-size:35px'>如果 不匹配 ，请按<span style=\""color: lightgreen;\"">f键</p></span>\n           <p class='footer' style='font-size:35px; line-height:35px;'>对于非“朋友”对应的图形：如果 匹配 ，请按 <span style=\""color: lightgreen;\"">k键</span></p><p class='footer' style='font-size:35px'>如果 不匹配 ，请按<span style=\""color: lightgreen;\"">j键</p></span>\n           <p class='footer' style='font-size:22px; line-height:25px;'>请在实验过程中将您的<span style=\""color: lightgreen;\"">食指和中指</span>放在电脑键盘的相应键位上进行按键。</p></span>""]"," ","","","","","","","","","","","","","","","","","","","","","","","",""
"","","","","","psychophysics","63","203968","0.0-10.0-0.0-0.0","9266","","j","","","","","","","","","","","","","key","j","6.067213695395505","853.3333333333334","476","j","true","img/H_28.png","朋友","freeprac_friend","",""
"","","","","","html-keyboard-response","64","204279","0.0-10.0-0.0-1.0","null","<span style='color:GreenYellow; font-size: 70px;'>正确! </span>","null","","","","","","","","","","","","","","","","","","","","","","","feedback_test",""
"","","","","","psychophysics","65","207316","0.0-10.0-0.0-0.1","2023","","f","","","","","","","","","","","","","key","f","6.059960000000021","853.3333333333334","476","f","true","img/C_28.png","生人","freeprac_friend","",""
"","","","","","html-keyboard-response","66","207616","0.0-10.0-0.0-1.1","null","<span style='color:GreenYellow; font-size: 70px;'>正确! </span>","null","","","","","","","","","","","","","","","","","","","","","","","feedback_test",""
"","","","","","psychophysics","67","209352","0.0-10.0-0.0-0.2","724","","d","","","","","","","","","","","","","key","d","6.05992982456146","853.3333333333334","476","d","true","img/C_28.png","朋友","freeprac_friend","",""
"","","","","","html-keyboard-response","68","209667","0.0-10.0-0.0-1.2","null","<span style='color:GreenYellow; font-size: 70px;'>正确! </span>","null","","","","","","","","","","","","","","","","","","","","","","","feedback_test",""
"","","","","","psychophysics","69","215463","0.0-10.0-0.0-0.3","4790","","j","","","","","","","","","","","","","key","j","6.060020942408384","853.3333333333334","476","j","true","img/S_28.png","朋友","freeprac_friend","",""
"","","","","","html-keyboard-response","70","215778","0.0-10.0-0.0-1.3","null","<span style='color:GreenYellow; font-size: 70px;'>正确! </span>","null","","","","","","","","","","","","","","","","","","","","","","","feedback_test",""
"","","","","","psychophysics","71","217947","0.0-10.0-0.0-0.4","1161","","k","","","","","","","","","","","","","key","k","6.059719101123622","853.3333333333334","476","k","true","img/H_28.png","生人","freeprac_friend","",""
"","","","","","html-keyboard-response","72","218249","0.0-10.0-0.0-1.4","null","<span style='color:GreenYellow; font-size: 70px;'>正确! </span>","null","","","","","","","","","","","","","","","","","","","","","","","feedback_test",""
"","","","","","psychophysics","73","220600","0.0-10.0-0.0-0.5","1340","","k","","","","","","","","","","","","","key","k","6.060103359173151","853.3333333333334","476","k","true","img/H_28.png","生人","freeprac_friend","",""
"","","","","","html-keyboard-response","74","220908","0.0-10.0-0.0-1.5","null","<span style='color:GreenYellow; font-size: 70px;'>正确! </span>","null","","","","","","","","","","","","","","","","","","","","","","","feedback_test",""
"","","","","","psychophysics","75","223972","0.0-10.0-0.0-0.6","2058","","f","","","","","","","","","","","","","key","f","6.059999999999982","853.3333333333334","476","f","true","img/C_28.png","自我","freeprac_friend","",""
"","","","","","html-keyboard-response","76","224278","0.0-10.0-0.0-1.6","null","<span style='color:GreenYellow; font-size: 70px;'>正确! </span>","null","","","","","","","","","","","","","","","","","","","","","","","feedback_test",""
"","","","","","psychophysics","77","228068","0.0-10.0-0.0-0.7","2779","","k","","","","","","","","","","","","","key","k","6.060096153846154","853.3333333333334","476","k","true","img/S_28.png","自我","freeprac_friend","",""
"","","","","","html-keyboard-response","78","228369","0.0-10.0-0.0-1.7","null","<span style='color:GreenYellow; font-size: 70px;'>正确! </span>","null","","","","","","","","","","","","","","","","","","","","","","","feedback_test",""
"","","","","","psychophysics","79","232307","0.0-10.0-0.0-0.8","2931","","j","","","","","","","","","","","","","key","j","6.060123266563928","853.3333333333334","476","j","true","img/H_28.png","自我","freeprac_friend","",""
"","","","","","html-keyboard-response","80","232620","0.0-10.0-0.0-1.8","null","<span style='color:GreenYellow; font-size: 70px;'>正确! </span>","null","","","","","","","","","","","","","","","","","","","","","","","feedback_test",""
"","","","","","psychophysics","81","234692","0.0-10.0-0.0-0.9","1068","","d","","","","","","","","","","","","","key","d","6.0600588235293635","853.3333333333334","476","d","true","img/C_28.png","朋友","freeprac_friend","",""
"","","","","","html-keyboard-response","82","235007","0.0-10.0-0.0-1.9","null","<span style='color:GreenYellow; font-size: 70px;'>正确! </span>","null","","","","","","","","","","","","","","","","","","","","","","","feedback_test",""
"","","","","","psychophysics","83","237815","0.0-10.0-0.0-0.10","1792","","k","","","","","","","","","","","","","key","k","6.060086767895903","853.3333333333334","476","k","true","img/S_28.png","自我","freeprac_friend","",""
"","","","","","html-keyboard-response","84","238119","0.0-10.0-0.0-1.10","null","<span style='color:GreenYellow; font-size: 70px;'>正确! </span>","null","","","","","","","","","","","","","","","","","","","","","","","feedback_test",""
"","","","","","psychophysics","85","241292","0.0-10.0-0.0-0.11","2159","","j","","","","","","","","","","","","","key","j","6.06007662835252","853.3333333333334","476","j","true","img/S_28.png","生人","freeprac_friend","",""
"","","","","","html-keyboard-response","86","241601","0.0-10.0-0.0-1.11","null","<span style='color:GreenYellow; font-size: 70px;'>正确! </span>","null","","","","","","","","","","","","","","","","","","","","","","","feedback_test",""
"","","","","","html-keyboard-response","87","245415","0.0-11.0","3813","[""<style>.context{color:white; font-size: 35px; line-height:40px}</style>               <div><p class='context'>您正确回答了100% 的试次。</p><p class='context'>您的平均反应时为2674毫秒。</p><p class='context'>恭喜您完成这一阶段的练习。按任意键进入<span style='color: yellow;'>重点关注图形为“生人”</span>的练习。</p></div><p class='footer' style='font-size:35px; line-height:30px;'>任务要求：\n               <p class='footer' style='font-size:35px; line-height:35px;'>对与“生人”对应的图形，如果 匹配 ，请按 <span style=\""color: lightgreen;\"">d键</span></p><p class='footer' style='font-size:35px'>如果 不匹配 ，请按<span style=\""color: lightgreen;\"">f键</p></span>\n               <p class='footer' style='font-size:35px; line-height:35px;'>对非“生人”对应的图形，如果 匹配 ，请按 <span style=\""color: lightgreen;\"">k键</span></p><p class='footer' style='font-size:35px'>如果 不匹配 ，请按<span style=\""color: lightgreen;\"">j键</p></span>\n               <p class='footer' style='font-size:22px; line-height:25px;'>请在实验过程中将您的<span style=\""color: lightgreen;\"">食指和中指</span>放在电脑键盘的相应键位上进行按键。</p></span>""]"," ","","","","","","","","","","","","","","","","","","","","","","","",""
"","","","","","psychophysics","88","248068","0.0-12.0-0.0-0.0","1639","","k","","","","","","","","","","","","","key","k","6.060137614678902","853.3333333333334","476","k","true","img/S_28.png","自我","freeprac_stranger","",""
"","","","","","html-keyboard-response","89","248373","0.0-12.0-0.0-1.0","null","<span style='color:GreenYellow; font-size: 70px;'>正确! </span>","null","","","","","","","","","","","","","","","","","","","","","","","feedback_test",""
"","","","","","psychophysics","90","251099","0.0-12.0-0.0-0.1","1717","","f","","","","","","","","","","","","","key","f","6.060089285714314","853.3333333333334","476","f","true","img/H_28.png","朋友","freeprac_stranger","",""
"","","","","","html-keyboard-response","91","251400","0.0-12.0-0.0-1.1","null","<span style='color:GreenYellow; font-size: 70px;'>正确! </span>","null","","","","","","","","","","","","","","","","","","","","","","","feedback_test",""
"","","","","","psychophysics","92","253179","0.0-12.0-0.0-0.2","779","","d","","","","","","","","","","","","","key","d","6.059931740614327","853.3333333333334","476","d","true","img/H_28.png","生人","freeprac_stranger","",""
"","","","","","html-keyboard-response","93","253486","0.0-12.0-0.0-1.2","null","<span style='color:GreenYellow; font-size: 70px;'>正确! </span>","null","","","","","","","","","","","","","","","","","","","","","","","feedback_test",""
"","","","","","psychophysics","94","257236","0.0-12.0-0.0-0.3","2743","","k","","","","","","","","","","","","","key","k","6.060032362459509","853.3333333333334","476","k","true","img/C_28.png","朋友","freeprac_stranger","",""
"","","","","","html-keyboard-response","95","257538","0.0-12.0-0.0-1.3","null","<span style='color:GreenYellow; font-size: 70px;'>正确! </span>","null","","","","","","","","","","","","","","","","","","","","","","","feedback_test",""
"","","","","","psychophysics","96","260931","0.0-12.0-0.0-0.4","2385","","j","","","","","","","","","","","","","key","j","6.060000000000015","853.3333333333334","476","j","true","img/S_28.png","朋友","freeprac_stranger","",""
"","","","","","html-keyboard-response","97","261232","0.0-12.0-0.0-1.4","null","<span style='color:GreenYellow; font-size: 70px;'>正确! </span>","null","","","","","","","","","","","","","","","","","","","","","","","feedback_test",""
"","","","","","psychophysics","98","263443","0.0-12.0-0.0-0.5","1208","","k","","","","","","","","","","","","","key","k","6.0601101928374845","853.3333333333334","476","k","true","img/C_28.png","朋友","freeprac_stranger","",""
"","","","","","html-keyboard-response","99","263756","0.0-12.0-0.0-1.5","null","<span style='color:GreenYellow; font-size: 70px;'>正确! </span>","null","","","","","","","","","","","","","","","","","","","","","","","feedback_test",""
"","","","","","psychophysics","100","267436","0.0-12.0-0.0-0.6","2672","","j","","","","","","","","","","","","","key","j","6.060132013201324","853.3333333333334","476","j","true","img/S_28.png","生人","freeprac_stranger","",""
"","","","","","html-keyboard-response","101","267750","0.0-12.0-0.0-1.6","null","<span style='color:GreenYellow; font-size: 70px;'>正确! </span>","null","","","","","","","","","","","","","","","","","","","","","","","feedback_test",""
"","","","","","psychophysics","102","269816","0.0-12.0-0.0-0.7","1058","","k","","","","","","","","","","","","","key","k","6.059764705882373","853.3333333333334","476","k","true","img/S_28.png","自我","freeprac_stranger","",""
"","","","","","html-keyboard-response","103","270130","0.0-12.0-0.0-1.7","null","<span style='color:GreenYellow; font-size: 70px;'>正确! </span>","null","","","","","","","","","","","","","","","","","","","","","","","feedback_test",""
"","","","","","psychophysics","104","273335","0.0-12.0-0.0-0.8","2191","","j","","","","","","","","","","","","","key","j","6.0714828897337965","853.3333333333334","476","j","true","img/C_28.png","生人","freeprac_stranger","",""
"","","","","","html-keyboard-response","105","273642","0.0-12.0-0.0-1.8","null","<span style='color:GreenYellow; font-size: 70px;'>正确! </span>","null","","","","","","","","","","","","","","","","","","","","","","","feedback_test",""
"","","","","","psychophysics","106","276668","0.0-12.0-0.0-0.9","2025","","f","","","","","","","","","","","","","key","f","6.060040160642617","853.3333333333334","476","f","true","img/H_28.png","自我","freeprac_stranger","",""
"","","","","","html-keyboard-response","107","276982","0.0-12.0-0.0-1.9","null","<span style='color:GreenYellow; font-size: 70px;'>正确! </span>","null","","","","","","","","","","","","","","","","","","","","","","","feedback_test",""
"","","","","","psychophysics","108","279892","0.0-12.0-0.0-0.10","1905","","j","","","","","","","","","","","","","key","j","6.06008368200831","853.3333333333334","476","j","true","img/C_28.png","自我","freeprac_stranger","",""
"","","","","","html-keyboard-response","109","280201","0.0-12.0-0.0-1.10","null","<span style='color:GreenYellow; font-size: 70px;'>正确! </span>","null","","","","","","","","","","","","","","","","","","","","","","","feedback_test",""
"","","","","","psychophysics","110","283080","0.0-12.0-0.0-0.11","1867","","d","","","","","","","","","","","","","key","d","6.06008456659616","853.3333333333334","476","d","true","img/H_28.png","生人","freeprac_stranger","",""
"","","","","","html-keyboard-response","111","283389","0.0-12.0-0.0-1.11","null","<span style='color:GreenYellow; font-size: 70px;'>正确! </span>","null","","","","","","","","","","","","","","","","","","","","","","","feedback_test",""
"","","","","","instructions","112","297975","0.0-13.0","14584","","","","","","","","","","","","","","[{""page_index"":0,""viewing_time"":14584}]","","","","","","","","","","","",""
"","","","","","psychophysics","113","300036","0.0-14.0-0.0-0.0","1054","","j","","","","","","","","","","","","","key","j","6.0601183431952865","853.3333333333334","476","j","true","img/C_28.png","自我","prac_self","","朋友"
"","","","","","html-keyboard-response","114","300347","0.0-14.0-0.0-1.0","null","<span style='color:GreenYellow; font-size: 70px;'>正确! </span>","null","","","","","","","","","","","","","","","","","","","","","","","feedback_test",""
"","","","","","psychophysics","115","302852","0.0-14.0-0.0-0.1","null","","null","","","","","","","","","","","","","key","null","6.059805825242752","853.3333333333334","476","f","false","img/S_28.png","生人","prac_self","","自我"
"","","","","","html-keyboard-response","116","303167","0.0-14.0-0.0-1.1","null","<span class='add_' style='color:yellow; font-size: 70px;'> 太慢! </span>","null","","","","","","","","","","","","","","","","","","","","","","","feedback_test",""
"","","","","","psychophysics","117","305484","0.0-14.0-0.0-0.2","1304","","j","","","","","","","","","","","","","key","j","6.059895013123378","853.3333333333334","476","j","true","img/H_28.png","朋友","prac_self","","生人"
"","","","","","html-keyboard-response","118","305797","0.0-14.0-0.0-1.2","null","<span style='color:GreenYellow; font-size: 70px;'>正确! </span>","null","","","","","","","","","","","","","","","","","","","","","","","feedback_test",""
"","","","","","psychophysics","119","308299","0.0-14.0-0.0-0.3","null","","null","","","","","","","","","","","","","key","null","6.059757281553387","853.3333333333334","476","d","false","img/S_28.png","自我","prac_self","","自我"
"","","","","","html-keyboard-response","120","308608","0.0-14.0-0.0-1.3","null","<span class='add_' style='color:yellow; font-size: 70px;'> 太慢! </span>","null","","","","","","","","","","","","","","","","","","","","","","","feedback_test",""
"","","","","","psychophysics","121","311115","0.0-14.0-0.0-0.4","null","","null","","","","","","","","","","","","","key","null","6.059805825242752","853.3333333333334","476","f","false","img/S_28.png","朋友","prac_self","","自我"
"","","","","","html-keyboard-response","122","311426","0.0-14.0-0.0-1.4","null","<span class='add_' style='color:yellow; font-size: 70px;'> 太慢! </span>","null","","","","","","","","","","","","","","","","","","","","","","","feedback_test",""
"","","","","","psychophysics","123","313159","0.0-14.0-0.0-0.5","723","","j","","","","","","","","","","","","","key","j","6.059859154929577","853.3333333333334","476","k","false","img/H_28.png","生人","prac_self","","生人"
"","","","","","html-keyboard-response","124","313468","0.0-14.0-0.0-1.5","null","<span style='color:red; font-size: 70px;'>错误! </span>","null","","","","","","","","","","","","","","","","","","","","","","","feedback_test",""
"","","","","","psychophysics","125","315808","0.0-14.0-0.0-0.6","1330","","j","","","","","","","","","","","","","key","j","6.059896103896098","853.3333333333334","476","j","true","img/H_28.png","自我","prac_self","","生人"
"","","","","","html-keyboard-response","126","316116","0.0-14.0-0.0-1.6","null","<span style='color:GreenYellow; font-size: 70px;'>正确! </span>","null","","","","","","","","","","","","","","","","","","","","","","","feedback_test",""
"","","","","","psychophysics","127","318112","0.0-14.0-0.0-0.7","986","","k","","","","","","","","","","","","","key","k","6.059756097560904","853.3333333333334","476","k","true","img/H_28.png","生人","prac_self","","生人"
"","","","","","html-keyboard-response","128","318416","0.0-14.0-0.0-1.7","null","<span style='color:GreenYellow; font-size: 70px;'>正确! </span>","null","","","","","","","","","","","","","","","","","","","","","","","feedback_test",""
"","","","","","psychophysics","129","320288","0.0-14.0-0.0-0.8","857","","j","","","","","","","","","","","","","key","j","6.059870129870138","853.3333333333334","476","j","true","img/C_28.png","生人","prac_self","","朋友"
"","","","","","html-keyboard-response","130","320594","0.0-14.0-0.0-1.8","null","<span style='color:GreenYellow; font-size: 70px;'>正确! </span>","null","","","","","","","","","","","","","","","","","","","","","","","feedback_test",""
"","","","","","psychophysics","131","322876","0.0-14.0-0.0-0.9","1273","","j","","","","","","","","","","","","","key","j","6.059893617021326","853.3333333333334","476","k","false","img/C_28.png","朋友","prac_self","","朋友"
"","","","","","html-keyboard-response","132","323190","0.0-14.0-0.0-1.9","null","<span style='color:red; font-size: 70px;'>错误! </span>","null","","","","","","","","","","","","","","","","","","","","","","","feedback_test",""
"","","","","","psychophysics","133","325608","0.0-14.0-0.0-0.10","1408","","j","","","","","","","","","","","","","key","j","6.060100755667471","853.3333333333334","476","d","false","img/S_28.png","自我","prac_self","","自我"
"","","","","","html-keyboard-response","134","325918","0.0-14.0-0.0-1.10","null","<span style='color:red; font-size: 70px;'>错误! </span>","null","","","","","","","","","","","","","","","","","","","","","","","feedback_test",""
"","","","","","psychophysics","135","328425","0.0-14.0-0.0-0.11","null","","null","","","","","","","","","","","","","key","null","6.059854368932118","853.3333333333334","476","k","false","img/C_28.png","朋友","prac_self","","朋友"
"","","","","","html-keyboard-response","136","328734","0.0-14.0-0.0-1.11","null","<span class='add_' style='color:yellow; font-size: 70px;'> 太慢! </span>","null","","","","","","","","","","","","","","","","","","","","","","","feedback_test",""
"","","","","","psychophysics","137","331092","0.0-14.0-0.0-0.12","1347","","j","","","","","","","","","","","","","key","j","6.059793281653633","853.3333333333334","476","j","true","img/C_28.png","生人","prac_self","","朋友"
"","","","","","html-keyboard-response","138","331406","0.0-14.0-0.0-1.12","null","<span style='color:GreenYellow; font-size: 70px;'>正确! </span>","null","","","","","","","","","","","","","","","","","","","","","","","feedback_test",""
"","","","","","psychophysics","139","333733","0.0-14.0-0.0-0.13","1323","","j","","","","","","","","","","","","","key","j","6.056501305483065","853.3333333333334","476","j","true","img/H_28.png","朋友","prac_self","","生人"
"","","","","","html-keyboard-response","140","334037","0.0-14.0-0.0-1.13","null","<span style='color:GreenYellow; font-size: 70px;'>正确! </span>","null","","","","","","","","","","","","","","","","","","","","","","","feedback_test",""
"","","","","","psychophysics","141","336084","0.0-14.0-0.0-0.14","1038","","j","","","","","","","","","","","","","key","j","6.059940476190517","853.3333333333334","476","j","true","img/H_28.png","自我","prac_self","","生人"
"","","","","","html-keyboard-response","142","336400","0.0-14.0-0.0-1.14","null","<span style='color:GreenYellow; font-size: 70px;'>正确! </span>","null","","","","","","","","","","","","","","","","","","","","","","","feedback_test",""
"","","","","","psychophysics","143","338169","0.0-14.0-0.0-0.15","761","","f","","","","","","","","","","","","","key","f","6.0601379310344905","853.3333333333334","476","f","true","img/S_28.png","朋友","prac_self","","自我"
"","","","","","html-keyboard-response","144","338480","0.0-14.0-0.0-1.15","null","<span style='color:GreenYellow; font-size: 70px;'>正确! </span>","null","","","","","","","","","","","","","","","","","","","","","","","feedback_test",""
"","","","","","psychophysics","145","340335","0.0-14.0-0.0-0.16","846","","j","","","","","","","","","","","","","key","j","6.0600655737705145","853.3333333333334","476","k","false","img/H_28.png","生人","prac_self","","生人"
"","","","","","html-keyboard-response","146","340649","0.0-14.0-0.0-1.16","null","<span style='color:red; font-size: 70px;'>错误! </span>","null","","","","","","","","","","","","","","","","","","","","","","","feedback_test",""
"","","","","","psychophysics","147","343158","0.0-14.0-0.0-0.17","null","","null","","","","","","","","","","","","","key","null","6.060097087378663","853.3333333333334","476","f","false","img/S_28.png","生人","prac_self","","自我"
"","","","","","html-keyboard-response","148","343465","0.0-14.0-0.0-1.17","null","<span class='add_' style='color:yellow; font-size: 70px;'> 太慢! </span>","null","","","","","","","","","","","","","","","","","","","","","","","feedback_test",""
"","","","","","psychophysics","149","345228","0.0-14.0-0.0-0.18","747","","j","","","","","","","","","","","","","key","j","6.0600692041522","853.3333333333334","476","k","false","img/H_28.png","生人","prac_self","","生人"
"","","","","","html-keyboard-response","150","345538","0.0-14.0-0.0-1.18","null","<span style='color:red; font-size: 70px;'>错误! </span>","null","","","","","","","","","","","","","","","","","","","","","","","feedback_test",""
"","","","","","psychophysics","151","348050","0.0-14.0-0.0-0.19","null","","null","","","","","","","","","","","","","key","null","6.060096852300259","853.3333333333334","476","d","false","img/S_28.png","自我","prac_self","","自我"
"","","","","","html-keyboard-response","152","348360","0.0-14.0-0.0-1.19","null","<span class='add_' style='color:yellow; font-size: 70px;'> 太慢! </span>","null","","","","","","","","","","","","","","","","","","","","","","","feedback_test",""
"","","","","","psychophysics","153","350312","0.0-14.0-0.0-0.20","941","","d","","","","","","","","","","","","","key","d","6.060062305296038","853.3333333333334","476","d","true","img/S_28.png","自我","prac_self","","自我"
"","","","","","html-keyboard-response","154","350625","0.0-14.0-0.0-1.20","null","<span style='color:GreenYellow; font-size: 70px;'>正确! </span>","null","","","","","","","","","","","","","","","","","","","","","","","feedback_test",""
"","","","","","psychophysics","155","352284","0.0-14.0-0.0-0.21","654","","j","","","","","","","","","","","","","key","j","6.060147058823478","853.3333333333334","476","k","false","img/C_28.png","朋友","prac_self","","朋友"
"","","","","","html-keyboard-response","156","352593","0.0-14.0-0.0-1.21","null","<span style='color:red; font-size: 70px;'>错误! </span>","null","","","","","","","","","","","","","","","","","","","","","","","feedback_test",""
"","","","","","psychophysics","157","354890","0.0-14.0-0.0-0.22","1285","","j","","","","","","","","","","","","","key","j","6.058941798941719","853.3333333333334","476","j","true","img/C_28.png","自我","prac_self","","朋友"
"","","","","","html-keyboard-response","158","355192","0.0-14.0-0.0-1.22","null","<span style='color:GreenYellow; font-size: 70px;'>正确! </span>","null","","","","","","","","","","","","","","","","","","","","","","","feedback_test",""
"","","","","","psychophysics","159","357264","0.0-14.0-0.0-0.23","1067","","k","","","","","","","","","","","","","key","k","6.05999999999989","853.3333333333334","476","k","true","img/C_28.png","朋友","prac_self","","朋友"
"","","","","","html-keyboard-response","160","357578","0.0-14.0-0.0-1.23","null","<span style='color:GreenYellow; font-size: 70px;'>正确! </span>","null","","","","","","","","","","","","","","","","","","","","","","","feedback_test",""
"","","","","","html-keyboard-response","161","362351","0.0-14.0-1.0-0.0","4772","<style>.context{color:white; font-size: 35px; line-height:40px}</style>                           <div><p class='context'>您正确回答了50% 的试次。</p><p class='context'>您的平均反应时为1108毫秒。</p>"," ","","","","","","","","","","","","","","","","","","","","","","","",""
"","","","","","instructions","162","384989","0.0-14.0-1.0-1.0","22636","","","","","","","","","","","","","","[{""page_index"":0,""viewing_time"":9568},{""page_index"":1,""viewing_time"":8063},{""page_index"":2,""viewing_time"":5005}]","","","","","","","","","","","",""
"","","","","","psychophysics","163","386855","0.0-14.1-0.1-0.24","854","","j","","","","","","","","","","","","","key","j","6.060065359477139","853.3333333333334","476","j","true","img/H_28.png","自我","prac_self","","生人"
"","","","","","html-keyboard-response","164","387159","0.0-14.1-0.1-1.24","null","<span style='color:GreenYellow; font-size: 70px;'>正确! </span>","null","","","","","","","","","","","","","","","","","","","","","","","feedback_test",""
"","","","","","psychophysics","165","389115","0.0-14.1-0.1-0.25","946","","f","","","","","","","","","","","","","key","f","6.054906832298115","853.3333333333334","476","f","true","img/S_28.png","朋友","prac_self","","自我"
"","","","","","html-keyboard-response","166","389415","0.0-14.1-0.1-1.25","null","<span style='color:GreenYellow; font-size: 70px;'>正确! </span>","null","","","","","","","","","","","","","","","","","","","","","","","feedback_test",""
"","","","","","psychophysics","167","391404","0.0-14.1-0.1-0.26","979","","f","","","","","","","","","","","","","key","f","6.060061349693123","853.3333333333334","476","f","true","img/S_28.png","生人","prac_self","","自我"
"","","","","","html-keyboard-response","168","391717","0.0-14.1-0.1-1.26","null","<span style='color:GreenYellow; font-size: 70px;'>正确! </span>","null","","","","","","","","","","","","","","","","","","","","","","","feedback_test",""
"","","","","","psychophysics","169","393379","0.0-14.1-0.1-0.27","656","","j","","","","","","","","","","","","","key","j","6.060073260073345","853.3333333333334","476","j","true","img/C_28.png","生人","prac_self","","朋友"
"","","","","","html-keyboard-response","170","393688","0.0-14.1-0.1-1.27","null","<span style='color:GreenYellow; font-size: 70px;'>正确! </span>","null","","","","","","","","","","","","","","","","","","","","","","","feedback_test",""
"","","","","","psychophysics","171","395548","0.0-14.1-0.1-0.28","852","","d","","","","","","","","","","","","","key","d","6.0601307189543245","853.3333333333334","476","d","true","img/S_28.png","自我","prac_self","","自我"
"","","","","","html-keyboard-response","172","395859","0.0-14.1-0.1-1.28","null","<span style='color:GreenYellow; font-size: 70px;'>正确! </span>","null","","","","","","","","","","","","","","","","","","","","","","","feedback_test",""
"","","","","","psychophysics","173","397575","0.0-14.1-0.1-0.29","715","","j","","","","","","","","","","","","","key","j","6.060070921985824","853.3333333333334","476","k","false","img/H_28.png","生人","prac_self","","生人"
"","","","","","html-keyboard-response","174","397879","0.0-14.1-0.1-1.29","null","<span style='color:red; font-size: 70px;'>错误! </span>","null","","","","","","","","","","","","","","","","","","","","","","","feedback_test",""
"","","","","","psychophysics","175","399647","0.0-14.1-0.1-0.30","759","","d","","","","","","","","","","","","","key","d","6.081038062283681","853.3333333333334","476","d","true","img/S_28.png","自我","prac_self","","自我"
"","","","","","html-keyboard-response","176","399957","0.0-14.1-0.1-1.30","null","<span style='color:GreenYellow; font-size: 70px;'>正确! </span>","null","","","","","","","","","","","","","","","","","","","","","","","feedback_test",""
"","","","","","psychophysics","177","402044","0.0-14.1-0.1-0.31","1080","","j","","","","","","","","","","","","","key","j","6.060116618075789","853.3333333333334","476","k","false","img/C_28.png","朋友","prac_self","","朋友"
"","","","","","html-keyboard-response","178","402347","0.0-14.1-0.1-1.31","null","<span style='color:red; font-size: 70px;'>错误! </span>","null","","","","","","","","","","","","","","","","","","","","","","","feedback_test",""
"","","","","","psychophysics","179","404465","0.0-14.1-0.1-0.32","1112","","k","","","","","","","","","","","","","key","k","6.060114942528856","853.3333333333334","476","k","true","img/H_28.png","生人","prac_self","","生人"
"","","","","","html-keyboard-response","180","404773","0.0-14.1-0.1-1.32","null","<span style='color:GreenYellow; font-size: 70px;'>正确! </span>","null","","","","","","","","","","","","","","","","","","","","","","","feedback_test",""
"","","","","","psychophysics","181","406880","0.0-14.1-0.1-0.33","1094","","j","","","","","","","","","","","","","key","j","6.060115273775176","853.3333333333334","476","j","true","img/H_28.png","朋友","prac_self","","生人"
"","","","","","html-keyboard-response","182","407183","0.0-14.1-0.1-1.33","null","<span style='color:GreenYellow; font-size: 70px;'>正确! </span>","null","","","","","","","","","","","","","","","","","","","","","","","feedback_test",""
"","","","","","psychophysics","183","409255","0.0-14.1-0.1-0.34","1063","","j","","","","","","","","","","","","","key","j","6.060000000000062","853.3333333333334","476","j","true","img/C_28.png","自我","prac_self","","朋友"
"","","","","","html-keyboard-response","184","409560","0.0-14.1-0.1-1.34","null","<span style='color:GreenYellow; font-size: 70px;'>正确! </span>","null","","","","","","","","","","","","","","","","","","","","","","","feedback_test",""
"","","","","","psychophysics","185","411548","0.0-14.1-0.1-0.35","983","","k","","","","","","","","","","","","","key","k","6.0600611620795535","853.3333333333334","476","k","true","img/C_28.png","朋友","prac_self","","朋友"
"","","","","","html-keyboard-response","186","411861","0.0-14.1-0.1-1.35","null","<span style='color:GreenYellow; font-size: 70px;'>正确! </span>","null","","","","","","","","","","","","","","","","","","","","","","","feedback_test",""
"","","","","","psychophysics","187","413709","0.0-14.1-0.1-0.36","846","","k","","","","","","","","","","","","","key","k","6.059999999999969","853.3333333333334","476","k","true","img/H_28.png","生人","prac_self","","生人"
"","","","","","html-keyboard-response","188","414019","0.0-14.1-0.1-1.36","null","<span style='color:GreenYellow; font-size: 70px;'>正确! </span>","null","","","","","","","","","","","","","","","","","","","","","","","feedback_test",""
"","","","","","psychophysics","189","416028","0.0-14.1-0.1-0.37","1001","","f","","","","","","","","","","","","","key","f","6.0600606060606275","853.3333333333334","476","f","true","img/S_28.png","生人","prac_self","","自我"
"","","","","","html-keyboard-response","190","416329","0.0-14.1-0.1-1.37","null","<span style='color:GreenYellow; font-size: 70px;'>正确! </span>","null","","","","","","","","","","","","","","","","","","","","","","","feedback_test",""
"","","","","","psychophysics","191","417968","0.0-14.1-0.1-0.38","628","","d","","","","","","","","","","","","","key","d","6.0600743494425","853.3333333333334","476","f","false","img/S_28.png","朋友","prac_self","","自我"
"","","","","","html-keyboard-response","192","418282","0.0-14.1-0.1-1.38","null","<span style='color:red; font-size: 70px;'>错误! </span>","null","","","","","","","","","","","","","","","","","","","","","","","feedback_test",""
"","","","","","psychophysics","193","420464","0.0-14.1-0.1-0.39","1171","","k","","","","","","","","","","","","","key","k","6.060111420612697","853.3333333333334","476","k","true","img/C_28.png","朋友","prac_self","","朋友"
"","","","","","html-keyboard-response","194","420766","0.0-14.1-0.1-1.39","null","<span style='color:GreenYellow; font-size: 70px;'>正确! </span>","null","","","","","","","","","","","","","","","","","","","","","","","feedback_test",""
"","","","","","psychophysics","195","422852","0.0-14.1-0.1-0.40","1073","","k","","","","","","","","","","","","","key","k","6.060116618075789","853.3333333333334","476","j","false","img/H_28.png","自我","prac_self","","生人"
"","","","","","html-keyboard-response","196","423160","0.0-14.1-0.1-1.40","null","<span style='color:red; font-size: 70px;'>错误! </span>","null","","","","","","","","","","","","","","","","","","","","","","","feedback_test",""
"","","","","","psychophysics","197","424756","0.0-14.1-0.1-0.41","588","","d","","","","","","","","","","","","","key","d","6.059999999999893","853.3333333333334","476","d","true","img/S_28.png","自我","prac_self","","自我"
"","","","","","html-keyboard-response","198","425069","0.0-14.1-0.1-1.41","null","<span style='color:GreenYellow; font-size: 70px;'>正确! </span>","null","","","","","","","","","","","","","","","","","","","","","","","feedback_test",""
"","","","","","psychophysics","199","426951","0.0-14.1-0.1-0.42","876","","j","","","","","","","","","","","","","key","j","6.059999999999932","853.3333333333334","476","j","true","img/C_28.png","生人","prac_self","","朋友"
"","","","","","html-keyboard-response","200","427258","0.0-14.1-0.1-1.42","null","<span style='color:GreenYellow; font-size: 70px;'>正确! </span>","null","","","","","","","","","","","","","","","","","","","","","","","feedback_test",""
"","","","","","psychophysics","201","429303","0.0-14.1-0.1-0.43","1035","","f","","","","","","","","","","","","","key","f","6.05982195845707","853.3333333333334","476","d","false","img/S_28.png","自我","prac_self","","自我"
"","","","","","html-keyboard-response","202","429616","0.0-14.1-0.1-1.43","null","<span style='color:red; font-size: 70px;'>错误! </span>","null","","","","","","","","","","","","","","","","","","","","","","","feedback_test",""
"","","","","","psychophysics","203","431647","0.0-14.1-0.1-0.44","1023","","k","","","","","","","","","","","","","key","k","6.059879879879887","853.3333333333334","476","k","true","img/H_28.png","生人","prac_self","","生人"
"","","","","","html-keyboard-response","204","431961","0.0-14.1-0.1-1.44","null","<span style='color:GreenYellow; font-size: 70px;'>正确! </span>","null","","","","","","","","","","","","","","","","","","","","","","","feedback_test",""
"","","","","","psychophysics","205","434011","0.0-14.1-0.1-0.45","1037","","j","","","","","","","","","","","","","key","j","6.096059701492517","853.3333333333334","476","j","true","img/H_28.png","朋友","prac_self","","生人"
"","","","","","html-keyboard-response","206","434322","0.0-14.1-0.1-1.45","null","<span style='color:GreenYellow; font-size: 70px;'>正确! </span>","null","","","","","","","","","","","","","","","","","","","","","","","feedback_test",""
"","","","","","psychophysics","207","436231","0.0-14.1-0.1-0.46","898","","k","","","","","","","","","","","","","key","k","6.059808917197541","853.3333333333334","476","k","true","img/C_28.png","朋友","prac_self","","朋友"
"","","","","","html-keyboard-response","208","436534","0.0-14.1-0.1-1.46","null","<span style='color:GreenYellow; font-size: 70px;'>正确! </span>","null","","","","","","","","","","","","","","","","","","","","","","","feedback_test",""
"","","","","","psychophysics","209","438608","0.0-14.1-0.1-0.47","1066","","j","","","","","","","","","","","","","key","j","6.060117302052786","853.3333333333334","476","j","true","img/C_28.png","自我","prac_self","","朋友"
"","","","","","html-keyboard-response","210","438910","0.0-14.1-0.1-1.47","null","<span style='color:GreenYellow; font-size: 70px;'>正确! </span>","null","","","","","","","","","","","","","","","","","","","","","","","feedback_test",""
"","","","","","html-keyboard-response","211","447564","0.0-15.0","8653","[""<style>.context{color:white; font-size: 35px; line-height:40px}</style>           <div><p class='context'>您正确回答了79% 的试次。</p><p class='context'>您的平均反应时为937毫秒。</p><p class='context'>恭喜您完成这一阶段的练习。按任意键进入<span style='color: yellow;'>重点关注图形为“朋友”</span>的练习。</p></div><p class='footer' style='font-size:35px; line-height:30px;'>任务要求：\n           <p class='footer' style='font-size:35px; line-height:35px;'>对于与“朋友”对应的图形：如果 匹配 ，请按 <span style=\""color: lightgreen;\"">d键</span></p><p class='footer' style='font-size:35px'>如果 不匹配 ，请按<span style=\""color: lightgreen;\"">f键</p></span>\n           <p class='footer' style='font-size:35px; line-height:35px;'>对于非“朋友”对应的图形：如果 匹配 ，请按 <span style=\""color: lightgreen;\"">k键</span></p><p class='footer' style='font-size:35px'>如果 不匹配 ，请按<span style=\""color: lightgreen;\"">j键</p></span>\n           <p class='footer' style='font-size:22px; line-height:25px;'>请在实验过程中将您的<span style=\""color: lightgreen;\"">食指和中指</span>放在电脑键盘的相应键位上进行按键。</p></span>""]"," ","","","","","","","","","","","","","","","","","","","","","","","",""
"","","","","","psychophysics","212","449550","0.0-16.0-0.0-0.0","982","","k","","","","","","","","","","","","","key","k","6.059938650306684","853.3333333333334","476","k","true","img/H_28.png","生人","prac_friend","","生人"
"","","","","","html-keyboard-response","213","449860","0.0-16.0-0.0-1.0","null","<span style='color:GreenYellow; font-size: 70px;'>正确! </span>","null","","","","","","","","","","","","","","","","","","","","","","","feedback_test",""
"","","","","","psychophysics","214","452377","0.0-16.0-0.0-0.1","null","","null","","","","","","","","","","","","","key","null","6.059951690821133","853.3333333333334","476","j","false","img/S_28.png","生人","prac_friend","","自我"
"","","","","","html-keyboard-response","215","452689","0.0-16.0-0.0-1.1","null","<span class='add_' style='color:yellow; font-size: 70px;'> 太慢! </span>","null","","","","","","","","","","","","","","","","","","","","","","","feedback_test",""
"","","","","","psychophysics","216","454659","0.0-16.0-0.0-0.2","963","","j","","","","","","","","","","","","","key","j","6.059876160990791","853.3333333333334","476","j","true","img/H_28.png","自我","prac_friend","","生人"
"","","","","","html-keyboard-response","217","454968","0.0-16.0-0.0-1.2","null","<span style='color:GreenYellow; font-size: 70px;'>正确! </span>","null","","","","","","","","","","","","","","","","","","","","","","","feedback_test",""
"","","","","","psychophysics","218","456724","0.0-16.0-0.0-0.3","746","","k","","","","","","","","","","","","","key","k","6.060069444444606","853.3333333333334","476","d","false","img/C_28.png","朋友","prac_friend","","朋友"
"","","","","","html-keyboard-response","219","457033","0.0-16.0-0.0-1.3","null","<span style='color:red; font-size: 70px;'>错误! </span>","null","","","","","","","","","","","","","","","","","","","","","","","feedback_test",""
"","","","","","psychophysics","220","458855","0.0-16.0-0.0-0.4","814","","d","","","","","","","","","","","","","key","d","6.060133779264347","853.3333333333334","476","k","false","img/S_28.png","自我","prac_friend","","自我"
"","","","","","html-keyboard-response","221","459160","0.0-16.0-0.0-1.4","null","<span style='color:red; font-size: 70px;'>错误! </span>","null","","","","","","","","","","","","","","","","","","","","","","","feedback_test",""
"","","","","","psychophysics","222","461196","0.0-16.0-0.0-0.5","1026","","d","","","","","","","","","","","","","key","d","6.060119760479091","853.3333333333334","476","f","false","img/C_28.png","自我","prac_friend","","朋友"
"","","","","","html-keyboard-response","223","461500","0.0-16.0-0.0-1.5","null","<span style='color:red; font-size: 70px;'>错误! </span>","null","","","","","","","","","","","","","","","","","","","","","","","feedback_test",""
"","","","","","psychophysics","224","463124","0.0-16.0-0.0-0.6","615","","d","","","","","","","","","","","","","key","d","6.054531835205983","853.3333333333334","476","d","true","img/C_28.png","朋友","prac_friend","","朋友"
"","","","","","html-keyboard-response","225","463436","0.0-16.0-0.0-1.6","null","<span style='color:GreenYellow; font-size: 70px;'>正确! </span>","null","","","","","","","","","","","","","","","","","","","","","","","feedback_test",""
"","","","","","psychophysics","226","465211","0.0-16.0-0.0-0.7","767","","k","","","","","","","","","","","","","key","k","6.060137457044673","853.3333333333334","476","k","true","img/H_28.png","生人","prac_friend","","生人"
"","","","","","html-keyboard-response","227","465515","0.0-16.0-0.0-1.7","null","<span style='color:GreenYellow; font-size: 70px;'>正确! </span>","null","","","","","","","","","","","","","","","","","","","","","","","feedback_test",""
"","","","","","psychophysics","228","467435","0.0-16.0-0.0-0.8","909","","f","","","","","","","","","","","","","key","f","6.060126984126992","853.3333333333334","476","f","true","img/C_28.png","生人","prac_friend","","朋友"
"","","","","","html-keyboard-response","229","467736","0.0-16.0-0.0-1.8","null","<span style='color:GreenYellow; font-size: 70px;'>正确! </span>","null","","","","","","","","","","","","","","","","","","","","","","","feedback_test",""
"","","","","","psychophysics","230","469855","0.0-16.0-0.0-0.9","1110","","j","","","","","","","","","","","","","key","j","6.060057306590318","853.3333333333334","476","j","true","img/S_28.png","朋友","prac_friend","","自我"
"","","","","","html-keyboard-response","231","470162","0.0-16.0-0.0-1.9","null","<span style='color:GreenYellow; font-size: 70px;'>正确! </span>","null","","","","","","","","","","","","","","","","","","","","","","","feedback_test",""
"","","","","","psychophysics","232","471892","0.0-16.0-0.0-0.10","718","","k","","","","","","","","","","","","","key","k","6.059929577464854","853.3333333333334","476","k","true","img/S_28.png","自我","prac_friend","","自我"
"","","","","","html-keyboard-response","233","472203","0.0-16.0-0.0-1.10","null","<span style='color:GreenYellow; font-size: 70px;'>正确! </span>","null","","","","","","","","","","","","","","","","","","","","","","","feedback_test",""
"","","","","","psychophysics","234","474091","0.0-16.0-0.0-0.11","877","","j","","","","","","","","","","","","","key","j","6.060064516129017","853.3333333333334","476","j","true","img/H_28.png","朋友","prac_friend","","生人"
"","","","","","html-keyboard-response","235","474400","0.0-16.0-0.0-1.11","null","<span style='color:GreenYellow; font-size: 70px;'>正确! </span>","null","","","","","","","","","","","","","","","","","","","","","","","feedback_test",""
"","","","","","psychophysics","236","476599","0.0-16.0-0.0-0.12","1192","","f","","","","","","","","","","","","","key","f","6.059944751381248","853.3333333333334","476","f","true","img/C_28.png","自我","prac_friend","","朋友"
"","","","","","html-keyboard-response","237","476909","0.0-16.0-0.0-1.12","null","<span style='color:GreenYellow; font-size: 70px;'>正确! </span>","null","","","","","","","","","","","","","","","","","","","","","","","feedback_test",""
"","","","","","psychophysics","238","479307","0.0-16.0-0.0-0.13","1390","","k","","","","","","","","","","","","","key","k","6.0601015228427695","853.3333333333334","476","k","true","img/H_28.png","生人","prac_friend","","生人"
"","","","","","html-keyboard-response","239","479611","0.0-16.0-0.0-1.13","null","<span style='color:GreenYellow; font-size: 70px;'>正确! </span>","null","","","","","","","","","","","","","","","","","","","","","","","feedback_test",""
"","","","","","psychophysics","240","481599","0.0-16.0-0.0-0.14","976","","j","","","","","","","","","","","","","key","j","6.060122324158943","853.3333333333334","476","j","true","img/H_28.png","朋友","prac_friend","","生人"
"","","","","","html-keyboard-response","241","481909","0.0-16.0-0.0-1.14","null","<span style='color:GreenYellow; font-size: 70px;'>正确! </span>","null","","","","","","","","","","","","","","","","","","","","","","","feedback_test",""
"","","","","","psychophysics","242","483972","0.0-16.0-0.0-0.15","1049","","f","","","","","","","","","","","","","key","f","6.060117994100309","853.3333333333334","476","j","false","img/S_28.png","朋友","prac_friend","","自我"
"","","","","","html-keyboard-response","243","484275","0.0-16.0-0.0-1.15","null","<span style='color:red; font-size: 70px;'>错误! </span>","null","","","","","","","","","","","","","","","","","","","","","","","feedback_test",""
"","","","","","psychophysics","244","486360","0.0-16.0-0.0-0.16","1080","","d","","","","","","","","","","","","","key","d","6.060116618075958","853.3333333333334","476","d","true","img/C_28.png","朋友","prac_friend","","朋友"
"","","","","","html-keyboard-response","245","486663","0.0-16.0-0.0-1.16","null","<span style='color:GreenYellow; font-size: 70px;'>正确! </span>","null","","","","","","","","","","","","","","","","","","","","","","","feedback_test",""
"","","","","","psychophysics","246","488520","0.0-16.0-0.0-0.17","847","","f","","","","","","","","","","","","","key","f","6.060065359477139","853.3333333333334","476","f","true","img/C_28.png","生人","prac_friend","","朋友"
"","","","","","html-keyboard-response","247","488834","0.0-16.0-0.0-1.17","null","<span style='color:GreenYellow; font-size: 70px;'>正确! </span>","null","","","","","","","","","","","","","","","","","","","","","","","feedback_test",""
"","","","","","psychophysics","248","491239","0.0-16.0-0.0-0.18","1396","","k","","","","","","","","","","","","","key","k","6.059898734177151","853.3333333333334","476","j","false","img/S_28.png","生人","prac_friend","","自我"
"","","","","","html-keyboard-response","249","491540","0.0-16.0-0.0-1.18","null","<span style='color:red; font-size: 70px;'>错误! </span>","null","","","","","","","","","","","","","","","","","","","","","","","feedback_test",""
"","","","","","psychophysics","250","493495","0.0-16.0-0.0-0.19","947","","j","","","","","","","","","","","","","key","j","6.060124610591864","853.3333333333334","476","j","true","img/H_28.png","自我","prac_friend","","生人"
"","","","","","html-keyboard-response","251","493804","0.0-16.0-0.0-1.19","null","<span style='color:GreenYellow; font-size: 70px;'>正确! </span>","null","","","","","","","","","","","","","","","","","","","","","","","feedback_test",""
"","","","","","psychophysics","252","496143","0.0-16.0-0.0-0.20","1330","","j","","","","","","","","","","","","","key","j","6.060104166666709","853.3333333333334","476","k","false","img/S_28.png","自我","prac_friend","","自我"
"","","","","","html-keyboard-response","253","496454","0.0-16.0-0.0-1.20","null","<span style='color:red; font-size: 70px;'>错误! </span>","null","","","","","","","","","","","","","","","","","","","","","","","feedback_test",""
"","","","","","psychophysics","254","498008","0.0-16.0-0.0-0.21","542","","k","","","","","","","","","","","","","key","k","6.060156862745198","853.3333333333334","476","k","true","img/S_28.png","自我","prac_friend","","自我"
"","","","","","html-keyboard-response","255","498320","0.0-16.0-0.0-1.21","null","<span style='color:GreenYellow; font-size: 70px;'>正确! </span>","null","","","","","","","","","","","","","","","","","","","","","","","feedback_test",""
"","","","","","psychophysics","256","500179","0.0-16.0-0.0-0.22","849","","d","","","","","","","","","","","","","key","d","6.059934426229409","853.3333333333334","476","d","true","img/C_28.png","朋友","prac_friend","","朋友"
"","","","","","html-keyboard-response","257","500479","0.0-16.0-0.0-1.22","null","<span style='color:GreenYellow; font-size: 70px;'>正确! </span>","null","","","","","","","","","","","","","","","","","","","","","","","feedback_test",""
"","","","","","psychophysics","258","502495","0.0-16.0-0.0-0.23","1008","","k","","","","","","","","","","","","","key","k","6.059818731117789","853.3333333333334","476","k","true","img/H_28.png","生人","prac_friend","","生人"
"","","","","","html-keyboard-response","259","502808","0.0-16.0-0.0-1.23","null","<span style='color:GreenYellow; font-size: 70px;'>正确! </span>","null","","","","","","","","","","","","","","","","","","","","","","","feedback_test",""
"","","","","","html-keyboard-response","260","518084","0.0-17.0","15272","[""<style>.context{color:white; font-size: 35px; line-height:40px}</style>               <div><p class='context'>您正确回答了71% 的试次。</p><p class='context'>您的平均反应时为928毫秒。</p><p class='context'>恭喜您完成这一阶段的练习。按任意键进入<span style='color: yellow;'>重点关注图形为“生人”</span>的练习。</p></div><p class='footer' style='font-size:35px; line-height:30px;'>任务要求：\n               <p class='footer' style='font-size:35px; line-height:35px;'>对与“生人”对应的图形，如果 匹配 ，请按 <span style=\""color: lightgreen;\"">d键</span></p><p class='footer' style='font-size:35px'>如果 不匹配 ，请按<span style=\""color: lightgreen;\"">f键</p></span>\n               <p class='footer' style='font-size:35px; line-height:35px;'>对非“生人”对应的图形，如果 匹配 ，请按 <span style=\""color: lightgreen;\"">k键</span></p><p class='footer' style='font-size:35px'>如果 不匹配 ，请按<span style=\""color: lightgreen;\"">j键</p></span>\n               <p class='footer' style='font-size:22px; line-height:25px;'>请在实验过程中将您的<span style=\""color: lightgreen;\"">食指和中指</span>放在电脑键盘的相应键位上进行按键。</p></span>""]"," ","","","","","","","","","","","","","","","","","","","","","","","",""
"","","","","","psychophysics","261","520220","0.0-18.0-0.0-0.0","1126","","k","","","","","","","","","","","","","key","k","6.060056980057026","853.3333333333334","476","k","true","img/S_28.png","自我","prac_stranger","","自我"
"","","","","","html-keyboard-response","262","520533","0.0-18.0-0.0-1.0","null","<span style='color:GreenYellow; font-size: 70px;'>正确! </span>","null","","","","","","","","","","","","","","","","","","","","","","","feedback_test",""
"","","","","","psychophysics","263","522435","0.0-18.0-0.0-0.1","894","","j","","","","","","","","","","","","","key","j","6.060127795526993","853.3333333333334","476","k","false","img/C_28.png","朋友","prac_stranger","","朋友"
"","","","","","html-keyboard-response","264","522736","0.0-18.0-0.0-1.1","null","<span style='color:red; font-size: 70px;'>错误! </span>","null","","","","","","","","","","","","","","","","","","","","","","","feedback_test",""
"","","","","","psychophysics","265","524544","0.0-18.0-0.0-0.2","805","","f","","","","","","","","","","","","","key","f","6.060134680134633","853.3333333333334","476","f","true","img/H_28.png","自我","prac_stranger","","生人"
"","","","","","html-keyboard-response","266","524851","0.0-18.0-0.0-1.2","null","<span style='color:GreenYellow; font-size: 70px;'>正确! </span>","null","","","","","","","","","","","","","","","","","","","","","","","feedback_test",""
"","","","","","psychophysics","267","526577","0.0-18.0-0.0-0.3","717","","d","","","","","","","","","","","","","key","d","6.060070671378092","853.3333333333334","476","d","true","img/H_28.png","生人","prac_stranger","","生人"
"","","","","","html-keyboard-response","268","526882","0.0-18.0-0.0-1.3","null","<span style='color:GreenYellow; font-size: 70px;'>正确! </span>","null","","","","","","","","","","","","","","","","","","","","","","","feedback_test",""
"","","","","","psychophysics","269","529311","0.0-18.0-0.0-0.4","1416","","j","","","","","","","","","","","","","key","j","6.09037783375316","853.3333333333334","476","j","true","img/S_28.png","生人","prac_stranger","","自我"
"","","","","","html-keyboard-response","270","529620","0.0-18.0-0.0-1.4","null","<span style='color:GreenYellow; font-size: 70px;'>正确! </span>","null","","","","","","","","","","","","","","","","","","","","","","","feedback_test",""
"","","","","","psychophysics","271","531679","0.0-18.0-0.0-0.5","1050","","f","","","","","","","","","","","","","key","f","6.060118343195115","853.3333333333334","476","d","false","img/H_28.png","生人","prac_stranger","","生人"
"","","","","","html-keyboard-response","272","531993","0.0-18.0-0.0-1.5","null","<span style='color:red; font-size: 70px;'>错误! </span>","null","","","","","","","","","","","","","","","","","","","","","","","feedback_test",""
"","","","","","psychophysics","273","534497","0.0-18.0-0.0-0.6","null","","null","","","","","","","","","","","","","key","null","6.060097087378663","853.3333333333334","476","j","false","img/C_28.png","生人","prac_stranger","","朋友"
"","","","","","html-keyboard-response","274","534809","0.0-18.0-0.0-1.6","null","<span class='add_' style='color:yellow; font-size: 70px;'> 太慢! </span>","null","","","","","","","","","","","","","","","","","","","","","","","feedback_test",""
"","","","","","psychophysics","275","537075","0.0-18.0-0.0-0.7","1260","","k","","","","","","","","","","","","","key","k","6.060107526881996","853.3333333333334","476","k","true","img/C_28.png","朋友","prac_stranger","","朋友"
"","","","","","html-keyboard-response","276","537380","0.0-18.0-0.0-1.7","null","<span style='color:GreenYellow; font-size: 70px;'>正确! </span>","null","","","","","","","","","","","","","","","","","","","","","","","feedback_test",""
"","","","","","psychophysics","277","539883","0.0-18.0-0.0-0.8","1498","","j","","","","","","","","","","","","","key","j","6.059611650485572","853.3333333333334","476","f","false","img/H_28.png","朋友","prac_stranger","","生人"
"","","","","","html-keyboard-response","278","540193","0.0-18.0-0.0-1.8","null","<span style='color:red; font-size: 70px;'>错误! </span>","null","","","","","","","","","","","","","","","","","","","","","","","feedback_test",""
"","","","","","psychophysics","279","542284","0.0-18.0-0.0-0.9","1081","","j","","","","","","","","","","","","","key","j","6.060116279069916","853.3333333333334","476","k","false","img/S_28.png","自我","prac_stranger","","自我"
"","","","","","html-keyboard-response","280","542597","0.0-18.0-0.0-1.9","null","<span style='color:red; font-size: 70px;'>错误! </span>","null","","","","","","","","","","","","","","","","","","","","","","","feedback_test",""
"","","","","","psychophysics","281","545101","0.0-18.0-0.0-0.10","null","","null","","","","","","","","","","","","","key","null","6.060097087378663","853.3333333333334","476","j","false","img/S_28.png","朋友","prac_stranger","","自我"
"","","","","","html-keyboard-response","282","545413","0.0-18.0-0.0-1.10","null","<span class='add_' style='color:yellow; font-size: 70px;'> 太慢! </span>","null","","","","","","","","","","","","","","","","","","","","","","","feedback_test",""
"","","","","","psychophysics","283","547921","0.0-18.0-0.0-0.11","null","","null","","","","","","","","","","","","","key","null","6.059854721549851","853.3333333333334","476","j","false","img/C_28.png","自我","prac_stranger","","朋友"
"","","","","","html-keyboard-response","284","548235","0.0-18.0-0.0-1.11","null","<span class='add_' style='color:yellow; font-size: 70px;'> 太慢! </span>","null","","","","","","","","","","","","","","","","","","","","","","","feedback_test",""
"","","","","","psychophysics","285","550395","0.0-18.0-0.0-0.12","1150","","j","","","","","","","","","","","","","key","j","6.059830985915466","853.3333333333334","476","f","false","img/H_28.png","朋友","prac_stranger","","生人"
"","","","","","html-keyboard-response","286","550703","0.0-18.0-0.0-1.12","null","<span style='color:red; font-size: 70px;'>错误! </span>","null","","","","","","","","","","","","","","","","","","","","","","","feedback_test",""
"","","","","","psychophysics","287","552731","0.0-18.0-0.0-0.13","1022","","d","","","","","","","","","","","","","key","d","6.06005988023934","853.3333333333334","476","d","true","img/H_28.png","生人","prac_stranger","","生人"
"","","","","","html-keyboard-response","288","553037","0.0-18.0-0.0-1.13","null","<span style='color:GreenYellow; font-size: 70px;'>正确! </span>","null","","","","","","","","","","","","","","","","","","","","","","","feedback_test",""
"","","","","","psychophysics","289","555376","0.0-18.0-0.0-0.14","1332","","j","","","","","","","","","","","","","key","j","6.059792207791954","853.3333333333334","476","j","true","img/C_28.png","生人","prac_stranger","","朋友"
"","","","","","html-keyboard-response","290","555680","0.0-18.0-0.0-1.14","null","<span style='color:GreenYellow; font-size: 70px;'>正确! </span>","null","","","","","","","","","","","","","","","","","","","","","","","feedback_test",""
"","","","","","psychophysics","291","557911","0.0-18.0-0.0-0.15","1224","","k","","","","","","","","","","","","","key","k","6.059945504087193","853.3333333333334","476","k","true","img/S_28.png","自我","prac_stranger","","自我"
"","","","","","html-keyboard-response","292","558218","0.0-18.0-0.0-1.15","null","<span style='color:GreenYellow; font-size: 70px;'>正确! </span>","null","","","","","","","","","","","","","","","","","","","","","","","feedback_test",""
"","","","","","psychophysics","293","560663","0.0-18.0-0.0-0.16","1444","","j","","","","","","","","","","","","","key","j","6.059900497512333","853.3333333333334","476","j","true","img/C_28.png","自我","prac_stranger","","朋友"
"","","","","","html-keyboard-response","294","560976","0.0-18.0-0.0-1.16","null","<span style='color:GreenYellow; font-size: 70px;'>正确! </span>","null","","","","","","","","","","","","","","","","","","","","","","","feedback_test",""
"","","","","","psychophysics","295","562657","0.0-18.0-0.0-0.17","670","","f","","","","","","","","","","","","","key","f","6.059782608695652","853.3333333333334","476","f","true","img/H_28.png","自我","prac_stranger","","生人"
"","","","","","html-keyboard-response","296","562966","0.0-18.0-0.0-1.17","null","<span style='color:GreenYellow; font-size: 70px;'>正确! </span>","null","","","","","","","","","","","","","","","","","","","","","","","feedback_test",""
"","","","","","psychophysics","297","565202","0.0-18.0-0.0-0.18","1231","","k","","","","","","","","","","","","","key","k","6.059945504087193","853.3333333333334","476","k","true","img/C_28.png","朋友","prac_stranger","","朋友"
"","","","","","html-keyboard-response","298","565511","0.0-18.0-0.0-1.18","null","<span style='color:GreenYellow; font-size: 70px;'>正确! </span>","null","","","","","","","","","","","","","","","","","","","","","","","feedback_test",""
"","","","","","psychophysics","299","567648","0.0-18.0-0.0-0.19","1126","","j","","","","","","","","","","","","","key","j","6.094785100286413","853.3333333333334","476","j","true","img/S_28.png","朋友","prac_stranger","","自我"
"","","","","","html-keyboard-response","300","567950","0.0-18.0-0.0-1.19","null","<span style='color:GreenYellow; font-size: 70px;'>正确! </span>","null","","","","","","","","","","","","","","","","","","","","","","","feedback_test",""
"","","","","","psychophysics","301","569743","0.0-18.0-0.0-0.20","786","","d","","","","","","","","","","","","","key","d","6.060067796610469","853.3333333333334","476","d","true","img/H_28.png","生人","prac_stranger","","生人"
"","","","","","html-keyboard-response","302","570049","0.0-18.0-0.0-1.20","null","<span style='color:GreenYellow; font-size: 70px;'>正确! </span>","null","","","","","","","","","","","","","","","","","","","","","","","feedback_test",""
"","","","","","psychophysics","303","572204","0.0-18.0-0.0-0.21","1145","","k","","","","","","","","","","","","","key","k","6.059717514124005","853.3333333333334","476","k","true","img/S_28.png","自我","prac_stranger","","自我"
"","","","","","html-keyboard-response","304","572519","0.0-18.0-0.0-1.21","null","<span style='color:GreenYellow; font-size: 70px;'>正确! </span>","null","","","","","","","","","","","","","","","","","","","","","","","feedback_test",""
"","","","","","psychophysics","305","574247","0.0-18.0-0.0-0.22","721","","k","","","","","","","","","","","","","key","k","6.059929577464854","853.3333333333334","476","k","true","img/C_28.png","朋友","prac_stranger","","朋友"
"","","","","","html-keyboard-response","306","574557","0.0-18.0-0.0-1.22","null","<span style='color:GreenYellow; font-size: 70px;'>正确! </span>","null","","","","","","","","","","","","","","","","","","","","","","","feedback_test",""
"","","","","","psychophysics","307","576759","0.0-18.0-0.0-0.23","1192","","j","","","","","","","","","","","","","key","j","6.060110497237595","853.3333333333334","476","j","true","img/S_28.png","生人","prac_stranger","","自我"
"","","","","","html-keyboard-response","308","577059","0.0-18.0-0.0-1.23","null","<span style='color:GreenYellow; font-size: 70px;'>正确! </span>","null","","","","","","","","","","","","","","","","","","","","","","","feedback_test",""
"","","","","","html-keyboard-response","309","578991","0.0-18.0-1.0-0.0","1930","<style>.context{color:white; font-size: 35px; line-height:40px}</style>                           <div><p class='context'>您正确回答了67% 的试次。</p><p class='context'>您的平均反应时为1076毫秒。</p>","enter","","","","","","","","","","","","","","","","","","","","","","","",""
"","","","","","instructions","310","589572","0.0-18.0-1.0-1.0","10579","","","","","","","","","","","","","","[{""page_index"":0,""viewing_time"":2455},{""page_index"":1,""viewing_time"":6595},{""page_index"":2,""viewing_time"":1529}]","","","","","","","","","","","",""
"","","","","","psychophysics","311","592083","0.0-18.1-0.1-0.24","null","","null","","","","","","","","","","","","","key","null","6.060096852300118","853.3333333333334","476","d","false","img/H_28.png","生人","prac_stranger","","生人"
"","","","","","html-keyboard-response","312","592392","0.0-18.1-0.1-1.24","null","<span class='add_' style='color:yellow; font-size: 70px;'> 太慢! </span>","null","","","","","","","","","","","","","","","","","","","","","","","feedback_test",""
"","","","","","psychophysics","313","594543","0.0-18.1-0.1-0.25","1144","","d","","","","","","","","","","","","","key","d","6.060112994350361","853.3333333333334","476","j","false","img/S_28.png","朋友","prac_stranger","","自我"
"","","","","","html-keyboard-response","314","594847","0.0-18.1-0.1-1.25","null","<span style='color:red; font-size: 70px;'>错误! </span>","null","","","","","","","","","","","","","","","","","","","","","","","feedback_test",""
"","","","","","psychophysics","315","596415","0.0-18.1-0.1-0.26","557","","d","","","","","","","","","","","","","key","d","6.059610894941888","853.3333333333334","476","k","false","img/S_28.png","自我","prac_stranger","","自我"
"","","","","","html-keyboard-response","316","596725","0.0-18.1-0.1-1.26","null","<span style='color:red; font-size: 70px;'>错误! </span>","null","","","","","","","","","","","","","","","","","","","","","","","feedback_test",""
"","","","","","psychophysics","317","599230","0.0-18.1-0.1-0.27","null","","null","","","","","","","","","","","","","key","null","6.060048543689298","853.3333333333334","476","f","false","img/H_28.png","朋友","prac_stranger","","生人"
"","","","","","html-keyboard-response","318","599538","0.0-18.1-0.1-1.27","null","<span class='add_' style='color:yellow; font-size: 70px;'> 太慢! </span>","null","","","","","","","","","","","","","","","","","","","","","","","feedback_test",""
"","","","","","psychophysics","319","601323","0.0-18.1-0.1-0.28","771","","f","","","","","","","","","","","","","key","f","6.060136518771315","853.3333333333334","476","j","false","img/S_28.png","生人","prac_stranger","","自我"
"","","","","","html-keyboard-response","320","601636","0.0-18.1-0.1-1.28","null","<span style='color:red; font-size: 70px;'>错误! </span>","null","","","","","","","","","","","","","","","","","","","","","","","feedback_test",""
"","","","","","psychophysics","321","603660","0.0-18.1-0.1-0.29","1011","","j","","","","","","","","","","","","","key","j","6.0601204819279495","853.3333333333334","476","f","false","img/H_28.png","自我","prac_stranger","","生人"
"","","","","","html-keyboard-response","322","603965","0.0-18.1-0.1-1.29","null","<span style='color:red; font-size: 70px;'>错误! </span>","null","","","","","","","","","","","","","","","","","","","","","","","feedback_test",""
"","","","","","psychophysics","323","605615","0.0-18.1-0.1-0.30","639","","j","","","","","","","","","","","","","key","j","6.060147601476187","853.3333333333334","476","j","true","img/C_28.png","生人","prac_stranger","","朋友"
"","","","","","html-keyboard-response","324","605928","0.0-18.1-0.1-1.30","null","<span style='color:GreenYellow; font-size: 70px;'>正确! </span>","null","","","","","","","","","","","","","","","","","","","","","","","feedback_test",""
"","","","","","psychophysics","325","607935","0.0-18.1-0.1-0.31","997","","d","","","","","","","","","","","","","key","d","6.060121580546843","853.3333333333334","476","k","false","img/S_28.png","自我","prac_stranger","","自我"
"","","","","","html-keyboard-response","326","608248","0.0-18.1-0.1-1.31","null","<span style='color:red; font-size: 70px;'>错误! </span>","null","","","","","","","","","","","","","","","","","","","","","","","feedback_test",""
"","","","","","psychophysics","327","610024","0.0-18.1-0.1-0.32","768","","j","","","","","","","","","","","","","key","j","6.060068493150414","853.3333333333334","476","k","false","img/C_28.png","朋友","prac_stranger","","朋友"
"","","","","","html-keyboard-response","328","610339","0.0-18.1-0.1-1.32","null","<span style='color:red; font-size: 70px;'>错误! </span>","null","","","","","","","","","","","","","","","","","","","","","","","feedback_test",""
"","","","","","psychophysics","329","611883","0.0-18.1-0.1-0.33","537","","k","","","","","","","","","","","","","key","k","6.060157480314612","853.3333333333334","476","k","true","img/C_28.png","朋友","prac_stranger","","朋友"
"","","","","","html-keyboard-response","330","612185","0.0-18.1-0.1-1.33","null","<span style='color:GreenYellow; font-size: 70px;'>正确! </span>","null","","","","","","","","","","","","","","","","","","","","","","","feedback_test",""
"","","","","","psychophysics","331","613752","0.0-18.1-0.1-0.34","557","","d","","","","","","","","","","","","","key","d","6.059922178987964","853.3333333333334","476","d","true","img/H_28.png","生人","prac_stranger","","生人"
"","","","","","html-keyboard-response","332","614064","0.0-18.1-0.1-1.34","null","<span style='color:GreenYellow; font-size: 70px;'>正确! </span>","null","","","","","","","","","","","","","","","","","","","","","","","feedback_test",""
"","","","","","psychophysics","333","616092","0.0-18.1-0.1-0.35","1018","","j","","","","","","","","","","","","","key","j","6.06006006006006","853.3333333333334","476","j","true","img/C_28.png","自我","prac_stranger","","朋友"
"","","","","","html-keyboard-response","334","616405","0.0-18.1-0.1-1.35","null","<span style='color:GreenYellow; font-size: 70px;'>正确! </span>","null","","","","","","","","","","","","","","","","","","","","","","","feedback_test",""
"","","","","","psychophysics","335","618031","0.0-18.1-0.1-0.36","611","","d","","","","","","","","","","","","","key","d","6.05955056179784","853.3333333333334","476","d","true","img/H_28.png","生人","prac_stranger","","生人"
"","","","","","html-keyboard-response","336","618337","0.0-18.1-0.1-1.36","null","<span style='color:GreenYellow; font-size: 70px;'>正确! </span>","null","","","","","","","","","","","","","","","","","","","","","","","feedback_test",""
"","","","","","psychophysics","337","620179","0.0-18.1-0.1-0.37","834","","k","","","","","","","","","","","","","key","k","6.059801980198005","853.3333333333334","476","k","true","img/C_28.png","朋友","prac_stranger","","朋友"
"","","","","","html-keyboard-response","338","620493","0.0-18.1-0.1-1.37","null","<span style='color:GreenYellow; font-size: 70px;'>正确! </span>","null","","","","","","","","","","","","","","","","","","","","","","","feedback_test",""
"","","","","","psychophysics","339","622194","0.0-18.1-0.1-0.38","688","","d","","","","","","","","","","","","","key","d","6.060143369175727","853.3333333333334","476","d","true","img/H_28.png","生人","prac_stranger","","生人"
"","","","","","html-keyboard-response","340","622495","0.0-18.1-0.1-1.38","null","<span style='color:GreenYellow; font-size: 70px;'>正确! </span>","null","","","","","","","","","","","","","","","","","","","","","","","feedback_test",""
"","","","","","psychophysics","341","624223","0.0-18.1-0.1-0.39","720","","j","","","","","","","","","","","","","key","j","6.060070422534998","853.3333333333334","476","j","true","img/C_28.png","生人","prac_stranger","","朋友"
"","","","","","html-keyboard-response","342","624524","0.0-18.1-0.1-1.39","null","<span style='color:GreenYellow; font-size: 70px;'>正确! </span>","null","","","","","","","","","","","","","","","","","","","","","","","feedback_test",""
"","","","","","psychophysics","343","626643","0.0-18.1-0.1-0.40","1107","","j","","","","","","","","","","","","","key","j","6.060000000000014","853.3333333333334","476","j","true","img/S_28.png","生人","prac_stranger","","自我"
"","","","","","html-keyboard-response","344","626949","0.0-18.1-0.1-1.40","null","<span style='color:GreenYellow; font-size: 70px;'>正确! </span>","null","","","","","","","","","","","","","","","","","","","","","","","feedback_test",""
"","","","","","psychophysics","345","628875","0.0-18.1-0.1-0.41","912","","k","","","","","","","","","","","","","key","k","6.060063091482768","853.3333333333334","476","k","true","img/C_28.png","朋友","prac_stranger","","朋友"
"","","","","","html-keyboard-response","346","629190","0.0-18.1-0.1-1.41","null","<span style='color:GreenYellow; font-size: 70px;'>正确! </span>","null","","","","","","","","","","","","","","","","","","","","","","","feedback_test",""
"","","","","","psychophysics","347","631095","0.0-18.1-0.1-0.42","899","","j","","","","","","","","","","","","","key","j","6.060063897763727","853.3333333333334","476","j","true","img/S_28.png","朋友","prac_stranger","","自我"
"","","","","","html-keyboard-response","348","631401","0.0-18.1-0.1-1.42","null","<span style='color:GreenYellow; font-size: 70px;'>正确! </span>","null","","","","","","","","","","","","","","","","","","","","","","","feedback_test",""
"","","","","","psychophysics","349","633427","0.0-18.1-0.1-0.43","1016","","j","","","","","","","","","","","","","key","j","6.06006006006006","853.3333333333334","476","j","true","img/C_28.png","自我","prac_stranger","","朋友"
"","","","","","html-keyboard-response","350","633732","0.0-18.1-0.1-1.43","null","<span style='color:GreenYellow; font-size: 70px;'>正确! </span>","null","","","","","","","","","","","","","","","","","","","","","","","feedback_test",""
"","","","","","psychophysics","351","635755","0.0-18.1-0.1-0.44","1009","","d","","","","","","","","","","","","","key","d","6.060120120120176","853.3333333333334","476","f","false","img/H_28.png","自我","prac_stranger","","生人"
"","","","","","html-keyboard-response","352","636065","0.0-18.1-0.1-1.44","null","<span style='color:red; font-size: 70px;'>错误! </span>","null","","","","","","","","","","","","","","","","","","","","","","","feedback_test",""
"","","","","","psychophysics","353","637812","0.0-18.1-0.1-0.45","733","","k","","","","","","","","","","","","","key","k","6.060069686411523","853.3333333333334","476","k","true","img/S_28.png","自我","prac_stranger","","自我"
"","","","","","html-keyboard-response","354","638116","0.0-18.1-0.1-1.45","null","<span style='color:GreenYellow; font-size: 70px;'>正确! </span>","null","","","","","","","","","","","","","","","","","","","","","","","feedback_test",""
"","","","","","psychophysics","355","639956","0.0-18.1-0.1-0.46","836","","k","","","","","","","","","","","","","key","k","6.060132013201228","853.3333333333334","476","k","true","img/S_28.png","自我","prac_stranger","","自我"
"","","","","","html-keyboard-response","356","640265","0.0-18.1-0.1-1.46","null","<span style='color:GreenYellow; font-size: 70px;'>正确! </span>","null","","","","","","","","","","","","","","","","","","","","","","","feedback_test",""
"","","","","","psychophysics","357","642363","0.0-18.1-0.1-0.47","1088","","f","","","","","","","","","","","","","key","f","6.0601159420289585","853.3333333333334","476","f","true","img/H_28.png","朋友","prac_stranger","","生人"
"","","","","","html-keyboard-response","358","642670","0.0-18.1-0.1-1.47","null","<span style='color:GreenYellow; font-size: 70px;'>正确! </span>","null","","","","","","","","","","","","","","","","","","","","","","","feedback_test",""
"","","","","","html-keyboard-response","359","646223","0.0-18.1-1.1-0.1","3552","<style>.context{color:white; font-size: 35px; line-height:40px}</style>                           <div><p class='context'>您正确回答了63% 的试次。</p><p class='context'>您的平均反应时为813毫秒。</p>"," ","","","","","","","","","","","","","","","","","","","","","","","",""
"","","","","","instructions","360","651626","0.0-18.1-1.1-1.1","5403","","","","","","","","","","","","","","[{""page_index"":0,""viewing_time"":1190},{""page_index"":1,""viewing_time"":3017},{""page_index"":2,""viewing_time"":1196}]","","","","","","","","","","","",""
"","","","","","psychophysics","361","654131","0.0-18.2-0.2-0.48","null","","null","","","","","","","","","","","","","key","null","6.060097087378381","853.3333333333334","476","j","false","img/S_28.png","朋友","prac_stranger","","自我"
"","","","","","html-keyboard-response","362","654437","0.0-18.2-0.2-1.48","null","<span class='add_' style='color:yellow; font-size: 70px;'> 太慢! </span>","null","","","","","","","","","","","","","","","","","","","","","","","feedback_test",""
"","","","","","psychophysics","363","656942","0.0-18.2-0.2-0.49","null","","null","","","","","","","","","","","","","key","null","6.104547677261636","853.3333333333334","476","j","false","img/C_28.png","生人","prac_stranger","","朋友"
"","","","","","html-keyboard-response","364","657256","0.0-18.2-0.2-1.49","null","<span class='add_' style='color:yellow; font-size: 70px;'> 太慢! </span>","null","","","","","","","","","","","","","","","","","","","","","","","feedback_test",""
"","","","","","psychophysics","365","659144","0.0-18.2-0.2-0.50","885","","d","","","","","","","","","","","","","key","d","6.060064516129017","853.3333333333334","476","d","true","img/H_28.png","生人","prac_stranger","","生人"
"","","","","","html-keyboard-response","366","659460","0.0-18.2-0.2-1.50","null","<span style='color:GreenYellow; font-size: 70px;'>正确! </span>","null","","","","","","","","","","","","","","","","","","","","","","","feedback_test",""
"","","","","","psychophysics","367","661499","0.0-18.2-0.2-0.51","1033","","k","","","","","","","","","","","","","key","k","6.0601190476192555","853.3333333333334","476","k","true","img/S_28.png","自我","prac_stranger","","自我"
"","","","","","html-keyboard-response","368","661806","0.0-18.2-0.2-1.51","null","<span style='color:GreenYellow; font-size: 70px;'>正确! </span>","null","","","","","","","","","","","","","","","","","","","","","","","feedback_test",""
"","","","","","psychophysics","369","663419","0.0-18.2-0.2-0.52","606","","j","","","","","","","","","","","","","key","j","6.059696969697005","853.3333333333334","476","j","true","img/C_28.png","自我","prac_stranger","","朋友"
"","","","","","html-keyboard-response","370","663726","0.0-18.2-0.2-1.52","null","<span style='color:GreenYellow; font-size: 70px;'>正确! </span>","null","","","","","","","","","","","","","","","","","","","","","","","feedback_test",""
"","","","","","psychophysics","371","665312","0.0-18.2-0.2-0.53","579","","d","","","","","","","","","","","","","key","d","6.0599230769229155","853.3333333333334","476","f","false","img/H_28.png","自我","prac_stranger","","生人"
"","","","","","html-keyboard-response","372","665625","0.0-18.2-0.2-1.53","null","<span style='color:red; font-size: 70px;'>错误! </span>","null","","","","","","","","","","","","","","","","","","","","","","","feedback_test",""
"","","","","","psychophysics","373","667392","0.0-18.2-0.2-0.54","763","","j","","","","","","","","","","","","","key","j","6.059931034482775","853.3333333333334","476","j","true","img/S_28.png","生人","prac_stranger","","自我"
"","","","","","html-keyboard-response","374","667701","0.0-18.2-0.2-1.54","null","<span style='color:GreenYellow; font-size: 70px;'>正确! </span>","null","","","","","","","","","","","","","","","","","","","","","","","feedback_test",""
"","","","","","psychophysics","375","669887","0.0-18.2-0.2-0.55","1173","","j","","","","","","","","","","","","","key","j","6.059999999999936","853.3333333333334","476","k","false","img/C_28.png","朋友","prac_stranger","","朋友"
"","","","","","html-keyboard-response","376","670202","0.0-18.2-0.2-1.55","null","<span style='color:red; font-size: 70px;'>错误! </span>","null","","","","","","","","","","","","","","","","","","","","","","","feedback_test",""
"","","","","","psychophysics","377","671864","0.0-18.2-0.2-0.56","653","","j","","","","","","","","","","","","","key","j","6.059487179487145","853.3333333333334","476","f","false","img/H_28.png","朋友","prac_stranger","","生人"
"","","","","","html-keyboard-response","378","672178","0.0-18.2-0.2-1.56","null","<span style='color:red; font-size: 70px;'>错误! </span>","null","","","","","","","","","","","","","","","","","","","","","","","feedback_test",""
"","","","","","psychophysics","379","673971","0.0-18.2-0.2-0.57","787","","k","","","","","","","","","","","","","key","k","6.059661016949469","853.3333333333334","476","k","true","img/C_28.png","朋友","prac_stranger","","朋友"
"","","","","","html-keyboard-response","380","674279","0.0-18.2-0.2-1.57","null","<span style='color:GreenYellow; font-size: 70px;'>正确! </span>","null","","","","","","","","","","","","","","","","","","","","","","","feedback_test",""
"","","","","","psychophysics","381","676785","0.0-18.2-0.2-0.58","null","","null","","","","","","","","","","","","","key","null","6.059902912621483","853.3333333333334","476","k","false","img/S_28.png","自我","prac_stranger","","自我"
"","","","","","html-keyboard-response","382","677091","0.0-18.2-0.2-1.58","null","<span class='add_' style='color:yellow; font-size: 70px;'> 太慢! </span>","null","","","","","","","","","","","","","","","","","","","","","","","feedback_test",""
"","","","","","psychophysics","383","678758","0.0-18.2-0.2-0.59","657","","j","","","","","","","","","","","","","key","j","6.05970695970713","853.3333333333334","476","d","false","img/H_28.png","生人","prac_stranger","","生人"
"","","","","","html-keyboard-response","384","679063","0.0-18.2-0.2-1.59","null","<span style='color:red; font-size: 70px;'>错误! </span>","null","","","","","","","","","","","","","","","","","","","","","","","feedback_test",""
"","","","","","psychophysics","385","680787","0.0-18.2-0.2-0.60","717","","k","","","","","","","","","","","","","key","k","6.060070671378092","853.3333333333334","476","f","false","img/H_28.png","自我","prac_stranger","","生人"
"","","","","","html-keyboard-response","386","681094","0.0-18.2-0.2-1.60","null","<span style='color:red; font-size: 70px;'>错误! </span>","null","","","","","","","","","","","","","","","","","","","","","","","feedback_test",""
"","","","","","psychophysics","387","682789","0.0-18.2-0.2-0.61","684","","d","","","","","","","","","","","","","key","d","6.060071942445876","853.3333333333334","476","d","true","img/H_28.png","生人","prac_stranger","","生人"
"","","","","","html-keyboard-response","388","683100","0.0-18.2-0.2-1.61","null","<span style='color:GreenYellow; font-size: 70px;'>正确! </span>","null","","","","","","","","","","","","","","","","","","","","","","","feedback_test",""
"","","","","","psychophysics","389","684520","0.0-18.2-0.2-0.62","408","","d","","","","","","","","","","","","","key","d","6.059828326180518","853.3333333333334","476","f","false","img/H_28.png","朋友","prac_stranger","","生人"
"","","","","","html-keyboard-response","390","684821","0.0-18.2-0.2-1.62","null","<span style='color:red; font-size: 70px;'>错误! </span>","null","","","","","","","","","","","","","","","","","","","","","","","feedback_test",""
"","","","","","psychophysics","391","686463","0.0-18.2-0.2-0.63","636","","j","","","","","","","","","","","","","key","j","6.0597777777773985","853.3333333333334","476","k","false","img/S_28.png","自我","prac_stranger","","自我"
"","","","","","html-keyboard-response","392","686769","0.0-18.2-0.2-1.63","null","<span style='color:red; font-size: 70px;'>错误! </span>","null","","","","","","","","","","","","","","","","","","","","","","","feedback_test",""
"","","","","","psychophysics","393","689249","0.0-18.2-0.2-0.64","1475","","j","","","","","","","","","","","","","key","j","6.060049140049003","853.3333333333334","476","k","false","img/S_28.png","自我","prac_stranger","","自我"
"","","","","","html-keyboard-response","394","689558","0.0-18.2-0.2-1.64","null","<span style='color:red; font-size: 70px;'>错误! </span>","null","","","","","","","","","","","","","","","","","","","","","","","feedback_test",""
"","","","","","psychophysics","395","691366","0.0-18.2-0.2-0.65","802","","k","","","","","","","","","","","","","key","k","6.060067340067622","853.3333333333334","476","j","false","img/S_28.png","生人","prac_stranger","","自我"
"","","","","","html-keyboard-response","396","691679","0.0-18.2-0.2-1.65","null","<span style='color:red; font-size: 70px;'>错误! </span>","null","","","","","","","","","","","","","","","","","","","","","","","feedback_test",""
"","","","","","psychophysics","397","693611","0.0-18.2-0.2-0.66","921","","j","","","","","","","","","","","","","key","j","6.059621451103808","853.3333333333334","476","j","true","img/C_28.png","生人","prac_stranger","","朋友"
"","","","","","html-keyboard-response","398","693913","0.0-18.2-0.2-1.66","null","<span style='color:GreenYellow; font-size: 70px;'>正确! </span>","null","","","","","","","","","","","","","","","","","","","","","","","feedback_test",""
"","","","","","psychophysics","399","695731","0.0-18.2-0.2-0.67","809","","k","","","","","","","","","","","","","key","k","6.060067114094037","853.3333333333334","476","k","true","img/C_28.png","朋友","prac_stranger","","朋友"
"","","","","","html-keyboard-response","400","696038","0.0-18.2-0.2-1.67","null","<span style='color:GreenYellow; font-size: 70px;'>正确! </span>","null","","","","","","","","","","","","","","","","","","","","","","","feedback_test",""
"","","","","","psychophysics","401","697668","0.0-18.2-0.2-0.68","622","","k","","","","","","","","","","","","","key","k","6.06014925373176","853.3333333333334","476","k","true","img/C_28.png","朋友","prac_stranger","","朋友"
"","","","","","html-keyboard-response","402","697975","0.0-18.2-0.2-1.68","null","<span style='color:GreenYellow; font-size: 70px;'>正确! </span>","null","","","","","","","","","","","","","","","","","","","","","","","feedback_test",""
"","","","","","psychophysics","403","699920","0.0-18.2-0.2-0.69","932","","d","","","","","","","","","","","","","key","d","6.060125391849326","853.3333333333334","476","d","true","img/H_28.png","生人","prac_stranger","","生人"
"","","","","","html-keyboard-response","404","700230","0.0-18.2-0.2-1.69","null","<span style='color:GreenYellow; font-size: 70px;'>正确! </span>","null","","","","","","","","","","","","","","","","","","","","","","","feedback_test",""
"","","","","","psychophysics","405","702183","0.0-18.2-0.2-0.70","944","","j","","","","","","","","","","","","","key","j","6.060062305296038","853.3333333333334","476","j","true","img/C_28.png","自我","prac_stranger","","朋友"
"","","","","","html-keyboard-response","406","702493","0.0-18.2-0.2-1.70","null","<span style='color:GreenYellow; font-size: 70px;'>正确! </span>","null","","","","","","","","","","","","","","","","","","","","","","","feedback_test",""
"","","","","","psychophysics","407","704339","0.0-18.2-0.2-0.71","834","","j","","","","","","","","","","","","","key","j","6.060066006600507","853.3333333333334","476","j","true","img/S_28.png","朋友","prac_stranger","","自我"
"","","","","","html-keyboard-response","408","704651","0.0-18.2-0.2-1.71","null","<span style='color:GreenYellow; font-size: 70px;'>正确! </span>","null","","","","","","","","","","","","","","","","","","","","","","","feedback_test",""
"","","","","","html-keyboard-response","409","705344","0.0-18.2-1.2-0.2","691","<style>.context{color:white; font-size: 35px; line-height:40px}</style>                           <div><p class='context'>您正确回答了50% 的试次。</p><p class='context'>您的平均反应时为818毫秒。</p>","j","","","","","","","","","","","","","","","","","","","","","","","",""
"","","","","","instructions","410","710734","0.0-18.2-1.2-1.2","5390","","","","","","","","","","","","","","[{""page_index"":0,""viewing_time"":1620},{""page_index"":1,""viewing_time"":2809},{""page_index"":2,""viewing_time"":961}]","","","","","","","","","","","",""
"","","","","","psychophysics","411","712507","0.0-18.3-0.3-0.72","765","","j","","","","","","","","","","","","","key","j","6.060068728522273","853.3333333333334","476","k","false","img/S_28.png","自我","prac_stranger","","自我"
"","","","","","html-keyboard-response","412","712823","0.0-18.3-0.3-1.72","null","<span style='color:red; font-size: 70px;'>错误! </span>","null","","","","","","","","","","","","","","","","","","","","","","","feedback_test",""
