"success","timeout","failed_images","failed_audio","failed_video","trial_type","trial_index","time_elapsed","internal_node_id","rt","stimulus","response","value","item_width_mm","item_height_mm","item_width_px","px2mm","view_dist_mm","item_width_deg","px2deg","scale_factor","win_width_deg","win_height_deg","view_history","response_type","key_press","avg_frame_time","center_x","center_y","correct_response","correct","Image","text","condition","screen_id","label"
"true","false","[]","[]","[]","preload","0","1555","0.0-0.0","","","","","","","","","","","","","","","","","","","","","","","","","","",""
"","","","","","html-keyboard-response","1","55677","0.0-1.0","54121","
  <p>您好，欢迎参加本次实验。</p>
  <p>为充分保障您的权利，请确保您已经知晓并同意《参与实验同意书》以及《数据公开知情同意书》。</p>
  <p>如果您未见过上述内容，请咨询实验员。</p>
  <p>如果您选择继续实验，则表示您已经清楚两份知情同意书的内容并同意。</p>
  <p> <div style = ""color: green""><按任意键至下页></div> </p>
  ","arrowdown","","","","","","","","","","","","","","","","","","","","","","","",""
"","","","","","html-keyboard-response","2","57533","0.0-2.0","1856","
  <p>本实验首先需要您填写一些基本个人信息。</p>
  <p> <div style = ""color: green""><按任意键至下页></div></p>
  ","arrowdown","","","","","","","","","","","","","","","","","","","","","","","",""
"","","","","","call-function","3","57534","0.0-3.0-0.0","","","","","","","","","","","","","","","","","","","","","","","","","","",""
"","","","","","survey-html-form","4","62165","0.0-3.0-1.0","4629","","{""Q0"":""15""}","","","","","","","","","","","","","","","","","","","","","","","",""
"","","","","","html-button-response","5","63589","0.0-3.0-2.0","1423","<p style = 'color : white'>您的性别</p>","0","","","","","","","","","","","","","","","","","","","","","","","",""
"","","","","","survey-html-form","6","68118","0.0-3.0-3.0","4528","","{""Q0"":""2001""}","","","","","","","","","","","","","","","","","","","","","","","",""
"","","","","","survey-html-form","7","71902","0.0-3.0-4.0","3783","","{""Q0"":""5""}","","","","","","","","","","","","","","","","","","","","","","","",""
"","","","","","virtual-chinrest","8","204044","0.0-4.0","132140","","","","85.6","53.98","401.98911636916057","4.69198653175361","609.03","8.039782327383211","50","0.7885785636765545","38.4","19.22","","","","","","","","","","","","",""
"true","","","","","fullscreen","9","207204","0.0-5.0","","","","","","","","","","","","","","","","","","","","","","","","","","",""
"","","","","","instructions","10","288676","0.0-6.0","81471","","","","","","","","","","","","","","[{""page_index"":0,""viewing_time"":6048},{""page_index"":1,""viewing_time"":12953},{""page_index"":2,""viewing_time"":33668},{""page_index"":3,""viewing_time"":7785},{""page_index"":2,""viewing_time"":2472},{""page_index"":3,""viewing_time"":1320},{""page_index"":4,""viewing_time"":6897},{""page_index"":3,""viewing_time"":584},{""page_index"":2,""viewing_time"":4961},{""page_index"":3,""viewing_time"":1800},{""page_index"":4,""viewing_time"":2984}]","","","","","","","","","","","",""
"","","","","","instructions","11","307013","0.0-7.0","18337","","","","","","","","","","","","","","[{""page_index"":0,""viewing_time"":18337}]","","","","","","","","","","","",""
"","","","","","psychophysics","12","319864","0.0-8.0-0.0-0.0","11843","","j","","","","","","","","","","","","","key","j","16.66639531859556","960","536","j","true","img/C_28.png","生人","freeprac_self","",""
"","","","","","html-keyboard-response","13","320168","0.0-8.0-0.0-1.0","null","<span style='color:GreenYellow; font-size: 70px;'>正确! </span>","null","","","","","","","","","","","","","","","","","","","","","","","feedback_test",""
"","","","","","psychophysics","14","330081","0.0-8.0-0.0-0.1","8911","","j","","","","","","","","","","","","","key","j","16.666444444444473","960","536","j","true","img/H_28.png","朋友","freeprac_self","",""
"","","","","","html-keyboard-response","15","330389","0.0-8.0-0.0-1.1","null","<span style='color:GreenYellow; font-size: 70px;'>正确! </span>","null","","","","","","","","","","","","","","","","","","","","","","","feedback_test",""
"","","","","","psychophysics","16","339211","0.0-8.0-0.0-0.2","7812","","k","","","","","","","","","","","","","key","k","16.66613068181819","960","536","k","true","img/H_28.png","生人","freeprac_self","",""
"","","","","","html-keyboard-response","17","339518","0.0-8.0-0.0-1.2","null","<span style='color:GreenYellow; font-size: 70px;'>正确! </span>","null","","","","","","","","","","","","","","","","","","","","","","","feedback_test",""
"","","","","","psychophysics","18","345595","0.0-8.0-0.0-0.3","5076","","k","","","","","","","","","","","","","key","k","16.666313186813188","960","536","d","false","img/S_28.png","朋友","freeprac_self","",""
"","","","","","html-keyboard-response","19","345902","0.0-8.0-0.0-1.3","null","<span style='color:red; font-size: 70px;'>错误! </span>","null","","","","","","","","","","","","","","","","","","","","","","","feedback_test",""
"","","","","","psychophysics","20","351536","0.0-8.0-0.0-0.4","4633","","f","","","","","","","","","","","","","key","f","16.666220238095168","960","536","k","false","img/H_28.png","自我","freeprac_self","",""
"","","","","","html-keyboard-response","21","351840","0.0-8.0-0.0-1.4","null","<span style='color:red; font-size: 70px;'>错误! </span>","null","","","","","","","","","","","","","","","","","","","","","","","feedback_test",""
"","","","","","psychophysics","22","357321","0.0-8.0-0.0-0.5","4471","","k","","","","","","","","","","","","","key","k","16.66577743902439","960","536","d","false","img/S_28.png","生人","freeprac_self","",""
"","","","","","html-keyboard-response","23","357629","0.0-8.0-0.0-1.5","null","<span style='color:red; font-size: 70px;'>错误! </span>","null","","","","","","","","","","","","","","","","","","","","","","","feedback_test",""
"","","","","","psychophysics","24","359831","0.0-8.0-0.0-0.6","1196","","k","","","","","","","","","","","","","key","k","16.666099236641376","960","536","k","true","img/C_28.png","自我","freeprac_self","",""
"","","","","","html-keyboard-response","25","360137","0.0-8.0-0.0-1.6","null","<span style='color:GreenYellow; font-size: 70px;'>正确! </span>","null","","","","","","","","","","","","","","","","","","","","","","","feedback_test",""
"","","","","","psychophysics","26","364365","0.0-8.0-0.0-0.7","3222","","d","","","","","","","","","","","","","key","d","16.666210317460354","960","536","j","false","img/C_28.png","生人","freeprac_self","",""
"","","","","","html-keyboard-response","27","364679","0.0-8.0-0.0-1.7","null","<span style='color:red; font-size: 70px;'>错误! </span>","null","","","","","","","","","","","","","","","","","","","","","","","feedback_test",""
"","","","","","psychophysics","28","370229","0.0-8.0-0.0-0.8","4544","","j","","","","","","","","","","","","","key","j","16.666213855421745","960","536","j","true","img/H_28.png","朋友","freeprac_self","",""
"","","","","","html-keyboard-response","29","370541","0.0-8.0-0.0-1.8","null","<span style='color:GreenYellow; font-size: 70px;'>正确! </span>","null","","","","","","","","","","","","","","","","","","","","","","","feedback_test",""
"","","","","","psychophysics","30","375693","0.0-8.0-0.0-0.9","4142","","f","","","","","","","","","","","","","key","f","16.66606168831168","960","536","f","true","img/S_28.png","自我","freeprac_self","",""
"","","","","","html-keyboard-response","31","376008","0.0-8.0-0.0-1.9","null","<span style='color:GreenYellow; font-size: 70px;'>正确! </span>","null","","","","","","","","","","","","","","","","","","","","","","","feedback_test",""
"","","","","","psychophysics","32","379524","0.0-8.0-0.0-0.10","2509","","f","","","","","","","","","","","","","key","f","16.66610476190468","960","536","f","true","img/S_28.png","自我","freeprac_self","",""
"","","","","","html-keyboard-response","33","379829","0.0-8.0-0.0-1.10","null","<span style='color:GreenYellow; font-size: 70px;'>正确! </span>","null","","","","","","","","","","","","","","","","","","","","","","","feedback_test",""
"","","","","","psychophysics","34","385209","0.0-8.0-0.0-0.11","4375","","k","","","","","","","","","","","","","key","k","16.6662732919254","960","536","k","true","img/C_28.png","朋友","freeprac_self","",""
"","","","","","html-keyboard-response","35","385510","0.0-8.0-0.0-1.11","null","<span style='color:GreenYellow; font-size: 70px;'>正确! </span>","null","","","","","","","","","","","","","","","","","","","","","","","feedback_test",""
"","","","","","html-keyboard-response","36","399561","0.0-8.0-1.0-0.0","14050","<style>.context{color:white; font-size: 35px; line-height:40px}</style>                           <div><p class='context'>您正确回答了67% 的试次。</p><p class='context'>您的平均反应时为5667毫秒。</p>","j","","","","","","","","","","","","","","","","","","","","","","","",""
"","","","","","instructions","37","433458","0.0-8.0-1.0-1.0","33895","","","","","","","","","","","","","","[{""page_index"":0,""viewing_time"":3301},{""page_index"":1,""viewing_time"":26762},{""page_index"":2,""viewing_time"":3833}]","","","","","","","","","","","",""
"","","","","","psychophysics","38","439088","0.0-8.1-0.1-0.12","4623","","k","","","","","","","","","","","","","key","k","16.665762611276033","960","536","j","false","img/C_28.png","生人","freeprac_self","",""
"","","","","","html-keyboard-response","39","439392","0.0-8.1-0.1-1.12","null","<span style='color:red; font-size: 70px;'>错误! </span>","null","","","","","","","","","","","","","","","","","","","","","","","feedback_test",""
"","","","","","psychophysics","40","445973","0.0-8.1-0.1-0.13","5573","","f","","","","","","","","","","","","","key","f","16.66625380710664","960","536","f","true","img/S_28.png","自我","freeprac_self","",""
"","","","","","html-keyboard-response","41","446285","0.0-8.1-0.1-1.13","null","<span style='color:GreenYellow; font-size: 70px;'>正确! </span>","null","","","","","","","","","","","","","","","","","","","","","","","feedback_test",""
"","","","","","psychophysics","42","452213","0.0-8.1-0.1-0.14","4923","","d","","","","","","","","","","","","","key","d","16.666228813559243","960","536","k","false","img/H_28.png","自我","freeprac_self","",""
"","","","","","html-keyboard-response","43","452517","0.0-8.1-0.1-1.14","null","<span style='color:red; font-size: 70px;'>错误! </span>","null","","","","","","","","","","","","","","","","","","","","","","","feedback_test",""
"","","","","","psychophysics","44","456491","0.0-8.1-0.1-0.15","2962","","k","","","","","","","","","","","","","key","k","16.6655443037977","960","536","k","true","img/H_28.png","生人","freeprac_self","",""
"","","","","","html-keyboard-response","45","456799","0.0-8.1-0.1-1.15","null","<span style='color:GreenYellow; font-size: 70px;'>正确! </span>","null","","","","","","","","","","","","","","","","","","","","","","","feedback_test",""
"","","","","","psychophysics","46","461548","0.0-8.1-0.1-0.16","3749","","j","","","","","","","","","","","","","key","j","16.66565724381644","960","536","j","true","img/H_28.png","朋友","freeprac_self","",""
"","","","","","html-keyboard-response","47","461851","0.0-8.1-0.1-1.16","null","<span style='color:GreenYellow; font-size: 70px;'>正确! </span>","null","","","","","","","","","","","","","","","","","","","","","","","feedback_test",""
"","","","","","psychophysics","48","467052","0.0-8.1-0.1-0.17","4189","","d","","","","","","","","","","","","","key","d","16.666209003215407","960","536","k","false","img/C_28.png","自我","freeprac_self","",""
"","","","","","html-keyboard-response","49","467359","0.0-8.1-0.1-1.17","null","<span style='color:red; font-size: 70px;'>错误! </span>","null","","","","","","","","","","","","","","","","","","","","","","","feedback_test",""
"","","","","","psychophysics","50","473365","0.0-8.1-0.1-0.18","4999","","j","","","","","","","","","","","","","key","j","16.665821727019413","960","536","j","true","img/C_28.png","生人","freeprac_self","",""
"","","","","","html-keyboard-response","51","473674","0.0-8.1-0.1-1.18","null","<span style='color:GreenYellow; font-size: 70px;'>正确! </span>","null","","","","","","","","","","","","","","","","","","","","","","","feedback_test",""
"","","","","","psychophysics","52","477057","0.0-8.1-0.1-0.19","2381","","f","","","","","","","","","","","","","key","f","16.66641089108906","960","536","f","true","img/S_28.png","自我","freeprac_self","",""
"","","","","","html-keyboard-response","53","477366","0.0-8.1-0.1-1.19","null","<span style='color:GreenYellow; font-size: 70px;'>正确! </span>","null","","","","","","","","","","","","","","","","","","","","","","","feedback_test",""
"","","","","","psychophysics","54","483085","0.0-8.1-0.1-0.20","4709","","j","","","","","","","","","","","","","key","j","16.666590643274816","960","536","j","true","img/H_28.png","朋友","freeprac_self","",""
"","","","","","html-keyboard-response","55","483388","0.0-8.1-0.1-1.20","null","<span style='color:GreenYellow; font-size: 70px;'>正确! </span>","null","","","","","","","","","","","","","","","","","","","","","","","feedback_test",""
"","","","","","psychophysics","56","488124","0.0-8.1-0.1-0.21","3725","","k","","","","","","","","","","","","","key","k","16.666038869257957","960","536","k","true","img/C_28.png","朋友","freeprac_self","",""
"","","","","","html-keyboard-response","57","488432","0.0-8.1-0.1-1.21","null","<span style='color:GreenYellow; font-size: 70px;'>正确! </span>","null","","","","","","","","","","","","","","","","","","","","","","","feedback_test",""
"","","","","","psychophysics","58","494235","0.0-8.1-0.1-0.22","4790","","k","","","","","","","","","","","","","key","k","16.66570317002885","960","536","d","false","img/S_28.png","生人","freeprac_self","",""
"","","","","","html-keyboard-response","59","494550","0.0-8.1-0.1-1.22","null","<span style='color:red; font-size: 70px;'>错误! </span>","null","","","","","","","","","","","","","","","","","","","","","","","feedback_test",""
"","","","","","psychophysics","60","499768","0.0-8.1-0.1-0.23","4211","","d","","","","","","","","","","","","","key","d","16.66650641025645","960","536","d","true","img/S_28.png","朋友","freeprac_self","",""
"","","","","","html-keyboard-response","61","500079","0.0-8.1-0.1-1.23","null","<span style='color:GreenYellow; font-size: 70px;'>正确! </span>","null","","","","","","","","","","","","","","","","","","","","","","","feedback_test",""
"","","","","","html-keyboard-response","62","504809","0.0-8.1-1.1-0.1","4729","<style>.context{color:white; font-size: 35px; line-height:40px}</style>                           <div><p class='context'>您正确回答了67% 的试次。</p><p class='context'>您的平均反应时为4039毫秒。</p>","k","","","","","","","","","","","","","","","","","","","","","","","",""
"","","","","","instructions","63","521051","0.0-8.1-1.1-1.1","16240","","","","","","","","","","","","","","[{""page_index"":0,""viewing_time"":2342},{""page_index"":1,""viewing_time"":11897},{""page_index"":2,""viewing_time"":2000}]","","","","","","","","","","","",""
"","","","","","psychophysics","64","524311","0.0-8.2-0.2-0.24","2252","","f","","","","","","","","","","","","","key","f","16.66523195876255","960","536","f","true","img/S_28.png","自我","freeprac_self","",""
"","","","","","html-keyboard-response","65","524622","0.0-8.2-0.2-1.24","null","<span style='color:GreenYellow; font-size: 70px;'>正确! </span>","null","","","","","","","","","","","","","","","","","","","","","","","feedback_test",""
"","","","","","psychophysics","66","530609","0.0-8.2-0.2-0.25","4979","","k","","","","","","","","","","","","","key","k","16.666125698324016","960","536","k","true","img/H_28.png","生人","freeprac_self","",""
"","","","","","html-keyboard-response","67","530912","0.0-8.2-0.2-1.25","null","<span style='color:GreenYellow; font-size: 70px;'>正确! </span>","null","","","","","","","","","","","","","","","","","","","","","","","feedback_test",""
"","","","","","psychophysics","68","534344","0.0-8.2-0.2-0.26","2429","","k","","","","","","","","","","","","","key","k","16.607068627450715","960","536","k","true","img/C_28.png","朋友","freeprac_self","",""
"","","","","","html-keyboard-response","69","534658","0.0-8.2-0.2-1.26","null","<span style='color:GreenYellow; font-size: 70px;'>正确! </span>","null","","","","","","","","","","","","","","","","","","","","","","","feedback_test",""
"","","","","","psychophysics","70","537305","0.0-8.2-0.2-0.27","1642","","k","","","","","","","","","","","","","key","k","16.66720886075946","960","536","j","false","img/C_28.png","生人","freeprac_self","",""
"","","","","","html-keyboard-response","71","537614","0.0-8.2-0.2-1.27","null","<span style='color:red; font-size: 70px;'>错误! </span>","null","","","","","","","","","","","","","","","","","","","","","","","feedback_test",""
"","","","","","psychophysics","72","544695","0.0-8.2-0.2-0.28","6081","","d","","","","","","","","","","","","","key","d","16.666170212766044","960","536","k","false","img/H_28.png","自我","freeprac_self","",""
"","","","","","html-keyboard-response","73","544997","0.0-8.2-0.2-1.28","null","<span style='color:red; font-size: 70px;'>错误! </span>","null","","","","","","","","","","","","","","","","","","","","","","","feedback_test",""
"","","","","","psychophysics","74","553745","0.0-8.2-0.2-0.29","7747","","j","","","","","","","","","","","","","key","j","16.666179732313598","960","536","j","true","img/H_28.png","朋友","freeprac_self","",""
"","","","","","html-keyboard-response","75","554057","0.0-8.2-0.2-1.29","null","<span style='color:GreenYellow; font-size: 70px;'>正确! </span>","null","","","","","","","","","","","","","","","","","","","","","","","feedback_test",""
"","","","","","psychophysics","76","558156","0.0-8.2-0.2-0.30","3092","","d","","","","","","","","","","","","","key","d","16.66608571428568","960","536","d","true","img/S_28.png","生人","freeprac_self","",""
"","","","","","html-keyboard-response","77","558461","0.0-8.2-0.2-1.30","null","<span style='color:GreenYellow; font-size: 70px;'>正确! </span>","null","","","","","","","","","","","","","","","","","","","","","","","feedback_test",""
"","","","","","psychophysics","78","561199","0.0-8.2-0.2-0.31","1736","","k","","","","","","","","","","","","","key","k","16.666146341463545","960","536","j","false","img/C_28.png","生人","freeprac_self","",""
"","","","","","html-keyboard-response","79","561501","0.0-8.2-0.2-1.31","null","<span style='color:red; font-size: 70px;'>错误! </span>","null","","","","","","","","","","","","","","","","","","","","","","","feedback_test",""
"","","","","","psychophysics","80","565939","0.0-8.2-0.2-0.32","3427","","f","","","","","","","","","","","","","key","f","16.666196226415153","960","536","f","true","img/S_28.png","自我","freeprac_self","",""
"","","","","","html-keyboard-response","81","566244","0.0-8.2-0.2-1.32","null","<span style='color:GreenYellow; font-size: 70px;'>正确! </span>","null","","","","","","","","","","","","","","","","","","","","","","","feedback_test",""
"","","","","","psychophysics","82","571759","0.0-8.2-0.2-0.33","4513","","j","","","","","","","","","","","","","key","j","16.66609090909108","960","536","j","true","img/H_28.png","朋友","freeprac_self","",""
"","","","","","html-keyboard-response","83","572070","0.0-8.2-0.2-1.33","null","<span style='color:GreenYellow; font-size: 70px;'>正确! </span>","null","","","","","","","","","","","","","","","","","","","","","","","feedback_test",""
"","","","","","psychophysics","84","575508","0.0-8.2-0.2-0.34","2429","","k","","","","","","","","","","","","","key","k","16.666346341463534","960","536","k","true","img/C_28.png","自我","freeprac_self","",""
"","","","","","html-keyboard-response","85","575815","0.0-8.2-0.2-1.34","null","<span style='color:GreenYellow; font-size: 70px;'>正确! </span>","null","","","","","","","","","","","","","","","","","","","","","","","feedback_test",""
"","","","","","psychophysics","86","580556","0.0-8.2-0.2-0.35","3730","","d","","","","","","","","","","","","","key","d","16.666049469964555","960","536","d","true","img/S_28.png","朋友","freeprac_self","",""
"","","","","","html-keyboard-response","87","580865","0.0-8.2-0.2-1.35","null","<span style='color:GreenYellow; font-size: 70px;'>正确! </span>","null","","","","","","","","","","","","","","","","","","","","","","","feedback_test",""
"","","","","","html-keyboard-response","88","597476","0.0-9.0","16609","[""<style>.context{color:white; font-size: 35px; line-height:40px}</style>           <div><p class='context'>您正确回答了75% 的试次。</p><p class='context'>您的平均反应时为3844毫秒。</p><p class='context'>恭喜您完成这一阶段的练习。按任意键进入<span style='color: yellow;'>重点关注图形为“朋友”</span>的练习。</p></div><p class='footer' style='font-size:35px; line-height:30px;'>任务要求：\n           <p class='footer' style='font-size:35px; line-height:35px;'>对于与“朋友”对应的图形：如果 匹配 ，请按 <span style=\""color: lightgreen;\"">f键</span></p><p class='footer' style='font-size:35px'>如果 不匹配 ，请按<span style=\""color: lightgreen;\"">d键</p></span>\n           <p class='footer' style='font-size:35px; line-height:35px;'>对于非“朋友”对应的图形：如果 匹配 ，请按 <span style=\""color: lightgreen;\"">j键</span></p><p class='footer' style='font-size:35px'>如果 不匹配 ，请按<span style=\""color: lightgreen;\"">k键</p></span>\n           <p class='footer' style='font-size:22px; line-height:25px;'>请在实验过程中将您的<span style=\""color: lightgreen;\"">食指和中指</span>放在电脑键盘的相应键位上进行按键。</p></span>""]","j","","","","","","","","","","","","","","","","","","","","","","","",""
"","","","","","psychophysics","89","602796","0.0-10.0-0.0-0.0","4305","","j","","","","","","","","","","","","","key","j","16.66610658307214","960","536","j","true","img/S_28.png","自我","freeprac_friend","",""
"","","","","","html-keyboard-response","90","603112","0.0-10.0-0.0-1.0","null","<span style='color:GreenYellow; font-size: 70px;'>正确! </span>","null","","","","","","","","","","","","","","","","","","","","","","","feedback_test",""
"","","","","","psychophysics","91","606109","0.0-10.0-0.0-0.1","1985","","f","","","","","","","","","","","","","key","f","16.66615730337079","960","536","f","true","img/H_28.png","朋友","freeprac_friend","",""
"","","","","","html-keyboard-response","92","606415","0.0-10.0-0.0-1.1","null","<span style='color:GreenYellow; font-size: 70px;'>正确! </span>","null","","","","","","","","","","","","","","","","","","","","","","","feedback_test",""
"","","","","","psychophysics","93","608510","0.0-10.0-0.0-0.2","1082","","k","","","","","","","","","","","","","key","k","16.666983870967787","960","536","k","true","img/C_28.png","自我","freeprac_friend","",""
"","","","","","html-keyboard-response","94","608819","0.0-10.0-0.0-1.2","null","<span style='color:GreenYellow; font-size: 70px;'>正确! </span>","null","","","","","","","","","","","","","","","","","","","","","","","feedback_test",""
"","","","","","psychophysics","95","611683","0.0-10.0-0.0-0.3","1859","","k","","","","","","","","","","","","","key","k","16.66616959064349","960","536","k","true","img/S_28.png","生人","freeprac_friend","",""
"","","","","","html-keyboard-response","96","611988","0.0-10.0-0.0-1.3","null","<span style='color:GreenYellow; font-size: 70px;'>正确! </span>","null","","","","","","","","","","","","","","","","","","","","","","","feedback_test",""
"","","","","","psychophysics","97","615160","0.0-10.0-0.0-0.4","2166","","j","","","","","","","","","","","","","key","j","16.66616931216971","960","536","j","true","img/C_28.png","生人","freeprac_friend","",""
"","","","","","html-keyboard-response","98","615462","0.0-10.0-0.0-1.4","null","<span style='color:GreenYellow; font-size: 70px;'>正确! </span>","null","","","","","","","","","","","","","","","","","","","","","","","feedback_test",""
"","","","","","psychophysics","99","618363","0.0-10.0-0.0-0.5","1899","","k","","","","","","","","","","","","","key","k","16.665184971098547","960","536","d","false","img/H_28.png","自我","freeprac_friend","",""
"","","","","","html-keyboard-response","100","618675","0.0-10.0-0.0-1.5","null","<span style='color:red; font-size: 70px;'>错误! </span>","null","","","","","","","","","","","","","","","","","","","","","","","feedback_test",""
"","","","","","psychophysics","101","621841","0.0-10.0-0.0-0.6","2164","","k","","","","","","","","","","","","","key","k","16.665449735449833","960","536","d","false","img/H_28.png","生人","freeprac_friend","",""
"","","","","","html-keyboard-response","102","622152","0.0-10.0-0.0-1.6","null","<span style='color:red; font-size: 70px;'>错误! </span>","null","","","","","","","","","","","","","","","","","","","","","","","feedback_test",""
"","","","","","psychophysics","103","625255","0.0-10.0-0.0-0.7","2094","","j","","","","","","","","","","","","","key","j","16.66695675675669","960","536","j","true","img/S_28.png","自我","freeprac_friend","",""
"","","","","","html-keyboard-response","104","625560","0.0-10.0-0.0-1.7","null","<span style='color:GreenYellow; font-size: 70px;'>正确! </span>","null","","","","","","","","","","","","","","","","","","","","","","","feedback_test",""
"","","","","","psychophysics","105","631697","0.0-10.0-0.0-0.8","5137","","k","","","","","","","","","","","","","key","k","16.66615803814709","960","536","k","true","img/S_28.png","朋友","freeprac_friend","",""
"","","","","","html-keyboard-response","106","632010","0.0-10.0-0.0-1.8","null","<span style='color:GreenYellow; font-size: 70px;'>正确! </span>","null","","","","","","","","","","","","","","","","","","","","","","","feedback_test",""
"","","","","","psychophysics","107","635198","0.0-10.0-0.0-0.9","2180","","k","","","","","","","","","","","","","key","k","16.666221052631247","960","536","k","true","img/C_28.png","朋友","freeprac_friend","",""
"","","","","","html-keyboard-response","108","635503","0.0-10.0-0.0-1.9","null","<span style='color:GreenYellow; font-size: 70px;'>正确! </span>","null","","","","","","","","","","","","","","","","","","","","","","","feedback_test",""
"","","","","","psychophysics","109","638262","0.0-10.0-0.0-0.10","1757","","j","","","","","","","","","","","","","key","j","16.66624242424203","960","536","j","true","img/C_28.png","生人","freeprac_friend","",""
"","","","","","html-keyboard-response","110","638578","0.0-10.0-0.0-1.10","null","<span style='color:GreenYellow; font-size: 70px;'>正确! </span>","null","","","","","","","","","","","","","","","","","","","","","","","feedback_test",""
"","","","","","psychophysics","111","642405","0.0-10.0-0.0-0.11","2812","","f","","","","","","","","","","","","","key","f","16.666153508772066","960","536","f","true","img/H_28.png","朋友","freeprac_friend","",""
"","","","","","html-keyboard-response","112","642710","0.0-10.0-0.0-1.11","null","<span style='color:GreenYellow; font-size: 70px;'>正确! </span>","null","","","","","","","","","","","","","","","","","","","","","","","feedback_test",""
"","","","","","html-keyboard-response","113","650637","0.0-11.0","7925","[""<style>.context{color:white; font-size: 35px; line-height:40px}</style>               <div><p class='context'>您正确回答了83% 的试次。</p><p class='context'>您的平均反应时为2538毫秒。</p><p class='context'>恭喜您完成这一阶段的练习。按任意键进入<span style='color: yellow;'>重点关注图形为“生人”</span>的练习。</p></div><p class='footer' style='font-size:35px; line-height:30px;'>任务要求：\n               <p class='footer' style='font-size:35px; line-height:35px;'>对与“生人”对应的图形，如果 匹配 ，请按 <span style=\""color: lightgreen;\"">f键</span></p><p class='footer' style='font-size:35px'>如果 不匹配 ，请按<span style=\""color: lightgreen;\"">d键</p></span>\n               <p class='footer' style='font-size:35px; line-height:35px;'>对非“生人”对应的图形，如果 匹配 ，请按 <span style=\""color: lightgreen;\"">j键</span></p><p class='footer' style='font-size:35px'>如果 不匹配 ，请按<span style=\""color: lightgreen;\"">k键</p></span>\n               <p class='footer' style='font-size:22px; line-height:25px;'>请在实验过程中将您的<span style=\""color: lightgreen;\"">食指和中指</span>放在电脑键盘的相应键位上进行按键。</p></span>""]","j","","","","","","","","","","","","","","","","","","","","","","","",""
"","","","","","psychophysics","114","654873","0.0-12.0-0.0-0.0","3230","","d","","","","","","","","","","","","","key","d","16.66664426877456","960","536","d","true","img/C_28.png","自我","freeprac_stranger","",""
"","","","","","html-keyboard-response","115","655176","0.0-12.0-0.0-1.0","null","<span style='color:GreenYellow; font-size: 70px;'>正确! </span>","null","","","","","","","","","","","","","","","","","","","","","","","feedback_test",""
"","","","","","psychophysics","116","657786","0.0-12.0-0.0-0.1","1609","","f","","","","","","","","","","","","","key","f","16.666296774193253","960","536","f","true","img/C_28.png","生人","freeprac_stranger","",""
"","","","","","html-keyboard-response","117","658096","0.0-12.0-0.0-1.1","null","<span style='color:GreenYellow; font-size: 70px;'>正确! </span>","null","","","","","","","","","","","","","","","","","","","","","","","feedback_test",""
"","","","","","psychophysics","118","662235","0.0-12.0-0.0-0.2","3126","","k","","","","","","","","","","","","","key","k","16.666121457489904","960","536","k","true","img/H_28.png","自我","freeprac_stranger","",""
"","","","","","html-keyboard-response","119","662540","0.0-12.0-0.0-1.2","null","<span style='color:GreenYellow; font-size: 70px;'>正确! </span>","null","","","","","","","","","","","","","","","","","","","","","","","feedback_test",""
"","","","","","psychophysics","120","666020","0.0-12.0-0.0-0.3","2478","","k","","","","","","","","","","","","","key","k","16.666110576922968","960","536","k","true","img/H_28.png","生人","freeprac_stranger","",""
"","","","","","html-keyboard-response","121","666322","0.0-12.0-0.0-1.3","null","<span style='color:GreenYellow; font-size: 70px;'>正确! </span>","null","","","","","","","","","","","","","","","","","","","","","","","feedback_test",""
"","","","","","psychophysics","122","669757","0.0-12.0-0.0-0.4","2431","","k","","","","","","","","","","","","","key","k","16.66616097560959","960","536","k","true","img/S_28.png","朋友","freeprac_stranger","",""
"","","","","","html-keyboard-response","123","670071","0.0-12.0-0.0-1.4","null","<span style='color:GreenYellow; font-size: 70px;'>正确! </span>","null","","","","","","","","","","","","","","","","","","","","","","","feedback_test",""
"","","","","","psychophysics","124","674973","0.0-12.0-0.0-0.5","3896","","j","","","","","","","","","","","","","key","j","16.666549488054603","960","536","j","true","img/S_28.png","自我","freeprac_stranger","",""
"","","","","","html-keyboard-response","125","675277","0.0-12.0-0.0-1.5","null","<span style='color:GreenYellow; font-size: 70px;'>正确! </span>","null","","","","","","","","","","","","","","","","","","","","","","","feedback_test",""
"","","","","","psychophysics","126","678396","0.0-12.0-0.0-0.6","2110","","k","","","","","","","","","","","","","key","k","16.666247311828066","960","536","k","true","img/S_28.png","生人","freeprac_stranger","",""
"","","","","","html-keyboard-response","127","678707","0.0-12.0-0.0-1.6","null","<span style='color:GreenYellow; font-size: 70px;'>正确! </span>","null","","","","","","","","","","","","","","","","","","","","","","","feedback_test",""
"","","","","","psychophysics","128","682578","0.0-12.0-0.0-0.7","2869","","k","","","","","","","","","","","","","key","k","16.606982683982636","960","536","j","false","img/H_28.png","朋友","freeprac_stranger","",""
"","","","","","html-keyboard-response","129","682891","0.0-12.0-0.0-1.7","null","<span style='color:red; font-size: 70px;'>错误! </span>","null","","","","","","","","","","","","","","","","","","","","","","","feedback_test",""
"","","","","","psychophysics","130","685980","0.0-12.0-0.0-0.8","2088","","j","","","","","","","","","","","","","key","j","16.595934782608705","960","536","f","false","img/C_28.png","生人","freeprac_stranger","",""
"","","","","","html-keyboard-response","131","686286","0.0-12.0-0.0-1.8","null","<span style='color:red; font-size: 70px;'>错误! </span>","null","","","","","","","","","","","","","","","","","","","","","","","feedback_test",""
"","","","","","psychophysics","132","689673","0.0-12.0-0.0-0.9","2380","","j","","","","","","","","","","","","","key","j","16.66630693069327","960","536","j","true","img/S_28.png","自我","freeprac_stranger","",""
"","","","","","html-keyboard-response","133","689977","0.0-12.0-0.0-1.9","null","<span style='color:GreenYellow; font-size: 70px;'>正确! </span>","null","","","","","","","","","","","","","","","","","","","","","","","feedback_test",""
"","","","","","psychophysics","134","693993","0.0-12.0-0.0-0.10","3006","","k","","","","","","","","","","","","","key","k","16.666133333333224","960","536","d","false","img/C_28.png","朋友","freeprac_stranger","",""
"","","","","","html-keyboard-response","135","694301","0.0-12.0-0.0-1.10","null","<span style='color:red; font-size: 70px;'>错误! </span>","null","","","","","","","","","","","","","","","","","","","","","","","feedback_test",""
"","","","","","psychophysics","136","697194","0.0-12.0-0.0-0.11","1885","","j","","","","","","","","","","","","","key","j","16.66617341040475","960","536","j","true","img/H_28.png","朋友","freeprac_stranger","",""
"","","","","","html-keyboard-response","137","697504","0.0-12.0-0.0-1.11","null","<span style='color:GreenYellow; font-size: 70px;'>正确! </span>","null","","","","","","","","","","","","","","","","","","","","","","","feedback_test",""
"","","","","","instructions","138","726304","0.0-13.0","28799","","","","","","","","","","","","","","[{""page_index"":0,""viewing_time"":28799}]","","","","","","","","","","","",""
"","","","","","psychophysics","139","728318","0.0-14.0-0.0-0.0","1010","","k","","","","","","","","","","","","","key","k","16.665866666667473","960","536","k","true","img/H_28.png","自我","prac_self","","朋友"
"","","","","","html-keyboard-response","140","728625","0.0-14.0-0.0-1.0","null","<span style='color:GreenYellow; font-size: 70px;'>正确! </span>","null","","","","","","","","","","","","","","","","","","","","","","","feedback_test",""
"","","","","","psychophysics","141","730831","0.0-14.0-0.0-0.1","1191","","d","","","","","","","","","","","","","key","d","16.66623664122139","960","536","d","true","img/S_28.png","朋友","prac_self","","自我"
"","","","","","html-keyboard-response","142","731140","0.0-14.0-0.0-1.1","null","<span style='color:GreenYellow; font-size: 70px;'>正确! </span>","null","","","","","","","","","","","","","","","","","","","","","","","feedback_test",""
"","","","","","psychophysics","143","733381","0.0-14.0-0.0-0.2","1241","","j","","","","","","","","","","","","","key","j","16.57154135338269","960","536","j","true","img/C_28.png","生人","prac_self","","生人"
"","","","","","html-keyboard-response","144","733684","0.0-14.0-0.0-1.2","null","<span style='color:GreenYellow; font-size: 70px;'>正确! </span>","null","","","","","","","","","","","","","","","","","","","","","","","feedback_test",""
"","","","","","psychophysics","145","736188","0.0-14.0-0.0-0.3","null","","null","","","","","","","","","","","","","key","null","16.666234899328664","960","536","k","false","img/C_28.png","朋友","prac_self","","生人"
"","","","","","html-keyboard-response","146","736496","0.0-14.0-0.0-1.3","null","<span class='add_' style='color:yellow; font-size: 70px;'> 太慢! </span>","null","","","","","","","","","","","","","","","","","","","","","","","feedback_test",""
"","","","","","psychophysics","147","738694","0.0-14.0-0.0-0.4","1187","","j","","","","","","","","","","","","","key","j","16.66598473282403","960","536","j","true","img/C_28.png","生人","prac_self","","生人"
"","","","","","html-keyboard-response","148","739000","0.0-14.0-0.0-1.4","null","<span style='color:GreenYellow; font-size: 70px;'>正确! </span>","null","","","","","","","","","","","","","","","","","","","","","","","feedback_test",""
"","","","","","psychophysics","149","740917","0.0-14.0-0.0-0.5","909","","k","","","","","","","","","","","","","key","k","16.666614035088283","960","536","k","true","img/H_28.png","生人","prac_self","","朋友"
"","","","","","html-keyboard-response","150","741218","0.0-14.0-0.0-1.5","null","<span style='color:GreenYellow; font-size: 70px;'>正确! </span>","null","","","","","","","","","","","","","","","","","","","","","","","feedback_test",""
"","","","","","psychophysics","151","743139","0.0-14.0-0.0-0.6","918","","k","","","","","","","","","","","","","key","k","16.666745614034753","960","536","j","false","img/H_28.png","朋友","prac_self","","朋友"
"","","","","","html-keyboard-response","152","743448","0.0-14.0-0.0-1.6","null","<span style='color:red; font-size: 70px;'>错误! </span>","null","","","","","","","","","","","","","","","","","","","","","","","feedback_test",""
"","","","","","psychophysics","153","745253","0.0-14.0-0.0-0.7","801","","k","","","","","","","","","","","","","key","k","16.665289719626045","960","536","d","false","img/S_28.png","生人","prac_self","","自我"
"","","","","","html-keyboard-response","154","745561","0.0-14.0-0.0-1.7","null","<span style='color:red; font-size: 70px;'>错误! </span>","null","","","","","","","","","","","","","","","","","","","","","","","feedback_test",""
"","","","","","psychophysics","155","748064","0.0-14.0-0.0-0.8","null","","null","","","","","","","","","","","","","key","null","16.667154362415832","960","536","f","false","img/S_28.png","自我","prac_self","","自我"
"","","","","","html-keyboard-response","156","748368","0.0-14.0-0.0-1.8","null","<span class='add_' style='color:yellow; font-size: 70px;'> 太慢! </span>","null","","","","","","","","","","","","","","","","","","","","","","","feedback_test",""
"","","","","","psychophysics","157","750540","0.0-14.0-0.0-0.9","1166","","k","","","","","","","","","","","","","key","k","16.666279069767082","960","536","j","false","img/H_28.png","朋友","prac_self","","朋友"
"","","","","","html-keyboard-response","158","750846","0.0-14.0-0.0-1.9","null","<span style='color:red; font-size: 70px;'>错误! </span>","null","","","","","","","","","","","","","","","","","","","","","","","feedback_test",""
"","","","","","psychophysics","159","752963","0.0-14.0-0.0-0.10","1106","","k","","","","","","","","","","","","","key","k","16.666039682540394","960","536","k","true","img/C_28.png","自我","prac_self","","生人"
"","","","","","html-keyboard-response","160","753265","0.0-14.0-0.0-1.10","null","<span style='color:GreenYellow; font-size: 70px;'>正确! </span>","null","","","","","","","","","","","","","","","","","","","","","","","feedback_test",""
"","","","","","psychophysics","161","755488","0.0-14.0-0.0-0.11","1215","","j","","","","","","","","","","","","","key","j","16.667295454545336","960","536","f","false","img/S_28.png","自我","prac_self","","自我"
"","","","","","html-keyboard-response","162","755791","0.0-14.0-0.0-1.11","null","<span style='color:red; font-size: 70px;'>错误! </span>","null","","","","","","","","","","","","","","","","","","","","","","","feedback_test",""
"","","","","","psychophysics","163","757696","0.0-14.0-0.0-0.12","893","","d","","","","","","","","","","","","","key","d","16.664840707964412","960","536","f","false","img/S_28.png","自我","prac_self","","自我"
"","","","","","html-keyboard-response","164","758003","0.0-14.0-0.0-1.12","null","<span style='color:red; font-size: 70px;'>错误! </span>","null","","","","","","","","","","","","","","","","","","","","","","","feedback_test",""
"","","","","","psychophysics","165","760507","0.0-14.0-0.0-0.13","null","","null","","","","","","","","","","","","","key","null","16.666899328859174","960","536","k","false","img/C_28.png","朋友","prac_self","","生人"
"","","","","","html-keyboard-response","166","760821","0.0-14.0-0.0-1.13","null","<span class='add_' style='color:yellow; font-size: 70px;'> 太慢! </span>","null","","","","","","","","","","","","","","","","","","","","","","","feedback_test",""
"","","","","","psychophysics","167","763052","0.0-14.0-0.0-0.14","1228","","k","","","","","","","","","","","","","key","k","16.665992481202498","960","536","d","false","img/S_28.png","生人","prac_self","","自我"
"","","","","","html-keyboard-response","168","763359","0.0-14.0-0.0-1.14","null","<span style='color:red; font-size: 70px;'>错误! </span>","null","","","","","","","","","","","","","","","","","","","","","","","feedback_test",""
"","","","","","psychophysics","169","765873","0.0-14.0-0.0-0.15","null","","null","","","","","","","","","","","","","key","null","16.66579999999997","960","536","j","false","img/H_28.png","朋友","prac_self","","朋友"
"","","","","","html-keyboard-response","170","766183","0.0-14.0-0.0-1.15","null","<span class='add_' style='color:yellow; font-size: 70px;'> 太慢! </span>","null","","","","","","","","","","","","","","","","","","","","","","","feedback_test",""
"","","","","","psychophysics","171","768419","0.0-14.0-0.0-0.16","1230","","j","","","","","","","","","","","","","key","j","16.666466165413638","960","536","j","true","img/C_28.png","生人","prac_self","","生人"
"","","","","","html-keyboard-response","172","768725","0.0-14.0-0.0-1.16","null","<span style='color:GreenYellow; font-size: 70px;'>正确! </span>","null","","","","","","","","","","","","","","","","","","","","","","","feedback_test",""
"","","","","","psychophysics","173","771215","0.0-14.0-0.0-0.17","1485","","f","","","","","","","","","","","","","key","f","16.66614189189135","960","536","k","false","img/C_28.png","自我","prac_self","","生人"
"","","","","","html-keyboard-response","174","771527","0.0-14.0-0.0-1.17","null","<span style='color:red; font-size: 70px;'>错误! </span>","null","","","","","","","","","","","","","","","","","","","","","","","feedback_test",""
"","","","","","psychophysics","175","774018","0.0-14.0-0.0-0.18","1484","","k","","","","","","","","","","","","","key","k","16.665189189189018","960","536","k","true","img/H_28.png","生人","prac_self","","朋友"
"","","","","","html-keyboard-response","176","774324","0.0-14.0-0.0-1.18","null","<span style='color:GreenYellow; font-size: 70px;'>正确! </span>","null","","","","","","","","","","","","","","","","","","","","","","","feedback_test",""
"","","","","","psychophysics","177","776140","0.0-14.0-0.0-0.19","809","","j","","","","","","","","","","","","","key","j","16.665092592592206","960","536","j","true","img/C_28.png","生人","prac_self","","生人"
"","","","","","html-keyboard-response","178","776452","0.0-14.0-0.0-1.19","null","<span style='color:GreenYellow; font-size: 70px;'>正确! </span>","null","","","","","","","","","","","","","","","","","","","","","","","feedback_test",""
"","","","","","psychophysics","179","778675","0.0-14.0-0.0-0.20","1219","","k","","","","","","","","","","","","","key","k","16.666624060150102","960","536","k","true","img/H_28.png","自我","prac_self","","朋友"
"","","","","","html-keyboard-response","180","778981","0.0-14.0-0.0-1.20","null","<span style='color:GreenYellow; font-size: 70px;'>正确! </span>","null","","","","","","","","","","","","","","","","","","","","","","","feedback_test",""
"","","","","","psychophysics","181","781295","0.0-14.0-0.0-0.21","1306","","k","","","","","","","","","","","","","key","k","16.666355072464153","960","536","d","false","img/S_28.png","朋友","prac_self","","自我"
"","","","","","html-keyboard-response","182","781599","0.0-14.0-0.0-1.21","null","<span style='color:red; font-size: 70px;'>错误! </span>","null","","","","","","","","","","","","","","","","","","","","","","","feedback_test",""
"","","","","","psychophysics","183","783897","0.0-14.0-0.0-0.22","1291","","j","","","","","","","","","","","","","key","j","16.665978102190216","960","536","j","true","img/H_28.png","朋友","prac_self","","朋友"
"","","","","","html-keyboard-response","184","784212","0.0-14.0-0.0-1.22","null","<span style='color:GreenYellow; font-size: 70px;'>正确! </span>","null","","","","","","","","","","","","","","","","","","","","","","","feedback_test",""
"","","","","","psychophysics","185","786237","0.0-14.0-0.0-0.23","1017","","d","","","","","","","","","","","","","key","d","16.66616666666717","960","536","f","false","img/S_28.png","自我","prac_self","","自我"
"","","","","","html-keyboard-response","186","786543","0.0-14.0-0.0-1.23","null","<span style='color:red; font-size: 70px;'>错误! </span>","null","","","","","","","","","","","","","","","","","","","","","","","feedback_test",""
"","","","","","html-keyboard-response","187","789520","0.0-14.0-1.0-0.0","2976","<style>.context{color:white; font-size: 35px; line-height:40px}</style>                           <div><p class='context'>您正确回答了46% 的试次。</p><p class='context'>您的平均反应时为1152毫秒。</p>"," ","","","","","","","","","","","","","","","","","","","","","","","",""
"","","","","","instructions","188","809503","0.0-14.0-1.0-1.0","19981","","","","","","","","","","","","","","[{""page_index"":0,""viewing_time"":4013},{""page_index"":1,""viewing_time"":13016},{""page_index"":2,""viewing_time"":2952}]","","","","","","","","","","","",""
"","","","","","psychophysics","189","812006","0.0-14.1-0.1-0.24","null","","null","","","","","","","","","","","","","key","null","16.66622818791895","960","536","k","false","img/H_28.png","自我","prac_self","","朋友"
"","","","","","html-keyboard-response","190","812312","0.0-14.1-0.1-1.24","null","<span class='add_' style='color:yellow; font-size: 70px;'> 太慢! </span>","null","","","","","","","","","","","","","","","","","","","","","","","feedback_test",""
"","","","","","psychophysics","191","814296","0.0-14.1-0.1-0.25","978","","k","","","","","","","","","","","","","key","k","16.66729661016883","960","536","k","true","img/H_28.png","生人","prac_self","","朋友"
"","","","","","html-keyboard-response","192","814606","0.0-14.1-0.1-1.25","null","<span style='color:GreenYellow; font-size: 70px;'>正确! </span>","null","","","","","","","","","","","","","","","","","","","","","","","feedback_test",""
"","","","","","psychophysics","193","816783","0.0-14.1-0.1-0.26","1163","","j","","","","","","","","","","","","","key","j","16.666527131782637","960","536","j","true","img/H_28.png","朋友","prac_self","","朋友"
"","","","","","html-keyboard-response","194","817090","0.0-14.1-0.1-1.26","null","<span style='color:GreenYellow; font-size: 70px;'>正确! </span>","null","","","","","","","","","","","","","","","","","","","","","","","feedback_test",""
"","","","","","psychophysics","195","819109","0.0-14.1-0.1-0.27","1011","","f","","","","","","","","","","","","","key","f","16.666191666666418","960","536","d","false","img/S_28.png","生人","prac_self","","自我"
"","","","","","html-keyboard-response","196","819414","0.0-14.1-0.1-1.27","null","<span style='color:red; font-size: 70px;'>错误! </span>","null","","","","","","","","","","","","","","","","","","","","","","","feedback_test",""
"","","","","","psychophysics","197","821546","0.0-14.1-0.1-0.28","1126","","j","","","","","","","","","","","","","key","j","16.665905511811538","960","536","j","true","img/C_28.png","生人","prac_self","","生人"
"","","","","","html-keyboard-response","198","821856","0.0-14.1-0.1-1.28","null","<span style='color:GreenYellow; font-size: 70px;'>正确! </span>","null","","","","","","","","","","","","","","","","","","","","","","","feedback_test",""
"","","","","","psychophysics","199","823620","0.0-14.1-0.1-0.29","754","","f","","","","","","","","","","","","","key","f","16.666269230769384","960","536","f","true","img/S_28.png","自我","prac_self","","自我"
"","","","","","html-keyboard-response","200","823928","0.0-14.1-0.1-1.29","null","<span style='color:GreenYellow; font-size: 70px;'>正确! </span>","null","","","","","","","","","","","","","","","","","","","","","","","feedback_test",""
"","","","","","psychophysics","201","825811","0.0-14.1-0.1-0.30","877","","k","","","","","","","","","","","","","key","k","16.666241071429145","960","536","j","false","img/C_28.png","生人","prac_self","","生人"
"","","","","","html-keyboard-response","202","826116","0.0-14.1-0.1-1.30","null","<span style='color:red; font-size: 70px;'>错误! </span>","null","","","","","","","","","","","","","","","","","","","","","","","feedback_test",""
"","","","","","psychophysics","203","827962","0.0-14.1-0.1-0.31","840","","d","","","","","","","","","","","","","key","d","16.665781818181063","960","536","d","true","img/S_28.png","朋友","prac_self","","自我"
"","","","","","html-keyboard-response","204","828270","0.0-14.1-0.1-1.31","null","<span style='color:GreenYellow; font-size: 70px;'>正确! </span>","null","","","","","","","","","","","","","","","","","","","","","","","feedback_test",""
"","","","","","psychophysics","205","830291","0.0-14.1-0.1-0.32","1020","","j","","","","","","","","","","","","","key","j","16.56113333333342","960","536","k","false","img/C_28.png","朋友","prac_self","","生人"
"","","","","","html-keyboard-response","206","830603","0.0-14.1-0.1-1.32","null","<span style='color:red; font-size: 70px;'>错误! </span>","null","","","","","","","","","","","","","","","","","","","","","","","feedback_test",""
"","","","","","psychophysics","207","832843","0.0-14.1-0.1-0.33","1239","","j","","","","","","","","","","","","","key","j","16.573390977444035","960","536","j","true","img/H_28.png","朋友","prac_self","","朋友"
"","","","","","html-keyboard-response","208","833155","0.0-14.1-0.1-1.33","null","<span style='color:GreenYellow; font-size: 70px;'>正确! </span>","null","","","","","","","","","","","","","","","","","","","","","","","feedback_test",""
"","","","","","psychophysics","209","835251","0.0-14.1-0.1-0.34","1090","","k","","","","","","","","","","","","","key","k","16.666048387096513","960","536","f","false","img/S_28.png","自我","prac_self","","自我"
"","","","","","html-keyboard-response","210","835559","0.0-14.1-0.1-1.34","null","<span style='color:red; font-size: 70px;'>错误! </span>","null","","","","","","","","","","","","","","","","","","","","","","","feedback_test",""
"","","","","","psychophysics","211","837505","0.0-14.1-0.1-0.35","938","","k","","","","","","","","","","","","","key","k","16.666250000000282","960","536","k","true","img/C_28.png","自我","prac_self","","生人"
"","","","","","html-keyboard-response","212","837819","0.0-14.1-0.1-1.35","null","<span style='color:GreenYellow; font-size: 70px;'>正确! </span>","null","","","","","","","","","","","","","","","","","","","","","","","feedback_test",""
"","","","","","psychophysics","213","839724","0.0-14.1-0.1-0.36","903","","j","","","","","","","","","","","","","key","j","16.66658771929756","960","536","j","true","img/H_28.png","朋友","prac_self","","朋友"
"","","","","","html-keyboard-response","214","840025","0.0-14.1-0.1-1.36","null","<span style='color:GreenYellow; font-size: 70px;'>正确! </span>","null","","","","","","","","","","","","","","","","","","","","","","","feedback_test",""
"","","","","","psychophysics","215","841984","0.0-14.1-0.1-0.37","955","","f","","","","","","","","","","","","","key","f","16.665284482758203","960","536","f","true","img/S_28.png","自我","prac_self","","自我"
"","","","","","html-keyboard-response","216","842298","0.0-14.1-0.1-1.37","null","<span style='color:GreenYellow; font-size: 70px;'>正确! </span>","null","","","","","","","","","","","","","","","","","","","","","","","feedback_test",""
"","","","","","psychophysics","217","844302","0.0-14.1-0.1-0.38","998","","j","","","","","","","","","","","","","key","j","16.66731092437002","960","536","k","false","img/H_28.png","生人","prac_self","","朋友"
"","","","","","html-keyboard-response","218","844611","0.0-14.1-0.1-1.38","null","<span style='color:red; font-size: 70px;'>错误! </span>","null","","","","","","","","","","","","","","","","","","","","","","","feedback_test",""
"","","","","","psychophysics","219","846436","0.0-14.1-0.1-0.39","816","","k","","","","","","","","","","","","","key","k","16.666129629628912","960","536","k","true","img/C_28.png","自我","prac_self","","生人"
"","","","","","html-keyboard-response","220","846747","0.0-14.1-0.1-1.39","null","<span style='color:GreenYellow; font-size: 70px;'>正确! </span>","null","","","","","","","","","","","","","","","","","","","","","","","feedback_test",""
"","","","","","psychophysics","221","848472","0.0-14.1-0.1-0.40","723","","j","","","","","","","","","","","","","key","j","16.666067961164867","960","536","j","true","img/H_28.png","朋友","prac_self","","朋友"
"","","","","","html-keyboard-response","222","848784","0.0-14.1-0.1-1.40","null","<span style='color:GreenYellow; font-size: 70px;'>正确! </span>","null","","","","","","","","","","","","","","","","","","","","","","","feedback_test",""
"","","","","","psychophysics","223","850944","0.0-14.1-0.1-0.41","1157","","k","","","","","","","","","","","","","key","k","16.66561240310124","960","536","d","false","img/S_28.png","生人","prac_self","","自我"
"","","","","","html-keyboard-response","224","851248","0.0-14.1-0.1-1.41","null","<span style='color:red; font-size: 70px;'>错误! </span>","null","","","","","","","","","","","","","","","","","","","","","","","feedback_test",""
"","","","","","psychophysics","225","853205","0.0-14.1-0.1-0.42","955","","f","","","","","","","","","","","","","key","f","16.666128205127503","960","536","f","true","img/S_28.png","自我","prac_self","","自我"
"","","","","","html-keyboard-response","226","853510","0.0-14.1-0.1-1.42","null","<span style='color:GreenYellow; font-size: 70px;'>正确! </span>","null","","","","","","","","","","","","","","","","","","","","","","","feedback_test",""
"","","","","","psychophysics","227","855277","0.0-14.1-0.1-0.43","761","","d","","","","","","","","","","","","","key","d","16.666095238094705","960","536","d","true","img/S_28.png","朋友","prac_self","","自我"
"","","","","","html-keyboard-response","228","855591","0.0-14.1-0.1-1.43","null","<span style='color:GreenYellow; font-size: 70px;'>正确! </span>","null","","","","","","","","","","","","","","","","","","","","","","","feedback_test",""
"","","","","","psychophysics","229","857796","0.0-14.1-0.1-0.44","1194","","j","","","","","","","","","","","","","key","j","16.666099236640928","960","536","k","false","img/H_28.png","自我","prac_self","","朋友"
"","","","","","html-keyboard-response","230","858101","0.0-14.1-0.1-1.44","null","<span style='color:red; font-size: 70px;'>错误! </span>","null","","","","","","","","","","","","","","","","","","","","","","","feedback_test",""
"","","","","","psychophysics","231","859888","0.0-14.1-0.1-0.45","785","","k","","","","","","","","","","","","","key","k","16.665822429906697","960","536","k","true","img/C_28.png","朋友","prac_self","","生人"
"","","","","","html-keyboard-response","232","860189","0.0-14.1-0.1-1.45","null","<span style='color:GreenYellow; font-size: 70px;'>正确! </span>","null","","","","","","","","","","","","","","","","","","","","","","","feedback_test",""
"","","","","","psychophysics","233","862084","0.0-14.1-0.1-0.46","883","","j","","","","","","","","","","","","","key","j","16.666392857142323","960","536","j","true","img/C_28.png","生人","prac_self","","生人"
"","","","","","html-keyboard-response","234","862390","0.0-14.1-0.1-1.46","null","<span style='color:GreenYellow; font-size: 70px;'>正确! </span>","null","","","","","","","","","","","","","","","","","","","","","","","feedback_test",""
"","","","","","psychophysics","235","864303","0.0-14.1-0.1-0.47","903","","j","","","","","","","","","","","","","key","j","16.66621238938059","960","536","j","true","img/C_28.png","生人","prac_self","","生人"
"","","","","","html-keyboard-response","236","864608","0.0-14.1-0.1-1.47","null","<span style='color:GreenYellow; font-size: 70px;'>正确! </span>","null","","","","","","","","","","","","","","","","","","","","","","","feedback_test",""
"","","","","","html-keyboard-response","237","867544","0.0-14.1-1.1-0.1","2934","<style>.context{color:white; font-size: 35px; line-height:40px}</style>                           <div><p class='context'>您正确回答了67% 的试次。</p><p class='context'>您的平均反应时为920毫秒。</p>","j","","","","","","","","","","","","","","","","","","","","","","","",""
"","","","","","instructions","238","877910","0.0-14.1-1.1-1.1","10364","","","","","","","","","","","","","","[{""page_index"":0,""viewing_time"":3284},{""page_index"":1,""viewing_time"":5264},{""page_index"":2,""viewing_time"":1816}]","","","","","","","","","","","",""
"","","","","","psychophysics","239","880326","0.0-14.2-0.2-0.48","1411","","k","","","","","","","","","","","","","key","k","16.665819444444626","960","536","k","true","img/C_28.png","自我","prac_self","","生人"
"","","","","","html-keyboard-response","240","880631","0.0-14.2-0.2-1.48","null","<span style='color:GreenYellow; font-size: 70px;'>正确! </span>","null","","","","","","","","","","","","","","","","","","","","","","","feedback_test",""
"","","","","","psychophysics","241","882696","0.0-14.2-0.2-0.49","1060","","k","","","","","","","","","","","","","key","k","16.6670650406504","960","536","k","true","img/C_28.png","朋友","prac_self","","生人"
"","","","","","html-keyboard-response","242","883007","0.0-14.2-0.2-1.49","null","<span style='color:GreenYellow; font-size: 70px;'>正确! </span>","null","","","","","","","","","","","","","","","","","","","","","","","feedback_test",""
"","","","","","psychophysics","243","884908","0.0-14.2-0.2-0.50","892","","j","","","","","","","","","","","","","key","j","16.66491150442486","960","536","j","true","img/C_28.png","生人","prac_self","","生人"
"","","","","","html-keyboard-response","244","885216","0.0-14.2-0.2-1.50","null","<span style='color:GreenYellow; font-size: 70px;'>正确! </span>","null","","","","","","","","","","","","","","","","","","","","","","","feedback_test",""
"","","","","","psychophysics","245","887044","0.0-14.2-0.2-0.51","824","","k","","","","","","","","","","","","","key","k","16.665798165138018","960","536","d","false","img/S_28.png","朋友","prac_self","","自我"
"","","","","","html-keyboard-response","246","887352","0.0-14.2-0.2-1.51","null","<span style='color:red; font-size: 70px;'>错误! </span>","null","","","","","","","","","","","","","","","","","","","","","","","feedback_test",""
"","","","","","psychophysics","247","889248","0.0-14.2-0.2-0.52","895","","j","","","","","","","","","","","","","key","j","16.547428571428878","960","536","j","true","img/H_28.png","朋友","prac_self","","朋友"
"","","","","","html-keyboard-response","248","889558","0.0-14.2-0.2-1.52","null","<span style='color:GreenYellow; font-size: 70px;'>正确! </span>","null","","","","","","","","","","","","","","","","","","","","","","","feedback_test",""
"","","","","","psychophysics","249","891478","0.0-14.2-0.2-0.53","913","","k","","","","","","","","","","","","","key","k","16.666368421052763","960","536","k","true","img/H_28.png","自我","prac_self","","朋友"
"","","","","","html-keyboard-response","250","891780","0.0-14.2-0.2-1.53","null","<span style='color:GreenYellow; font-size: 70px;'>正确! </span>","null","","","","","","","","","","","","","","","","","","","","","","","feedback_test",""
"","","","","","psychophysics","251","893462","0.0-14.2-0.2-0.54","679","","j","","","","","","","","","","","","","key","j","16.666320000000997","960","536","f","false","img/S_28.png","自我","prac_self","","自我"
"","","","","","html-keyboard-response","252","893766","0.0-14.2-0.2-1.54","null","<span style='color:red; font-size: 70px;'>错误! </span>","null","","","","","","","","","","","","","","","","","","","","","","","feedback_test",""
"","","","","","psychophysics","253","895594","0.0-14.2-0.2-0.55","825","","j","","","","","","","","","","","","","key","j","16.666284403669724","960","536","j","true","img/C_28.png","生人","prac_self","","生人"
"","","","","","html-keyboard-response","254","895897","0.0-14.2-0.2-1.55","null","<span style='color:GreenYellow; font-size: 70px;'>正确! </span>","null","","","","","","","","","","","","","","","","","","","","","","","feedback_test",""
"","","","","","psychophysics","255","897789","0.0-14.2-0.2-0.56","886","","k","","","","","","","","","","","","","key","k","16.666495575221354","960","536","j","false","img/H_28.png","朋友","prac_self","","朋友"
"","","","","","html-keyboard-response","256","898103","0.0-14.2-0.2-1.56","null","<span style='color:red; font-size: 70px;'>错误! </span>","null","","","","","","","","","","","","","","","","","","","","","","","feedback_test",""
"","","","","","psychophysics","257","899971","0.0-14.2-0.2-0.57","858","","f","","","","","","","","","","","","","key","f","16.665972972972536","960","536","f","true","img/S_28.png","自我","prac_self","","自我"
"","","","","","html-keyboard-response","258","900278","0.0-14.2-0.2-1.57","null","<span style='color:GreenYellow; font-size: 70px;'>正确! </span>","null","","","","","","","","","","","","","","","","","","","","","","","feedback_test",""
"","","","","","psychophysics","259","902076","0.0-14.2-0.2-0.58","791","","j","","","","","","","","","","","","","key","j","16.66623364485992","960","536","k","false","img/H_28.png","生人","prac_self","","朋友"
"","","","","","html-keyboard-response","260","902390","0.0-14.2-0.2-1.58","null","<span style='color:red; font-size: 70px;'>错误! </span>","null","","","","","","","","","","","","","","","","","","","","","","","feedback_test",""
"","","","","","psychophysics","261","904705","0.0-14.2-0.2-0.59","1308","","k","","","","","","","","","","","","","key","k","16.666224637681253","960","536","d","false","img/S_28.png","生人","prac_self","","自我"
"","","","","","html-keyboard-response","262","905006","0.0-14.2-0.2-1.59","null","<span style='color:red; font-size: 70px;'>错误! </span>","null","","","","","","","","","","","","","","","","","","","","","","","feedback_test",""
"","","","","","psychophysics","263","906865","0.0-14.2-0.2-0.60","850","","f","","","","","","","","","","","","","key","f","16.666127272727053","960","536","f","true","img/S_28.png","自我","prac_self","","自我"
"","","","","","html-keyboard-response","264","907178","0.0-14.2-0.2-1.60","null","<span style='color:GreenYellow; font-size: 70px;'>正确! </span>","null","","","","","","","","","","","","","","","","","","","","","","","feedback_test",""
"","","","","","psychophysics","265","908947","0.0-14.2-0.2-0.61","762","","d","","","","","","","","","","","","","key","d","16.66611428571466","960","536","d","true","img/S_28.png","朋友","prac_self","","自我"
"","","","","","html-keyboard-response","266","909254","0.0-14.2-0.2-1.61","null","<span style='color:GreenYellow; font-size: 70px;'>正确! </span>","null","","","","","","","","","","","","","","","","","","","","","","","feedback_test",""
"","","","","","psychophysics","267","911004","0.0-14.2-0.2-0.62","740","","f","","","","","","","","","","","","","key","f","16.66621153846231","960","536","d","false","img/S_28.png","生人","prac_self","","自我"
"","","","","","html-keyboard-response","268","911309","0.0-14.2-0.2-1.62","null","<span style='color:red; font-size: 70px;'>错误! </span>","null","","","","","","","","","","","","","","","","","","","","","","","feedback_test",""
"","","","","","psychophysics","269","913251","0.0-14.2-0.2-0.63","932","","j","","","","","","","","","","","","","key","j","16.666086956521536","960","536","j","true","img/H_28.png","朋友","prac_self","","朋友"
"","","","","","html-keyboard-response","270","913562","0.0-14.2-0.2-1.63","null","<span style='color:GreenYellow; font-size: 70px;'>正确! </span>","null","","","","","","","","","","","","","","","","","","","","","","","feedback_test",""
"","","","","","psychophysics","271","915306","0.0-14.2-0.2-0.64","737","","k","","","","","","","","","","","","","key","k","16.66592307692358","960","536","k","true","img/C_28.png","朋友","prac_self","","生人"
"","","","","","html-keyboard-response","272","915609","0.0-14.2-0.2-1.64","null","<span style='color:GreenYellow; font-size: 70px;'>正确! </span>","null","","","","","","","","","","","","","","","","","","","","","","","feedback_test",""
"","","","","","psychophysics","273","917408","0.0-14.2-0.2-0.65","790","","j","","","","","","","","","","","","","key","j","16.666271028038175","960","536","j","true","img/H_28.png","朋友","prac_self","","朋友"
"","","","","","html-keyboard-response","274","917709","0.0-14.2-0.2-1.65","null","<span style='color:GreenYellow; font-size: 70px;'>正确! </span>","null","","","","","","","","","","","","","","","","","","","","","","","feedback_test",""
"","","","","","psychophysics","275","919621","0.0-14.2-0.2-0.66","903","","f","","","","","","","","","","","","","key","f","16.66621052631557","960","536","f","true","img/S_28.png","自我","prac_self","","自我"
"","","","","","html-keyboard-response","276","919922","0.0-14.2-0.2-1.66","null","<span style='color:GreenYellow; font-size: 70px;'>正确! </span>","null","","","","","","","","","","","","","","","","","","","","","","","feedback_test",""
"","","","","","psychophysics","277","921895","0.0-14.2-0.2-0.67","960","","k","","","","","","","","","","","","","key","k","16.66617094017028","960","536","k","true","img/H_28.png","自我","prac_self","","朋友"
"","","","","","html-keyboard-response","278","922203","0.0-14.2-0.2-1.67","null","<span style='color:GreenYellow; font-size: 70px;'>正确! </span>","null","","","","","","","","","","","","","","","","","","","","","","","feedback_test",""
"","","","","","psychophysics","279","924104","0.0-14.2-0.2-0.68","896","","k","","","","","","","","","","","","","key","k","16.666070796459692","960","536","k","true","img/H_28.png","生人","prac_self","","朋友"
"","","","","","html-keyboard-response","280","924407","0.0-14.2-0.2-1.68","null","<span style='color:GreenYellow; font-size: 70px;'>正确! </span>","null","","","","","","","","","","","","","","","","","","","","","","","feedback_test",""
"","","","","","psychophysics","281","926353","0.0-14.2-0.2-0.69","935","","j","","","","","","","","","","","","","key","j","16.667508620689503","960","536","j","true","img/C_28.png","生人","prac_self","","生人"
"","","","","","html-keyboard-response","282","926666","0.0-14.2-0.2-1.69","null","<span style='color:GreenYellow; font-size: 70px;'>正确! </span>","null","","","","","","","","","","","","","","","","","","","","","","","feedback_test",""
"","","","","","psychophysics","283","928479","0.0-14.2-0.2-0.70","810","","k","","","","","","","","","","","","","key","k","16.550355140187246","960","536","k","true","img/C_28.png","自我","prac_self","","生人"
"","","","","","html-keyboard-response","284","928792","0.0-14.2-0.2-1.70","null","<span style='color:GreenYellow; font-size: 70px;'>正确! </span>","null","","","","","","","","","","","","","","","","","","","","","","","feedback_test",""
"","","","","","psychophysics","285","930757","0.0-14.2-0.2-0.71","956","","j","","","","","","","","","","","","","key","j","16.666170940171273","960","536","j","true","img/C_28.png","生人","prac_self","","生人"
"","","","","","html-keyboard-response","286","931061","0.0-14.2-0.2-1.71","null","<span style='color:GreenYellow; font-size: 70px;'>正确! </span>","null","","","","","","","","","","","","","","","","","","","","","","","feedback_test",""
"","","","","","html-keyboard-response","287","938779","0.0-15.0","7716","[""<style>.context{color:white; font-size: 35px; line-height:40px}</style>           <div><p class='context'>您正确回答了75% 的试次。</p><p class='context'>您的平均反应时为910毫秒。</p><p class='context'>恭喜您完成这一阶段的练习。按任意键进入<span style='color: yellow;'>重点关注图形为“朋友”</span>的练习。</p></div><p class='footer' style='font-size:35px; line-height:30px;'>任务要求：\n           <p class='footer' style='font-size:35px; line-height:35px;'>对于与“朋友”对应的图形：如果 匹配 ，请按 <span style=\""color: lightgreen;\"">f键</span></p><p class='footer' style='font-size:35px'>如果 不匹配 ，请按<span style=\""color: lightgreen;\"">d键</p></span>\n           <p class='footer' style='font-size:35px; line-height:35px;'>对于非“朋友”对应的图形：如果 匹配 ，请按 <span style=\""color: lightgreen;\"">j键</span></p><p class='footer' style='font-size:35px'>如果 不匹配 ，请按<span style=\""color: lightgreen;\"">k键</p></span>\n           <p class='footer' style='font-size:22px; line-height:25px;'>请在实验过程中将您的<span style=\""color: lightgreen;\"">食指和中指</span>放在电脑键盘的相应键位上进行按键。</p></span>""]","j","","","","","","","","","","","","","","","","","","","","","","","",""
"","","","","","psychophysics","288","940620","0.0-16.0-0.0-0.0","836","","f","","","","","","","","","","","","","key","f","16.667272727272938","960","536","f","true","img/H_28.png","朋友","prac_friend","","朋友"
"","","","","","html-keyboard-response","289","940932","0.0-16.0-0.0-1.0","null","<span style='color:GreenYellow; font-size: 70px;'>正确! </span>","null","","","","","","","","","","","","","","","","","","","","","","","feedback_test",""
"","","","","","psychophysics","290","943032","0.0-16.0-0.0-0.1","1098","","k","","","","","","","","","","","","","key","k","16.57112096774208","960","536","k","true","img/S_28.png","生人","prac_friend","","自我"
"","","","","","html-keyboard-response","291","943347","0.0-16.0-0.0-1.1","null","<span style='color:GreenYellow; font-size: 70px;'>正确! </span>","null","","","","","","","","","","","","","","","","","","","","","","","feedback_test",""
"","","","","","psychophysics","292","945257","0.0-16.0-0.0-0.2","906","","j","","","","","","","","","","","","","key","j","16.667254385964235","960","536","j","true","img/C_28.png","生人","prac_friend","","生人"
"","","","","","html-keyboard-response","293","945565","0.0-16.0-0.0-1.2","null","<span style='color:GreenYellow; font-size: 70px;'>正确! </span>","null","","","","","","","","","","","","","","","","","","","","","","","feedback_test",""
"","","","","","psychophysics","294","947420","0.0-16.0-0.0-0.3","852","","j","","","","","","","","","","","","","key","j","16.66529729729728","960","536","j","true","img/C_28.png","生人","prac_friend","","生人"
"","","","","","html-keyboard-response","295","947722","0.0-16.0-0.0-1.3","null","<span style='color:GreenYellow; font-size: 70px;'>正确! </span>","null","","","","","","","","","","","","","","","","","","","","","","","feedback_test",""
"","","","","","psychophysics","296","949636","0.0-16.0-0.0-0.4","910","","k","","","","","","","","","","","","","key","k","16.665833333333577","960","536","j","false","img/S_28.png","自我","prac_friend","","自我"
"","","","","","html-keyboard-response","297","949941","0.0-16.0-0.0-1.4","null","<span style='color:red; font-size: 70px;'>错误! </span>","null","","","","","","","","","","","","","","","","","","","","","","","feedback_test",""
"","","","","","psychophysics","298","952155","0.0-16.0-0.0-0.5","1211","","k","","","","","","","","","","","","","key","k","16.665090909091028","960","536","k","true","img/S_28.png","朋友","prac_friend","","自我"
"","","","","","html-keyboard-response","299","952471","0.0-16.0-0.0-1.5","null","<span style='color:GreenYellow; font-size: 70px;'>正确! </span>","null","","","","","","","","","","","","","","","","","","","","","","","feedback_test",""
"","","","","","psychophysics","300","954308","0.0-16.0-0.0-0.6","831","","f","","","","","","","","","","","","","key","f","16.66743119266055","960","536","d","false","img/H_28.png","生人","prac_friend","","朋友"
"","","","","","html-keyboard-response","301","954609","0.0-16.0-0.0-1.6","null","<span style='color:red; font-size: 70px;'>错误! </span>","null","","","","","","","","","","","","","","","","","","","","","","","feedback_test",""
"","","","","","psychophysics","302","957116","0.0-16.0-0.0-0.7","null","","null","","","","","","","","","","","","","key","null","16.666577181208492","960","536","j","false","img/S_28.png","自我","prac_friend","","自我"
"","","","","","html-keyboard-response","303","957423","0.0-16.0-0.0-1.7","null","<span class='add_' style='color:yellow; font-size: 70px;'> 太慢! </span>","null","","","","","","","","","","","","","","","","","","","","","","","feedback_test",""
"","","","","","psychophysics","304","959320","0.0-16.0-0.0-0.8","886","","j","","","","","","","","","","","","","key","j","16.665637168142144","960","536","f","false","img/H_28.png","朋友","prac_friend","","朋友"
"","","","","","html-keyboard-response","305","959622","0.0-16.0-0.0-1.8","null","<span style='color:red; font-size: 70px;'>错误! </span>","null","","","","","","","","","","","","","","","","","","","","","","","feedback_test",""
"","","","","","psychophysics","306","961626","0.0-16.0-0.0-0.9","998","","k","","","","","","","","","","","","","key","k","16.6662352941177","960","536","k","true","img/C_28.png","自我","prac_friend","","生人"
"","","","","","html-keyboard-response","307","961941","0.0-16.0-0.0-1.9","null","<span style='color:GreenYellow; font-size: 70px;'>正确! </span>","null","","","","","","","","","","","","","","","","","","","","","","","feedback_test",""
"","","","","","psychophysics","308","963997","0.0-16.0-0.0-0.10","1052","","j","","","","","","","","","","","","","key","j","16.66611475409791","960","536","d","false","img/H_28.png","自我","prac_friend","","朋友"
"","","","","","html-keyboard-response","309","964306","0.0-16.0-0.0-1.10","null","<span style='color:red; font-size: 70px;'>错误! </span>","null","","","","","","","","","","","","","","","","","","","","","","","feedback_test",""
"","","","","","psychophysics","310","966351","0.0-16.0-0.0-0.11","1035","","k","","","","","","","","","","","","","key","k","16.66500000000004","960","536","k","true","img/C_28.png","朋友","prac_friend","","生人"
"","","","","","html-keyboard-response","311","966658","0.0-16.0-0.0-1.11","null","<span style='color:GreenYellow; font-size: 70px;'>正确! </span>","null","","","","","","","","","","","","","","","","","","","","","","","feedback_test",""
"","","","","","psychophysics","312","968541","0.0-16.0-0.0-0.12","876","","j","","","","","","","","","","","","","key","j","16.666651785714617","960","536","j","true","img/C_28.png","生人","prac_friend","","生人"
"","","","","","html-keyboard-response","313","968843","0.0-16.0-0.0-1.12","null","<span style='color:GreenYellow; font-size: 70px;'>正确! </span>","null","","","","","","","","","","","","","","","","","","","","","","","feedback_test",""
"","","","","","psychophysics","314","970708","0.0-16.0-0.0-0.13","860","","j","","","","","","","","","","","","","key","j","16.667261261261185","960","536","j","true","img/C_28.png","生人","prac_friend","","生人"
"","","","","","html-keyboard-response","315","971023","0.0-16.0-0.0-1.13","null","<span style='color:GreenYellow; font-size: 70px;'>正确! </span>","null","","","","","","","","","","","","","","","","","","","","","","","feedback_test",""
"","","","","","psychophysics","316","973169","0.0-16.0-0.0-0.14","1135","","f","","","","","","","","","","","","","key","f","16.66661718750038","960","536","k","false","img/S_28.png","生人","prac_friend","","自我"
"","","","","","html-keyboard-response","317","973473","0.0-16.0-0.0-1.14","null","<span style='color:red; font-size: 70px;'>错误! </span>","null","","","","","","","","","","","","","","","","","","","","","","","feedback_test",""
"","","","","","psychophysics","318","975616","0.0-16.0-0.0-0.15","1136","","k","","","","","","","","","","","","","key","k","16.665897637794497","960","536","d","false","img/H_28.png","自我","prac_friend","","朋友"
"","","","","","html-keyboard-response","319","975924","0.0-16.0-0.0-1.15","null","<span style='color:red; font-size: 70px;'>错误! </span>","null","","","","","","","","","","","","","","","","","","","","","","","feedback_test",""
"","","","","","psychophysics","320","977716","0.0-16.0-0.0-0.16","782","","j","","","","","","","","","","","","","key","j","16.6663018867927","960","536","f","false","img/H_28.png","朋友","prac_friend","","朋友"
"","","","","","html-keyboard-response","321","978029","0.0-16.0-0.0-1.16","null","<span style='color:red; font-size: 70px;'>错误! </span>","null","","","","","","","","","","","","","","","","","","","","","","","feedback_test",""
"","","","","","psychophysics","322","979934","0.0-16.0-0.0-0.17","901","","k","","","","","","","","","","","","","key","k","16.666350877193302","960","536","d","false","img/H_28.png","生人","prac_friend","","朋友"
"","","","","","html-keyboard-response","323","980240","0.0-16.0-0.0-1.17","null","<span style='color:red; font-size: 70px;'>错误! </span>","null","","","","","","","","","","","","","","","","","","","","","","","feedback_test",""
"","","","","","psychophysics","324","982750","0.0-16.0-0.0-0.18","null","","null","","","","","","","","","","","","","key","null","16.666382550335356","960","536","j","false","img/S_28.png","自我","prac_friend","","自我"
"","","","","","html-keyboard-response","325","983065","0.0-16.0-0.0-1.18","null","<span class='add_' style='color:yellow; font-size: 70px;'> 太慢! </span>","null","","","","","","","","","","","","","","","","","","","","","","","feedback_test",""
"","","","","","psychophysics","326","984935","0.0-16.0-0.0-0.19","869","","k","","","","","","","","","","","","","key","k","16.666232142857293","960","536","k","true","img/C_28.png","朋友","prac_friend","","生人"
"","","","","","html-keyboard-response","327","985241","0.0-16.0-0.0-1.19","null","<span style='color:GreenYellow; font-size: 70px;'>正确! </span>","null","","","","","","","","","","","","","","","","","","","","","","","feedback_test",""
"","","","","","psychophysics","328","987407","0.0-16.0-0.0-0.20","1157","","j","","","","","","","","","","","","","key","j","16.66608527131729","960","536","k","false","img/S_28.png","朋友","prac_friend","","自我"
"","","","","","html-keyboard-response","329","987718","0.0-16.0-0.0-1.20","null","<span style='color:red; font-size: 70px;'>错误! </span>","null","","","","","","","","","","","","","","","","","","","","","","","feedback_test",""
"","","","","","psychophysics","330","989641","0.0-16.0-0.0-0.21","915","","k","","","","","","","","","","","","","key","k","16.666289473684675","960","536","k","true","img/C_28.png","自我","prac_friend","","生人"
"","","","","","html-keyboard-response","331","989954","0.0-16.0-0.0-1.21","null","<span style='color:GreenYellow; font-size: 70px;'>正确! </span>","null","","","","","","","","","","","","","","","","","","","","","","","feedback_test",""
"","","","","","psychophysics","332","991999","0.0-16.0-0.0-0.22","1033","","k","","","","","","","","","","","","","key","k","16.666198347107322","960","536","j","false","img/S_28.png","自我","prac_friend","","自我"
"","","","","","html-keyboard-response","333","992314","0.0-16.0-0.0-1.22","null","<span style='color:red; font-size: 70px;'>错误! </span>","null","","","","","","","","","","","","","","","","","","","","","","","feedback_test",""
"","","","","","psychophysics","334","994368","0.0-16.0-0.0-0.23","1052","","f","","","","","","","","","","","","","key","f","16.666121951219193","960","536","f","true","img/H_28.png","朋友","prac_friend","","朋友"
"","","","","","html-keyboard-response","335","994670","0.0-16.0-0.0-1.23","null","<span style='color:GreenYellow; font-size: 70px;'>正确! </span>","null","","","","","","","","","","","","","","","","","","","","","","","feedback_test",""
"","","","","","html-keyboard-response","336","998831","0.0-16.0-1.0-0.0","4160","<style>.context{color:white; font-size: 35px; line-height:40px}</style>                           <div><p class='context'>您正确回答了50% 的试次。</p><p class='context'>您的平均反应时为959毫秒。</p>","k","","","","","","","","","","","","","","","","","","","","","","","",""
"","","","","","instructions","337","1011595","0.0-16.0-1.0-1.0","12763","","","","","","","","","","","","","","[{""page_index"":0,""viewing_time"":2659},{""page_index"":1,""viewing_time"":7697},{""page_index"":2,""viewing_time"":2408}]","","","","","","","","","","","",""
"","","","","","psychophysics","338","1013445","0.0-16.1-0.1-0.24","848","","k","","","","","","","","","","","","","key","k","16.66595454545459","960","536","j","false","img/S_28.png","自我","prac_friend","","自我"
"","","","","","html-keyboard-response","339","1013760","0.0-16.1-0.1-1.24","null","<span style='color:red; font-size: 70px;'>错误! </span>","null","","","","","","","","","","","","","","","","","","","","","","","feedback_test",""
"","","","","","psychophysics","340","1015734","0.0-16.1-0.1-0.25","968","","k","","","","","","","","","","","","","key","k","16.66656779660942","960","536","k","true","img/C_28.png","朋友","prac_friend","","生人"
"","","","","","html-keyboard-response","341","1016049","0.0-16.1-0.1-1.25","null","<span style='color:GreenYellow; font-size: 70px;'>正确! </span>","null","","","","","","","","","","","","","","","","","","","","","","","feedback_test",""
"","","","","","psychophysics","342","1018134","0.0-16.1-0.1-0.26","1084","","d","","","","","","","","","","","","","key","d","16.66639516129057","960","536","d","true","img/H_28.png","生人","prac_friend","","朋友"
"","","","","","html-keyboard-response","343","1018442","0.0-16.1-0.1-1.26","null","<span style='color:GreenYellow; font-size: 70px;'>正确! </span>","null","","","","","","","","","","","","","","","","","","","","","","","feedback_test",""
"","","","","","psychophysics","344","1020534","0.0-16.1-0.1-0.27","1085","","k","","","","","","","","","","","","","key","k","16.665639999999666","960","536","j","false","img/S_28.png","自我","prac_friend","","自我"
"","","","","","html-keyboard-response","345","1020848","0.0-16.1-0.1-1.27","null","<span style='color:red; font-size: 70px;'>错误! </span>","null","","","","","","","","","","","","","","","","","","","","","","","feedback_test",""
"","","","","","psychophysics","346","1022646","0.0-16.1-0.1-0.28","797","","k","","","","","","","","","","","","","key","k","16.66806603773642","960","536","k","true","img/S_28.png","朋友","prac_friend","","自我"
"","","","","","html-keyboard-response","347","1022953","0.0-16.1-0.1-1.28","null","<span style='color:GreenYellow; font-size: 70px;'>正确! </span>","null","","","","","","","","","","","","","","","","","","","","","","","feedback_test",""
"","","","","","psychophysics","348","1024673","0.0-16.1-0.1-0.29","712","","j","","","","","","","","","","","","","key","j","16.666245098038594","960","536","j","true","img/C_28.png","生人","prac_friend","","生人"
"","","","","","html-keyboard-response","349","1024976","0.0-16.1-0.1-1.29","null","<span style='color:GreenYellow; font-size: 70px;'>正确! </span>","null","","","","","","","","","","","","","","","","","","","","","","","feedback_test",""
"","","","","","psychophysics","350","1026883","0.0-16.1-0.1-0.30","900","","f","","","","","","","","","","","","","key","f","16.665210526316066","960","536","f","true","img/H_28.png","朋友","prac_friend","","朋友"
"","","","","","html-keyboard-response","351","1027186","0.0-16.1-0.1-1.30","null","<span style='color:GreenYellow; font-size: 70px;'>正确! </span>","null","","","","","","","","","","","","","","","","","","","","","","","feedback_test",""
"","","","","","psychophysics","352","1029302","0.0-16.1-0.1-0.31","1112","","k","","","","","","","","","","","","","key","k","16.666285714286097","960","536","k","true","img/S_28.png","生人","prac_friend","","自我"
"","","","","","html-keyboard-response","353","1029603","0.0-16.1-0.1-1.31","null","<span style='color:GreenYellow; font-size: 70px;'>正确! </span>","null","","","","","","","","","","","","","","","","","","","","","","","feedback_test",""
"","","","","","psychophysics","354","1031173","0.0-16.1-0.1-0.32","563","","j","","","","","","","","","","","","","key","j","16.666279569892865","960","536","j","true","img/C_28.png","生人","prac_friend","","生人"
"","","","","","html-keyboard-response","355","1031485","0.0-16.1-0.1-1.32","null","<span style='color:GreenYellow; font-size: 70px;'>正确! </span>","null","","","","","","","","","","","","","","","","","","","","","","","feedback_test",""
"","","","","","psychophysics","356","1033311","0.0-16.1-0.1-0.33","813","","f","","","","","","","","","","","","","key","f","16.66631481481535","960","536","d","false","img/H_28.png","自我","prac_friend","","朋友"
"","","","","","html-keyboard-response","357","1033614","0.0-16.1-0.1-1.33","null","<span style='color:red; font-size: 70px;'>错误! </span>","null","","","","","","","","","","","","","","","","","","","","","","","feedback_test",""
"","","","","","psychophysics","358","1035579","0.0-16.1-0.1-0.34","964","","j","","","","","","","","","","","","","key","j","16.666094827586143","960","536","f","false","img/H_28.png","朋友","prac_friend","","朋友"
"","","","","","html-keyboard-response","359","1035881","0.0-16.1-0.1-1.34","null","<span style='color:red; font-size: 70px;'>错误! </span>","null","","","","","","","","","","","","","","","","","","","","","","","feedback_test",""
"","","","","","psychophysics","360","1037762","0.0-16.1-0.1-0.35","880","","k","","","","","","","","","","","","","key","k","16.66627027027032","960","536","k","true","img/C_28.png","自我","prac_friend","","生人"
"","","","","","html-keyboard-response","361","1038064","0.0-16.1-0.1-1.35","null","<span style='color:GreenYellow; font-size: 70px;'>正确! </span>","null","","","","","","","","","","","","","","","","","","","","","","","feedback_test",""
"","","","","","psychophysics","362","1040511","0.0-16.1-0.1-0.36","1445","","k","","","","","","","","","","","","","key","k","16.666103448277212","960","536","k","true","img/S_28.png","朋友","prac_friend","","自我"
"","","","","","html-keyboard-response","363","1040821","0.0-16.1-0.1-1.36","null","<span style='color:GreenYellow; font-size: 70px;'>正确! </span>","null","","","","","","","","","","","","","","","","","","","","","","","feedback_test",""
"","","","","","psychophysics","364","1042586","0.0-16.1-0.1-0.37","754","","f","","","","","","","","","","","","","key","f","16.66614285714126","960","536","j","false","img/S_28.png","自我","prac_friend","","自我"
"","","","","","html-keyboard-response","365","1042891","0.0-16.1-0.1-1.37","null","<span style='color:red; font-size: 70px;'>错误! </span>","null","","","","","","","","","","","","","","","","","","","","","","","feedback_test",""
"","","","","","psychophysics","366","1044892","0.0-16.1-0.1-0.38","994","","j","","","","","","","","","","","","","key","j","16.666747899160587","960","536","f","false","img/H_28.png","朋友","prac_friend","","朋友"
"","","","","","html-keyboard-response","367","1045204","0.0-16.1-0.1-1.38","null","<span style='color:red; font-size: 70px;'>错误! </span>","null","","","","","","","","","","","","","","","","","","","","","","","feedback_test",""
"","","","","","psychophysics","368","1047138","0.0-16.1-0.1-0.39","924","","k","","","","","","","","","","","","","key","k","16.665617391305126","960","536","k","true","img/S_28.png","生人","prac_friend","","自我"
"","","","","","html-keyboard-response","369","1047443","0.0-16.1-0.1-1.39","null","<span style='color:GreenYellow; font-size: 70px;'>正确! </span>","null","","","","","","","","","","","","","","","","","","","","","","","feedback_test",""
"","","","","","psychophysics","370","1049259","0.0-16.1-0.1-0.40","811","","k","","","","","","","","","","","","","key","k","16.665990740739897","960","536","k","true","img/C_28.png","自我","prac_friend","","生人"
"","","","","","html-keyboard-response","371","1049573","0.0-16.1-0.1-1.40","null","<span style='color:GreenYellow; font-size: 70px;'>正确! </span>","null","","","","","","","","","","","","","","","","","","","","","","","feedback_test",""
"","","","","","psychophysics","372","1051930","0.0-16.1-0.1-0.41","1349","","j","","","","","","","","","","","","","key","j","16.66586428571526","960","536","d","false","img/H_28.png","自我","prac_friend","","朋友"
"","","","","","html-keyboard-response","373","1052243","0.0-16.1-0.1-1.41","null","<span style='color:red; font-size: 70px;'>错误! </span>","null","","","","","","","","","","","","","","","","","","","","","","","feedback_test",""
"","","","","","psychophysics","374","1054625","0.0-16.1-0.1-0.42","1377","","f","","","","","","","","","","","","","key","f","16.666964788732617","960","536","f","true","img/H_28.png","朋友","prac_friend","","朋友"
"","","","","","html-keyboard-response","375","1054928","0.0-16.1-0.1-1.42","null","<span style='color:GreenYellow; font-size: 70px;'>正确! </span>","null","","","","","","","","","","","","","","","","","","","","","","","feedback_test",""
"","","","","","psychophysics","376","1056885","0.0-16.1-0.1-0.43","953","","j","","","","","","","","","","","","","key","j","16.666512820511482","960","536","j","true","img/C_28.png","生人","prac_friend","","生人"
"","","","","","html-keyboard-response","377","1057191","0.0-16.1-0.1-1.43","null","<span style='color:GreenYellow; font-size: 70px;'>正确! </span>","null","","","","","","","","","","","","","","","","","","","","","","","feedback_test",""
"","","","","","psychophysics","378","1059041","0.0-16.1-0.1-0.44","847","","k","","","","","","","","","","","","","key","k","16.666318181817505","960","536","d","false","img/H_28.png","生人","prac_friend","","朋友"
"","","","","","html-keyboard-response","379","1059357","0.0-16.1-0.1-1.44","null","<span style='color:red; font-size: 70px;'>错误! </span>","null","","","","","","","","","","","","","","","","","","","","","","","feedback_test",""
"","","","","","psychophysics","380","1061425","0.0-16.1-0.1-0.45","1061","","k","","","","","","","","","","","","","key","k","16.665235772357907","960","536","k","true","img/C_28.png","朋友","prac_friend","","生人"
"","","","","","html-keyboard-response","381","1061730","0.0-16.1-0.1-1.45","null","<span style='color:GreenYellow; font-size: 70px;'>正确! </span>","null","","","","","","","","","","","","","","","","","","","","","","","feedback_test",""
"","","","","","psychophysics","382","1064231","0.0-16.1-0.1-0.46","null","","null","","","","","","","","","","","","","key","null","16.57066216216284","960","536","j","false","img/S_28.png","自我","prac_friend","","自我"
"","","","","","html-keyboard-response","383","1064543","0.0-16.1-0.1-1.46","null","<span class='add_' style='color:yellow; font-size: 70px;'> 太慢! </span>","null","","","","","","","","","","","","","","","","","","","","","","","feedback_test",""
"","","","","","psychophysics","384","1066252","0.0-16.1-0.1-0.47","705","","j","","","","","","","","","","","","","key","j","16.66570588235296","960","536","j","true","img/C_28.png","生人","prac_friend","","生人"
"","","","","","html-keyboard-response","385","1066564","0.0-16.1-0.1-1.47","null","<span style='color:GreenYellow; font-size: 70px;'>正确! </span>","null","","","","","","","","","","","","","","","","","","","","","","","feedback_test",""
"","","","","","html-keyboard-response","386","1067575","0.0-16.1-1.1-0.1","1010","<style>.context{color:white; font-size: 35px; line-height:40px}</style>                           <div><p class='context'>您正确回答了63% 的试次。</p><p class='context'>您的平均反应时为953毫秒。</p>","j","","","","","","","","","","","","","","","","","","","","","","","",""
"","","","","","instructions","387","1079570","0.0-16.1-1.1-1.1","11993","","","","","","","","","","","","","","[{""page_index"":0,""viewing_time"":2152},{""page_index"":1,""viewing_time"":7897},{""page_index"":2,""viewing_time"":1944}]","","","","","","","","","","","",""
"","","","","","psychophysics","388","1081267","0.0-16.2-0.2-0.48","692","","f","","","","","","","","","","","","","key","f","16.667237623762986","960","536","f","true","img/H_28.png","朋友","prac_friend","","朋友"
"","","","","","html-keyboard-response","389","1081575","0.0-16.2-0.2-1.48","null","<span style='color:GreenYellow; font-size: 70px;'>正确! </span>","null","","","","","","","","","","","","","","","","","","","","","","","feedback_test",""
"","","","","","psychophysics","390","1083515","0.0-16.2-0.2-0.49","935","","d","","","","","","","","","","","","","key","d","16.66770689655296","960","536","d","true","img/H_28.png","自我","prac_friend","","朋友"
"","","","","","html-keyboard-response","391","1083824","0.0-16.2-0.2-1.49","null","<span style='color:GreenYellow; font-size: 70px;'>正确! </span>","null","","","","","","","","","","","","","","","","","","","","","","","feedback_test",""
"","","","","","psychophysics","392","1085499","0.0-16.2-0.2-0.50","669","","f","","","","","","","","","","","","","key","f","16.665470000000205","960","536","f","true","img/H_28.png","朋友","prac_friend","","朋友"
"","","","","","html-keyboard-response","393","1085801","0.0-16.2-0.2-1.50","null","<span style='color:GreenYellow; font-size: 70px;'>正确! </span>","null","","","","","","","","","","","","","","","","","","","","","","","feedback_test",""
"","","","","","psychophysics","394","1087630","0.0-16.2-0.2-0.51","818","","k","","","","","","","","","","","","","key","k","16.66736111111068","960","536","k","true","img/S_28.png","朋友","prac_friend","","自我"
"","","","","","html-keyboard-response","395","1087931","0.0-16.2-0.2-1.51","null","<span style='color:GreenYellow; font-size: 70px;'>正确! </span>","null","","","","","","","","","","","","","","","","","","","","","","","feedback_test",""
"","","","","","psychophysics","396","1090193","0.0-16.2-0.2-0.52","1255","","j","","","","","","","","","","","","","key","j","16.666044776119403","960","536","j","true","img/S_28.png","自我","prac_friend","","自我"
"","","","","","html-keyboard-response","397","1090504","0.0-16.2-0.2-1.52","null","<span style='color:GreenYellow; font-size: 70px;'>正确! </span>","null","","","","","","","","","","","","","","","","","","","","","","","feedback_test",""
"","","","","","psychophysics","398","1092319","0.0-16.2-0.2-0.53","814","","k","","","","","","","","","","","","","key","k","16.664944444444565","960","536","d","false","img/H_28.png","生人","prac_friend","","朋友"
"","","","","","html-keyboard-response","399","1092626","0.0-16.2-0.2-1.53","null","<span style='color:red; font-size: 70px;'>错误! </span>","null","","","","","","","","","","","","","","","","","","","","","","","feedback_test",""
"","","","","","psychophysics","400","1094668","0.0-16.2-0.2-0.54","1039","","k","","","","","","","","","","","","","key","k","16.66612295081961","960","536","j","false","img/S_28.png","自我","prac_friend","","自我"
"","","","","","html-keyboard-response","401","1094979","0.0-16.2-0.2-1.54","null","<span style='color:red; font-size: 70px;'>错误! </span>","null","","","","","","","","","","","","","","","","","","","","","","","feedback_test",""
"","","","","","psychophysics","402","1096795","0.0-16.2-0.2-0.55","816","","j","","","","","","","","","","","","","key","j","16.66479439252474","960","536","j","true","img/C_28.png","生人","prac_friend","","生人"
"","","","","","html-keyboard-response","403","1097106","0.0-16.2-0.2-1.55","null","<span style='color:GreenYellow; font-size: 70px;'>正确! </span>","null","","","","","","","","","","","","","","","","","","","","","","","feedback_test",""
"","","","","","psychophysics","404","1099161","0.0-16.2-0.2-0.56","1049","","k","","","","","","","","","","","","","key","k","16.666139344263012","960","536","k","true","img/S_28.png","生人","prac_friend","","自我"
"","","","","","html-keyboard-response","405","1099472","0.0-16.2-0.2-1.56","null","<span style='color:GreenYellow; font-size: 70px;'>正确! </span>","null","","","","","","","","","","","","","","","","","","","","","","","feedback_test",""
"","","","","","psychophysics","406","1101265","0.0-16.2-0.2-0.57","791","","k","","","","","","","","","","","","","key","k","16.666158878505577","960","536","k","true","img/C_28.png","朋友","prac_friend","","生人"
"","","","","","html-keyboard-response","407","1101567","0.0-16.2-0.2-1.57","null","<span style='color:GreenYellow; font-size: 70px;'>正确! </span>","null","","","","","","","","","","","","","","","","","","","","","","","feedback_test",""
"","","","","","psychophysics","408","1103367","0.0-16.2-0.2-0.58","788","","j","","","","","","","","","","","","","key","j","16.66585046729012","960","536","j","true","img/C_28.png","生人","prac_friend","","生人"
"","","","","","html-keyboard-response","409","1103669","0.0-16.2-0.2-1.58","null","<span style='color:GreenYellow; font-size: 70px;'>正确! </span>","null","","","","","","","","","","","","","","","","","","","","","","","feedback_test",""
"","","","","","psychophysics","410","1105443","0.0-16.2-0.2-0.59","765","","k","","","","","","","","","","","","","key","k","16.666161904761214","960","536","k","true","img/C_28.png","自我","prac_friend","","生人"
"","","","","","html-keyboard-response","411","1105744","0.0-16.2-0.2-1.59","null","<span style='color:GreenYellow; font-size: 70px;'>正确! </span>","null","","","","","","","","","","","","","","","","","","","","","","","feedback_test",""
"","","","","","psychophysics","412","1107707","0.0-16.2-0.2-0.60","962","","f","","","","","","","","","","","","","key","f","16.546543103448066","960","536","f","true","img/H_28.png","朋友","prac_friend","","朋友"
"","","","","","html-keyboard-response","413","1108018","0.0-16.2-0.2-1.60","null","<span style='color:GreenYellow; font-size: 70px;'>正确! </span>","null","","","","","","","","","","","","","","","","","","","","","","","feedback_test",""
"","","","","","psychophysics","414","1109782","0.0-16.2-0.2-0.61","762","","k","","","","","","","","","","","","","key","k","16.666028571430417","960","536","k","true","img/C_28.png","自我","prac_friend","","生人"
"","","","","","html-keyboard-response","415","1110097","0.0-16.2-0.2-1.61","null","<span style='color:GreenYellow; font-size: 70px;'>正确! </span>","null","","","","","","","","","","","","","","","","","","","","","","","feedback_test",""
"","","","","","psychophysics","416","1111792","0.0-16.2-0.2-0.62","685","","j","","","","","","","","","","","","","key","j","16.66628999999957","960","536","j","true","img/C_28.png","生人","prac_friend","","生人"
"","","","","","html-keyboard-response","417","1112095","0.0-16.2-0.2-1.62","null","<span style='color:GreenYellow; font-size: 70px;'>正确! </span>","null","","","","","","","","","","","","","","","","","","","","","","","feedback_test",""
"","","","","","psychophysics","418","1113761","0.0-16.2-0.2-0.63","666","","j","","","","","","","","","","","","","key","j","16.665979591837363","960","536","j","true","img/C_28.png","生人","prac_friend","","生人"
"","","","","","html-keyboard-response","419","1114068","0.0-16.2-0.2-1.63","null","<span style='color:GreenYellow; font-size: 70px;'>正确! </span>","null","","","","","","","","","","","","","","","","","","","","","","","feedback_test",""
"","","","","","psychophysics","420","1116277","0.0-16.2-0.2-0.64","1198","","f","","","","","","","","","","","","","key","f","16.666297709923025","960","536","k","false","img/S_28.png","朋友","prac_friend","","自我"
"","","","","","html-keyboard-response","421","1116587","0.0-16.2-0.2-1.64","null","<span style='color:red; font-size: 70px;'>错误! </span>","null","","","","","","","","","","","","","","","","","","","","","","","feedback_test",""
"","","","","","psychophysics","422","1118874","0.0-16.2-0.2-0.65","1279","","k","","","","","","","","","","","","","key","k","16.666279411763433","960","536","j","false","img/S_28.png","自我","prac_friend","","自我"
"","","","","","html-keyboard-response","423","1119178","0.0-16.2-0.2-1.65","null","<span style='color:red; font-size: 70px;'>错误! </span>","null","","","","","","","","","","","","","","","","","","","","","","","feedback_test",""
"","","","","","psychophysics","424","1120968","0.0-16.2-0.2-0.66","789","","f","","","","","","","","","","","","","key","f","16.66555660377248","960","536","f","true","img/H_28.png","朋友","prac_friend","","朋友"
"","","","","","html-keyboard-response","425","1121279","0.0-16.2-0.2-1.66","null","<span style='color:GreenYellow; font-size: 70px;'>正确! </span>","null","","","","","","","","","","","","","","","","","","","","","","","feedback_test",""
"","","","","","psychophysics","426","1123064","0.0-16.2-0.2-0.67","773","","k","","","","","","","","","","","","","key","k","16.666575471697076","960","536","d","false","img/H_28.png","自我","prac_friend","","朋友"
"","","","","","html-keyboard-response","427","1123367","0.0-16.2-0.2-1.67","null","<span style='color:red; font-size: 70px;'>错误! </span>","null","","","","","","","","","","","","","","","","","","","","","","","feedback_test",""
"","","","","","psychophysics","428","1125327","0.0-16.2-0.2-0.68","958","","k","","","","","","","","","","","","","key","k","16.665818965518124","960","536","k","true","img/S_28.png","生人","prac_friend","","自我"
