"success","timeout","failed_images","failed_audio","failed_video","trial_type","trial_index","time_elapsed","internal_node_id","rt","stimulus","response","value","item_width_mm","item_height_mm","item_width_px","px2mm","view_dist_mm","item_width_deg","px2deg","scale_factor","win_width_deg","win_height_deg","view_history","response_type","key_press","avg_frame_time","center_x","center_y","correct_response","correct","Image","text","condition","screen_id","label"
"true","false","[]","[]","[]","preload","0","547","0.0-0.0","","","","","","","","","","","","","","","","","","","","","","","","","","",""
"","","","","","html-keyboard-response","1","3848","0.0-1.0","3300","
  <p>您好，欢迎参加本次实验。</p>
  <p>为充分保障您的权利，请确保您已经知晓并同意《参与实验同意书》以及《数据公开知情同意书》。</p>
  <p>如果您未见过上述内容，请咨询实验员。</p>
  <p>如果您选择继续实验，则表示您已经清楚两份知情同意书的内容并同意。</p>
  <p> <div style = ""color: green""><按任意键至下页></div> </p>
  "," ","","","","","","","","","","","","","","","","","","","","","","","",""
"","","","","","html-keyboard-response","2","4219","0.0-2.0","371","
  <p>本实验首先需要您填写一些基本个人信息。</p>
  <p> <div style = ""color: green""><按任意键至下页></div></p>
  "," ","","","","","","","","","","","","","","","","","","","","","","","",""
"","","","","","call-function","3","4220","0.0-3.0-0.0","","","","","","","","","","","","","","","","","","","","","","","","","","",""
"","","","","","survey-html-form","4","5748","0.0-3.0-1.0","1526","","{""Q0"":""21""}","","","","","","","","","","","","","","","","","","","","","","","",""
"","","","","","html-button-response","5","6500","0.0-3.0-2.0","750","<p style = 'color : white'>您的性别</p>","0","","","","","","","","","","","","","","","","","","","","","","","",""
"","","","","","survey-html-form","6","9547","0.0-3.0-3.0","3046","","{""Q0"":""2003""}","","","","","","","","","","","","","","","","","","","","","","","",""
"","","","","","survey-html-form","7","11543","0.0-3.0-4.0","1996","","{""Q0"":""5""}","","","","","","","","","","","","","","","","","","","","","","","",""
"","","","","","virtual-chinrest","8","92127","0.0-4.0","80583","","","","85.6","53.98","427.1380760430638","4.9832775538357446","573.05","8.542761520861276","49.99999999999999","0.6461610787706359","37.260000000000005","18.740000000000002","","","","","","","","","","","","",""
"true","","","","","fullscreen","9","94112","0.0-5.0","","","","","","","","","","","","","","","","","","","","","","","","","","",""
"","","","","","instructions","10","141566","0.0-6.0","47453","","","","","","","","","","","","","","[{""page_index"":0,""viewing_time"":1888},{""page_index"":1,""viewing_time"":26520},{""page_index"":2,""viewing_time"":14642},{""page_index"":3,""viewing_time"":1488},{""page_index"":4,""viewing_time"":2916}]","","","","","","","","","","","",""
"","","","","","instructions","11","160125","0.0-7.0","18557","","","","","","","","","","","","","","[{""page_index"":0,""viewing_time"":18557}]","","","","","","","","","","","",""
"","","","","","psychophysics","12","164967","0.0-8.0-0.0-0.0","3837","","k","","","","","","","","","","","","","key","k","16.725246527777724","960","536","k","true","img/H_28.png","自我","freeprac_self","",""
"","","","","","html-keyboard-response","13","165270","0.0-8.0-0.0-1.0","null","<span style='color:GreenYellow; font-size: 70px;'>正确! </span>","null","","","","","","","","","","","","","","","","","","","","","","","feedback_test",""
"","","","","","psychophysics","14","170380","0.0-8.0-0.0-0.1","4107","","j","","","","","","","","","","","","","key","j","16.625865573770476","960","536","j","true","img/C_28.png","生人","freeprac_self","",""
"","","","","","html-keyboard-response","15","170693","0.0-8.0-0.0-1.1","null","<span style='color:GreenYellow; font-size: 70px;'>正确! </span>","null","","","","","","","","","","","","","","","","","","","","","","","feedback_test",""
"","","","","","psychophysics","16","173758","0.0-8.0-0.0-0.2","2057","","f","","","","","","","","","","","","","key","f","16.666683060109275","960","536","f","true","img/S_28.png","自我","freeprac_self","",""
"","","","","","html-keyboard-response","17","174061","0.0-8.0-0.0-1.2","null","<span style='color:GreenYellow; font-size: 70px;'>正确! </span>","null","","","","","","","","","","","","","","","","","","","","","","","feedback_test",""
"","","","","","psychophysics","18","177359","0.0-8.0-0.0-0.3","2296","","k","","","","","","","","","","","","","key","k","16.66808121827408","960","536","d","false","img/S_28.png","朋友","freeprac_self","",""
"","","","","","html-keyboard-response","19","177673","0.0-8.0-0.0-1.3","null","<span style='color:red; font-size: 70px;'>错误! </span>","null","","","","","","","","","","","","","","","","","","","","","","","feedback_test",""
"","","","","","psychophysics","20","180098","0.0-8.0-0.0-0.4","1409","","f","","","","","","","","","","","","","key","f","16.667083333333316","960","536","f","true","img/S_28.png","自我","freeprac_self","",""
"","","","","","html-keyboard-response","21","180404","0.0-8.0-0.0-1.4","null","<span style='color:GreenYellow; font-size: 70px;'>正确! </span>","null","","","","","","","","","","","","","","","","","","","","","","","feedback_test",""
"","","","","","psychophysics","22","183666","0.0-8.0-0.0-0.5","2260","","j","","","","","","","","","","","","","key","j","16.597536082474182","960","536","j","true","img/C_28.png","生人","freeprac_self","",""
"","","","","","html-keyboard-response","23","183982","0.0-8.0-0.0-1.5","null","<span style='color:GreenYellow; font-size: 70px;'>正确! </span>","null","","","","","","","","","","","","","","","","","","","","","","","feedback_test",""
"","","","","","psychophysics","24","186880","0.0-8.0-0.0-0.6","1889","","k","","","","","","","","","","","","","key","k","16.666890173410422","960","536","k","true","img/H_28.png","生人","freeprac_self","",""
"","","","","","html-keyboard-response","25","187195","0.0-8.0-0.0-1.6","null","<span style='color:GreenYellow; font-size: 70px;'>正确! </span>","null","","","","","","","","","","","","","","","","","","","","","","","feedback_test",""
"","","","","","psychophysics","26","191883","0.0-8.0-0.0-0.7","3686","","k","","","","","","","","","","","","","key","k","16.667650000000037","960","536","k","true","img/C_28.png","自我","freeprac_self","",""
"","","","","","html-keyboard-response","27","192198","0.0-8.0-0.0-1.7","null","<span style='color:GreenYellow; font-size: 70px;'>正确! </span>","null","","","","","","","","","","","","","","","","","","","","","","","feedback_test",""
"","","","","","psychophysics","28","196260","0.0-8.0-0.0-0.8","3060","","j","","","","","","","","","","","","","key","j","16.66664609053496","960","536","j","true","img/H_28.png","朋友","freeprac_self","",""
"","","","","","html-keyboard-response","29","196568","0.0-8.0-0.0-1.8","null","<span style='color:GreenYellow; font-size: 70px;'>正确! </span>","null","","","","","","","","","","","","","","","","","","","","","","","feedback_test",""
"","","","","","psychophysics","30","199725","0.0-8.0-0.0-0.9","1922","","k","","","","","","","","","","","","","key","k","16.667587301587297","960","536","k","true","img/C_28.png","朋友","freeprac_self","",""
"","","","","","html-keyboard-response","31","200034","0.0-8.0-0.0-1.9","null","<span style='color:GreenYellow; font-size: 70px;'>正确! </span>","null","","","","","","","","","","","","","","","","","","","","","","","feedback_test",""
"","","","","","psychophysics","32","203370","0.0-8.0-0.0-0.10","2335","","d","","","","","","","","","","","","","key","d","16.66836180904516","960","536","d","true","img/S_28.png","生人","freeprac_self","",""
"","","","","","html-keyboard-response","33","203672","0.0-8.0-0.0-1.10","null","<span style='color:GreenYellow; font-size: 70px;'>正确! </span>","null","","","","","","","","","","","","","","","","","","","","","","","feedback_test",""
"","","","","","psychophysics","34","209356","0.0-8.0-0.0-0.11","4682","","j","","","","","","","","","","","","","key","j","16.629793510324482","960","536","j","true","img/H_28.png","朋友","freeprac_self","",""
"","","","","","html-keyboard-response","35","209664","0.0-8.0-0.0-1.11","null","<span style='color:GreenYellow; font-size: 70px;'>正确! </span>","null","","","","","","","","","","","","","","","","","","","","","","","feedback_test",""
"","","","","","html-keyboard-response","36","224500","0.0-9.0","14833","[""<style>.context{color:white; font-size: 35px; line-height:40px}</style>           <div><p class='context'>您正确回答了92% 的试次。</p><p class='context'>您的平均反应时为2840毫秒。</p><p class='context'>恭喜您完成这一阶段的练习。按任意键进入<span style='color: yellow;'>重点关注图形为“朋友”</span>的练习。</p></div><p class='footer' style='font-size:35px; line-height:30px;'>任务要求：\n           <p class='footer' style='font-size:35px; line-height:35px;'>对于与“朋友”对应的图形：如果 匹配 ，请按 <span style=\""color: lightgreen;\"">f键</span></p><p class='footer' style='font-size:35px'>如果 不匹配 ，请按<span style=\""color: lightgreen;\"">d键</p></span>\n           <p class='footer' style='font-size:35px; line-height:35px;'>对于非“朋友”对应的图形：如果 匹配 ，请按 <span style=\""color: lightgreen;\"">j键</span></p><p class='footer' style='font-size:35px'>如果 不匹配 ，请按<span style=\""color: lightgreen;\"">k键</p></span>\n           <p class='footer' style='font-size:22px; line-height:25px;'>请在实验过程中将您的<span style=\""color: lightgreen;\"">食指和中指</span>放在电脑键盘的相应键位上进行按键。</p></span>""]"," ","","","","","","","","","","","","","","","","","","","","","","","",""
"","","","","","psychophysics","37","229932","0.0-10.0-0.0-0.0","4424","","j","","","","","","","","","","","","","key","j","16.666806153846153","960","536","j","true","img/S_28.png","自我","freeprac_friend","",""
"","","","","","html-keyboard-response","38","230238","0.0-10.0-0.0-1.0","null","<span style='color:GreenYellow; font-size: 70px;'>正确! </span>","null","","","","","","","","","","","","","","","","","","","","","","","feedback_test",""
"","","","","","psychophysics","39","233280","0.0-10.0-0.0-0.1","2039","","j","","","","","","","","","","","","","key","j","16.66795604395604","960","536","j","true","img/C_28.png","生人","freeprac_friend","",""
"","","","","","html-keyboard-response","40","233596","0.0-10.0-0.0-1.1","null","<span style='color:GreenYellow; font-size: 70px;'>正确! </span>","null","","","","","","","","","","","","","","","","","","","","","","","feedback_test",""
"","","","","","psychophysics","41","237344","0.0-10.0-0.0-0.2","2744","","j","","","","","","","","","","","","","key","j","16.666656250000024","960","536","j","true","img/C_28.png","生人","freeprac_friend","",""
"","","","","","html-keyboard-response","42","237656","0.0-10.0-0.0-1.2","null","<span style='color:GreenYellow; font-size: 70px;'>正确! </span>","null","","","","","","","","","","","","","","","","","","","","","","","feedback_test",""
"","","","","","psychophysics","43","240251","0.0-10.0-0.0-0.3","1594","","d","","","","","","","","","","","","","key","d","16.667767741935396","960","536","d","true","img/H_28.png","生人","freeprac_friend","",""
"","","","","","html-keyboard-response","44","240563","0.0-10.0-0.0-1.3","null","<span style='color:GreenYellow; font-size: 70px;'>正确! </span>","null","","","","","","","","","","","","","","","","","","","","","","","feedback_test",""
"","","","","","psychophysics","45","245716","0.0-10.0-0.0-0.4","4141","","k","","","","","","","","","","","","","key","k","16.667915584415564","960","536","k","true","img/S_28.png","朋友","freeprac_friend","",""
"","","","","","html-keyboard-response","46","246028","0.0-10.0-0.0-1.4","null","<span style='color:GreenYellow; font-size: 70px;'>正确! </span>","null","","","","","","","","","","","","","","","","","","","","","","","feedback_test",""
"","","","","","psychophysics","47","248666","0.0-10.0-0.0-0.5","1625","","j","","","","","","","","","","","","","key","j","16.668216560509578","960","536","j","true","img/S_28.png","自我","freeprac_friend","",""
"","","","","","html-keyboard-response","48","248974","0.0-10.0-0.0-1.5","null","<span style='color:GreenYellow; font-size: 70px;'>正确! </span>","null","","","","","","","","","","","","","","","","","","","","","","","feedback_test",""
"","","","","","psychophysics","49","251670","0.0-10.0-0.0-0.6","1694","","f","","","","","","","","","","","","","key","f","16.667456250000033","960","536","f","true","img/H_28.png","朋友","freeprac_friend","",""
"","","","","","html-keyboard-response","50","251973","0.0-10.0-0.0-1.6","null","<span style='color:GreenYellow; font-size: 70px;'>正确! </span>","null","","","","","","","","","","","","","","","","","","","","","","","feedback_test",""
"","","","","","psychophysics","51","254563","0.0-10.0-0.0-0.7","1588","","k","","","","","","","","","","","","","key","k","16.57914285714301","960","536","k","true","img/C_28.png","自我","freeprac_friend","",""
"","","","","","html-keyboard-response","52","254876","0.0-10.0-0.0-1.7","null","<span style='color:GreenYellow; font-size: 70px;'>正确! </span>","null","","","","","","","","","","","","","","","","","","","","","","","feedback_test",""
"","","","","","psychophysics","53","257392","0.0-10.0-0.0-0.8","1501","","k","","","","","","","","","","","","","key","k","16.66778523489933","960","536","k","true","img/S_28.png","生人","freeprac_friend","",""
"","","","","","html-keyboard-response","54","257704","0.0-10.0-0.0-1.8","null","<span style='color:GreenYellow; font-size: 70px;'>正确! </span>","null","","","","","","","","","","","","","","","","","","","","","","","feedback_test",""
"","","","","","psychophysics","55","260144","0.0-10.0-0.0-0.9","1439","","f","","","","","","","","","","","","","key","f","16.66671428571437","960","536","f","true","img/H_28.png","朋友","freeprac_friend","",""
"","","","","","html-keyboard-response","56","260453","0.0-10.0-0.0-1.9","null","<span style='color:GreenYellow; font-size: 70px;'>正确! </span>","null","","","","","","","","","","","","","","","","","","","","","","","feedback_test",""
"","","","","","psychophysics","57","262283","0.0-10.0-0.0-0.10","826","","k","","","","","","","","","","","","","key","k","16.66965137614704","960","536","k","true","img/C_28.png","朋友","freeprac_friend","",""
"","","","","","html-keyboard-response","58","262802","0.0-10.0-0.0-1.10","null","<span style='color:GreenYellow; font-size: 70px;'>正确! </span>","null","","","","","","","","","","","","","","","","","","","","","","","feedback_test",""
"","","","","","psychophysics","59","265851","0.0-10.0-0.0-0.11","1042","","d","","","","","","","","","","","","","key","d","16.667109890109835","960","536","d","true","img/H_28.png","自我","freeprac_friend","",""
"","","","","","html-keyboard-response","60","266156","0.0-10.0-0.0-1.11","null","<span style='color:GreenYellow; font-size: 70px;'>正确! </span>","null","","","","","","","","","","","","","","","","","","","","","","","feedback_test",""
"","","","","","html-keyboard-response","61","270735","0.0-11.0","4579","[""<style>.context{color:white; font-size: 35px; line-height:40px}</style>               <div><p class='context'>您正确回答了100% 的试次。</p><p class='context'>您的平均反应时为2055毫秒。</p><p class='context'>恭喜您完成这一阶段的练习。按任意键进入<span style='color: yellow;'>重点关注图形为“生人”</span>的练习。</p></div><p class='footer' style='font-size:35px; line-height:30px;'>任务要求：\n               <p class='footer' style='font-size:35px; line-height:35px;'>对与“生人”对应的图形，如果 匹配 ，请按 <span style=\""color: lightgreen;\"">f键</span></p><p class='footer' style='font-size:35px'>如果 不匹配 ，请按<span style=\""color: lightgreen;\"">d键</p></span>\n               <p class='footer' style='font-size:35px; line-height:35px;'>对非“生人”对应的图形，如果 匹配 ，请按 <span style=\""color: lightgreen;\"">j键</span></p><p class='footer' style='font-size:35px'>如果 不匹配 ，请按<span style=\""color: lightgreen;\"">k键</p></span>\n               <p class='footer' style='font-size:22px; line-height:25px;'>请在实验过程中将您的<span style=\""color: lightgreen;\"">食指和中指</span>放在电脑键盘的相应键位上进行按键。</p></span>""]"," ","","","","","","","","","","","","","","","","","","","","","","","",""
"","","","","","psychophysics","62","272898","0.0-12.0-0.0-0.0","1095","","d","","","","","","","","","","","","","key","d","16.669069767441844","960","536","d","true","img/C_28.png","朋友","freeprac_stranger","",""
"","","","","","html-keyboard-response","63","273208","0.0-12.0-0.0-1.0","null","<span style='color:GreenYellow; font-size: 70px;'>正确! </span>","null","","","","","","","","","","","","","","","","","","","","","","","feedback_test",""
"","","","","","psychophysics","64","275704","0.0-12.0-0.0-0.1","1495","","k","","","","","","","","","","","","","key","k","16.6676013513517","960","536","k","true","img/S_28.png","生人","freeprac_stranger","",""
"","","","","","html-keyboard-response","65","276020","0.0-12.0-0.0-1.1","null","<span style='color:GreenYellow; font-size: 70px;'>正确! </span>","null","","","","","","","","","","","","","","","","","","","","","","","feedback_test",""
"","","","","","psychophysics","66","279414","0.0-12.0-0.0-0.2","2392","","j","","","","","","","","","","","","","key","j","16.66791133004931","960","536","j","true","img/H_28.png","朋友","freeprac_stranger","",""
"","","","","","html-keyboard-response","67","279729","0.0-12.0-0.0-1.2","null","<span style='color:GreenYellow; font-size: 70px;'>正确! </span>","null","","","","","","","","","","","","","","","","","","","","","","","feedback_test",""
"","","","","","psychophysics","68","283812","0.0-12.0-0.0-0.3","3069","","f","","","","","","","","","","","","","key","f","16.66767213114735","960","536","f","true","img/C_28.png","生人","freeprac_stranger","",""
"","","","","","html-keyboard-response","69","284117","0.0-12.0-0.0-1.3","null","<span style='color:GreenYellow; font-size: 70px;'>正确! </span>","null","","","","","","","","","","","","","","","","","","","","","","","feedback_test",""
"","","","","","psychophysics","70","288504","0.0-12.0-0.0-0.4","2702","","k","","","","","","","","","","","","","key","k","16.667534351144926","960","536","k","true","img/H_28.png","自我","freeprac_stranger","",""
"","","","","","html-keyboard-response","71","288813","0.0-12.0-0.0-1.4","null","<span style='color:GreenYellow; font-size: 70px;'>正确! </span>","null","","","","","","","","","","","","","","","","","","","","","","","feedback_test",""
"","","","","","psychophysics","72","291752","0.0-12.0-0.0-0.5","1926","","j","","","","","","","","","","","","","key","j","16.66682857142861","960","536","j","true","img/S_28.png","自我","freeprac_stranger","",""
"","","","","","html-keyboard-response","73","292063","0.0-12.0-0.0-1.5","null","<span style='color:GreenYellow; font-size: 70px;'>正确! </span>","null","","","","","","","","","","","","","","","","","","","","","","","feedback_test",""
"","","","","","psychophysics","74","294679","0.0-12.0-0.0-0.6","1613","","k","","","","","","","","","","","","","key","k","16.66682692307707","960","536","k","true","img/S_28.png","朋友","freeprac_stranger","",""
"","","","","","html-keyboard-response","75","294985","0.0-12.0-0.0-1.6","null","<span style='color:GreenYellow; font-size: 70px;'>正确! </span>","null","","","","","","","","","","","","","","","","","","","","","","","feedback_test",""
"","","","","","psychophysics","76","297473","0.0-12.0-0.0-0.7","1481","","k","","","","","","","","","","","","","key","k","16.667641891891805","960","536","k","true","img/H_28.png","生人","freeprac_stranger","",""
"","","","","","html-keyboard-response","77","297783","0.0-12.0-0.0-1.7","null","<span style='color:GreenYellow; font-size: 70px;'>正确! </span>","null","","","","","","","","","","","","","","","","","","","","","","","feedback_test",""
"","","","","","psychophysics","78","300301","0.0-12.0-0.0-0.8","1508","","j","","","","","","","","","","","","","key","j","16.668593333333266","960","536","j","true","img/S_28.png","自我","freeprac_stranger","",""
"","","","","","html-keyboard-response","79","300605","0.0-12.0-0.0-1.8","null","<span style='color:GreenYellow; font-size: 70px;'>正确! </span>","null","","","","","","","","","","","","","","","","","","","","","","","feedback_test",""
"","","","","","psychophysics","80","302962","0.0-12.0-0.0-0.9","1351","","d","","","","","","","","","","","","","key","d","16.666695035460688","960","536","d","true","img/C_28.png","自我","freeprac_stranger","",""
"","","","","","html-keyboard-response","81","303263","0.0-12.0-0.0-1.9","null","<span style='color:GreenYellow; font-size: 70px;'>正确! </span>","null","","","","","","","","","","","","","","","","","","","","","","","feedback_test",""
"","","","","","psychophysics","82","306420","0.0-12.0-0.0-0.10","2143","","f","","","","","","","","","","","","","key","f","16.666420212766017","960","536","f","true","img/C_28.png","生人","freeprac_stranger","",""
"","","","","","html-keyboard-response","83","306721","0.0-12.0-0.0-1.10","null","<span style='color:GreenYellow; font-size: 70px;'>正确! </span>","null","","","","","","","","","","","","","","","","","","","","","","","feedback_test",""
"","","","","","psychophysics","84","309346","0.0-12.0-0.0-0.11","1619","","k","","","","","","","","","","","","","key","k","16.668312101910754","960","536","j","false","img/H_28.png","朋友","freeprac_stranger","",""
"","","","","","html-keyboard-response","85","309653","0.0-12.0-0.0-1.11","null","<span style='color:red; font-size: 70px;'>错误! </span>","null","","","","","","","","","","","","","","","","","","","","","","","feedback_test",""
"","","","","","instructions","86","325510","0.0-13.0","15856","","","","","","","","","","","","","","[{""page_index"":0,""viewing_time"":15856}]","","","","","","","","","","","",""
"","","","","","psychophysics","87","328025","0.0-14.0-0.0-0.0","null","","null","","","","","","","","","","","","","key","null","16.668000000000045","960","536","k","false","img/C_28.png","朋友","prac_self","","生人"
"","","","","","html-keyboard-response","88","328339","0.0-14.0-0.0-1.0","null","<span class='add_' style='color:yellow; font-size: 70px;'> 太慢! </span>","null","","","","","","","","","","","","","","","","","","","","","","","feedback_test",""
"","","","","","psychophysics","89","331248","0.0-14.0-0.0-0.1","1907","","k","","","","","","","","","","","","","key","k","16.668419540229845","960","536","d","false","img/S_28.png","朋友","prac_self","","自我"
"","","","","","html-keyboard-response","90","331557","0.0-14.0-0.0-1.1","null","<span class='add_' style='color:yellow; font-size: 70px;'> 太慢! </span>","null","","","","","","","","","","","","","","","","","","","","","","","feedback_test",""
"","","","","","psychophysics","91","334033","0.0-14.0-0.0-0.2","1473","","f","","","","","","","","","","","","","key","f","16.66744594594599","960","536","f","true","img/S_28.png","自我","prac_self","","自我"
"","","","","","html-keyboard-response","92","334338","0.0-14.0-0.0-1.2","null","<span style='color:GreenYellow; font-size: 70px;'>正确! </span>","null","","","","","","","","","","","","","","","","","","","","","","","feedback_test",""
"","","","","","psychophysics","93","336782","0.0-14.0-0.0-0.3","1442","","k","","","","","","","","","","","","","key","k","16.66696575342451","960","536","k","true","img/H_28.png","自我","prac_self","","朋友"
"","","","","","html-keyboard-response","94","337085","0.0-14.0-0.0-1.3","null","<span style='color:GreenYellow; font-size: 70px;'>正确! </span>","null","","","","","","","","","","","","","","","","","","","","","","","feedback_test",""
"","","","","","psychophysics","95","339322","0.0-14.0-0.0-0.4","1228","","j","","","","","","","","","","","","","key","j","16.66764661654107","960","536","j","true","img/C_28.png","生人","prac_self","","生人"
"","","","","","html-keyboard-response","96","339633","0.0-14.0-0.0-1.4","null","<span style='color:GreenYellow; font-size: 70px;'>正确! </span>","null","","","","","","","","","","","","","","","","","","","","","","","feedback_test",""
"","","","","","psychophysics","97","341522","0.0-14.0-0.0-0.5","877","","f","","","","","","","","","","","","","key","f","16.666758928571653","960","536","f","true","img/S_28.png","自我","prac_self","","自我"
"","","","","","html-keyboard-response","98","342812","0.0-14.0-0.0-1.5","null","<span style='color:GreenYellow; font-size: 70px;'>正确! </span>","null","","","","","","","","","","","","","","","","","","","","","","","feedback_test",""
"","","","","","psychophysics","99","345325","0.0-14.0-0.0-0.6","null","","null","","","","","","","","","","","","","key","null","16.666644295302124","960","536","d","false","img/S_28.png","生人","prac_self","","自我"
"","","","","","html-keyboard-response","100","345637","0.0-14.0-0.0-1.6","null","<span class='add_' style='color:yellow; font-size: 70px;'> 太慢! </span>","null","","","","","","","","","","","","","","","","","","","","","","","feedback_test",""
"","","","","","psychophysics","101","347573","0.0-14.0-0.0-0.7","929","","k","","","","","","","","","","","","","key","k","16.667286956521846","960","536","j","false","img/H_28.png","朋友","prac_self","","朋友"
"","","","","","html-keyboard-response","102","347881","0.0-14.0-0.0-1.7","null","<span style='color:red; font-size: 70px;'>错误! </span>","null","","","","","","","","","","","","","","","","","","","","","","","feedback_test",""
"","","","","","psychophysics","103","350290","0.0-14.0-0.0-0.8","1396","","k","","","","","","","","","","","","","key","k","16.666958041958043","960","536","j","false","img/C_28.png","生人","prac_self","","生人"
"","","","","","html-keyboard-response","104","350594","0.0-14.0-0.0-1.8","null","<span style='color:red; font-size: 70px;'>错误! </span>","null","","","","","","","","","","","","","","","","","","","","","","","feedback_test",""
"","","","","","psychophysics","105","352918","0.0-14.0-0.0-0.9","1323","","k","","","","","","","","","","","","","key","k","16.667217391304355","960","536","k","true","img/C_28.png","自我","prac_self","","生人"
"","","","","","html-keyboard-response","106","353233","0.0-14.0-0.0-1.9","null","<span style='color:GreenYellow; font-size: 70px;'>正确! </span>","null","","","","","","","","","","","","","","","","","","","","","","","feedback_test",""
"","","","","","psychophysics","107","355811","0.0-14.0-0.0-0.10","null","","null","","","","","","","","","","","","","key","null","16.66807142857125","960","536","j","false","img/H_28.png","朋友","prac_self","","朋友"
"","","","","","html-keyboard-response","108","356127","0.0-14.0-0.0-1.10","null","<span class='add_' style='color:yellow; font-size: 70px;'> 太慢! </span>","null","","","","","","","","","","","","","","","","","","","","","","","feedback_test",""
"","","","","","psychophysics","109","358131","0.0-14.0-0.0-0.11","1003","","k","","","","","","","","","","","","","key","k","16.666815126050135","960","536","k","true","img/H_28.png","生人","prac_self","","朋友"
"","","","","","html-keyboard-response","110","358439","0.0-14.0-0.0-1.11","null","<span style='color:GreenYellow; font-size: 70px;'>正确! </span>","null","","","","","","","","","","","","","","","","","","","","","","","feedback_test",""
"","","","","","psychophysics","111","360362","0.0-14.0-0.0-0.12","917","","j","","","","","","","","","","","","","key","j","16.667078260869374","960","536","j","true","img/C_28.png","生人","prac_self","","生人"
"","","","","","html-keyboard-response","112","360666","0.0-14.0-0.0-1.12","null","<span style='color:GreenYellow; font-size: 70px;'>正确! </span>","null","","","","","","","","","","","","","","","","","","","","","","","feedback_test",""
"","","","","","psychophysics","113","362803","0.0-14.0-0.0-0.13","999","","k","","","","","","","","","","","","","key","k","16.66708661417301","960","536","d","false","img/S_28.png","朋友","prac_self","","自我"
"","","","","","html-keyboard-response","114","363116","0.0-14.0-0.0-1.13","null","<span style='color:red; font-size: 70px;'>错误! </span>","null","","","","","","","","","","","","","","","","","","","","","","","feedback_test",""
"","","","","","psychophysics","115","365443","0.0-14.0-0.0-0.14","1314","","k","","","","","","","","","","","","","key","k","16.668014492753528","960","536","j","false","img/H_28.png","朋友","prac_self","","朋友"
"","","","","","html-keyboard-response","116","365750","0.0-14.0-0.0-1.14","null","<span style='color:red; font-size: 70px;'>错误! </span>","null","","","","","","","","","","","","","","","","","","","","","","","feedback_test",""
"","","","","","psychophysics","117","367663","0.0-14.0-0.0-0.15","912","","k","","","","","","","","","","","","","key","k","16.667017543859977","960","536","k","true","img/C_28.png","朋友","prac_self","","生人"
"","","","","","html-keyboard-response","118","368807","0.0-14.0-0.0-1.15","null","<span style='color:GreenYellow; font-size: 70px;'>正确! </span>","null","","","","","","","","","","","","","","","","","","","","","","","feedback_test",""
"","","","","","psychophysics","119","371110","0.0-14.0-0.0-0.16","301","","j","","","","","","","","","","","","","key","j","16.66899270072994","960","536","j","true","img/C_28.png","生人","prac_self","","生人"
"","","","","","html-keyboard-response","120","371420","0.0-14.0-0.0-1.16","null","<span style='color:GreenYellow; font-size: 70px;'>正确! </span>","null","","","","","","","","","","","","","","","","","","","","","","","feedback_test",""
"","","","","","psychophysics","121","373528","0.0-14.0-0.0-0.17","1099","","k","","","","","","","","","","","","","key","k","16.66708799999999","960","536","k","true","img/C_28.png","自我","prac_self","","生人"
"","","","","","html-keyboard-response","122","373837","0.0-14.0-0.0-1.17","null","<span style='color:GreenYellow; font-size: 70px;'>正确! </span>","null","","","","","","","","","","","","","","","","","","","","","","","feedback_test",""
"","","","","","psychophysics","123","376721","0.0-14.0-0.0-0.18","1879","","j","","","","","","","","","","","","","key","j","16.667877906976745","960","536","j","true","img/H_28.png","朋友","prac_self","","朋友"
"","","","","","html-keyboard-response","124","377031","0.0-14.0-0.0-1.18","null","<span class='add_' style='color:yellow; font-size: 70px;'> 太慢! </span>","null","","","","","","","","","","","","","","","","","","","","","","","feedback_test",""
"","","","","","psychophysics","125","378973","0.0-14.0-0.0-0.19","928","","f","","","","","","","","","","","","","key","f","16.66680869565234","960","536","f","true","img/S_28.png","自我","prac_self","","自我"
"","","","","","html-keyboard-response","126","379278","0.0-14.0-0.0-1.19","null","<span style='color:GreenYellow; font-size: 70px;'>正确! </span>","null","","","","","","","","","","","","","","","","","","","","","","","feedback_test",""
"","","","","","psychophysics","127","381304","0.0-14.0-0.0-0.20","1025","","k","","","","","","","","","","","","","key","k","16.6679833333333","960","536","k","true","img/H_28.png","生人","prac_self","","朋友"
"","","","","","html-keyboard-response","128","381617","0.0-14.0-0.0-1.20","null","<span style='color:GreenYellow; font-size: 70px;'>正确! </span>","null","","","","","","","","","","","","","","","","","","","","","","","feedback_test",""
"","","","","","psychophysics","129","383292","0.0-14.0-0.0-0.21","488","","f","","","","","","","","","","","","","key","f","16.66761616161599","960","536","f","true","img/S_28.png","自我","prac_self","","自我"
"","","","","","html-keyboard-response","130","383600","0.0-14.0-0.0-1.21","null","<span style='color:GreenYellow; font-size: 70px;'>正确! </span>","null","","","","","","","","","","","","","","","","","","","","","","","feedback_test",""
"","","","","","psychophysics","131","385722","0.0-14.0-0.0-0.22","1118","","k","","","","","","","","","","","","","key","k","16.66884126984154","960","536","k","true","img/H_28.png","自我","prac_self","","朋友"
"","","","","","html-keyboard-response","132","386027","0.0-14.0-0.0-1.22","null","<span style='color:GreenYellow; font-size: 70px;'>正确! </span>","null","","","","","","","","","","","","","","","","","","","","","","","feedback_test",""
"","","","","","psychophysics","133","388152","0.0-14.0-0.0-0.23","1123","","d","","","","","","","","","","","","","key","d","16.668277777778076","960","536","d","true","img/S_28.png","生人","prac_self","","自我"
"","","","","","html-keyboard-response","134","388805","0.0-14.0-0.0-1.23","null","<span style='color:GreenYellow; font-size: 70px;'>正确! </span>","null","","","","","","","","","","","","","","","","","","","","","","","feedback_test",""
"","","","","","html-keyboard-response","135","393762","0.0-14.0-1.0-0.0","4956","<style>.context{color:white; font-size: 35px; line-height:40px}</style>                           <div><p class='context'>您正确回答了67% 的试次。</p><p class='context'>您的平均反应时为1071毫秒。</p>"," ","","","","","","","","","","","","","","","","","","","","","","","",""
"","","","","","instructions","136","401076","0.0-14.0-1.0-1.0","7312","","","","","","","","","","","","","","[{""page_index"":0,""viewing_time"":3609},{""page_index"":1,""viewing_time"":2559},{""page_index"":2,""viewing_time"":1144}]","","","","","","","","","","","",""
"","","","","","psychophysics","137","403439","0.0-14.1-0.1-0.24","1360","","j","","","","","","","","","","","","","key","j","16.66736428571416","960","536","k","false","img/C_28.png","自我","prac_self","","生人"
"","","","","","html-keyboard-response","138","403753","0.0-14.1-0.1-1.24","null","<span style='color:red; font-size: 70px;'>错误! </span>","null","","","","","","","","","","","","","","","","","","","","","","","feedback_test",""
"","","","","","psychophysics","139","406804","0.0-14.1-0.1-0.25","null","","null","","","","","","","","","","","","","key","null","16.667335164835254","960","536","k","false","img/H_28.png","生人","prac_self","","朋友"
"","","","","","html-keyboard-response","140","407804","0.0-14.1-0.1-1.25","null","<span class='add_' style='color:yellow; font-size: 70px;'> 太慢! </span>","null","","","","","","","","","","","","","","","","","","","","","","","feedback_test",""
"","","","","","psychophysics","141","410197","0.0-14.1-0.1-0.26","394","","j","","","","","","","","","","","","","key","j","16.667615384615264","960","536","j","true","img/C_28.png","生人","prac_self","","生人"
"","","","","","html-keyboard-response","142","410504","0.0-14.1-0.1-1.26","null","<span style='color:GreenYellow; font-size: 70px;'>正确! </span>","null","","","","","","","","","","","","","","","","","","","","","","","feedback_test",""
"","","","","","psychophysics","143","413013","0.0-14.1-0.1-0.27","null","","null","","","","","","","","","","","","","key","null","16.667560000000133","960","536","d","false","img/S_28.png","朋友","prac_self","","自我"
"","","","","","html-keyboard-response","144","413327","0.0-14.1-0.1-1.27","null","<span class='add_' style='color:yellow; font-size: 70px;'> 太慢! </span>","null","","","","","","","","","","","","","","","","","","","","","","","feedback_test",""
"","","","","","psychophysics","145","415588","0.0-14.1-0.1-0.28","1258","","k","","","","","","","","","","","","","key","k","16.57065671641786","960","536","j","false","img/H_28.png","朋友","prac_self","","朋友"
"","","","","","html-keyboard-response","146","415900","0.0-14.1-0.1-1.28","null","<span style='color:red; font-size: 70px;'>错误! </span>","null","","","","","","","","","","","","","","","","","","","","","","","feedback_test",""
"","","","","","psychophysics","147","418271","0.0-14.1-0.1-0.29","1369","","k","","","","","","","","","","","","","key","k","16.66699290780164","960","536","k","true","img/C_28.png","朋友","prac_self","","生人"
"","","","","","html-keyboard-response","148","418582","0.0-14.1-0.1-1.29","null","<span style='color:GreenYellow; font-size: 70px;'>正确! </span>","null","","","","","","","","","","","","","","","","","","","","","","","feedback_test",""
"","","","","","psychophysics","149","420680","0.0-14.1-0.1-0.30","1095","","k","","","","","","","","","","","","","key","k","16.666024193548385","960","536","k","true","img/H_28.png","自我","prac_self","","朋友"
"","","","","","html-keyboard-response","150","420989","0.0-14.1-0.1-1.30","null","<span style='color:GreenYellow; font-size: 70px;'>正确! </span>","null","","","","","","","","","","","","","","","","","","","","","","","feedback_test",""
"","","","","","psychophysics","151","423242","0.0-14.1-0.1-0.31","1244","","j","","","","","","","","","","","","","key","j","16.667074626865936","960","536","j","true","img/C_28.png","生人","prac_self","","生人"
"","","","","","html-keyboard-response","152","423547","0.0-14.1-0.1-1.31","null","<span style='color:GreenYellow; font-size: 70px;'>正确! </span>","null","","","","","","","","","","","","","","","","","","","","","","","feedback_test",""
"","","","","","psychophysics","153","426004","0.0-14.1-0.1-0.32","1457","","d","","","","","","","","","","","","","key","d","16.668445205479408","960","536","d","true","img/S_28.png","生人","prac_self","","自我"
"","","","","","html-keyboard-response","154","426319","0.0-14.1-0.1-1.32","null","<span style='color:GreenYellow; font-size: 70px;'>正确! </span>","null","","","","","","","","","","","","","","","","","","","","","","","feedback_test",""
"","","","","","psychophysics","155","428024","0.0-14.1-0.1-0.33","693","","f","","","","","","","","","","","","","key","f","16.66945544554446","960","536","f","true","img/S_28.png","自我","prac_self","","自我"
"","","","","","html-keyboard-response","156","428333","0.0-14.1-0.1-1.33","null","<span style='color:GreenYellow; font-size: 70px;'>正确! </span>","null","","","","","","","","","","","","","","","","","","","","","","","feedback_test",""
"","","","","","psychophysics","157","430388","0.0-14.1-0.1-0.34","1041","","k","","","","","","","","","","","","","key","k","16.665713114754134","960","536","j","false","img/H_28.png","朋友","prac_self","","朋友"
"","","","","","html-keyboard-response","158","430703","0.0-14.1-0.1-1.34","null","<span style='color:red; font-size: 70px;'>错误! </span>","null","","","","","","","","","","","","","","","","","","","","","","","feedback_test",""
"","","","","","psychophysics","159","432608","0.0-14.1-0.1-0.35","807","","f","","","","","","","","","","","","","key","f","16.668079646017848","960","536","f","true","img/S_28.png","自我","prac_self","","自我"
"","","","","","html-keyboard-response","160","432922","0.0-14.1-0.1-1.35","null","<span style='color:GreenYellow; font-size: 70px;'>正确! </span>","null","","","","","","","","","","","","","","","","","","","","","","","feedback_test",""
"","","","","","psychophysics","161","435325","0.0-14.1-0.1-0.36","1394","","d","","","","","","","","","","","","","key","d","16.668475524475554","960","536","d","true","img/S_28.png","生人","prac_self","","自我"
"","","","","","html-keyboard-response","162","435629","0.0-14.1-0.1-1.36","null","<span style='color:GreenYellow; font-size: 70px;'>正确! </span>","null","","","","","","","","","","","","","","","","","","","","","","","feedback_test",""
"","","","","","psychophysics","163","437965","0.0-14.1-0.1-0.37","1334","","j","","","","","","","","","","","","","key","j","16.572525179856154","960","536","j","true","img/H_28.png","朋友","prac_self","","朋友"
"","","","","","html-keyboard-response","164","438270","0.0-14.1-0.1-1.37","null","<span style='color:GreenYellow; font-size: 70px;'>正确! </span>","null","","","","","","","","","","","","","","","","","","","","","","","feedback_test",""
"","","","","","psychophysics","165","440173","0.0-14.1-0.1-0.38","901","","j","","","","","","","","","","","","","key","j","16.668955752212426","960","536","j","true","img/C_28.png","生人","prac_self","","生人"
"","","","","","html-keyboard-response","166","440475","0.0-14.1-0.1-1.38","null","<span style='color:GreenYellow; font-size: 70px;'>正确! </span>","null","","","","","","","","","","","","","","","","","","","","","","","feedback_test",""
"","","","","","psychophysics","167","442394","0.0-14.1-0.1-0.39","912","","k","","","","","","","","","","","","","key","k","16.668342105263083","960","536","k","true","img/C_28.png","朋友","prac_self","","生人"
"","","","","","html-keyboard-response","168","442711","0.0-14.1-0.1-1.39","null","<span style='color:GreenYellow; font-size: 70px;'>正确! </span>","null","","","","","","","","","","","","","","","","","","","","","","","feedback_test",""
"","","","","","psychophysics","169","444901","0.0-14.1-0.1-0.40","1100","","j","","","","","","","","","","","","","key","j","16.66813740458025","960","536","j","true","img/H_28.png","朋友","prac_self","","朋友"
"","","","","","html-keyboard-response","170","445205","0.0-14.1-0.1-1.40","null","<span style='color:GreenYellow; font-size: 70px;'>正确! </span>","null","","","","","","","","","","","","","","","","","","","","","","","feedback_test",""
"","","","","","psychophysics","171","447486","0.0-14.1-0.1-0.41","1279","","f","","","","","","","","","","","","","key","f","16.66704411764744","960","536","d","false","img/S_28.png","朋友","prac_self","","自我"
"","","","","","html-keyboard-response","172","447797","0.0-14.1-0.1-1.41","null","<span style='color:red; font-size: 70px;'>错误! </span>","null","","","","","","","","","","","","","","","","","","","","","","","feedback_test",""
"","","","","","psychophysics","173","449683","0.0-14.1-0.1-0.42","885","","f","","","","","","","","","","","","","key","f","16.66683928571417","960","536","f","true","img/S_28.png","自我","prac_self","","自我"
"","","","","","html-keyboard-response","174","450801","0.0-14.1-0.1-1.42","null","<span style='color:GreenYellow; font-size: 70px;'>正确! </span>","null","","","","","","","","","","","","","","","","","","","","","","","feedback_test",""
"","","","","","psychophysics","175","452975","0.0-14.1-0.1-0.43","170","","k","","","","","","","","","","","","","key","k","16.666984496123785","960","536","k","true","img/H_28.png","自我","prac_self","","朋友"
"","","","","","html-keyboard-response","176","453287","0.0-14.1-0.1-1.43","null","<span style='color:yellow; font-size: 70px;'>过快! </span>","null","","","","","","","","","","","","","","","","","","","","","","","feedback_test",""
"","","","","","psychophysics","177","455571","0.0-14.1-0.1-0.44","1272","","j","","","","","","","","","","","","","key","j","16.668249999999876","960","536","j","true","img/C_28.png","生人","prac_self","","生人"
"","","","","","html-keyboard-response","178","455872","0.0-14.1-0.1-1.44","null","<span style='color:GreenYellow; font-size: 70px;'>正确! </span>","null","","","","","","","","","","","","","","","","","","","","","","","feedback_test",""
"","","","","","psychophysics","179","458111","0.0-14.1-0.1-0.45","1229","","k","","","","","","","","","","","","","key","k","16.667380597014954","960","536","k","true","img/C_28.png","自我","prac_self","","生人"
"","","","","","html-keyboard-response","180","458419","0.0-14.1-0.1-1.45","null","<span style='color:GreenYellow; font-size: 70px;'>正确! </span>","null","","","","","","","","","","","","","","","","","","","","","","","feedback_test",""
"","","","","","psychophysics","181","460376","0.0-14.1-0.1-0.46","944","","k","","","","","","","","","","","","","key","k","16.669077586207003","960","536","k","true","img/H_28.png","生人","prac_self","","朋友"
"","","","","","html-keyboard-response","182","460682","0.0-14.1-0.1-1.46","null","<span style='color:GreenYellow; font-size: 70px;'>正确! </span>","null","","","","","","","","","","","","","","","","","","","","","","","feedback_test",""
"","","","","","psychophysics","183","462396","0.0-14.1-0.1-0.47","713","","f","","","","","","","","","","","","","key","f","16.66615841584165","960","536","f","true","img/S_28.png","自我","prac_self","","自我"
"","","","","","html-keyboard-response","184","462697","0.0-14.1-0.1-1.47","null","<span style='color:GreenYellow; font-size: 70px;'>正确! </span>","null","","","","","","","","","","","","","","","","","","","","","","","feedback_test",""
"","","","","","html-keyboard-response","185","475563","0.0-15.0","12864","[""<style>.context{color:white; font-size: 35px; line-height:40px}</style>           <div><p class='context'>您正确回答了75% 的试次。</p><p class='context'>您的平均反应时为995毫秒。</p><p class='context'>恭喜您完成这一阶段的练习。按任意键进入<span style='color: yellow;'>重点关注图形为“朋友”</span>的练习。</p></div><p class='footer' style='font-size:35px; line-height:30px;'>任务要求：\n           <p class='footer' style='font-size:35px; line-height:35px;'>对于与“朋友”对应的图形：如果 匹配 ，请按 <span style=\""color: lightgreen;\"">f键</span></p><p class='footer' style='font-size:35px'>如果 不匹配 ，请按<span style=\""color: lightgreen;\"">d键</p></span>\n           <p class='footer' style='font-size:35px; line-height:35px;'>对于非“朋友”对应的图形：如果 匹配 ，请按 <span style=\""color: lightgreen;\"">j键</span></p><p class='footer' style='font-size:35px'>如果 不匹配 ，请按<span style=\""color: lightgreen;\"">k键</p></span>\n           <p class='footer' style='font-size:22px; line-height:25px;'>请在实验过程中将您的<span style=\""color: lightgreen;\"">食指和中指</span>放在电脑键盘的相应键位上进行按键。</p></span>""]"," ","","","","","","","","","","","","","","","","","","","","","","","",""
"","","","","","psychophysics","186","477351","0.0-16.0-0.0-0.0","783","","f","","","","","","","","","","","","","key","f","16.66729906542068","960","536","f","true","img/H_28.png","朋友","prac_friend","","朋友"
"","","","","","html-keyboard-response","187","477656","0.0-16.0-0.0-1.0","null","<span style='color:GreenYellow; font-size: 70px;'>正确! </span>","null","","","","","","","","","","","","","","","","","","","","","","","feedback_test",""
"","","","","","psychophysics","188","479472","0.0-16.0-0.0-0.1","806","","k","","","","","","","","","","","","","key","k","16.666888888889204","960","536","k","true","img/C_28.png","自我","prac_friend","","生人"
"","","","","","html-keyboard-response","189","479780","0.0-16.0-0.0-1.1","null","<span style='color:GreenYellow; font-size: 70px;'>正确! </span>","null","","","","","","","","","","","","","","","","","","","","","","","feedback_test",""
"","","","","","psychophysics","190","482056","0.0-16.0-0.0-0.2","1257","","j","","","","","","","","","","","","","key","j","16.574059259258988","960","536","j","true","img/S_28.png","自我","prac_friend","","自我"
"","","","","","html-keyboard-response","191","482367","0.0-16.0-0.0-1.2","null","<span style='color:GreenYellow; font-size: 70px;'>正确! </span>","null","","","","","","","","","","","","","","","","","","","","","","","feedback_test",""
"","","","","","psychophysics","192","484143","0.0-16.0-0.0-0.3","760","","k","","","","","","","","","","","","","key","k","16.667057142857395","960","536","d","false","img/H_28.png","自我","prac_friend","","朋友"
"","","","","","html-keyboard-response","193","484457","0.0-16.0-0.0-1.3","null","<span style='color:red; font-size: 70px;'>错误! </span>","null","","","","","","","","","","","","","","","","","","","","","","","feedback_test",""
"","","","","","psychophysics","194","486319","0.0-16.0-0.0-0.4","854","","j","","","","","","","","","","","","","key","j","16.667252252252272","960","536","j","true","img/S_28.png","自我","prac_friend","","自我"
"","","","","","html-keyboard-response","195","486631","0.0-16.0-0.0-1.4","null","<span style='color:GreenYellow; font-size: 70px;'>正确! </span>","null","","","","","","","","","","","","","","","","","","","","","","","feedback_test",""
"","","","","","psychophysics","196","488738","0.0-16.0-0.0-0.5","939","","k","","","","","","","","","","","","","key","k","16.66534400000004","960","536","k","true","img/S_28.png","生人","prac_friend","","自我"
"","","","","","html-keyboard-response","197","489044","0.0-16.0-0.0-1.5","null","<span style='color:GreenYellow; font-size: 70px;'>正确! </span>","null","","","","","","","","","","","","","","","","","","","","","","","feedback_test",""
"","","","","","psychophysics","198","491002","0.0-16.0-0.0-0.6","953","","d","","","","","","","","","","","","","key","d","16.666940170940226","960","536","f","false","img/H_28.png","朋友","prac_friend","","朋友"
"","","","","","html-keyboard-response","199","491308","0.0-16.0-0.0-1.6","null","<span style='color:red; font-size: 70px;'>错误! </span>","null","","","","","","","","","","","","","","","","","","","","","","","feedback_test",""
"","","","","","psychophysics","200","493212","0.0-16.0-0.0-0.7","902","","d","","","","","","","","","","","","","key","d","16.66698230088501","960","536","d","true","img/H_28.png","生人","prac_friend","","朋友"
"","","","","","html-keyboard-response","201","493513","0.0-16.0-0.0-1.7","null","<span style='color:GreenYellow; font-size: 70px;'>正确! </span>","null","","","","","","","","","","","","","","","","","","","","","","","feedback_test",""
"","","","","","psychophysics","202","495409","0.0-16.0-0.0-0.8","610","","k","","","","","","","","","","","","","key","k","16.815061946902773","960","536","j","false","img/C_28.png","生人","prac_friend","","生人"
"","","","","","html-keyboard-response","203","495712","0.0-16.0-0.0-1.8","null","<span style='color:red; font-size: 70px;'>错误! </span>","null","","","","","","","","","","","","","","","","","","","","","","","feedback_test",""
"","","","","","psychophysics","204","497431","0.0-16.0-0.0-0.9","715","","j","","","","","","","","","","","","","key","j","16.667441176470284","960","536","k","false","img/C_28.png","朋友","prac_friend","","生人"
"","","","","","html-keyboard-response","205","497743","0.0-16.0-0.0-1.9","null","<span style='color:red; font-size: 70px;'>错误! </span>","null","","","","","","","","","","","","","","","","","","","","","","","feedback_test",""
"","","","","","psychophysics","206","499529","0.0-16.0-0.0-0.10","780","","j","","","","","","","","","","","","","key","j","16.668009433962343","960","536","j","true","img/C_28.png","生人","prac_friend","","生人"
"","","","","","html-keyboard-response","207","499834","0.0-16.0-0.0-1.10","null","<span style='color:GreenYellow; font-size: 70px;'>正确! </span>","null","","","","","","","","","","","","","","","","","","","","","","","feedback_test",""
"","","","","","psychophysics","208","502689","0.0-16.0-0.0-0.11","889","","k","","","","","","","","","","","","","key","k","16.667717647059096","960","536","k","true","img/S_28.png","朋友","prac_friend","","自我"
"","","","","","html-keyboard-response","209","503003","0.0-16.0-0.0-1.11","null","<span style='color:GreenYellow; font-size: 70px;'>正确! </span>","null","","","","","","","","","","","","","","","","","","","","","","","feedback_test",""
"","","","","","psychophysics","210","504820","0.0-16.0-0.0-0.12","806","","k","","","","","","","","","","","","","key","k","16.666703703703845","960","536","k","true","img/C_28.png","朋友","prac_friend","","生人"
"","","","","","html-keyboard-response","211","505126","0.0-16.0-0.0-1.12","null","<span style='color:GreenYellow; font-size: 70px;'>正确! </span>","null","","","","","","","","","","","","","","","","","","","","","","","feedback_test",""
"","","","","","psychophysics","212","506841","0.0-16.0-0.0-0.13","709","","f","","","","","","","","","","","","","key","f","16.668372549019598","960","536","f","true","img/H_28.png","朋友","prac_friend","","朋友"
"","","","","","html-keyboard-response","213","507153","0.0-16.0-0.0-1.13","null","<span style='color:GreenYellow; font-size: 70px;'>正确! </span>","null","","","","","","","","","","","","","","","","","","","","","","","feedback_test",""
"","","","","","psychophysics","214","509205","0.0-16.0-0.0-0.14","406","","k","","","","","","","","","","","","","key","k","16.666262295081847","960","536","k","true","img/S_28.png","生人","prac_friend","","自我"
"","","","","","html-keyboard-response","215","509514","0.0-16.0-0.0-1.14","null","<span style='color:GreenYellow; font-size: 70px;'>正确! </span>","null","","","","","","","","","","","","","","","","","","","","","","","feedback_test",""
"","","","","","psychophysics","216","511735","0.0-16.0-0.0-0.15","1218","","j","","","","","","","","","","","","","key","j","16.56349242424238","960","536","j","true","img/S_28.png","自我","prac_friend","","自我"
"","","","","","html-keyboard-response","217","512047","0.0-16.0-0.0-1.15","null","<span style='color:GreenYellow; font-size: 70px;'>正确! </span>","null","","","","","","","","","","","","","","","","","","","","","","","feedback_test",""
"","","","","","psychophysics","218","514076","0.0-16.0-0.0-0.16","1026","","d","","","","","","","","","","","","","key","d","16.805008264462952","960","536","d","true","img/H_28.png","自我","prac_friend","","朋友"
"","","","","","html-keyboard-response","219","514810","0.0-16.0-0.0-1.16","null","<span style='color:GreenYellow; font-size: 70px;'>正确! </span>","null","","","","","","","","","","","","","","","","","","","","","","","feedback_test",""
"","","","","","psychophysics","220","516815","0.0-16.0-0.0-0.17","15","","k","","","","","","","","","","","","","key","k","16.666857142856895","960","536","d","false","img/H_28.png","生人","prac_friend","","朋友"
"","","","","","html-keyboard-response","221","517122","0.0-16.0-0.0-1.17","null","<span style='color:yellow; font-size: 70px;'>过快! </span>","null","","","","","","","","","","","","","","","","","","","","","","","feedback_test",""
"","","","","","psychophysics","222","519422","0.0-16.0-0.0-0.18","1290","","j","","","","","","","","","","","","","key","j","16.668197080292007","960","536","j","true","img/C_28.png","生人","prac_friend","","生人"
"","","","","","html-keyboard-response","223","519724","0.0-16.0-0.0-1.18","null","<span style='color:GreenYellow; font-size: 70px;'>正确! </span>","null","","","","","","","","","","","","","","","","","","","","","","","feedback_test",""
"","","","","","psychophysics","224","521962","0.0-16.0-0.0-0.19","1236","","k","","","","","","","","","","","","","key","k","16.667571428571076","960","536","k","true","img/S_28.png","朋友","prac_friend","","自我"
"","","","","","html-keyboard-response","225","522269","0.0-16.0-0.0-1.19","null","<span style='color:GreenYellow; font-size: 70px;'>正确! </span>","null","","","","","","","","","","","","","","","","","","","","","","","feedback_test",""
"","","","","","psychophysics","226","524414","0.0-16.0-0.0-0.20","1131","","k","","","","","","","","","","","","","key","k","16.666354330708035","960","536","k","true","img/C_28.png","自我","prac_friend","","生人"
"","","","","","html-keyboard-response","227","524724","0.0-16.0-0.0-1.20","null","<span style='color:GreenYellow; font-size: 70px;'>正确! </span>","null","","","","","","","","","","","","","","","","","","","","","","","feedback_test",""
"","","","","","psychophysics","228","527032","0.0-16.0-0.0-0.21","1307","","j","","","","","","","","","","","","","key","j","16.666970802919707","960","536","j","true","img/S_28.png","自我","prac_friend","","自我"
"","","","","","html-keyboard-response","229","527343","0.0-16.0-0.0-1.21","null","<span style='color:GreenYellow; font-size: 70px;'>正确! </span>","null","","","","","","","","","","","","","","","","","","","","","","","feedback_test",""
"","","","","","psychophysics","230","529174","0.0-16.0-0.0-0.22","825","","j","","","","","","","","","","","","","key","j","16.66757798165194","960","536","j","true","img/C_28.png","生人","prac_friend","","生人"
"","","","","","html-keyboard-response","231","529480","0.0-16.0-0.0-1.22","null","<span style='color:GreenYellow; font-size: 70px;'>正确! </span>","null","","","","","","","","","","","","","","","","","","","","","","","feedback_test",""
"","","","","","psychophysics","232","531119","0.0-16.0-0.0-0.23","638","","f","","","","","","","","","","","","","key","f","16.531587628866113","960","536","f","true","img/H_28.png","朋友","prac_friend","","朋友"
"","","","","","html-keyboard-response","233","531435","0.0-16.0-0.0-1.23","null","<span style='color:GreenYellow; font-size: 70px;'>正确! </span>","null","","","","","","","","","","","","","","","","","","","","","","","feedback_test",""
"","","","","","html-keyboard-response","234","535406","0.0-17.0","3968","[""<style>.context{color:white; font-size: 35px; line-height:40px}</style>               <div><p class='context'>您正确回答了79% 的试次。</p><p class='context'>您的平均反应时为937毫秒。</p><p class='context'>恭喜您完成这一阶段的练习。按任意键进入<span style='color: yellow;'>重点关注图形为“生人”</span>的练习。</p></div><p class='footer' style='font-size:35px; line-height:30px;'>任务要求：\n               <p class='footer' style='font-size:35px; line-height:35px;'>对与“生人”对应的图形，如果 匹配 ，请按 <span style=\""color: lightgreen;\"">f键</span></p><p class='footer' style='font-size:35px'>如果 不匹配 ，请按<span style=\""color: lightgreen;\"">d键</p></span>\n               <p class='footer' style='font-size:35px; line-height:35px;'>对非“生人”对应的图形，如果 匹配 ，请按 <span style=\""color: lightgreen;\"">j键</span></p><p class='footer' style='font-size:35px'>如果 不匹配 ，请按<span style=\""color: lightgreen;\"">k键</p></span>\n               <p class='footer' style='font-size:22px; line-height:25px;'>请在实验过程中将您的<span style=\""color: lightgreen;\"">食指和中指</span>放在电脑键盘的相应键位上进行按键。</p></span>""]"," ","","","","","","","","","","","","","","","","","","","","","","","",""
"","","","","","psychophysics","235","537917","0.0-18.0-0.0-0.0","null","","null","","","","","","","","","","","","","key","null","16.668473333333775","960","536","f","false","img/C_28.png","生人","prac_stranger","","生人"
"","","","","","html-keyboard-response","236","538224","0.0-18.0-0.0-1.0","null","<span class='add_' style='color:yellow; font-size: 70px;'> 太慢! </span>","null","","","","","","","","","","","","","","","","","","","","","","","feedback_test",""
"","","","","","psychophysics","237","540232","0.0-18.0-0.0-0.1","1004","","d","","","","","","","","","","","","","key","d","16.666210084033448","960","536","k","false","img/H_28.png","生人","prac_stranger","","朋友"
"","","","","","html-keyboard-response","238","540800","0.0-18.0-0.0-1.1","null","<span style='color:red; font-size: 70px;'>错误! </span>","null","","","","","","","","","","","","","","","","","","","","","","","feedback_test",""
"","","","","","psychophysics","239","543159","0.0-18.0-0.0-0.2","541","","j","","","","","","","","","","","","","key","j","16.66712857142889","960","536","f","false","img/C_28.png","生人","prac_stranger","","生人"
"","","","","","html-keyboard-response","240","543473","0.0-18.0-0.0-1.2","null","<span style='color:red; font-size: 70px;'>错误! </span>","null","","","","","","","","","","","","","","","","","","","","","","","feedback_test",""
"","","","","","psychophysics","241","545981","0.0-18.0-0.0-0.3","null","","null","","","","","","","","","","","","","key","null","16.666986577181557","960","536","d","false","img/C_28.png","朋友","prac_stranger","","生人"
"","","","","","html-keyboard-response","242","546292","0.0-18.0-0.0-1.3","null","<span class='add_' style='color:yellow; font-size: 70px;'> 太慢! </span>","null","","","","","","","","","","","","","","","","","","","","","","","feedback_test",""
"","","","","","psychophysics","243","548173","0.0-18.0-0.0-0.4","872","","k","","","","","","","","","","","","","key","k","16.667571428571787","960","536","k","true","img/H_28.png","自我","prac_stranger","","朋友"
"","","","","","html-keyboard-response","244","548476","0.0-18.0-0.0-1.4","null","<span style='color:GreenYellow; font-size: 70px;'>正确! </span>","null","","","","","","","","","","","","","","","","","","","","","","","feedback_test",""
"","","","","","psychophysics","245","550315","0.0-18.0-0.0-0.5","830","","k","","","","","","","","","","","","","key","k","16.66685321100949","960","536","k","true","img/S_28.png","朋友","prac_stranger","","自我"
"","","","","","html-keyboard-response","246","550630","0.0-18.0-0.0-1.5","null","<span style='color:GreenYellow; font-size: 70px;'>正确! </span>","null","","","","","","","","","","","","","","","","","","","","","","","feedback_test",""
"","","","","","psychophysics","247","552711","0.0-18.0-0.0-0.6","1077","","j","","","","","","","","","","","","","key","j","16.668016129032512","960","536","j","true","img/S_28.png","自我","prac_stranger","","自我"
"","","","","","html-keyboard-response","248","553026","0.0-18.0-0.0-1.6","null","<span style='color:GreenYellow; font-size: 70px;'>正确! </span>","null","","","","","","","","","","","","","","","","","","","","","","","feedback_test",""
"","","","","","psychophysics","249","555274","0.0-18.0-0.0-0.7","473","","k","","","","","","","","","","","","","key","k","16.668559701492967","960","536","k","true","img/S_28.png","生人","prac_stranger","","自我"
"","","","","","html-keyboard-response","250","555585","0.0-18.0-0.0-1.7","null","<span style='color:GreenYellow; font-size: 70px;'>正确! </span>","null","","","","","","","","","","","","","","","","","","","","","","","feedback_test",""
"","","","","","psychophysics","251","557350","0.0-18.0-0.0-0.8","765","","d","","","","","","","","","","","","","key","d","16.667057692308354","960","536","d","true","img/C_28.png","自我","prac_stranger","","生人"
"","","","","","html-keyboard-response","252","557661","0.0-18.0-0.0-1.8","null","<span style='color:GreenYellow; font-size: 70px;'>正确! </span>","null","","","","","","","","","","","","","","","","","","","","","","","feedback_test",""
"","","","","","psychophysics","253","559615","0.0-18.0-0.0-0.9","947","","j","","","","","","","","","","","","","key","j","16.667888888888235","960","536","j","true","img/S_28.png","自我","prac_stranger","","自我"
"","","","","","html-keyboard-response","254","559923","0.0-18.0-0.0-1.9","null","<span style='color:GreenYellow; font-size: 70px;'>正确! </span>","null","","","","","","","","","","","","","","","","","","","","","","","feedback_test",""
"","","","","","psychophysics","255","562189","0.0-18.0-0.0-0.10","388","","j","","","","","","","","","","","","","key","j","16.66871851851853","960","536","j","true","img/H_28.png","朋友","prac_stranger","","朋友"
"","","","","","html-keyboard-response","256","562492","0.0-18.0-0.0-1.10","null","<span style='color:GreenYellow; font-size: 70px;'>正确! </span>","null","","","","","","","","","","","","","","","","","","","","","","","feedback_test",""
"","","","","","psychophysics","257","564521","0.0-18.0-0.0-0.11","1019","","j","","","","","","","","","","","","","key","j","16.66815702479298","960","536","j","true","img/H_28.png","朋友","prac_stranger","","朋友"
"","","","","","html-keyboard-response","258","564833","0.0-18.0-0.0-1.11","null","<span style='color:GreenYellow; font-size: 70px;'>正确! </span>","null","","","","","","","","","","","","","","","","","","","","","","","feedback_test",""
"","","","","","psychophysics","259","566540","0.0-18.0-0.0-0.12","705","","j","","","","","","","","","","","","","key","j","16.667514851485095","960","536","j","true","img/S_28.png","自我","prac_stranger","","自我"
"","","","","","html-keyboard-response","260","566856","0.0-18.0-0.0-1.12","null","<span style='color:GreenYellow; font-size: 70px;'>正确! </span>","null","","","","","","","","","","","","","","","","","","","","","","","feedback_test",""
"","","","","","psychophysics","261","569368","0.0-18.0-0.0-0.13","null","","null","","","","","","","","","","","","","key","null","16.667200000000495","960","536","j","false","img/S_28.png","自我","prac_stranger","","自我"
"","","","","","html-keyboard-response","262","569684","0.0-18.0-0.0-1.13","null","<span class='add_' style='color:yellow; font-size: 70px;'> 太慢! </span>","null","","","","","","","","","","","","","","","","","","","","","","","feedback_test",""
"","","","","","psychophysics","263","571609","0.0-18.0-0.0-0.14","924","","d","","","","","","","","","","","","","key","d","16.667964912281093","960","536","d","true","img/C_28.png","自我","prac_stranger","","生人"
"","","","","","html-keyboard-response","264","571921","0.0-18.0-0.0-1.14","null","<span style='color:GreenYellow; font-size: 70px;'>正确! </span>","null","","","","","","","","","","","","","","","","","","","","","","","feedback_test",""
"","","","","","psychophysics","265","573675","0.0-18.0-0.0-0.15","751","","j","","","","","","","","","","","","","key","j","16.66780769230704","960","536","j","true","img/H_28.png","朋友","prac_stranger","","朋友"
"","","","","","html-keyboard-response","266","574808","0.0-18.0-0.0-1.15","null","<span style='color:GreenYellow; font-size: 70px;'>正确! </span>","null","","","","","","","","","","","","","","","","","","","","","","","feedback_test",""
"","","","","","psychophysics","267","577133","0.0-18.0-0.0-0.16","740","","f","","","","","","","","","","","","","key","f","16.66735507246441","960","536","f","true","img/C_28.png","生人","prac_stranger","","生人"
"","","","","","html-keyboard-response","268","577445","0.0-18.0-0.0-1.16","null","<span style='color:GreenYellow; font-size: 70px;'>正确! </span>","null","","","","","","","","","","","","","","","","","","","","","","","feedback_test",""
"","","","","","psychophysics","269","579319","0.0-18.0-0.0-0.17","867","","j","","","","","","","","","","","","","key","j","16.666389380531196","960","536","j","true","img/H_28.png","朋友","prac_stranger","","朋友"
"","","","","","html-keyboard-response","270","579626","0.0-18.0-0.0-1.17","null","<span style='color:GreenYellow; font-size: 70px;'>正确! </span>","null","","","","","","","","","","","","","","","","","","","","","","","feedback_test",""
"","","","","","psychophysics","271","581562","0.0-18.0-0.0-0.18","933","","k","","","","","","","","","","","","","key","k","16.666327586206847","960","536","k","true","img/H_28.png","生人","prac_stranger","","朋友"
"","","","","","html-keyboard-response","272","581876","0.0-18.0-0.0-1.18","null","<span style='color:GreenYellow; font-size: 70px;'>正确! </span>","null","","","","","","","","","","","","","","","","","","","","","","","feedback_test",""
"","","","","","psychophysics","273","583814","0.0-18.0-0.0-0.19","928","","k","","","","","","","","","","","","","key","k","16.667956521739658","960","536","k","true","img/H_28.png","自我","prac_stranger","","朋友"
"","","","","","html-keyboard-response","274","584124","0.0-18.0-0.0-1.19","null","<span style='color:GreenYellow; font-size: 70px;'>正确! </span>","null","","","","","","","","","","","","","","","","","","","","","","","feedback_test",""
"","","","","","psychophysics","275","586422","0.0-18.0-0.0-0.20","1287","","k","","","","","","","","","","","","","key","k","16.6668759124085","960","536","k","true","img/S_28.png","生人","prac_stranger","","自我"
"","","","","","html-keyboard-response","276","586802","0.0-18.0-0.0-1.20","null","<span style='color:GreenYellow; font-size: 70px;'>正确! </span>","null","","","","","","","","","","","","","","","","","","","","","","","feedback_test",""
"","","","","","psychophysics","277","588972","0.0-18.0-0.0-0.21","170","","f","","","","","","","","","","","","","key","f","16.66691472868132","960","536","f","true","img/C_28.png","生人","prac_stranger","","生人"
"","","","","","html-keyboard-response","278","589285","0.0-18.0-0.0-1.21","null","<span style='color:yellow; font-size: 70px;'>过快! </span>","null","","","","","","","","","","","","","","","","","","","","","","","feedback_test",""
"","","","","","psychophysics","279","591137","0.0-18.0-0.0-0.22","851","","d","","","","","","","","","","","","","key","d","16.666727272726977","960","536","d","true","img/C_28.png","朋友","prac_stranger","","生人"
"","","","","","html-keyboard-response","280","591445","0.0-18.0-0.0-1.22","null","<span style='color:GreenYellow; font-size: 70px;'>正确! </span>","null","","","","","","","","","","","","","","","","","","","","","","","feedback_test",""
"","","","","","psychophysics","281","593191","0.0-18.0-0.0-0.23","738","","k","","","","","","","","","","","","","key","k","16.66810576923084","960","536","k","true","img/S_28.png","朋友","prac_stranger","","自我"
"","","","","","html-keyboard-response","282","593504","0.0-18.0-0.0-1.23","null","<span style='color:GreenYellow; font-size: 70px;'>正确! </span>","null","","","","","","","","","","","","","","","","","","","","","","","feedback_test",""
"","","","","","html-keyboard-response","283","608400","0.0-19.0","14894","[""<style>.context{color:white; font-size: 35px; line-height:40px}</style>                                     <div><p class='context'>您正确回答了79% 的试次。</p><p class='context'>您的平均反应时为803毫秒。</p><p class='context'>恭喜您完成练习。您可以在此时休息一段时间，准备好后按任意键进入正式实验。</p><p class='footer' style='font-size: 35px; line-height:40px;'>请在进入正式实验实验之前将您的<span style='color: lightgreen;'>食指和中指</span>放在电脑键盘的相应键位上，做好按键准备。</p>""]"," ","","","","","","","","","","","","","","","","","","","","","","","",""
"","","","","","html-keyboard-response","284","611294","0.0-20.0-0.0-0.0","2890","
                 <p>请您将食指和中指放在相应按键上，准备进入<span style='color: yellow;'>重点图形为“自我”对应图形</span>的正式匹配任务</p>
                 <p> <div style = ""color: green""><按任意键开始></div></p>
                 "," ","","","","","","","","","","","","","","","","","","","","","","","",""
"","","","","","psychophysics","285","613470","0.0-20.0-0.0-1.0-0.0-0.0","1168","","k","","","","","","","","","","","","","key","k","16.666961538461216","960","536","k","true","img/C_28.png","自我","self","","生人"
"","","","","","html-keyboard-response","286","613774","0.0-20.0-0.0-1.0-0.0-1.0","null","<span style='color:GreenYellow; font-size: 70px;'>正确! </span>","null","","","","","","","","","","","","","","","","","","","","","","","feedback_test",""
"","","","","","psychophysics","287","615988","0.0-20.0-0.0-1.0-0.0-0.1","1202","","k","","","","","","","","","","","","","key","k","16.66853787878768","960","536","d","false","img/S_28.png","朋友","self","","自我"
"","","","","","html-keyboard-response","288","616300","0.0-20.0-0.0-1.0-0.0-1.1","null","<span style='color:red; font-size: 70px;'>错误! </span>","null","","","","","","","","","","","","","","","","","","","","","","","feedback_test",""
"","","","","","psychophysics","289","618495","0.0-20.0-0.0-1.0-0.0-0.2","1192","","j","","","","","","","","","","","","","key","j","16.560846153846406","960","536","j","true","img/H_28.png","朋友","self","","朋友"
"","","","","","html-keyboard-response","290","618803","0.0-20.0-0.0-1.0-0.0-1.2","null","<span style='color:GreenYellow; font-size: 70px;'>正确! </span>","null","","","","","","","","","","","","","","","","","","","","","","","feedback_test",""
"","","","","","psychophysics","291","620771","0.0-20.0-0.0-1.0-0.0-0.3","954","","k","","","","","","","","","","","","","key","k","16.667606837607714","960","536","d","false","img/S_28.png","生人","self","","自我"
"","","","","","html-keyboard-response","292","621075","0.0-20.0-0.0-1.0-0.0-1.3","null","<span style='color:red; font-size: 70px;'>错误! </span>","null","","","","","","","","","","","","","","","","","","","","","","","feedback_test",""
"","","","","","psychophysics","293","623080","0.0-20.0-0.0-1.0-0.0-0.4","994","","k","","","","","","","","","","","","","key","k","16.667890756301965","960","536","j","false","img/C_28.png","生人","self","","生人"
"","","","","","html-keyboard-response","294","623381","0.0-20.0-0.0-1.0-0.0-1.4","null","<span style='color:red; font-size: 70px;'>错误! </span>","null","","","","","","","","","","","","","","","","","","","","","","","feedback_test",""
"","","","","","psychophysics","295","625188","0.0-20.0-0.0-1.0-0.0-0.5","387","","j","","","","","","","","","","","","","key","j","16.666935185185004","960","536","j","true","img/H_28.png","朋友","self","","朋友"
"","","","","","html-keyboard-response","296","625500","0.0-20.0-0.0-1.0-0.0-1.5","null","<span style='color:GreenYellow; font-size: 70px;'>正确! </span>","null","","","","","","","","","","","","","","","","","","","","","","","feedback_test",""
"","","","","","psychophysics","297","627629","0.0-20.0-0.0-1.0-0.0-0.6","1126","","k","","","","","","","","","","","","","key","k","16.66718897637801","960","536","k","true","img/C_28.png","朋友","self","","生人"
"","","","","","html-keyboard-response","298","627936","0.0-20.0-0.0-1.0-0.0-1.6","null","<span style='color:GreenYellow; font-size: 70px;'>正确! </span>","null","","","","","","","","","","","","","","","","","","","","","","","feedback_test",""
"","","","","","psychophysics","299","629983","0.0-20.0-0.0-1.0-0.0-0.7","1046","","k","","","","","","","","","","","","","key","k","16.666710743801822","960","536","k","true","img/H_28.png","自我","self","","朋友"
"","","","","","html-keyboard-response","300","630804","0.0-20.0-0.0-1.0-0.0-1.7","null","<span style='color:GreenYellow; font-size: 70px;'>正确! </span>","null","","","","","","","","","","","","","","","","","","","","","","","feedback_test",""
"","","","","","psychophysics","301","633317","0.0-20.0-0.0-1.0-0.0-0.8","null","","null","","","","","","","","","","","","","key","null","16.667704697986657","960","536","j","false","img/C_28.png","生人","self","","生人"
"","","","","","html-keyboard-response","302","633628","0.0-20.0-0.0-1.0-0.0-1.8","null","<span class='add_' style='color:yellow; font-size: 70px;'> 太慢! </span>","null","","","","","","","","","","","","","","","","","","","","","","","feedback_test",""
"","","","","","psychophysics","303","635294","0.0-20.0-0.0-1.0-0.0-0.9","663","","f","","","","","","","","","","","","","key","f","16.668353535353695","960","536","f","true","img/S_28.png","自我","self","","自我"
"","","","","","html-keyboard-response","304","635598","0.0-20.0-0.0-1.0-0.0-1.9","null","<span style='color:GreenYellow; font-size: 70px;'>正确! </span>","null","","","","","","","","","","","","","","","","","","","","","","","feedback_test",""
"","","","","","psychophysics","305","637371","0.0-20.0-0.0-1.0-0.0-0.10","768","","f","","","","","","","","","","","","","key","f","16.666924528300957","960","536","f","true","img/S_28.png","自我","self","","自我"
"","","","","","html-keyboard-response","306","637673","0.0-20.0-0.0-1.0-0.0-1.10","null","<span style='color:GreenYellow; font-size: 70px;'>正确! </span>","null","","","","","","","","","","","","","","","","","","","","","","","feedback_test",""
"","","","","","psychophysics","307","639602","0.0-20.0-0.0-1.0-0.0-0.11","799","","k","","","","","","","","","","","","","key","k","16.667307017544662","960","536","k","true","img/H_28.png","生人","self","","朋友"
"","","","","","html-keyboard-response","308","639909","0.0-20.0-0.0-1.0-0.0-1.11","null","<span style='color:GreenYellow; font-size: 70px;'>正确! </span>","null","","","","","","","","","","","","","","","","","","","","","","","feedback_test",""
"","","","","","psychophysics","309","642120","0.0-20.0-0.0-1.0-0.0-0.12","1200","","d","","","","","","","","","","","","","key","d","16.66801515151482","960","536","d","true","img/S_28.png","生人","self","","自我"
"","","","","","html-keyboard-response","310","642425","0.0-20.0-0.0-1.0-0.0-1.12","null","<span style='color:GreenYellow; font-size: 70px;'>正确! </span>","null","","","","","","","","","","","","","","","","","","","","","","","feedback_test",""
"","","","","","psychophysics","311","644328","0.0-20.0-0.0-1.0-0.0-0.13","893","","j","","","","","","","","","","","","","key","j","16.666477876106498","960","536","j","true","img/C_28.png","生人","self","","生人"
"","","","","","html-keyboard-response","312","644810","0.0-20.0-0.0-1.0-0.0-1.13","null","<span style='color:GreenYellow; font-size: 70px;'>正确! </span>","null","","","","","","","","","","","","","","","","","","","","","","","feedback_test",""
"","","","","","psychophysics","313","647057","0.0-20.0-0.0-1.0-0.0-0.14","486","","f","","","","","","","","","","","","","key","f","16.66885074626814","960","536","f","true","img/S_28.png","自我","self","","自我"
"","","","","","html-keyboard-response","314","647361","0.0-20.0-0.0-1.0-0.0-1.14","null","<span style='color:GreenYellow; font-size: 70px;'>正确! </span>","null","","","","","","","","","","","","","","","","","","","","","","","feedback_test",""
"","","","","","psychophysics","315","649541","0.0-20.0-0.0-1.0-0.0-0.15","1171","","d","","","","","","","","","","","","","key","d","16.668061538461526","960","536","d","true","img/S_28.png","朋友","self","","自我"
"","","","","","html-keyboard-response","316","649843","0.0-20.0-0.0-1.0-0.0-1.15","null","<span style='color:GreenYellow; font-size: 70px;'>正确! </span>","null","","","","","","","","","","","","","","","","","","","","","","","feedback_test",""
"","","","","","psychophysics","317","651752","0.0-20.0-0.0-1.0-0.0-0.16","898","","f","","","","","","","","","","","","","key","f","16.669318584070037","960","536","k","false","img/H_28.png","自我","self","","朋友"
"","","","","","html-keyboard-response","318","652059","0.0-20.0-0.0-1.0-0.0-1.16","null","<span style='color:red; font-size: 70px;'>错误! </span>","null","","","","","","","","","","","","","","","","","","","","","","","feedback_test",""
"","","","","","psychophysics","319","653983","0.0-20.0-0.0-1.0-0.0-0.17","913","","k","","","","","","","","","","","","","key","k","16.66815789473721","960","536","j","false","img/C_28.png","生人","self","","生人"
"","","","","","html-keyboard-response","320","654293","0.0-20.0-0.0-1.0-0.0-1.17","null","<span style='color:red; font-size: 70px;'>错误! </span>","null","","","","","","","","","","","","","","","","","","","","","","","feedback_test",""
"","","","","","psychophysics","321","656094","0.0-20.0-0.0-1.0-0.0-0.18","790","","j","","","","","","","","","","","","","key","j","16.668317757009433","960","536","j","true","img/H_28.png","朋友","self","","朋友"
"","","","","","html-keyboard-response","322","656402","0.0-20.0-0.0-1.0-0.0-1.18","null","<span style='color:GreenYellow; font-size: 70px;'>正确! </span>","null","","","","","","","","","","","","","","","","","","","","","","","feedback_test",""
"","","","","","psychophysics","323","658311","0.0-20.0-0.0-1.0-0.0-0.19","508","","k","","","","","","","","","","","","","key","k","16.5473274336283","960","536","k","true","img/C_28.png","朋友","self","","生人"
"","","","","","html-keyboard-response","324","658620","0.0-20.0-0.0-1.0-0.0-1.19","null","<span style='color:GreenYellow; font-size: 70px;'>正确! </span>","null","","","","","","","","","","","","","","","","","","","","","","","feedback_test",""
"","","","","","psychophysics","325","660689","0.0-20.0-0.0-1.0-0.0-0.20","1054","","k","","","","","","","","","","","","","key","k","16.666894308942545","960","536","k","true","img/C_28.png","自我","self","","生人"
"","","","","","html-keyboard-response","326","660991","0.0-20.0-0.0-1.0-0.0-1.20","null","<span style='color:GreenYellow; font-size: 70px;'>正确! </span>","null","","","","","","","","","","","","","","","","","","","","","","","feedback_test",""
"","","","","","psychophysics","327","663316","0.0-20.0-0.0-1.0-0.0-0.21","1312","","j","","","","","","","","","","","","","key","j","16.668188405796833","960","536","j","true","img/H_28.png","朋友","self","","朋友"
"","","","","","html-keyboard-response","328","663626","0.0-20.0-0.0-1.0-0.0-1.21","null","<span style='color:GreenYellow; font-size: 70px;'>正确! </span>","null","","","","","","","","","","","","","","","","","","","","","","","feedback_test",""
"","","","","","psychophysics","329","665393","0.0-20.0-0.0-1.0-0.0-0.22","762","","k","","","","","","","","","","","","","key","k","16.668400000000283","960","536","k","true","img/H_28.png","生人","self","","朋友"
"","","","","","html-keyboard-response","330","665705","0.0-20.0-0.0-1.0-0.0-1.22","null","<span style='color:GreenYellow; font-size: 70px;'>正确! </span>","null","","","","","","","","","","","","","","","","","","","","","","","feedback_test",""
"","","","","","psychophysics","331","667535","0.0-20.0-0.0-1.0-0.0-0.23","815","","f","","","","","","","","","","","","","key","f","16.66720370370442","960","536","f","true","img/S_28.png","自我","self","","自我"
"","","","","","html-keyboard-response","332","667841","0.0-20.0-0.0-1.0-0.0-1.23","null","<span style='color:GreenYellow; font-size: 70px;'>正确! </span>","null","","","","","","","","","","","","","","","","","","","","","","","feedback_test",""
"","","","","","psychophysics","333","670152","0.0-20.0-0.0-1.0-0.0-0.24","508","","d","","","","","","","","","","","","","key","d","16.668802919708376","960","536","d","true","img/S_28.png","朋友","self","","自我"
"","","","","","html-keyboard-response","334","670454","0.0-20.0-0.0-1.0-0.0-1.24","null","<span style='color:GreenYellow; font-size: 70px;'>正确! </span>","null","","","","","","","","","","","","","","","","","","","","","","","feedback_test",""
"","","","","","psychophysics","335","672660","0.0-20.0-0.0-1.0-0.0-0.25","1205","","j","","","","","","","","","","","","","key","j","16.666871212121226","960","536","k","false","img/C_28.png","朋友","self","","生人"
"","","","","","html-keyboard-response","336","672962","0.0-20.0-0.0-1.0-0.0-1.25","null","<span style='color:red; font-size: 70px;'>错误! </span>","null","","","","","","","","","","","","","","","","","","","","","","","feedback_test",""
"","","","","","psychophysics","337","675167","0.0-20.0-0.0-1.0-0.0-0.26","1195","","d","","","","","","","","","","","","","key","d","16.667893129770594","960","536","d","true","img/S_28.png","生人","self","","自我"
"","","","","","html-keyboard-response","338","675474","0.0-20.0-0.0-1.0-0.0-1.26","null","<span style='color:GreenYellow; font-size: 70px;'>正确! </span>","null","","","","","","","","","","","","","","","","","","","","","","","feedback_test",""
"","","","","","psychophysics","339","677664","0.0-20.0-0.0-1.0-0.0-0.27","1186","","f","","","","","","","","","","","","","key","f","16.668615384615705","960","536","f","true","img/S_28.png","自我","self","","自我"
"","","","","","html-keyboard-response","340","677975","0.0-20.0-0.0-1.0-0.0-1.27","null","<span style='color:GreenYellow; font-size: 70px;'>正确! </span>","null","","","","","","","","","","","","","","","","","","","","","","","feedback_test",""
"","","","","","psychophysics","341","679784","0.0-20.0-0.0-1.0-0.0-0.28","795","","k","","","","","","","","","","","","","key","k","16.66639252336452","960","536","k","true","img/H_28.png","自我","self","","朋友"
"","","","","","html-keyboard-response","342","680097","0.0-20.0-0.0-1.0-0.0-1.28","null","<span style='color:GreenYellow; font-size: 70px;'>正确! </span>","null","","","","","","","","","","","","","","","","","","","","","","","feedback_test",""
"","","","","","psychophysics","343","682016","0.0-20.0-0.0-1.0-0.0-0.29","216","","j","","","","","","","","","","","","","key","j","16.66693859649189","960","536","j","true","img/C_28.png","生人","self","","生人"
"","","","","","html-keyboard-response","344","682330","0.0-20.0-0.0-1.0-0.0-1.29","null","<span style='color:GreenYellow; font-size: 70px;'>正确! </span>","null","","","","","","","","","","","","","","","","","","","","","","","feedback_test",""
"","","","","","psychophysics","345","684015","0.0-20.0-0.0-1.0-0.0-0.30","677","","k","","","","","","","","","","","","","key","k","16.668319999999365","960","536","k","true","img/H_28.png","生人","self","","朋友"
"","","","","","html-keyboard-response","346","684330","0.0-20.0-0.0-1.0-0.0-1.30","null","<span style='color:GreenYellow; font-size: 70px;'>正确! </span>","null","","","","","","","","","","","","","","","","","","","","","","","feedback_test",""
"","","","","","psychophysics","347","685981","0.0-20.0-0.0-1.0-0.0-0.31","643","","f","","","","","","","","","","","","","key","f","16.66918367346896","960","536","f","true","img/S_28.png","自我","self","","自我"
"","","","","","html-keyboard-response","348","686285","0.0-20.0-0.0-1.0-0.0-1.31","null","<span style='color:GreenYellow; font-size: 70px;'>正确! </span>","null","","","","","","","","","","","","","","","","","","","","","","","feedback_test",""
"","","","","","psychophysics","349","688211","0.0-20.0-0.0-1.0-0.0-0.32","406","","j","","","","","","","","","","","","","key","j","16.66781739130434","960","536","j","true","img/C_28.png","生人","self","","生人"
"","","","","","html-keyboard-response","350","688517","0.0-20.0-0.0-1.0-0.0-1.32","null","<span style='color:GreenYellow; font-size: 70px;'>正确! </span>","null","","","","","","","","","","","","","","","","","","","","","","","feedback_test",""
"","","","","","psychophysics","351","690574","0.0-20.0-0.0-1.0-0.0-0.33","1052","","j","","","","","","","","","","","","","key","j","16.66884552845561","960","536","j","true","img/H_28.png","朋友","self","","朋友"
"","","","","","html-keyboard-response","352","690884","0.0-20.0-0.0-1.0-0.0-1.33","null","<span style='color:GreenYellow; font-size: 70px;'>正确! </span>","null","","","","","","","","","","","","","","","","","","","","","","","feedback_test",""
"","","","","","psychophysics","353","692675","0.0-20.0-0.0-1.0-0.0-0.34","788","","j","","","","","","","","","","","","","key","j","16.668102803737987","960","536","j","true","img/H_28.png","朋友","self","","朋友"
"","","","","","html-keyboard-response","354","692980","0.0-20.0-0.0-1.0-0.0-1.34","null","<span style='color:GreenYellow; font-size: 70px;'>正确! </span>","null","","","","","","","","","","","","","","","","","","","","","","","feedback_test",""
"","","","","","psychophysics","355","695049","0.0-20.0-0.0-1.0-0.0-0.35","244","","d","","","","","","","","","","","","","key","d","16.6676260162603","960","536","k","false","img/C_28.png","自我","self","","生人"
"","","","","","html-keyboard-response","356","695352","0.0-20.0-0.0-1.0-0.0-1.35","null","<span style='color:red; font-size: 70px;'>错误! </span>","null","","","","","","","","","","","","","","","","","","","","","","","feedback_test",""
"","","","","","psychophysics","357","697810","0.0-20.0-0.0-1.0-0.0-0.36","1457","","d","","","","","","","","","","","","","key","d","16.668918367346976","960","536","d","true","img/S_28.png","朋友","self","","自我"
"","","","","","html-keyboard-response","358","698119","0.0-20.0-0.0-1.0-0.0-1.36","null","<span style='color:GreenYellow; font-size: 70px;'>正确! </span>","null","","","","","","","","","","","","","","","","","","","","","","","feedback_test",""
"","","","","","psychophysics","359","700175","0.0-20.0-0.0-1.0-0.0-0.37","1053","","k","","","","","","","","","","","","","key","k","16.557852459017028","960","536","j","false","img/H_28.png","朋友","self","","朋友"
"","","","","","html-keyboard-response","360","700491","0.0-20.0-0.0-1.0-0.0-1.37","null","<span style='color:red; font-size: 70px;'>错误! </span>","null","","","","","","","","","","","","","","","","","","","","","","","feedback_test",""
"","","","","","psychophysics","361","702205","0.0-20.0-0.0-1.0-0.0-0.38","710","","j","","","","","","","","","","","","","key","j","16.667676470588262","960","536","j","true","img/C_28.png","生人","self","","生人"
"","","","","","html-keyboard-response","362","702511","0.0-20.0-0.0-1.0-0.0-1.38","null","<span style='color:GreenYellow; font-size: 70px;'>正确! </span>","null","","","","","","","","","","","","","","","","","","","","","","","feedback_test",""
"","","","","","psychophysics","363","704403","0.0-20.0-0.0-1.0-0.0-0.39","880","","k","","","","","","","","","","","","","key","k","16.66813392857148","960","536","k","true","img/C_28.png","朋友","self","","生人"
"","","","","","html-keyboard-response","364","704712","0.0-20.0-0.0-1.0-0.0-1.39","null","<span style='color:GreenYellow; font-size: 70px;'>正确! </span>","null","","","","","","","","","","","","","","","","","","","","","","","feedback_test",""
"","","","","","psychophysics","365","706844","0.0-20.0-0.0-1.0-0.0-0.40","1038","","k","","","","","","","","","","","","","key","k","16.668409448819176","960","536","k","true","img/H_28.png","生人","self","","朋友"
"","","","","","html-keyboard-response","366","707147","0.0-20.0-0.0-1.0-0.0-1.40","null","<span style='color:GreenYellow; font-size: 70px;'>正确! </span>","null","","","","","","","","","","","","","","","","","","","","","","","feedback_test",""
"","","","","","psychophysics","367","709097","0.0-20.0-0.0-1.0-0.0-0.41","947","","k","","","","","","","","","","","","","key","k","16.810517241379472","960","536","k","true","img/C_28.png","自我","self","","生人"
"","","","","","html-keyboard-response","368","709412","0.0-20.0-0.0-1.0-0.0-1.41","null","<span style='color:GreenYellow; font-size: 70px;'>正确! </span>","null","","","","","","","","","","","","","","","","","","","","","","","feedback_test",""
"","","","","","psychophysics","369","711274","0.0-20.0-0.0-1.0-0.0-0.42","851","","d","","","","","","","","","","","","","key","d","16.666630630631015","960","536","d","true","img/S_28.png","生人","self","","自我"
"","","","","","html-keyboard-response","370","711586","0.0-20.0-0.0-1.0-0.0-1.42","null","<span style='color:GreenYellow; font-size: 70px;'>正确! </span>","null","","","","","","","","","","","","","","","","","","","","","","","feedback_test",""
"","","","","","psychophysics","371","713516","0.0-20.0-0.0-1.0-0.0-0.43","709","","k","","","","","","","","","","","","","key","k","16.668234782608266","960","536","k","true","img/H_28.png","自我","self","","朋友"
"","","","","","html-keyboard-response","372","713824","0.0-20.0-0.0-1.0-0.0-1.43","null","<span style='color:GreenYellow; font-size: 70px;'>正确! </span>","null","","","","","","","","","","","","","","","","","","","","","","","feedback_test",""
"","","","","","psychophysics","373","715659","0.0-20.0-0.0-1.0-0.0-0.44","833","","j","","","","","","","","","","","","","key","j","16.667844036697634","960","536","j","true","img/C_28.png","生人","self","","生人"
"","","","","","html-keyboard-response","374","715963","0.0-20.0-0.0-1.0-0.0-1.44","null","<span style='color:GreenYellow; font-size: 70px;'>正确! </span>","null","","","","","","","","","","","","","","","","","","","","","","","feedback_test",""
"","","","","","psychophysics","375","717767","0.0-20.0-0.0-1.0-0.0-0.45","794","","j","","","","","","","","","","","","","key","j","16.667869158877956","960","536","j","true","img/H_28.png","朋友","self","","朋友"
"","","","","","html-keyboard-response","376","718076","0.0-20.0-0.0-1.0-0.0-1.45","null","<span style='color:GreenYellow; font-size: 70px;'>正确! </span>","null","","","","","","","","","","","","","","","","","","","","","","","feedback_test",""
"","","","","","psychophysics","377","720087","0.0-20.0-0.0-1.0-0.0-0.46","286","","f","","","","","","","","","","","","","key","f","16.668621848739427","960","536","f","true","img/S_28.png","自我","self","","自我"
"","","","","","html-keyboard-response","378","720403","0.0-20.0-0.0-1.0-0.0-1.46","null","<span style='color:GreenYellow; font-size: 70px;'>正确! </span>","null","","","","","","","","","","","","","","","","","","","","","","","feedback_test",""
"","","","","","psychophysics","379","722065","0.0-20.0-0.0-1.0-0.0-0.47","659","","f","","","","","","","","","","","","","key","f","16.66712121212046","960","536","f","true","img/S_28.png","自我","self","","自我"
"","","","","","html-keyboard-response","380","722373","0.0-20.0-0.0-1.0-0.0-1.47","null","<span style='color:GreenYellow; font-size: 70px;'>正确! </span>","null","","","","","","","","","","","","","","","","","","","","","","","feedback_test",""
"","","","","","psychophysics","381","724030","0.0-20.0-0.0-1.0-0.0-0.48","656","","f","","","","","","","","","","","","","key","f","16.668153061225002","960","536","f","true","img/S_28.png","自我","self","","自我"
"","","","","","html-keyboard-response","382","724339","0.0-20.0-0.0-1.0-0.0-1.48","null","<span style='color:GreenYellow; font-size: 70px;'>正确! </span>","null","","","","","","","","","","","","","","","","","","","","","","","feedback_test",""
"","","","","","psychophysics","383","726516","0.0-20.0-0.0-1.0-0.0-0.49","710","","k","","","","","","","","","","","","","key","k","16.667124031007816","960","536","k","true","img/C_28.png","朋友","self","","生人"
"","","","","","html-keyboard-response","384","726821","0.0-20.0-0.0-1.0-0.0-1.49","null","<span style='color:GreenYellow; font-size: 70px;'>正确! </span>","null","","","","","","","","","","","","","","","","","","","","","","","feedback_test",""
"","","","","","psychophysics","385","728802","0.0-20.0-0.0-1.0-0.0-0.50","979","","d","","","","","","","","","","","","","key","d","16.667000000000048","960","536","d","true","img/S_28.png","生人","self","","自我"
"","","","","","html-keyboard-response","386","729109","0.0-20.0-0.0-1.0-0.0-1.50","null","<span style='color:GreenYellow; font-size: 70px;'>正确! </span>","null","","","","","","","","","","","","","","","","","","","","","","","feedback_test",""
"","","","","","psychophysics","387","731067","0.0-20.0-0.0-1.0-0.0-0.51","944","","j","","","","","","","","","","","","","key","j","16.667336206896238","960","536","j","true","img/C_28.png","生人","self","","生人"
"","","","","","html-keyboard-response","388","731372","0.0-20.0-0.0-1.0-0.0-1.51","null","<span style='color:GreenYellow; font-size: 70px;'>正确! </span>","null","","","","","","","","","","","","","","","","","","","","","","","feedback_test",""
"","","","","","psychophysics","389","733510","0.0-20.0-0.0-1.0-0.0-0.52","706","","j","","","","","","","","","","","","","key","j","16.56107874015735","960","536","k","false","img/H_28.png","自我","self","","朋友"
"","","","","","html-keyboard-response","390","733821","0.0-20.0-0.0-1.0-0.0-1.52","null","<span style='color:red; font-size: 70px;'>错误! </span>","null","","","","","","","","","","","","","","","","","","","","","","","feedback_test",""
"","","","","","psychophysics","391","735628","0.0-20.0-0.0-1.0-0.0-0.53","805","","j","","","","","","","","","","","","","key","j","16.822398148148313","960","536","j","true","img/H_28.png","朋友","self","","朋友"
"","","","","","html-keyboard-response","392","735930","0.0-20.0-0.0-1.0-0.0-1.53","null","<span style='color:GreenYellow; font-size: 70px;'>正确! </span>","null","","","","","","","","","","","","","","","","","","","","","","","feedback_test",""
"","","","","","psychophysics","393","737738","0.0-20.0-0.0-1.0-0.0-0.54","799","","f","","","","","","","","","","","","","key","f","16.66886915887867","960","536","f","true","img/S_28.png","自我","self","","自我"
"","","","","","html-keyboard-response","394","738053","0.0-20.0-0.0-1.0-0.0-1.54","null","<span style='color:GreenYellow; font-size: 70px;'>正确! </span>","null","","","","","","","","","","","","","","","","","","","","","","","feedback_test",""
"","","","","","psychophysics","395","739915","0.0-20.0-0.0-1.0-0.0-0.55","110","","j","","","","","","","","","","","","","key","j","16.66703603603575","960","536","k","false","img/C_28.png","自我","self","","生人"
"","","","","","html-keyboard-response","396","740229","0.0-20.0-0.0-1.0-0.0-1.55","null","<span style='color:yellow; font-size: 70px;'>过快! </span>","null","","","","","","","","","","","","","","","","","","","","","","","feedback_test",""
"","","","","","psychophysics","397","742222","0.0-20.0-0.0-1.0-0.0-0.56","983","","f","","","","","","","","","","","","","key","f","16.66760169491527","960","536","d","false","img/S_28.png","朋友","self","","自我"
"","","","","","html-keyboard-response","398","742536","0.0-20.0-0.0-1.0-0.0-1.56","null","<span style='color:red; font-size: 70px;'>错误! </span>","null","","","","","","","","","","","","","","","","","","","","","","","feedback_test",""
"","","","","","psychophysics","399","744243","0.0-20.0-0.0-1.0-0.0-0.57","702","","j","","","","","","","","","","","","","key","j","16.66772549019615","960","536","j","true","img/C_28.png","生人","self","","生人"
"","","","","","html-keyboard-response","400","744553","0.0-20.0-0.0-1.0-0.0-1.57","null","<span style='color:GreenYellow; font-size: 70px;'>正确! </span>","null","","","","","","","","","","","","","","","","","","","","","","","feedback_test",""
"","","","","","psychophysics","401","746484","0.0-20.0-0.0-1.0-0.0-0.58","682","","j","","","","","","","","","","","","","key","j","16.667956521739658","960","536","j","true","img/H_28.png","朋友","self","","朋友"
"","","","","","html-keyboard-response","402","746789","0.0-20.0-0.0-1.0-0.0-1.58","null","<span style='color:GreenYellow; font-size: 70px;'>正确! </span>","null","","","","","","","","","","","","","","","","","","","","","","","feedback_test",""
"","","","","","psychophysics","403","748694","0.0-20.0-0.0-1.0-0.0-0.59","903","","k","","","","","","","","","","","","","key","k","16.667070796459797","960","536","k","true","img/H_28.png","生人","self","","朋友"
"","","","","","html-keyboard-response","404","749006","0.0-20.0-0.0-1.0-0.0-1.59","null","<span style='color:GreenYellow; font-size: 70px;'>正确! </span>","null","","","","","","","","","","","","","","","","","","","","","","","feedback_test",""
"","","","","","psychophysics","405","751112","0.0-20.0-0.0-1.0-0.0-0.60","1105","","k","","","","","","","","","","","","","key","k","16.667399999999443","960","536","k","true","img/H_28.png","生人","self","","朋友"
"","","","","","html-keyboard-response","406","751423","0.0-20.0-0.0-1.0-0.0-1.60","null","<span style='color:GreenYellow; font-size: 70px;'>正确! </span>","null","","","","","","","","","","","","","","","","","","","","","","","feedback_test",""
"","","","","","psychophysics","407","753343","0.0-20.0-0.0-1.0-0.0-0.61","536","","k","","","","","","","","","","","","","key","k","16.666166666666406","960","536","j","false","img/C_28.png","生人","self","","生人"
"","","","","","html-keyboard-response","408","753649","0.0-20.0-0.0-1.0-0.0-1.61","null","<span style='color:red; font-size: 70px;'>错误! </span>","null","","","","","","","","","","","","","","","","","","","","","","","feedback_test",""
"","","","","","psychophysics","409","755511","0.0-20.0-0.0-1.0-0.0-0.62","853","","k","","","","","","","","","","","","","key","k","16.667567567567357","960","536","k","true","img/C_28.png","自我","self","","生人"
"","","","","","html-keyboard-response","410","755824","0.0-20.0-0.0-1.0-0.0-1.62","null","<span style='color:GreenYellow; font-size: 70px;'>正确! </span>","null","","","","","","","","","","","","","","","","","","","","","","","feedback_test",""
"","","","","","psychophysics","411","757575","0.0-20.0-0.0-1.0-0.0-0.63","750","","d","","","","","","","","","","","","","key","d","16.667759615385037","960","536","d","true","img/S_28.png","朋友","self","","自我"
"","","","","","html-keyboard-response","412","757878","0.0-20.0-0.0-1.0-0.0-1.63","null","<span style='color:GreenYellow; font-size: 70px;'>正确! </span>","null","","","","","","","","","","","","","","","","","","","","","","","feedback_test",""
"","","","","","psychophysics","413","759970","0.0-20.0-0.0-1.0-0.0-0.64","164","","d","","","","","","","","","","","","","key","d","16.668137096773624","960","536","d","true","img/S_28.png","生人","self","","自我"
"","","","","","html-keyboard-response","414","760275","0.0-20.0-0.0-1.0-0.0-1.64","null","<span style='color:yellow; font-size: 70px;'>过快! </span>","null","","","","","","","","","","","","","","","","","","","","","","","feedback_test",""
"","","","","","psychophysics","415","761903","0.0-20.0-0.0-1.0-0.0-0.65","627","","f","","","","","","","","","","","","","key","f","16.6670624999994","960","536","f","true","img/S_28.png","自我","self","","自我"
"","","","","","html-keyboard-response","416","762214","0.0-20.0-0.0-1.0-0.0-1.65","null","<span style='color:GreenYellow; font-size: 70px;'>正确! </span>","null","","","","","","","","","","","","","","","","","","","","","","","feedback_test",""
"","","","","","psychophysics","417","764311","0.0-20.0-0.0-1.0-0.0-0.66","1085","","k","","","","","","","","","","","","","key","k","16.66756799999997","960","536","k","true","img/H_28.png","自我","self","","朋友"
"","","","","","html-keyboard-response","418","764621","0.0-20.0-0.0-1.0-0.0-1.66","null","<span style='color:GreenYellow; font-size: 70px;'>正确! </span>","null","","","","","","","","","","","","","","","","","","","","","","","feedback_test",""
"","","","","","psychophysics","419","766454","0.0-20.0-0.0-1.0-0.0-0.67","650","","k","","","","","","","","","","","","","key","k","16.667027522935832","960","536","k","true","img/C_28.png","朋友","self","","生人"
"","","","","","html-keyboard-response","420","766758","0.0-20.0-0.0-1.0-0.0-1.67","null","<span style='color:GreenYellow; font-size: 70px;'>正确! </span>","null","","","","","","","","","","","","","","","","","","","","","","","feedback_test",""
"","","","","","psychophysics","421","768521","0.0-20.0-0.0-1.0-0.0-0.68","762","","f","","","","","","","","","","","","","key","f","16.667423076923185","960","536","f","true","img/S_28.png","自我","self","","自我"
"","","","","","html-keyboard-response","422","768840","0.0-20.0-0.0-1.0-0.0-1.68","null","<span style='color:GreenYellow; font-size: 70px;'>正确! </span>","null","","","","","","","","","","","","","","","","","","","","","","","feedback_test",""
