"success","timeout","failed_images","failed_audio","failed_video","trial_type","trial_index","time_elapsed","internal_node_id","rt","stimulus","response","value","item_width_mm","item_height_mm","item_width_px","px2mm","view_dist_mm","item_width_deg","px2deg","scale_factor","win_width_deg","win_height_deg","view_history","response_type","key_press","avg_frame_time","center_x","center_y","correct_response","correct","Image","text","condition","screen_id","label"
"true","false","[]","[]","[]","preload","0","108","0.0-0.0","","","","","","","","","","","","","","","","","","","","","","","","","","",""
"","","","","","html-keyboard-response","1","1570","0.0-1.0","1462","
     <p>您好，欢迎参加本次实验。</p>
     <p>为充分保障您的权利，请确保您已经知晓并同意《参与实验同意书》以及《数据公开知情同意书》。</p>
     <p>如果您未见过上述内容，请咨询实验员。</p>
     <p>如果您选择继续实验，则表示您已经清楚两份知情同意书的内容并同意。</p>
     <p> <div style = ""color: green""><按任意键至下页></div> </p>
     ","enter","","","","","","","","","","","","","","","","","","","","","","","",""
"","","","","","html-keyboard-response","2","2126","0.0-2.0","556","
     <p>本实验首先需要您填写一些基本个人信息。</p>
     <p> <div style = ""color: green""><按任意键至下页></div></p>
     ","enter","","","","","","","","","","","","","","","","","","","","","","","",""
"","","","","","call-function","3","2127","0.0-3.0-0.0","","","","","","","","","","","","","","","","","","","","","","","","","","",""
"","","","","","survey-html-form","4","5492","0.0-3.0-1.0","3362","","{""Q0"":""9""}","","","","","","","","","","","","","","","","","","","","","","","",""
"","","","","","html-button-response","5","6247","0.0-3.0-2.0","753","<p style = 'color : white'>您的性别</p>","1","","","","","","","","","","","","","","","","","","","","","","","",""
"","","","","","survey-html-form","6","9957","0.0-3.0-3.0","3707","","{""Q0"":""2000""}","","","","","","","","","","","","","","","","","","","","","","","",""
"","","","","","survey-html-form","7","11897","0.0-3.0-4.0","1938","","{""Q0"":""5""}","","","","","","","","","","","","","","","","","","","","","","","",""
"","","","","","virtual-chinrest","8","49242","0.0-4.0","37345","","","","85.6","53.98","410.82337316660505","4.803807696815858","595.89","8.216467463332101","50","0.9201034427189373","27.32","12.3","","","","","","","","","","","","",""
"true","","","","","fullscreen","9","51958","0.0-5.0","","","","","","","","","","","","","","","","","","","","","","","","","","",""
"","","","","","instructions","10","64341","0.0-6.0","12383","","","","","","","","","","","","","","[{""page_index"":0,""viewing_time"":1348},{""page_index"":1,""viewing_time"":5653},{""page_index"":2,""viewing_time"":3178},{""page_index"":3,""viewing_time"":1268},{""page_index"":4,""viewing_time"":936}]","","","","","","","","","","","",""
"","","","","","instructions","11","71649","0.0-7.0","7307","","","","","","","","","","","","","","[{""page_index"":0,""viewing_time"":7306}]","","","","","","","","","","","",""
"","","","","","psychophysics","12","74733","0.0-8.0-0.0-0.0","2079","","d","","","","","","","","","","","","","key","d","16.664480874316972","683","380","f","false","img/C_28.png","生人","freeprac_self","",""
"","","","","","html-keyboard-response","13","75046","0.0-8.0-0.0-1.0","null","<span style='color:red; font-size: 70px;'>错误! </span>","null","","","","","","","","","","","","","","","","","","","","","","","feedback_test",""
"","","","","","psychophysics","14","79727","0.0-8.0-0.0-0.1","3668","","f","","","","","","","","","","","","","key","f","16.664086021505373","683","380","f","true","img/H_28.png","朋友","freeprac_self","",""
"","","","","","html-keyboard-response","15","80034","0.0-8.0-0.0-1.1","null","<span style='color:GreenYellow; font-size: 70px;'>正确! </span>","null","","","","","","","","","","","","","","","","","","","","","","","feedback_test",""
"","","","","","psychophysics","16","83585","0.0-8.0-0.0-0.2","2539","","k","","","","","","","","","","","","","key","k","16.664528301886747","683","380","k","true","img/S_28.png","生人","freeprac_self","",""
"","","","","","html-keyboard-response","17","83892","0.0-8.0-0.0-1.2","null","<span style='color:GreenYellow; font-size: 70px;'>正确! </span>","null","","","","","","","","","","","","","","","","","","","","","","","feedback_test",""
"","","","","","psychophysics","18","86612","0.0-8.0-0.0-0.3","1713","","j","","","","","","","","","","","","","key","j","16.662962962962926","683","380","j","true","img/S_28.png","自我","freeprac_self","",""
"","","","","","html-keyboard-response","19","86925","0.0-8.0-0.0-1.3","null","<span style='color:GreenYellow; font-size: 70px;'>正确! </span>","null","","","","","","","","","","","","","","","","","","","","","","","feedback_test",""
"","","","","","psychophysics","20","88674","0.0-8.0-0.0-0.4","742","","j","","","","","","","","","","","","","key","j","16.66230769230774","683","380","j","true","img/S_28.png","自我","freeprac_self","",""
"","","","","","html-keyboard-response","21","88977","0.0-8.0-0.0-1.4","null","<span style='color:GreenYellow; font-size: 70px;'>正确! </span>","null","","","","","","","","","","","","","","","","","","","","","","","feedback_test",""
"","","","","","psychophysics","22","93458","0.0-8.0-0.0-0.5","3465","","d","","","","","","","","","","","","","key","d","16.664477611940306","683","380","d","true","img/C_28.png","朋友","freeprac_self","",""
"","","","","","html-keyboard-response","23","93770","0.0-8.0-0.0-1.5","null","<span style='color:GreenYellow; font-size: 70px;'>正确! </span>","null","","","","","","","","","","","","","","","","","","","","","","","feedback_test",""
"","","","","","psychophysics","24","97330","0.0-8.0-0.0-0.6","2550","","k","","","","","","","","","","","","","key","k","16.664245283018833","683","380","d","false","img/H_28.png","自我","freeprac_self","",""
"","","","","","html-keyboard-response","25","97636","0.0-8.0-0.0-1.6","null","<span style='color:red; font-size: 70px;'>错误! </span>","null","","","","","","","","","","","","","","","","","","","","","","","feedback_test",""
"","","","","","psychophysics","26","103258","0.0-8.0-0.0-0.7","4613","","k","","","","","","","","","","","","","key","k","16.664523809523807","683","380","k","true","img/S_28.png","朋友","freeprac_self","",""
"","","","","","html-keyboard-response","27","103562","0.0-8.0-0.0-1.7","null","<span style='color:GreenYellow; font-size: 70px;'>正确! </span>","null","","","","","","","","","","","","","","","","","","","","","","","feedback_test",""
"","","","","","psychophysics","28","107903","0.0-8.0-0.0-0.8","3333","","d","","","","","","","","","","","","","key","d","16.66446153846152","683","380","d","true","img/C_28.png","自我","freeprac_self","",""
"","","","","","html-keyboard-response","29","108219","0.0-8.0-0.0-1.8","null","<span style='color:GreenYellow; font-size: 70px;'>正确! </span>","null","","","","","","","","","","","","","","","","","","","","","","","feedback_test",""
"","","","","","psychophysics","30","110565","0.0-8.0-0.0-0.9","1343","","f","","","","","","","","","","","","","key","f","16.6644285714285","683","380","f","true","img/C_28.png","生人","freeprac_self","",""
"","","","","","html-keyboard-response","31","110870","0.0-8.0-0.0-1.9","null","<span style='color:GreenYellow; font-size: 70px;'>正确! </span>","null","","","","","","","","","","","","","","","","","","","","","","","feedback_test",""
"","","","","","psychophysics","32","116308","0.0-8.0-0.0-0.10","4428","","f","","","","","","","","","","","","","key","f","16.66436923076927","683","380","f","true","img/H_28.png","朋友","freeprac_self","",""
"","","","","","html-keyboard-response","33","116619","0.0-8.0-0.0-1.10","null","<span style='color:GreenYellow; font-size: 70px;'>正确! </span>","null","","","","","","","","","","","","","","","","","","","","","","","feedback_test",""
"","","","","","psychophysics","34","119666","0.0-8.0-0.0-0.11","2034","","d","","","","","","","","","","","","","key","d","16.664285714285683","683","380","d","true","img/H_28.png","生人","freeprac_self","",""
"","","","","","html-keyboard-response","35","119981","0.0-8.0-0.0-1.11","null","<span style='color:GreenYellow; font-size: 70px;'>正确! </span>","null","","","","","","","","","","","","","","","","","","","","","","","feedback_test",""
"","","","","","html-keyboard-response","36","137010","0.0-9.0","17026","[""<style>.context{color:white; font-size: 35px; line-height:40px}</style>              <div><p class='context'>您正确回答了83% 的试次。</p><p class='context'>您的平均反应时为2788毫秒。</p><p class='context'>恭喜您完成这一阶段的练习。按任意键进入<span style='color: yellow;'>重点关注图形为“朋友”</span>的练习。</p></div><p class='footer' style='font-size:35px; line-height:30px;'>任务要求：\n              <p class='footer' style='font-size:35px; line-height:35px;'>对于与“朋友”对应的图形：如果 匹配 ，请按 <span style=\""color: lightgreen;\"">j键</span></p><p class='footer' style='font-size:35px'>如果 不匹配 ，请按<span style=\""color: lightgreen;\"">k键</p></span>\n              <p class='footer' style='font-size:35px; line-height:35px;'>对于非“朋友”对应的图形：如果 匹配 ，请按 <span style=\""color: lightgreen;\"">f键</span></p><p class='footer' style='font-size:35px'>如果 不匹配 ，请按<span style=\""color: lightgreen;\"">d键</p></span>\n              <p class='footer' style='font-size:22px; line-height:25px;'>请在实验过程中将您的<span style=\""color: lightgreen;\"">食指和中指</span>放在电脑键盘的相应键位上进行按键。</p></span>""]","enter","","","","","","","","","","","","","","","","","","","","","","","",""
"","","","","","psychophysics","37","140378","0.0-10.0-0.0-0.0","2354","","f","","","","","","","","","","","","","key","f","16.664577114427797","683","380","f","true","img/S_28.png","自我","freeprac_friend","",""
"","","","","","html-keyboard-response","38","140692","0.0-10.0-0.0-1.0","null","<span style='color:GreenYellow; font-size: 70px;'>正确! </span>","null","","","","","","","","","","","","","","","","","","","","","","","feedback_test",""
"","","","","","psychophysics","39","144556","0.0-10.0-0.0-0.1","2854","","f","","","","","","","","","","","","","key","f","16.663999999999877","683","380","f","true","img/S_28.png","自我","freeprac_friend","",""
"","","","","","html-keyboard-response","40","144866","0.0-10.0-0.0-1.1","null","<span style='color:GreenYellow; font-size: 70px;'>正确! </span>","null","","","","","","","","","","","","","","","","","","","","","","","feedback_test",""
"","","","","","psychophysics","41","147666","0.0-10.0-0.0-0.2","1789","","k","","","","","","","","","","","","","key","k","16.6635928143713","683","380","k","true","img/H_28.png","自我","freeprac_friend","",""
"","","","","","html-keyboard-response","42","147976","0.0-10.0-0.0-1.2","null","<span style='color:GreenYellow; font-size: 70px;'>正确! </span>","null","","","","","","","","","","","","","","","","","","","","","","","feedback_test",""
"","","","","","psychophysics","43","150739","0.0-10.0-0.0-0.3","1750","","d","","","","","","","","","","","","","key","d","16.664146341463493","683","380","d","true","img/C_28.png","朋友","freeprac_friend","",""
"","","","","","html-keyboard-response","44","151040","0.0-10.0-0.0-1.3","null","<span style='color:GreenYellow; font-size: 70px;'>正确! </span>","null","","","","","","","","","","","","","","","","","","","","","","","feedback_test",""
"","","","","","psychophysics","45","153413","0.0-10.0-0.0-0.4","1363","","f","","","","","","","","","","","","","key","f","16.66450704225363","683","380","f","true","img/C_28.png","生人","freeprac_friend","",""
"","","","","","html-keyboard-response","46","153716","0.0-10.0-0.0-1.4","null","<span style='color:GreenYellow; font-size: 70px;'>正确! </span>","null","","","","","","","","","","","","","","","","","","","","","","","feedback_test",""
"","","","","","psychophysics","47","157314","0.0-10.0-0.0-0.5","2582","","d","","","","","","","","","","","","","key","d","16.66437209302324","683","380","d","true","img/S_28.png","朋友","freeprac_friend","",""
"","","","","","html-keyboard-response","48","157622","0.0-10.0-0.0-1.5","null","<span style='color:GreenYellow; font-size: 70px;'>正确! </span>","null","","","","","","","","","","","","","","","","","","","","","","","feedback_test",""
"","","","","","psychophysics","49","160099","0.0-10.0-0.0-0.6","1467","","f","","","","","","","","","","","","","key","f","16.664054054054045","683","380","f","true","img/C_28.png","生人","freeprac_friend","",""
"","","","","","html-keyboard-response","50","160406","0.0-10.0-0.0-1.6","null","<span style='color:GreenYellow; font-size: 70px;'>正确! </span>","null","","","","","","","","","","","","","","","","","","","","","","","feedback_test",""
"","","","","","psychophysics","51","162239","0.0-10.0-0.0-0.7","820","","j","","","","","","","","","","","","","key","j","16.663888888888998","683","380","j","true","img/H_28.png","朋友","freeprac_friend","",""
"","","","","","html-keyboard-response","52","162555","0.0-10.0-0.0-1.7","null","<span style='color:GreenYellow; font-size: 70px;'>正确! </span>","null","","","","","","","","","","","","","","","","","","","","","","","feedback_test",""
"","","","","","psychophysics","53","164391","0.0-10.0-0.0-0.8","824","","j","","","","","","","","","","","","","key","j","16.664259259259172","683","380","j","true","img/H_28.png","朋友","freeprac_friend","",""
"","","","","","html-keyboard-response","54","164698","0.0-10.0-0.0-1.8","null","<span style='color:GreenYellow; font-size: 70px;'>正确! </span>","null","","","","","","","","","","","","","","","","","","","","","","","feedback_test",""
"","","","","","psychophysics","55","168641","0.0-10.0-0.0-0.9","2941","","d","","","","","","","","","","","","","key","d","16.664237288135634","683","380","d","true","img/C_28.png","自我","freeprac_friend","",""
"","","","","","html-keyboard-response","56","168947","0.0-10.0-0.0-1.9","null","<span style='color:GreenYellow; font-size: 70px;'>正确! </span>","null","","","","","","","","","","","","","","","","","","","","","","","feedback_test",""
"","","","","","psychophysics","57","171773","0.0-10.0-0.0-0.10","1813","","d","","","","","","","","","","","","","key","d","16.664166666666762","683","380","d","true","img/S_28.png","生人","freeprac_friend","",""
"","","","","","html-keyboard-response","58","172074","0.0-10.0-0.0-1.10","null","<span style='color:GreenYellow; font-size: 70px;'>正确! </span>","null","","","","","","","","","","","","","","","","","","","","","","","feedback_test",""
"","","","","","psychophysics","59","175429","0.0-10.0-0.0-0.11","2345","","d","","","","","","","","","","","","","key","d","16.663799999999902","683","380","k","false","img/H_28.png","生人","freeprac_friend","",""
"","","","","","html-keyboard-response","60","175743","0.0-10.0-0.0-1.11","null","<span style='color:red; font-size: 70px;'>错误! </span>","null","","","","","","","","","","","","","","","","","","","","","","","feedback_test",""
"","","","","","html-keyboard-response","61","184443","0.0-11.0","8694","[""<style>.context{color:white; font-size: 35px; line-height:40px}</style>                  <div><p class='context'>您正确回答了92% 的试次。</p><p class='context'>您的平均反应时为1869毫秒。</p><p class='context'>恭喜您完成这一阶段的练习。按任意键进入<span style='color: yellow;'>重点关注图形为“生人”</span>的练习。</p></div><p class='footer' style='font-size:35px; line-height:30px;'>任务要求：\n                  <p class='footer' style='font-size:35px; line-height:35px;'>对与“生人”对应的图形，如果 匹配 ，请按 <span style=\""color: lightgreen;\"">j键</span></p><p class='footer' style='font-size:35px'>如果 不匹配 ，请按<span style=\""color: lightgreen;\"">k键</p></span>\n                  <p class='footer' style='font-size:35px; line-height:35px;'>对非“生人”对应的图形，如果 匹配 ，请按 <span style=\""color: lightgreen;\"">f键</span></p><p class='footer' style='font-size:35px'>如果 不匹配 ，请按<span style=\""color: lightgreen;\"">d键</p></span>\n                  <p class='footer' style='font-size:22px; line-height:25px;'>请在实验过程中将您的<span style=\""color: lightgreen;\"">食指和中指</span>放在电脑键盘的相应键位上进行按键。</p></span>""]","enter","","","","","","","","","","","","","","","","","","","","","","","",""
"","","","","","psychophysics","62","187201","0.0-12.0-0.0-0.0","1745","","f","","","","","","","","","","","","","key","f","16.663292682926823","683","380","f","true","img/H_28.png","朋友","freeprac_stranger","",""
"","","","","","html-keyboard-response","63","187517","0.0-12.0-0.0-1.0","null","<span style='color:GreenYellow; font-size: 70px;'>正确! </span>","null","","","","","","","","","","","","","","","","","","","","","","","feedback_test",""
"","","","","","psychophysics","64","190147","0.0-12.0-0.0-0.1","1618","","f","","","","","","","","","","","","","key","f","16.6630573248408","683","380","f","true","img/S_28.png","自我","freeprac_stranger","",""
"","","","","","html-keyboard-response","65","190460","0.0-12.0-0.0-1.1","null","<span style='color:GreenYellow; font-size: 70px;'>正确! </span>","null","","","","","","","","","","","","","","","","","","","","","","","feedback_test",""
"","","","","","psychophysics","66","192738","0.0-12.0-0.0-0.2","1270","","k","","","","","","","","","","","","","key","k","16.66441176470578","683","380","k","true","img/C_28.png","朋友","freeprac_stranger","",""
"","","","","","html-keyboard-response","67","193056","0.0-12.0-0.0-1.2","null","<span style='color:GreenYellow; font-size: 70px;'>正确! </span>","null","","","","","","","","","","","","","","","","","","","","","","","feedback_test",""
"","","","","","psychophysics","68","196608","0.0-12.0-0.0-0.3","2545","","k","","","","","","","","","","","","","key","k","16.664150943396173","683","380","k","true","img/C_28.png","自我","freeprac_stranger","",""
"","","","","","html-keyboard-response","69","196909","0.0-12.0-0.0-1.3","null","<span style='color:GreenYellow; font-size: 70px;'>正确! </span>","null","","","","","","","","","","","","","","","","","","","","","","","feedback_test",""
"","","","","","psychophysics","70","199067","0.0-12.0-0.0-0.4","1149","","f","","","","","","","","","","","","","key","f","16.663281249999955","683","380","f","true","img/S_28.png","自我","freeprac_stranger","",""
"","","","","","html-keyboard-response","71","199372","0.0-12.0-0.0-1.4","null","<span style='color:GreenYellow; font-size: 70px;'>正确! </span>","null","","","","","","","","","","","","","","","","","","","","","","","feedback_test",""
"","","","","","psychophysics","72","201809","0.0-12.0-0.0-0.5","1424","","d","","","","","","","","","","","","","key","d","16.664413793103424","683","380","d","true","img/H_28.png","自我","freeprac_stranger","",""
"","","","","","html-keyboard-response","73","202120","0.0-12.0-0.0-1.5","null","<span style='color:GreenYellow; font-size: 70px;'>正确! </span>","null","","","","","","","","","","","","","","","","","","","","","","","feedback_test",""
"","","","","","psychophysics","74","205012","0.0-12.0-0.0-0.6","1877","","f","","","","","","","","","","","","","key","f","16.663837209302287","683","380","f","true","img/H_28.png","朋友","freeprac_stranger","",""
"","","","","","html-keyboard-response","75","205324","0.0-12.0-0.0-1.6","null","<span style='color:GreenYellow; font-size: 70px;'>正确! </span>","null","","","","","","","","","","","","","","","","","","","","","","","feedback_test",""
"","","","","","psychophysics","76","207573","0.0-12.0-0.0-0.7","1237","","j","","","","","","","","","","","","","key","j","16.66343283582107","683","380","j","true","img/C_28.png","生人","freeprac_stranger","",""
"","","","","","html-keyboard-response","77","207877","0.0-12.0-0.0-1.7","null","<span style='color:GreenYellow; font-size: 70px;'>正确! </span>","null","","","","","","","","","","","","","","","","","","","","","","","feedback_test",""
"","","","","","psychophysics","78","210233","0.0-12.0-0.0-0.8","1343","","d","","","","","","","","","","","","","key","d","16.663571428571387","683","380","d","true","img/S_28.png","朋友","freeprac_stranger","",""
"","","","","","html-keyboard-response","79","210533","0.0-12.0-0.0-1.8","null","<span style='color:GreenYellow; font-size: 70px;'>正确! </span>","null","","","","","","","","","","","","","","","","","","","","","","","feedback_test",""
"","","","","","psychophysics","80","213412","0.0-12.0-0.0-0.9","1871","","f","","","","","","","","","","","","","key","f","16.664561403508852","683","380","j","false","img/C_28.png","生人","freeprac_stranger","",""
"","","","","","html-keyboard-response","81","213722","0.0-12.0-0.0-1.9","null","<span style='color:red; font-size: 70px;'>错误! </span>","null","","","","","","","","","","","","","","","","","","","","","","","feedback_test",""
"","","","","","psychophysics","82","217972","0.0-12.0-0.0-0.10","3243","","k","","","","","","","","","","","","","key","k","16.664488188976375","683","380","d","false","img/H_28.png","生人","freeprac_stranger","",""
"","","","","","html-keyboard-response","83","218282","0.0-12.0-0.0-1.10","null","<span style='color:red; font-size: 70px;'>错误! </span>","null","","","","","","","","","","","","","","","","","","","","","","","feedback_test",""
"","","","","","psychophysics","84","222888","0.0-12.0-0.0-0.11","3600","","d","","","","","","","","","","","","","key","d","16.66436363636357","683","380","d","true","img/S_28.png","生人","freeprac_stranger","",""
"","","","","","html-keyboard-response","85","223198","0.0-12.0-0.0-1.11","null","<span style='color:GreenYellow; font-size: 70px;'>正确! </span>","null","","","","","","","","","","","","","","","","","","","","","","","feedback_test",""
"","","","","","instructions","86","243758","0.0-13.0","20560","","","","","","","","","","","","","","[{""page_index"":0,""viewing_time"":20559}]","","","","","","","","","","","",""
"","","","","","psychophysics","87","245347","0.0-14.0-0.0-0.0","575","","j","","","","","","","","","","","","","key","j","16.663999999999866","683","380","j","true","img/S_28.png","自我","prac_self","","自我"
"","","","","","html-keyboard-response","88","245658","0.0-14.0-0.0-1.0","null","<span style='color:GreenYellow; font-size: 70px;'>正确! </span>","null","","","","","","","","","","","","","","","","","","","","","","","feedback_test",""
"","","","","","psychophysics","89","248159","0.0-14.0-0.0-0.1","null","","null","","","","","","","","","","","","","key","null","16.664563758389193","683","380","f","false","img/C_28.png","生人","prac_self","","生人"
"","","","","","html-keyboard-response","90","248471","0.0-14.0-0.0-1.1","null","<span class='add_' style='color:yellow; font-size: 70px;'> 太慢! </span>","null","","","","","","","","","","","","","","","","","","","","","","","feedback_test",""
"","","","","","psychophysics","91","250516","0.0-14.0-0.0-0.2","1031","","f","","","","","","","","","","","","","key","f","16.66459016393432","683","380","f","true","img/C_28.png","生人","prac_self","","生人"
"","","","","","html-keyboard-response","92","250831","0.0-14.0-0.0-1.2","null","<span style='color:GreenYellow; font-size: 70px;'>正确! </span>","null","","","","","","","","","","","","","","","","","","","","","","","feedback_test",""
"","","","","","psychophysics","93","252892","0.0-14.0-0.0-0.3","1055","","d","","","","","","","","","","","","","key","d","16.663606557376983","683","380","f","false","img/H_28.png","朋友","prac_self","","朋友"
"","","","","","html-keyboard-response","94","253201","0.0-14.0-0.0-1.3","null","<span style='color:red; font-size: 70px;'>错误! </span>","null","","","","","","","","","","","","","","","","","","","","","","","feedback_test",""
"","","","","","psychophysics","95","255709","0.0-14.0-0.0-0.4","null","","null","","","","","","","","","","","","","key","null","16.66335570469816","683","380","d","false","img/H_28.png","自我","prac_self","","朋友"
"","","","","","html-keyboard-response","96","256021","0.0-14.0-0.0-1.4","null","<span class='add_' style='color:yellow; font-size: 70px;'> 太慢! </span>","null","","","","","","","","","","","","","","","","","","","","","","","feedback_test",""
"","","","","","psychophysics","97","258142","0.0-14.0-0.0-0.5","1111","","j","","","","","","","","","","","","","key","j","16.664444444444452","683","380","j","true","img/S_28.png","自我","prac_self","","自我"
"","","","","","html-keyboard-response","98","258446","0.0-14.0-0.0-1.5","null","<span style='color:GreenYellow; font-size: 70px;'>正确! </span>","null","","","","","","","","","","","","","","","","","","","","","","","feedback_test",""
"","","","","","psychophysics","99","260392","0.0-14.0-0.0-0.6","937","","k","","","","","","","","","","","","","key","k","16.664521739130546","683","380","d","false","img/C_28.png","自我","prac_self","","生人"
"","","","","","html-keyboard-response","100","260697","0.0-14.0-0.0-1.6","null","<span style='color:red; font-size: 70px;'>错误! </span>","null","","","","","","","","","","","","","","","","","","","","","","","feedback_test",""
"","","","","","psychophysics","101","262927","0.0-14.0-0.0-0.7","1218","","k","","","","","","","","","","","","","key","k","16.664545454545465","683","380","k","true","img/S_28.png","生人","prac_self","","自我"
"","","","","","html-keyboard-response","102","263241","0.0-14.0-0.0-1.7","null","<span style='color:GreenYellow; font-size: 70px;'>正确! </span>","null","","","","","","","","","","","","","","","","","","","","","","","feedback_test",""
"","","","","","psychophysics","103","265676","0.0-14.0-0.0-0.8","1425","","f","","","","","","","","","","","","","key","f","16.664413793103222","683","380","f","true","img/H_28.png","朋友","prac_self","","朋友"
"","","","","","html-keyboard-response","104","265978","0.0-14.0-0.0-1.8","null","<span style='color:GreenYellow; font-size: 70px;'>正确! </span>","null","","","","","","","","","","","","","","","","","","","","","","","feedback_test",""
"","","","","","psychophysics","105","267672","0.0-14.0-0.0-0.9","688","","f","","","","","","","","","","","","","key","f","16.663399999999672","683","380","k","false","img/S_28.png","朋友","prac_self","","自我"
"","","","","","html-keyboard-response","106","267976","0.0-14.0-0.0-1.9","null","<span style='color:red; font-size: 70px;'>错误! </span>","null","","","","","","","","","","","","","","","","","","","","","","","feedback_test",""
"","","","","","psychophysics","107","270214","0.0-14.0-0.0-0.10","1233","","d","","","","","","","","","","","","","key","d","16.664360902255535","683","380","d","true","img/H_28.png","生人","prac_self","","朋友"
"","","","","","html-keyboard-response","108","270519","0.0-14.0-0.0-1.10","null","<span style='color:GreenYellow; font-size: 70px;'>正确! </span>","null","","","","","","","","","","","","","","","","","","","","","","","feedback_test",""
"","","","","","psychophysics","109","272795","0.0-14.0-0.0-0.11","1275","","d","","","","","","","","","","","","","key","d","16.664558823529447","683","380","d","true","img/C_28.png","朋友","prac_self","","生人"
"","","","","","html-keyboard-response","110","273110","0.0-14.0-0.0-1.11","null","<span style='color:GreenYellow; font-size: 70px;'>正确! </span>","null","","","","","","","","","","","","","","","","","","","","","","","feedback_test",""
"","","","","","psychophysics","111","275170","0.0-14.0-0.0-0.12","1049","","d","","","","","","","","","","","","","key","d","16.664426229508177","683","380","f","false","img/H_28.png","朋友","prac_self","","朋友"
"","","","","","html-keyboard-response","112","275483","0.0-14.0-0.0-1.12","null","<span style='color:red; font-size: 70px;'>错误! </span>","null","","","","","","","","","","","","","","","","","","","","","","","feedback_test",""
"","","","","","psychophysics","113","277996","0.0-14.0-0.0-0.13","null","","null","","","","","","","","","","","","","key","null","16.663466666666793","683","380","d","false","img/H_28.png","生人","prac_self","","朋友"
"","","","","","html-keyboard-response","114","278306","0.0-14.0-0.0-1.13","null","<span class='add_' style='color:yellow; font-size: 70px;'> 太慢! </span>","null","","","","","","","","","","","","","","","","","","","","","","","feedback_test",""
"","","","","","psychophysics","115","280219","0.0-14.0-0.0-0.14","903","","d","","","","","","","","","","","","","key","d","16.664561403508852","683","380","d","true","img/C_28.png","朋友","prac_self","","生人"
"","","","","","html-keyboard-response","116","280523","0.0-14.0-0.0-1.14","null","<span style='color:GreenYellow; font-size: 70px;'>正确! </span>","null","","","","","","","","","","","","","","","","","","","","","","","feedback_test",""
"","","","","","psychophysics","117","282768","0.0-14.0-0.0-0.15","1239","","d","","","","","","","","","","","","","key","d","16.664360902255535","683","380","d","true","img/C_28.png","自我","prac_self","","生人"
"","","","","","html-keyboard-response","118","283073","0.0-14.0-0.0-1.15","null","<span style='color:GreenYellow; font-size: 70px;'>正确! </span>","null","","","","","","","","","","","","","","","","","","","","","","","feedback_test",""
"","","","","","psychophysics","119","284695","0.0-14.0-0.0-0.16","609","","j","","","","","","","","","","","","","key","j","16.66329896907243","683","380","j","true","img/S_28.png","自我","prac_self","","自我"
"","","","","","html-keyboard-response","120","285003","0.0-14.0-0.0-1.16","null","<span style='color:GreenYellow; font-size: 70px;'>正确! </span>","null","","","","","","","","","","","","","","","","","","","","","","","feedback_test",""
"","","","","","psychophysics","121","286637","0.0-14.0-0.0-0.17","618","","d","","","","","","","","","","","","","key","d","16.66432989690724","683","380","f","false","img/C_28.png","生人","prac_self","","生人"
"","","","","","html-keyboard-response","122","286946","0.0-14.0-0.0-1.17","null","<span style='color:red; font-size: 70px;'>错误! </span>","null","","","","","","","","","","","","","","","","","","","","","","","feedback_test",""
"","","","","","psychophysics","123","288988","0.0-14.0-0.0-0.18","1032","","d","","","","","","","","","","","","","key","d","16.66132231404974","683","380","k","false","img/S_28.png","生人","prac_self","","自我"
"","","","","","html-keyboard-response","124","289290","0.0-14.0-0.0-1.18","null","<span style='color:red; font-size: 70px;'>错误! </span>","null","","","","","","","","","","","","","","","","","","","","","","","feedback_test",""
"","","","","","psychophysics","125","291592","0.0-14.0-0.0-0.19","1290","","d","","","","","","","","","","","","","key","d","16.664558823529017","683","380","f","false","img/H_28.png","朋友","prac_self","","朋友"
"","","","","","html-keyboard-response","126","291905","0.0-14.0-0.0-1.19","null","<span style='color:red; font-size: 70px;'>错误! </span>","null","","","","","","","","","","","","","","","","","","","","","","","feedback_test",""
"","","","","","psychophysics","127","294297","0.0-14.0-0.0-0.20","1378","","f","","","","","","","","","","","","","key","f","16.664475524475655","683","380","f","true","img/C_28.png","生人","prac_self","","生人"
"","","","","","html-keyboard-response","128","294611","0.0-14.0-0.0-1.20","null","<span style='color:GreenYellow; font-size: 70px;'>正确! </span>","null","","","","","","","","","","","","","","","","","","","","","","","feedback_test",""
"","","","","","psychophysics","129","296906","0.0-14.0-0.0-0.21","1289","","d","","","","","","","","","","","","","key","d","16.66441176470578","683","380","k","false","img/S_28.png","朋友","prac_self","","自我"
"","","","","","html-keyboard-response","130","297214","0.0-14.0-0.0-1.21","null","<span style='color:red; font-size: 70px;'>错误! </span>","null","","","","","","","","","","","","","","","","","","","","","","","feedback_test",""
"","","","","","psychophysics","131","299724","0.0-14.0-0.0-0.22","null","","null","","","","","","","","","","","","","key","null","16.664563758389388","683","380","d","false","img/H_28.png","自我","prac_self","","朋友"
"","","","","","html-keyboard-response","132","300032","0.0-14.0-0.0-1.22","null","<span class='add_' style='color:yellow; font-size: 70px;'> 太慢! </span>","null","","","","","","","","","","","","","","","","","","","","","","","feedback_test",""
"","","","","","psychophysics","133","302449","0.0-14.0-0.0-0.23","1405","","d","","","","","","","","","","","","","key","d","16.664305555555377","683","380","j","false","img/S_28.png","自我","prac_self","","自我"
"","","","","","html-keyboard-response","134","302762","0.0-14.0-0.0-1.23","null","<span style='color:red; font-size: 70px;'>错误! </span>","null","","","","","","","","","","","","","","","","","","","","","","","feedback_test",""
"","","","","","html-keyboard-response","135","319500","0.0-14.0-1.0-0.0","16735","<style>.context{color:white; font-size: 35px; line-height:40px}</style>                              <div><p class='context'>您正确回答了46% 的试次。</p><p class='context'>您的平均反应时为1091毫秒。</p>","enter","","","","","","","","","","","","","","","","","","","","","","","",""
"","","","","","instructions","136","336687","0.0-14.0-1.0-1.0","17188","","","","","","","","","","","","","","[{""page_index"":0,""viewing_time"":5072},{""page_index"":1,""viewing_time"":7422},{""page_index"":2,""viewing_time"":4693}]","","","","","","","","","","","",""
"","","","","","psychophysics","137","339017","0.0-14.1-0.1-0.24","1320","","k","","","","","","","","","","","","","key","k","16.66449275362327","683","380","f","false","img/C_28.png","生人","prac_self","","生人"
"","","","","","html-keyboard-response","138","339325","0.0-14.1-0.1-1.24","null","<span style='color:red; font-size: 70px;'>错误! </span>","null","","","","","","","","","","","","","","","","","","","","","","","feedback_test",""
"","","","","","psychophysics","139","341830","0.0-14.1-0.1-0.25","null","","null","","","","","","","","","","","","","key","null","16.6640268456376","683","380","d","false","img/H_28.png","生人","prac_self","","朋友"
"","","","","","html-keyboard-response","140","342140","0.0-14.1-0.1-1.25","null","<span class='add_' style='color:yellow; font-size: 70px;'> 太慢! </span>","null","","","","","","","","","","","","","","","","","","","","","","","feedback_test",""
"","","","","","psychophysics","141","343943","0.0-14.1-0.1-0.26","792","","j","","","","","","","","","","","","","key","j","16.664485981308193","683","380","j","true","img/S_28.png","自我","prac_self","","自我"
"","","","","","html-keyboard-response","142","344257","0.0-14.1-0.1-1.26","null","<span style='color:GreenYellow; font-size: 70px;'>正确! </span>","null","","","","","","","","","","","","","","","","","","","","","","","feedback_test",""
"","","","","","psychophysics","143","346748","0.0-14.1-0.1-0.27","1480","","f","","","","","","","","","","","","","key","f","16.664459459459238","683","380","d","false","img/C_28.png","自我","prac_self","","生人"
"","","","","","html-keyboard-response","144","347055","0.0-14.1-0.1-1.27","null","<span style='color:red; font-size: 70px;'>错误! </span>","null","","","","","","","","","","","","","","","","","","","","","","","feedback_test",""
"","","","","","psychophysics","145","349411","0.0-14.1-0.1-0.28","1346","","f","","","","","","","","","","","","","key","f","16.664428571428704","683","380","f","true","img/C_28.png","生人","prac_self","","生人"
"","","","","","html-keyboard-response","146","349725","0.0-14.1-0.1-1.28","null","<span style='color:GreenYellow; font-size: 70px;'>正确! </span>","null","","","","","","","","","","","","","","","","","","","","","","","feedback_test",""
"","","","","","psychophysics","147","352239","0.0-14.1-0.1-0.29","null","","null","","","","","","","","","","","","","key","null","16.664133333333304","683","380","d","false","img/H_28.png","自我","prac_self","","朋友"
"","","","","","html-keyboard-response","148","352546","0.0-14.1-0.1-1.29","null","<span class='add_' style='color:yellow; font-size: 70px;'> 太慢! </span>","null","","","","","","","","","","","","","","","","","","","","","","","feedback_test",""
"","","","","","psychophysics","149","354742","0.0-14.1-0.1-0.30","1186","","f","","","","","","","","","","","","","key","f","16.664427480916316","683","380","f","true","img/H_28.png","朋友","prac_self","","朋友"
"","","","","","html-keyboard-response","150","355055","0.0-14.1-0.1-1.30","null","<span style='color:GreenYellow; font-size: 70px;'>正确! </span>","null","","","","","","","","","","","","","","","","","","","","","","","feedback_test",""
"","","","","","psychophysics","151","356953","0.0-14.1-0.1-0.31","888","","j","","","","","","","","","","","","","key","j","16.664601769911812","683","380","j","true","img/S_28.png","自我","prac_self","","自我"
"","","","","","html-keyboard-response","152","357260","0.0-14.1-0.1-1.31","null","<span style='color:GreenYellow; font-size: 70px;'>正确! </span>","null","","","","","","","","","","","","","","","","","","","","","","","feedback_test",""
"","","","","","psychophysics","153","359395","0.0-14.1-0.1-0.32","1123","","k","","","","","","","","","","","","","key","k","16.664409448818933","683","380","k","true","img/S_28.png","生人","prac_self","","自我"
"","","","","","html-keyboard-response","154","359707","0.0-14.1-0.1-1.32","null","<span style='color:GreenYellow; font-size: 70px;'>正确! </span>","null","","","","","","","","","","","","","","","","","","","","","","","feedback_test",""
"","","","","","psychophysics","155","362218","0.0-14.1-0.1-0.33","null","","null","","","","","","","","","","","","","key","null","16.664133333333304","683","380","d","false","img/C_28.png","朋友","prac_self","","生人"
"","","","","","html-keyboard-response","156","362532","0.0-14.1-0.1-1.33","null","<span class='add_' style='color:yellow; font-size: 70px;'> 太慢! </span>","null","","","","","","","","","","","","","","","","","","","","","","","feedback_test",""
"","","","","","psychophysics","157","364622","0.0-14.1-0.1-0.34","1079","","f","","","","","","","","","","","","","key","f","16.664516129032446","683","380","f","true","img/H_28.png","朋友","prac_self","","朋友"
"","","","","","html-keyboard-response","158","364932","0.0-14.1-0.1-1.34","null","<span style='color:GreenYellow; font-size: 70px;'>正确! </span>","null","","","","","","","","","","","","","","","","","","","","","","","feedback_test",""
"","","","","","psychophysics","159","366712","0.0-14.1-0.1-0.35","767","","k","","","","","","","","","","","","","key","k","16.664380952380487","683","380","k","true","img/S_28.png","朋友","prac_self","","自我"
"","","","","","html-keyboard-response","160","367023","0.0-14.1-0.1-1.35","null","<span style='color:GreenYellow; font-size: 70px;'>正确! </span>","null","","","","","","","","","","","","","","","","","","","","","","","feedback_test",""
"","","","","","psychophysics","161","369240","0.0-14.1-0.1-0.36","1207","","d","","","","","","","","","","","","","key","d","16.664393939394028","683","380","f","false","img/H_28.png","朋友","prac_self","","朋友"
"","","","","","html-keyboard-response","162","369543","0.0-14.1-0.1-1.36","null","<span style='color:red; font-size: 70px;'>错误! </span>","null","","","","","","","","","","","","","","","","","","","","","","","feedback_test",""
"","","","","","psychophysics","163","371887","0.0-14.1-0.1-0.37","1330","","f","","","","","","","","","","","","","key","f","16.66442857142829","683","380","f","true","img/C_28.png","生人","prac_self","","生人"
"","","","","","html-keyboard-response","164","372196","0.0-14.1-0.1-1.37","null","<span style='color:GreenYellow; font-size: 70px;'>正确! </span>","null","","","","","","","","","","","","","","","","","","","","","","","feedback_test",""
"","","","","","psychophysics","165","374456","0.0-14.1-0.1-0.38","1250","","k","","","","","","","","","","","","","key","k","16.664328358209094","683","380","k","true","img/S_28.png","生人","prac_self","","自我"
"","","","","","html-keyboard-response","166","374759","0.0-14.1-0.1-1.38","null","<span style='color:GreenYellow; font-size: 70px;'>正确! </span>","null","","","","","","","","","","","","","","","","","","","","","","","feedback_test",""
"","","","","","psychophysics","167","377015","0.0-14.1-0.1-0.39","1249","","d","","","","","","","","","","","","","key","d","16.66444444444453","683","380","d","true","img/C_28.png","朋友","prac_self","","生人"
"","","","","","html-keyboard-response","168","377319","0.0-14.1-0.1-1.39","null","<span style='color:GreenYellow; font-size: 70px;'>正确! </span>","null","","","","","","","","","","","","","","","","","","","","","","","feedback_test",""
"","","","","","psychophysics","169","379071","0.0-14.1-0.1-0.40","746","","j","","","","","","","","","","","","","key","j","16.662500000000225","683","380","j","true","img/S_28.png","自我","prac_self","","自我"
"","","","","","html-keyboard-response","170","379382","0.0-14.1-0.1-1.40","null","<span style='color:GreenYellow; font-size: 70px;'>正确! </span>","null","","","","","","","","","","","","","","","","","","","","","","","feedback_test",""
"","","","","","psychophysics","171","381089","0.0-14.1-0.1-0.41","695","","k","","","","","","","","","","","","","key","k","16.663564356435252","683","380","d","false","img/C_28.png","自我","prac_self","","生人"
"","","","","","html-keyboard-response","172","381396","0.0-14.1-0.1-1.41","null","<span style='color:red; font-size: 70px;'>错误! </span>","null","","","","","","","","","","","","","","","","","","","","","","","feedback_test",""
"","","","","","psychophysics","173","383337","0.0-14.1-0.1-0.42","934","","d","","","","","","","","","","","","","key","d","16.664521739130294","683","380","f","false","img/H_28.png","朋友","prac_self","","朋友"
"","","","","","html-keyboard-response","174","383640","0.0-14.1-0.1-1.42","null","<span style='color:red; font-size: 70px;'>错误! </span>","null","","","","","","","","","","","","","","","","","","","","","","","feedback_test",""
"","","","","","psychophysics","175","385743","0.0-14.1-0.1-0.43","1090","","d","","","","","","","","","","","","","key","d","16.66447999999998","683","380","k","false","img/S_28.png","朋友","prac_self","","自我"
"","","","","","html-keyboard-response","176","386046","0.0-14.1-0.1-1.43","null","<span style='color:red; font-size: 70px;'>错误! </span>","null","","","","","","","","","","","","","","","","","","","","","","","feedback_test",""
"","","","","","psychophysics","177","387724","0.0-14.1-0.1-0.44","665","","j","","","","","","","","","","","","","key","j","16.66404040404031","683","380","j","true","img/S_28.png","自我","prac_self","","自我"
"","","","","","html-keyboard-response","178","388037","0.0-14.1-0.1-1.44","null","<span style='color:GreenYellow; font-size: 70px;'>正确! </span>","null","","","","","","","","","","","","","","","","","","","","","","","feedback_test",""
"","","","","","psychophysics","179","389943","0.0-14.1-0.1-0.45","892","","d","","","","","","","","","","","","","key","d","16.664424778761205","683","380","f","false","img/C_28.png","生人","prac_self","","生人"
"","","","","","html-keyboard-response","180","390249","0.0-14.1-0.1-1.45","null","<span style='color:red; font-size: 70px;'>错误! </span>","null","","","","","","","","","","","","","","","","","","","","","","","feedback_test",""
"","","","","","psychophysics","181","392263","0.0-14.1-0.1-0.46","1007","","k","","","","","","","","","","","","","key","k","16.6625","683","380","d","false","img/H_28.png","自我","prac_self","","朋友"
"","","","","","html-keyboard-response","182","392566","0.0-14.1-0.1-1.46","null","<span style='color:red; font-size: 70px;'>错误! </span>","null","","","","","","","","","","","","","","","","","","","","","","","feedback_test",""
"","","","","","psychophysics","183","395085","0.0-14.1-0.1-0.47","null","","null","","","","","","","","","","","","","key","null","16.663866666666774","683","380","d","false","img/H_28.png","生人","prac_self","","朋友"
"","","","","","html-keyboard-response","184","395395","0.0-14.1-0.1-1.47","null","<span class='add_' style='color:yellow; font-size: 70px;'> 太慢! </span>","null","","","","","","","","","","","","","","","","","","","","","","","feedback_test",""
"","","","","","html-keyboard-response","185","400577","0.0-14.1-1.1-0.1","5179","<style>.context{color:white; font-size: 35px; line-height:40px}</style>                              <div><p class='context'>您正确回答了50% 的试次。</p><p class='context'>您的平均反应时为1035毫秒。</p>","enter","","","","","","","","","","","","","","","","","","","","","","","",""
"","","","","","instructions","186","410152","0.0-14.1-1.1-1.1","9575","","","","","","","","","","","","","","[{""page_index"":0,""viewing_time"":2826},{""page_index"":1,""viewing_time"":5621},{""page_index"":2,""viewing_time"":1128}]","","","","","","","","","","","",""
"","","","","","psychophysics","187","411703","0.0-14.2-0.2-0.48","537","","j","","","","","","","","","","","","","key","j","16.664565217391456","683","380","j","true","img/S_28.png","自我","prac_self","","自我"
"","","","","","html-keyboard-response","188","412004","0.0-14.2-0.2-1.48","null","<span style='color:GreenYellow; font-size: 70px;'>正确! </span>","null","","","","","","","","","","","","","","","","","","","","","","","feedback_test",""
"","","","","","psychophysics","189","414201","0.0-14.2-0.2-0.49","1186","","d","","","","","","","","","","","","","key","d","16.664274809160446","683","380","d","true","img/H_28.png","生人","prac_self","","朋友"
"","","","","","html-keyboard-response","190","414513","0.0-14.2-0.2-1.49","null","<span style='color:GreenYellow; font-size: 70px;'>正确! </span>","null","","","","","","","","","","","","","","","","","","","","","","","feedback_test",""
"","","","","","psychophysics","191","416917","0.0-14.2-0.2-0.50","1391","","d","","","","","","","","","","","","","key","d","16.664475524475655","683","380","d","true","img/C_28.png","朋友","prac_self","","生人"
"","","","","","html-keyboard-response","192","417229","0.0-14.2-0.2-1.50","null","<span style='color:GreenYellow; font-size: 70px;'>正确! </span>","null","","","","","","","","","","","","","","","","","","","","","","","feedback_test",""
"","","","","","psychophysics","193","419561","0.0-14.2-0.2-0.51","1321","","k","","","","","","","","","","","","","key","k","16.663021582734046","683","380","k","true","img/S_28.png","朋友","prac_self","","自我"
"","","","","","html-keyboard-response","194","419872","0.0-14.2-0.2-1.51","null","<span style='color:GreenYellow; font-size: 70px;'>正确! </span>","null","","","","","","","","","","","","","","","","","","","","","","","feedback_test",""
"","","","","","psychophysics","195","422155","0.0-14.2-0.2-0.52","1277","","d","","","","","","","","","","","","","key","d","16.66382352941197","683","380","d","true","img/H_28.png","自我","prac_self","","朋友"
"","","","","","html-keyboard-response","196","422467","0.0-14.2-0.2-1.52","null","<span style='color:GreenYellow; font-size: 70px;'>正确! </span>","null","","","","","","","","","","","","","","","","","","","","","","","feedback_test",""
"","","","","","psychophysics","197","424302","0.0-14.2-0.2-0.53","823","","f","","","","","","","","","","","","","key","f","16.663853211009044","683","380","f","true","img/H_28.png","朋友","prac_self","","朋友"
"","","","","","html-keyboard-response","198","424615","0.0-14.2-0.2-1.53","null","<span style='color:GreenYellow; font-size: 70px;'>正确! </span>","null","","","","","","","","","","","","","","","","","","","","","","","feedback_test",""
"","","","","","psychophysics","199","426327","0.0-14.2-0.2-0.54","705","","j","","","","","","","","","","","","","key","j","16.664509803921842","683","380","j","true","img/S_28.png","自我","prac_self","","自我"
"","","","","","html-keyboard-response","200","426631","0.0-14.2-0.2-1.54","null","<span style='color:GreenYellow; font-size: 70px;'>正确! </span>","null","","","","","","","","","","","","","","","","","","","","","","","feedback_test",""
"","","","","","psychophysics","201","428834","0.0-14.2-0.2-0.55","1192","","f","","","","","","","","","","","","","key","f","16.66458015267174","683","380","f","true","img/C_28.png","生人","prac_self","","生人"
"","","","","","html-keyboard-response","202","429141","0.0-14.2-0.2-1.55","null","<span style='color:GreenYellow; font-size: 70px;'>正确! </span>","null","","","","","","","","","","","","","","","","","","","","","","","feedback_test",""
"","","","","","psychophysics","203","431114","0.0-14.2-0.2-0.56","958","","d","","","","","","","","","","","","","key","d","16.663076923077064","683","380","d","true","img/C_28.png","自我","prac_self","","生人"
"","","","","","html-keyboard-response","204","431427","0.0-14.2-0.2-1.56","null","<span style='color:GreenYellow; font-size: 70px;'>正确! </span>","null","","","","","","","","","","","","","","","","","","","","","","","feedback_test",""
"","","","","","psychophysics","205","433240","0.0-14.2-0.2-0.57","801","","d","","","","","","","","","","","","","key","d","16.663364485981134","683","380","f","false","img/C_28.png","生人","prac_self","","生人"
"","","","","","html-keyboard-response","206","433552","0.0-14.2-0.2-1.57","null","<span style='color:red; font-size: 70px;'>错误! </span>","null","","","","","","","","","","","","","","","","","","","","","","","feedback_test",""
"","","","","","psychophysics","207","435786","0.0-14.2-0.2-0.58","1222","","d","","","","","","","","","","","","","key","d","16.663909774436004","683","380","k","false","img/S_28.png","生人","prac_self","","自我"
"","","","","","html-keyboard-response","208","436094","0.0-14.2-0.2-1.58","null","<span style='color:red; font-size: 70px;'>错误! </span>","null","","","","","","","","","","","","","","","","","","","","","","","feedback_test",""
"","","","","","psychophysics","209","437936","0.0-14.2-0.2-0.59","833","","f","","","","","","","","","","","","","key","f","16.664220183486453","683","380","f","true","img/H_28.png","朋友","prac_self","","朋友"
"","","","","","html-keyboard-response","210","438248","0.0-14.2-0.2-1.59","null","<span style='color:GreenYellow; font-size: 70px;'>正确! </span>","null","","","","","","","","","","","","","","","","","","","","","","","feedback_test",""
"","","","","","psychophysics","211","440504","0.0-14.2-0.2-0.60","1239","","k","","","","","","","","","","","","","key","k","16.66358208955212","683","380","f","false","img/H_28.png","朋友","prac_self","","朋友"
"","","","","","html-keyboard-response","212","440808","0.0-14.2-0.2-1.60","null","<span style='color:red; font-size: 70px;'>错误! </span>","null","","","","","","","","","","","","","","","","","","","","","","","feedback_test",""
"","","","","","psychophysics","213","442460","0.0-14.2-0.2-0.61","645","","j","","","","","","","","","","","","","key","j","16.663877551020384","683","380","j","true","img/S_28.png","自我","prac_self","","自我"
"","","","","","html-keyboard-response","214","442762","0.0-14.2-0.2-1.61","null","<span style='color:GreenYellow; font-size: 70px;'>正确! </span>","null","","","","","","","","","","","","","","","","","","","","","","","feedback_test",""
"","","","","","psychophysics","215","444514","0.0-14.2-0.2-0.62","746","","j","","","","","","","","","","","","","key","j","16.664230769230926","683","380","j","true","img/S_28.png","自我","prac_self","","自我"
"","","","","","html-keyboard-response","216","444828","0.0-14.2-0.2-1.62","null","<span style='color:GreenYellow; font-size: 70px;'>正确! </span>","null","","","","","","","","","","","","","","","","","","","","","","","feedback_test",""
"","","","","","psychophysics","217","446863","0.0-14.2-0.2-0.63","1025","","f","","","","","","","","","","","","","key","f","16.66446280991755","683","380","f","true","img/C_28.png","生人","prac_self","","生人"
"","","","","","html-keyboard-response","218","447175","0.0-14.2-0.2-1.63","null","<span style='color:GreenYellow; font-size: 70px;'>正确! </span>","null","","","","","","","","","","","","","","","","","","","","","","","feedback_test",""
"","","","","","psychophysics","219","449681","0.0-14.2-0.2-0.64","null","","null","","","","","","","","","","","","","key","null","16.664563758388997","683","380","k","false","img/S_28.png","生人","prac_self","","自我"
"","","","","","html-keyboard-response","220","449992","0.0-14.2-0.2-1.64","null","<span class='add_' style='color:yellow; font-size: 70px;'> 太慢! </span>","null","","","","","","","","","","","","","","","","","","","","","","","feedback_test",""
"","","","","","psychophysics","221","452225","0.0-14.2-0.2-0.65","1215","","f","","","","","","","","","","","","","key","f","16.66375939849645","683","380","d","false","img/C_28.png","朋友","prac_self","","生人"
"","","","","","html-keyboard-response","222","452535","0.0-14.2-0.2-1.65","null","<span style='color:red; font-size: 70px;'>错误! </span>","null","","","","","","","","","","","","","","","","","","","","","","","feedback_test",""
"","","","","","psychophysics","223","454946","0.0-14.2-0.2-0.66","1405","","f","","","","","","","","","","","","","key","f","16.664475524475655","683","380","k","false","img/S_28.png","朋友","prac_self","","自我"
"","","","","","html-keyboard-response","224","455253","0.0-14.2-0.2-1.66","null","<span style='color:red; font-size: 70px;'>错误! </span>","null","","","","","","","","","","","","","","","","","","","","","","","feedback_test",""
"","","","","","psychophysics","225","457759","0.0-14.2-0.2-0.67","null","","null","","","","","","","","","","","","","key","null","16.664563758388997","683","380","d","false","img/C_28.png","自我","prac_self","","生人"
"","","","","","html-keyboard-response","226","458067","0.0-14.2-0.2-1.67","null","<span class='add_' style='color:yellow; font-size: 70px;'> 太慢! </span>","null","","","","","","","","","","","","","","","","","","","","","","","feedback_test",""
"","","","","","psychophysics","227","459801","0.0-14.2-0.2-0.68","726","","f","","","","","","","","","","","","","key","f","16.664509803921273","683","380","f","true","img/H_28.png","朋友","prac_self","","朋友"
"","","","","","html-keyboard-response","228","460115","0.0-14.2-0.2-1.68","null","<span style='color:GreenYellow; font-size: 70px;'>正确! </span>","null","","","","","","","","","","","","","","","","","","","","","","","feedback_test",""
"","","","","","psychophysics","229","462217","0.0-14.2-0.2-0.69","1100","","k","","","","","","","","","","","","","key","k","16.66447999999998","683","380","d","false","img/H_28.png","生人","prac_self","","朋友"
"","","","","","html-keyboard-response","230","462532","0.0-14.2-0.2-1.69","null","<span style='color:red; font-size: 70px;'>错误! </span>","null","","","","","","","","","","","","","","","","","","","","","","","feedback_test",""
"","","","","","psychophysics","231","464780","0.0-14.2-0.2-0.70","1240","","k","","","","","","","","","","","","","key","k","16.66402985074613","683","380","d","false","img/H_28.png","自我","prac_self","","朋友"
"","","","","","html-keyboard-response","232","465084","0.0-14.2-0.2-1.70","null","<span style='color:red; font-size: 70px;'>错误! </span>","null","","","","","","","","","","","","","","","","","","","","","","","feedback_test",""
"","","","","","psychophysics","233","467250","0.0-14.2-0.2-0.71","1162","","f","","","","","","","","","","","","","key","f","16.664531250000437","683","380","f","true","img/C_28.png","生人","prac_self","","生人"
"","","","","","html-keyboard-response","234","467551","0.0-14.2-0.2-1.71","null","<span style='color:GreenYellow; font-size: 70px;'>正确! </span>","null","","","","","","","","","","","","","","","","","","","","","","","feedback_test",""
"","","","","","html-keyboard-response","235","471640","0.0-14.2-1.2-0.2","4087","<style>.context{color:white; font-size: 35px; line-height:40px}</style>                              <div><p class='context'>您正确回答了63% 的试次。</p><p class='context'>您的平均反应时为968毫秒。</p>","enter","","","","","","","","","","","","","","","","","","","","","","","",""
"","","","","","instructions","236","567868","0.0-14.2-1.2-1.2","96228","","","","","","","","","","","","","","[{""page_index"":0,""viewing_time"":61230},{""page_index"":1,""viewing_time"":31464},{""page_index"":2,""viewing_time"":3534}]","","","","","","","","","","","",""
"","","","","","psychophysics","237","569880","0.0-14.3-0.3-0.72","990","","f","","","","","","","","","","","","","key","f","16.664201680672583","683","380","f","true","img/C_28.png","生人","prac_self","","生人"
"","","","","","html-keyboard-response","238","570195","0.0-14.3-0.3-1.72","null","<span style='color:GreenYellow; font-size: 70px;'>正确! </span>","null","","","","","","","","","","","","","","","","","","","","","","","feedback_test",""
"","","","","","psychophysics","239","572047","0.0-14.3-0.3-0.73","850","","d","","","","","","","","","","","","","key","d","16.664363636364314","683","380","d","true","img/C_28.png","朋友","prac_self","","生人"
"","","","","","html-keyboard-response","240","572355","0.0-14.3-0.3-1.73","null","<span style='color:GreenYellow; font-size: 70px;'>正确! </span>","null","","","","","","","","","","","","","","","","","","","","","","","feedback_test",""
"","","","","","psychophysics","241","574700","0.0-14.3-0.3-0.74","1343","","d","","","","","","","","","","","","","key","d","16.664316546762354","683","380","d","true","img/H_28.png","自我","prac_self","","朋友"
"","","","","","html-keyboard-response","242","575002","0.0-14.3-0.3-1.74","null","<span style='color:GreenYellow; font-size: 70px;'>正确! </span>","null","","","","","","","","","","","","","","","","","","","","","","","feedback_test",""
"","","","","","psychophysics","243","577260","0.0-14.3-0.3-0.75","1244","","d","","","","","","","","","","","","","key","d","16.663703703703533","683","380","k","false","img/S_28.png","朋友","prac_self","","自我"
"","","","","","html-keyboard-response","244","577575","0.0-14.3-0.3-1.75","null","<span style='color:red; font-size: 70px;'>错误! </span>","null","","","","","","","","","","","","","","","","","","","","","","","feedback_test",""
"","","","","","psychophysics","245","579669","0.0-14.3-0.3-0.76","1084","","f","","","","","","","","","","","","","key","f","16.664193548386983","683","380","f","true","img/C_28.png","生人","prac_self","","生人"
"","","","","","html-keyboard-response","246","579978","0.0-14.3-0.3-1.76","null","<span style='color:GreenYellow; font-size: 70px;'>正确! </span>","null","","","","","","","","","","","","","","","","","","","","","","","feedback_test",""
"","","","","","psychophysics","247","582052","0.0-14.3-0.3-0.77","1058","","f","","","","","","","","","","","","","key","f","16.664227642276042","683","380","f","true","img/H_28.png","朋友","prac_self","","朋友"
"","","","","","html-keyboard-response","248","582366","0.0-14.3-0.3-1.77","null","<span style='color:GreenYellow; font-size: 70px;'>正确! </span>","null","","","","","","","","","","","","","","","","","","","","","","","feedback_test",""
"","","","","","psychophysics","249","584522","0.0-14.3-0.3-0.78","1145","","f","","","","","","","","","","","","","key","f","16.66449612403079","683","380","d","false","img/C_28.png","自我","prac_self","","生人"
"","","","","","html-keyboard-response","250","584832","0.0-14.3-0.3-1.78","null","<span style='color:red; font-size: 70px;'>错误! </span>","null","","","","","","","","","","","","","","","","","","","","","","","feedback_test",""
"","","","","","psychophysics","251","586718","0.0-14.3-0.3-0.79","882","","j","","","","","","","","","","","","","key","j","16.66357142857097","683","380","j","true","img/S_28.png","自我","prac_self","","自我"
"","","","","","html-keyboard-response","252","587023","0.0-14.3-0.3-1.79","null","<span style='color:GreenYellow; font-size: 70px;'>正确! </span>","null","","","","","","","","","","","","","","","","","","","","","","","feedback_test",""
"","","","","","psychophysics","253","589138","0.0-14.3-0.3-0.80","1108","","f","","","","","","","","","","","","","key","f","16.66253968254046","683","380","f","true","img/H_28.png","朋友","prac_self","","朋友"
"","","","","","html-keyboard-response","254","589449","0.0-14.3-0.3-1.80","null","<span style='color:GreenYellow; font-size: 70px;'>正确! </span>","null","","","","","","","","","","","","","","","","","","","","","","","feedback_test",""
"","","","","","psychophysics","255","591693","0.0-14.3-0.3-0.81","1238","","d","","","","","","","","","","","","","key","d","16.663582089552552","683","380","k","false","img/S_28.png","生人","prac_self","","自我"
"","","","","","html-keyboard-response","256","591999","0.0-14.3-0.3-1.81","null","<span style='color:red; font-size: 70px;'>错误! </span>","null","","","","","","","","","","","","","","","","","","","","","","","feedback_test",""
"","","","","","psychophysics","257","593732","0.0-14.3-0.3-0.82","723","","j","","","","","","","","","","","","","key","j","16.66407766990314","683","380","j","true","img/S_28.png","自我","prac_self","","自我"
"","","","","","html-keyboard-response","258","594048","0.0-14.3-0.3-1.82","null","<span style='color:GreenYellow; font-size: 70px;'>正确! </span>","null","","","","","","","","","","","","","","","","","","","","","","","feedback_test",""
"","","","","","psychophysics","259","596559","0.0-14.3-0.3-0.83","null","","null","","","","","","","","","","","","","key","null","16.664533333332898","683","380","d","false","img/H_28.png","生人","prac_self","","朋友"
"","","","","","html-keyboard-response","260","596870","0.0-14.3-0.3-1.83","null","<span class='add_' style='color:yellow; font-size: 70px;'> 太慢! </span>","null","","","","","","","","","","","","","","","","","","","","","","","feedback_test",""
"","","","","","psychophysics","261","598622","0.0-14.3-0.3-0.84","741","","j","","","","","","","","","","","","","key","j","16.66442307692285","683","380","k","false","img/S_28.png","生人","prac_self","","自我"
"","","","","","html-keyboard-response","262","598928","0.0-14.3-0.3-1.84","null","<span style='color:red; font-size: 70px;'>错误! </span>","null","","","","","","","","","","","","","","","","","","","","","","","feedback_test",""
"","","","","","psychophysics","263","601434","0.0-14.3-0.3-0.85","null","","null","","","","","","","","","","","","","key","null","16.66416107382525","683","380","d","false","img/C_28.png","自我","prac_self","","生人"
"","","","","","html-keyboard-response","264","601741","0.0-14.3-0.3-1.85","null","<span class='add_' style='color:yellow; font-size: 70px;'> 太慢! </span>","null","","","","","","","","","","","","","","","","","","","","","","","feedback_test",""
"","","","","","psychophysics","265","603814","0.0-14.3-0.3-0.86","1062","","f","","","","","","","","","","","","","key","f","16.66439024390316","683","380","f","true","img/C_28.png","生人","prac_self","","生人"
"","","","","","html-keyboard-response","266","604124","0.0-14.3-0.3-1.86","null","<span style='color:GreenYellow; font-size: 70px;'>正确! </span>","null","","","","","","","","","","","","","","","","","","","","","","","feedback_test",""
"","","","","","psychophysics","267","606134","0.0-14.3-0.3-0.87","995","","f","","","","","","","","","","","","","key","f","16.664033613445536","683","380","f","true","img/H_28.png","朋友","prac_self","","朋友"
"","","","","","html-keyboard-response","268","606442","0.0-14.3-0.3-1.87","null","<span style='color:GreenYellow; font-size: 70px;'>正确! </span>","null","","","","","","","","","","","","","","","","","","","","","","","feedback_test",""
"","","","","","psychophysics","269","608168","0.0-14.3-0.3-0.88","720","","f","","","","","","","","","","","","","key","f","16.660980392157274","683","380","f","true","img/H_28.png","朋友","prac_self","","朋友"
"","","","","","html-keyboard-response","270","608475","0.0-14.3-0.3-1.88","null","<span style='color:GreenYellow; font-size: 70px;'>正确! </span>","null","","","","","","","","","","","","","","","","","","","","","","","feedback_test",""
"","","","","","psychophysics","271","610355","0.0-14.3-0.3-0.89","871","","f","","","","","","","","","","","","","key","f","16.66357142857097","683","380","f","true","img/C_28.png","生人","prac_self","","生人"
"","","","","","html-keyboard-response","272","610667","0.0-14.3-0.3-1.89","null","<span style='color:GreenYellow; font-size: 70px;'>正确! </span>","null","","","","","","","","","","","","","","","","","","","","","","","feedback_test",""
"","","","","","psychophysics","273","612331","0.0-14.3-0.3-0.90","649","","j","","","","","","","","","","","","","key","j","16.66448979591832","683","380","j","true","img/S_28.png","自我","prac_self","","自我"
"","","","","","html-keyboard-response","274","612643","0.0-14.3-0.3-1.90","null","<span style='color:GreenYellow; font-size: 70px;'>正确! </span>","null","","","","","","","","","","","","","","","","","","","","","","","feedback_test",""
"","","","","","psychophysics","275","614613","0.0-14.3-0.3-0.91","958","","d","","","","","","","","","","","","","key","d","16.664615384615463","683","380","d","true","img/H_28.png","生人","prac_self","","朋友"
"","","","","","html-keyboard-response","276","614920","0.0-14.3-0.3-1.91","null","<span style='color:GreenYellow; font-size: 70px;'>正确! </span>","null","","","","","","","","","","","","","","","","","","","","","","","feedback_test",""
"","","","","","psychophysics","277","616605","0.0-14.3-0.3-0.92","672","","j","","","","","","","","","","","","","key","j","16.664400000000605","683","380","j","true","img/S_28.png","自我","prac_self","","自我"
"","","","","","html-keyboard-response","278","616916","0.0-14.3-0.3-1.92","null","<span style='color:GreenYellow; font-size: 70px;'>正确! </span>","null","","","","","","","","","","","","","","","","","","","","","","","feedback_test",""
"","","","","","psychophysics","279","618631","0.0-14.3-0.3-0.93","703","","k","","","","","","","","","","","","","key","k","16.664554455445497","683","380","k","true","img/S_28.png","朋友","prac_self","","自我"
"","","","","","html-keyboard-response","280","618936","0.0-14.3-0.3-1.93","null","<span style='color:GreenYellow; font-size: 70px;'>正确! </span>","null","","","","","","","","","","","","","","","","","","","","","","","feedback_test",""
"","","","","","psychophysics","281","621078","0.0-14.3-0.3-0.94","1132","","d","","","","","","","","","","","","","key","d","16.664409448818933","683","380","d","true","img/C_28.png","朋友","prac_self","","生人"
"","","","","","html-keyboard-response","282","621385","0.0-14.3-0.3-1.94","null","<span style='color:GreenYellow; font-size: 70px;'>正确! </span>","null","","","","","","","","","","","","","","","","","","","","","","","feedback_test",""
"","","","","","psychophysics","283","623684","0.0-14.3-0.3-0.95","1286","","f","","","","","","","","","","","","","key","f","16.664411764706635","683","380","d","false","img/H_28.png","自我","prac_self","","朋友"
"","","","","","html-keyboard-response","284","623989","0.0-14.3-0.3-1.95","null","<span style='color:red; font-size: 70px;'>错误! </span>","null","","","","","","","","","","","","","","","","","","","","","","","feedback_test",""
"","","","","","html-keyboard-response","285","632167","0.0-15.0","8173","[""<style>.context{color:white; font-size: 35px; line-height:40px}</style>              <div><p class='context'>您正确回答了71% 的试次。</p><p class='context'>您的平均反应时为929毫秒。</p><p class='context'>恭喜您完成这一阶段的练习。按任意键进入<span style='color: yellow;'>重点关注图形为“朋友”</span>的练习。</p></div><p class='footer' style='font-size:35px; line-height:30px;'>任务要求：\n              <p class='footer' style='font-size:35px; line-height:35px;'>对于与“朋友”对应的图形：如果 匹配 ，请按 <span style=\""color: lightgreen;\"">j键</span></p><p class='footer' style='font-size:35px'>如果 不匹配 ，请按<span style=\""color: lightgreen;\"">k键</p></span>\n              <p class='footer' style='font-size:35px; line-height:35px;'>对于非“朋友”对应的图形：如果 匹配 ，请按 <span style=\""color: lightgreen;\"">f键</span></p><p class='footer' style='font-size:35px'>如果 不匹配 ，请按<span style=\""color: lightgreen;\"">d键</p></span>\n              <p class='footer' style='font-size:22px; line-height:25px;'>请在实验过程中将您的<span style=\""color: lightgreen;\"">食指和中指</span>放在电脑键盘的相应键位上进行按键。</p></span>""]","enter","","","","","","","","","","","","","","","","","","","","","","","",""
"","","","","","psychophysics","286","634679","0.0-16.0-0.0-0.0","null","","null","","","","","","","","","","","","","key","null","16.664429530201343","683","380","f","false","img/S_28.png","自我","prac_friend","","自我"
"","","","","","html-keyboard-response","287","634992","0.0-16.0-0.0-1.0","null","<span class='add_' style='color:yellow; font-size: 70px;'> 太慢! </span>","null","","","","","","","","","","","","","","","","","","","","","","","feedback_test",""
"","","","","","psychophysics","288","637133","0.0-16.0-0.0-0.1","1128","","d","","","","","","","","","","","","","key","d","16.664531249999527","683","380","d","true","img/C_28.png","自我","prac_friend","","生人"
"","","","","","html-keyboard-response","289","637446","0.0-16.0-0.0-1.1","null","<span style='color:GreenYellow; font-size: 70px;'>正确! </span>","null","","","","","","","","","","","","","","","","","","","","","","","feedback_test",""
"","","","","","psychophysics","290","639326","0.0-16.0-0.0-0.2","866","","k","","","","","","","","","","","","","key","k","16.66144144144182","683","380","d","false","img/S_28.png","朋友","prac_friend","","自我"
"","","","","","html-keyboard-response","291","639639","0.0-16.0-0.0-1.2","null","<span style='color:red; font-size: 70px;'>错误! </span>","null","","","","","","","","","","","","","","","","","","","","","","","feedback_test",""
"","","","","","psychophysics","292","641296","0.0-16.0-0.0-0.3","645","","j","","","","","","","","","","","","","key","j","16.66448979591832","683","380","j","true","img/H_28.png","朋友","prac_friend","","朋友"
"","","","","","html-keyboard-response","293","641599","0.0-16.0-0.0-1.3","null","<span style='color:GreenYellow; font-size: 70px;'>正确! </span>","null","","","","","","","","","","","","","","","","","","","","","","","feedback_test",""
"","","","","","psychophysics","294","643930","0.0-16.0-0.0-0.4","1319","","d","","","","","","","","","","","","","key","d","16.664057971014593","683","380","d","true","img/C_28.png","朋友","prac_friend","","生人"
"","","","","","html-keyboard-response","295","644231","0.0-16.0-0.0-1.4","null","<span style='color:GreenYellow; font-size: 70px;'>正确! </span>","null","","","","","","","","","","","","","","","","","","","","","","","feedback_test",""
"","","","","","psychophysics","296","645996","0.0-16.0-0.0-0.5","753","","k","","","","","","","","","","","","","key","k","16.66442307692285","683","380","k","true","img/H_28.png","自我","prac_friend","","朋友"
"","","","","","html-keyboard-response","297","646300","0.0-16.0-0.0-1.5","null","<span style='color:GreenYellow; font-size: 70px;'>正确! </span>","null","","","","","","","","","","","","","","","","","","","","","","","feedback_test",""
"","","","","","psychophysics","298","648194","0.0-16.0-0.0-0.6","884","","d","","","","","","","","","","","","","key","d","16.66357142857097","683","380","d","true","img/S_28.png","生人","prac_friend","","自我"
"","","","","","html-keyboard-response","299","648510","0.0-16.0-0.0-1.6","null","<span style='color:GreenYellow; font-size: 70px;'>正确! </span>","null","","","","","","","","","","","","","","","","","","","","","","","feedback_test",""
"","","","","","psychophysics","300","650456","0.0-16.0-0.0-0.7","936","","d","","","","","","","","","","","","","key","d","16.66417391304352","683","380","k","false","img/H_28.png","生人","prac_friend","","朋友"
"","","","","","html-keyboard-response","301","650761","0.0-16.0-0.0-1.7","null","<span style='color:red; font-size: 70px;'>错误! </span>","null","","","","","","","","","","","","","","","","","","","","","","","feedback_test",""
"","","","","","psychophysics","302","652550","0.0-16.0-0.0-0.8","775","","d","","","","","","","","","","","","","key","d","16.66320754716915","683","380","f","false","img/C_28.png","生人","prac_friend","","生人"
"","","","","","html-keyboard-response","303","652862","0.0-16.0-0.0-1.8","null","<span style='color:red; font-size: 70px;'>错误! </span>","null","","","","","","","","","","","","","","","","","","","","","","","feedback_test",""
"","","","","","psychophysics","304","655040","0.0-16.0-0.0-0.9","1175","","f","","","","","","","","","","","","","key","f","16.66449612403079","683","380","f","true","img/S_28.png","自我","prac_friend","","自我"
"","","","","","html-keyboard-response","305","655355","0.0-16.0-0.0-1.9","null","<span style='color:GreenYellow; font-size: 70px;'>正确! </span>","null","","","","","","","","","","","","","","","","","","","","","","","feedback_test",""
"","","","","","psychophysics","306","657344","0.0-16.0-0.0-0.10","975","","j","","","","","","","","","","","","","key","j","16.664406779661213","683","380","j","true","img/H_28.png","朋友","prac_friend","","朋友"
"","","","","","html-keyboard-response","307","657658","0.0-16.0-0.0-1.10","null","<span style='color:GreenYellow; font-size: 70px;'>正确! </span>","null","","","","","","","","","","","","","","","","","","","","","","","feedback_test",""
"","","","","","psychophysics","308","659580","0.0-16.0-0.0-0.11","906","","f","","","","","","","","","","","","","key","f","16.6636842105266","683","380","f","true","img/C_28.png","生人","prac_friend","","生人"
"","","","","","html-keyboard-response","309","659889","0.0-16.0-0.0-1.11","null","<span style='color:GreenYellow; font-size: 70px;'>正确! </span>","null","","","","","","","","","","","","","","","","","","","","","","","feedback_test",""
"","","","","","psychophysics","310","661823","0.0-16.0-0.0-0.12","919","","j","","","","","","","","","","","","","key","j","16.66313043478269","683","380","j","true","img/H_28.png","朋友","prac_friend","","朋友"
"","","","","","html-keyboard-response","311","662132","0.0-16.0-0.0-1.12","null","<span style='color:GreenYellow; font-size: 70px;'>正确! </span>","null","","","","","","","","","","","","","","","","","","","","","","","feedback_test",""
"","","","","","psychophysics","312","664341","0.0-16.0-0.0-0.13","1208","","d","","","","","","","","","","","","","key","d","16.664274809159558","683","380","d","true","img/C_28.png","朋友","prac_friend","","生人"
"","","","","","html-keyboard-response","313","664654","0.0-16.0-0.0-1.13","null","<span style='color:GreenYellow; font-size: 70px;'>正确! </span>","null","","","","","","","","","","","","","","","","","","","","","","","feedback_test",""
"","","","","","psychophysics","314","666633","0.0-16.0-0.0-0.14","971","","d","","","","","","","","","","","","","key","d","16.664067796610052","683","380","f","false","img/S_28.png","自我","prac_friend","","自我"
"","","","","","html-keyboard-response","315","666946","0.0-16.0-0.0-1.14","null","<span style='color:red; font-size: 70px;'>错误! </span>","null","","","","","","","","","","","","","","","","","","","","","","","feedback_test",""
"","","","","","psychophysics","316","669298","0.0-16.0-0.0-0.15","1340","","k","","","","","","","","","","","","","key","k","16.663714285713752","683","380","d","false","img/S_28.png","朋友","prac_friend","","自我"
"","","","","","html-keyboard-response","317","669612","0.0-16.0-0.0-1.15","null","<span style='color:red; font-size: 70px;'>错误! </span>","null","","","","","","","","","","","","","","","","","","","","","","","feedback_test",""
"","","","","","psychophysics","318","671837","0.0-16.0-0.0-0.16","1216","","f","","","","","","","","","","","","","key","f","16.664393939393587","683","380","f","true","img/S_28.png","自我","prac_friend","","自我"
"","","","","","html-keyboard-response","319","672138","0.0-16.0-0.0-1.16","null","<span style='color:GreenYellow; font-size: 70px;'>正确! </span>","null","","","","","","","","","","","","","","","","","","","","","","","feedback_test",""
"","","","","","psychophysics","320","673855","0.0-16.0-0.0-0.17","707","","d","","","","","","","","","","","","","key","d","16.664313725490288","683","380","d","true","img/C_28.png","自我","prac_friend","","生人"
"","","","","","html-keyboard-response","321","674159","0.0-16.0-0.0-1.17","null","<span style='color:GreenYellow; font-size: 70px;'>正确! </span>","null","","","","","","","","","","","","","","","","","","","","","","","feedback_test",""
"","","","","","psychophysics","322","676198","0.0-16.0-0.0-0.18","1029","","j","","","","","","","","","","","","","key","j","16.66446280991755","683","380","j","true","img/H_28.png","朋友","prac_friend","","朋友"
"","","","","","html-keyboard-response","323","676507","0.0-16.0-0.0-1.18","null","<span style='color:GreenYellow; font-size: 70px;'>正确! </span>","null","","","","","","","","","","","","","","","","","","","","","","","feedback_test",""
"","","","","","psychophysics","324","678634","0.0-16.0-0.0-0.19","1115","","d","","","","","","","","","","","","","key","d","16.66412698412739","683","380","d","true","img/S_28.png","生人","prac_friend","","自我"
"","","","","","html-keyboard-response","325","678939","0.0-16.0-0.0-1.19","null","<span style='color:GreenYellow; font-size: 70px;'>正确! </span>","null","","","","","","","","","","","","","","","","","","","","","","","feedback_test",""
"","","","","","psychophysics","326","680777","0.0-16.0-0.0-0.20","835","","f","","","","","","","","","","","","","key","f","16.66458715596279","683","380","f","true","img/C_28.png","生人","prac_friend","","生人"
"","","","","","html-keyboard-response","327","681091","0.0-16.0-0.0-1.20","null","<span style='color:GreenYellow; font-size: 70px;'>正确! </span>","null","","","","","","","","","","","","","","","","","","","","","","","feedback_test",""
"","","","","","psychophysics","328","682876","0.0-16.0-0.0-0.21","775","","f","","","","","","","","","","","","","key","f","16.664528301887362","683","380","f","true","img/C_28.png","生人","prac_friend","","生人"
"","","","","","html-keyboard-response","329","683192","0.0-16.0-0.0-1.21","null","<span style='color:GreenYellow; font-size: 70px;'>正确! </span>","null","","","","","","","","","","","","","","","","","","","","","","","feedback_test",""
"","","","","","psychophysics","330","685460","0.0-16.0-0.0-0.22","1251","","k","","","","","","","","","","","","","key","k","16.6644444444441","683","380","k","true","img/H_28.png","自我","prac_friend","","朋友"
"","","","","","html-keyboard-response","331","685772","0.0-16.0-0.0-1.22","null","<span style='color:GreenYellow; font-size: 70px;'>正确! </span>","null","","","","","","","","","","","","","","","","","","","","","","","feedback_test",""
"","","","","","psychophysics","332","687480","0.0-16.0-0.0-0.23","700","","k","","","","","","","","","","","","","key","k","16.664313725490288","683","380","k","true","img/H_28.png","生人","prac_friend","","朋友"
"","","","","","html-keyboard-response","333","687790","0.0-16.0-0.0-1.23","null","<span style='color:GreenYellow; font-size: 70px;'>正确! </span>","null","","","","","","","","","","","","","","","","","","","","","","","feedback_test",""
"","","","","","html-keyboard-response","334","695599","0.0-17.0","7805","[""<style>.context{color:white; font-size: 35px; line-height:40px}</style>                  <div><p class='context'>您正确回答了75% 的试次。</p><p class='context'>您的平均反应时为974毫秒。</p><p class='context'>恭喜您完成这一阶段的练习。按任意键进入<span style='color: yellow;'>重点关注图形为“生人”</span>的练习。</p></div><p class='footer' style='font-size:35px; line-height:30px;'>任务要求：\n                  <p class='footer' style='font-size:35px; line-height:35px;'>对与“生人”对应的图形，如果 匹配 ，请按 <span style=\""color: lightgreen;\"">j键</span></p><p class='footer' style='font-size:35px'>如果 不匹配 ，请按<span style=\""color: lightgreen;\"">k键</p></span>\n                  <p class='footer' style='font-size:35px; line-height:35px;'>对非“生人”对应的图形，如果 匹配 ，请按 <span style=\""color: lightgreen;\"">f键</span></p><p class='footer' style='font-size:35px'>如果 不匹配 ，请按<span style=\""color: lightgreen;\"">d键</p></span>\n                  <p class='footer' style='font-size:22px; line-height:25px;'>请在实验过程中将您的<span style=\""color: lightgreen;\"">食指和中指</span>放在电脑键盘的相应键位上进行按键。</p></span>""]","enter","","","","","","","","","","","","","","","","","","","","","","","",""
"","","","","","psychophysics","335","698101","0.0-18.0-0.0-0.0","null","","null","","","","","","","","","","","","","key","null","16.663892617449164","683","380","d","false","img/S_28.png","朋友","prac_stranger","","自我"
"","","","","","html-keyboard-response","336","698413","0.0-18.0-0.0-1.0","null","<span class='add_' style='color:yellow; font-size: 70px;'> 太慢! </span>","null","","","","","","","","","","","","","","","","","","","","","","","feedback_test",""
"","","","","","psychophysics","337","700521","0.0-18.0-0.0-0.1","1096","","f","","","","","","","","","","","","","key","f","16.66383999999985","683","380","d","false","img/S_28.png","生人","prac_stranger","","自我"
"","","","","","html-keyboard-response","338","700829","0.0-18.0-0.0-1.1","null","<span style='color:red; font-size: 70px;'>错误! </span>","null","","","","","","","","","","","","","","","","","","","","","","","feedback_test",""
"","","","","","psychophysics","339","702791","0.0-18.0-0.0-0.2","950","","d","","","","","","","","","","","","","key","d","16.66256410256426","683","380","d","true","img/H_28.png","生人","prac_stranger","","朋友"
"","","","","","html-keyboard-response","340","703100","0.0-18.0-0.0-1.2","null","<span style='color:GreenYellow; font-size: 70px;'>正确! </span>","null","","","","","","","","","","","","","","","","","","","","","","","feedback_test",""
"","","","","","psychophysics","341","704639","0.0-18.0-0.0-0.3","527","","j","","","","","","","","","","","","","key","j","16.66461538461646","683","380","j","true","img/C_28.png","生人","prac_stranger","","生人"
"","","","","","html-keyboard-response","342","704955","0.0-18.0-0.0-1.3","null","<span style='color:GreenYellow; font-size: 70px;'>正确! </span>","null","","","","","","","","","","","","","","","","","","","","","","","feedback_test",""
"","","","","","psychophysics","343","706818","0.0-18.0-0.0-0.4","851","","f","","","","","","","","","","","","","key","f","16.664363636364314","683","380","f","true","img/H_28.png","朋友","prac_stranger","","朋友"
"","","","","","html-keyboard-response","344","707120","0.0-18.0-0.0-1.4","null","<span style='color:GreenYellow; font-size: 70px;'>正确! </span>","null","","","","","","","","","","","","","","","","","","","","","","","feedback_test",""
"","","","","","psychophysics","345","709074","0.0-18.0-0.0-0.5","946","","k","","","","","","","","","","","","","key","k","16.663793103448278","683","380","k","true","img/C_28.png","自我","prac_stranger","","生人"
"","","","","","html-keyboard-response","346","709382","0.0-18.0-0.0-1.5","null","<span style='color:GreenYellow; font-size: 70px;'>正确! </span>","null","","","","","","","","","","","","","","","","","","","","","","","feedback_test",""
"","","","","","psychophysics","347","711536","0.0-18.0-0.0-0.6","1141","","f","","","","","","","","","","","","","key","f","16.664531249999527","683","380","f","true","img/S_28.png","自我","prac_stranger","","自我"
"","","","","","html-keyboard-response","348","711853","0.0-18.0-0.0-1.6","null","<span style='color:GreenYellow; font-size: 70px;'>正确! </span>","null","","","","","","","","","","","","","","","","","","","","","","","feedback_test",""
"","","","","","psychophysics","349","713629","0.0-18.0-0.0-0.7","768","","f","","","","","","","","","","","","","key","f","16.58283018867951","683","380","f","true","img/H_28.png","朋友","prac_stranger","","朋友"
"","","","","","html-keyboard-response","350","713933","0.0-18.0-0.0-1.7","null","<span style='color:GreenYellow; font-size: 70px;'>正确! </span>","null","","","","","","","","","","","","","","","","","","","","","","","feedback_test",""
"","","","","","psychophysics","351","715708","0.0-18.0-0.0-0.8","765","","d","","","","","","","","","","","","","key","d","16.664528301887362","683","380","d","true","img/H_28.png","自我","prac_stranger","","朋友"
"","","","","","html-keyboard-response","352","716010","0.0-18.0-0.0-1.8","null","<span style='color:GreenYellow; font-size: 70px;'>正确! </span>","null","","","","","","","","","","","","","","","","","","","","","","","feedback_test",""
"","","","","","psychophysics","353","717736","0.0-18.0-0.0-0.9","713","","k","","","","","","","","","","","","","key","k","16.66411764705873","683","380","k","true","img/C_28.png","朋友","prac_stranger","","生人"
"","","","","","html-keyboard-response","354","718052","0.0-18.0-0.0-1.9","null","<span style='color:GreenYellow; font-size: 70px;'>正确! </span>","null","","","","","","","","","","","","","","","","","","","","","","","feedback_test",""
"","","","","","psychophysics","355","719949","0.0-18.0-0.0-0.10","890","","f","","","","","","","","","","","","","key","f","16.66446428571466","683","380","f","true","img/S_28.png","自我","prac_stranger","","自我"
"","","","","","html-keyboard-response","356","720259","0.0-18.0-0.0-1.10","null","<span style='color:GreenYellow; font-size: 70px;'>正确! </span>","null","","","","","","","","","","","","","","","","","","","","","","","feedback_test",""
"","","","","","psychophysics","357","721905","0.0-18.0-0.0-0.11","631","","j","","","","","","","","","","","","","key","j","16.66387755101979","683","380","j","true","img/C_28.png","生人","prac_stranger","","生人"
"","","","","","html-keyboard-response","358","722212","0.0-18.0-0.0-1.11","null","<span style='color:GreenYellow; font-size: 70px;'>正确! </span>","null","","","","","","","","","","","","","","","","","","","","","","","feedback_test",""
"","","","","","psychophysics","359","724470","0.0-18.0-0.0-0.12","1252","","d","","","","","","","","","","","","","key","d","16.66402985074613","683","380","f","false","img/S_28.png","自我","prac_stranger","","自我"
"","","","","","html-keyboard-response","360","724776","0.0-18.0-0.0-1.12","null","<span style='color:red; font-size: 70px;'>错误! </span>","null","","","","","","","","","","","","","","","","","","","","","","","feedback_test",""
"","","","","","psychophysics","361","726449","0.0-18.0-0.0-0.13","659","","f","","","","","","","","","","","","","key","f","16.6638383838381","683","380","f","true","img/S_28.png","自我","prac_stranger","","自我"
"","","","","","html-keyboard-response","362","726757","0.0-18.0-0.0-1.13","null","<span style='color:GreenYellow; font-size: 70px;'>正确! </span>","null","","","","","","","","","","","","","","","","","","","","","","","feedback_test",""
"","","","","","psychophysics","363","728455","0.0-18.0-0.0-0.14","691","","j","","","","","","","","","","","","","key","j","16.663960396040157","683","380","j","true","img/C_28.png","生人","prac_stranger","","生人"
"","","","","","html-keyboard-response","364","728759","0.0-18.0-0.0-1.14","null","<span style='color:GreenYellow; font-size: 70px;'>正确! </span>","null","","","","","","","","","","","","","","","","","","","","","","","feedback_test",""
"","","","","","psychophysics","365","730517","0.0-18.0-0.0-0.15","750","","k","","","","","","","","","","","","","key","k","16.664230769230365","683","380","k","true","img/C_28.png","朋友","prac_stranger","","生人"
"","","","","","html-keyboard-response","366","730824","0.0-18.0-0.0-1.15","null","<span style='color:GreenYellow; font-size: 70px;'>正确! </span>","null","","","","","","","","","","","","","","","","","","","","","","","feedback_test",""
"","","","","","psychophysics","367","732548","0.0-18.0-0.0-0.16","717","","j","","","","","","","","","","","","","key","j","16.663921568627178","683","380","j","true","img/C_28.png","生人","prac_stranger","","生人"
"","","","","","html-keyboard-response","368","732853","0.0-18.0-0.0-1.16","null","<span style='color:GreenYellow; font-size: 70px;'>正确! </span>","null","","","","","","","","","","","","","","","","","","","","","","","feedback_test",""
"","","","","","psychophysics","369","735084","0.0-18.0-0.0-0.17","1223","","d","","","","","","","","","","","","","key","d","16.664393939393587","683","380","d","true","img/S_28.png","生人","prac_stranger","","自我"
"","","","","","html-keyboard-response","370","735400","0.0-18.0-0.0-1.17","null","<span style='color:GreenYellow; font-size: 70px;'>正确! </span>","null","","","","","","","","","","","","","","","","","","","","","","","feedback_test",""
"","","","","","psychophysics","371","737756","0.0-18.0-0.0-0.18","1347","","d","","","","","","","","","","","","","key","d","16.663571428571593","683","380","d","true","img/S_28.png","朋友","prac_stranger","","自我"
"","","","","","html-keyboard-response","372","738069","0.0-18.0-0.0-1.18","null","<span style='color:GreenYellow; font-size: 70px;'>正确! </span>","null","","","","","","","","","","","","","","","","","","","","","","","feedback_test",""
"","","","","","psychophysics","373","740155","0.0-18.0-0.0-0.19","1084","","d","","","","","","","","","","","","","key","d","16.664516129032446","683","380","d","true","img/H_28.png","生人","prac_stranger","","朋友"
"","","","","","html-keyboard-response","374","740466","0.0-18.0-0.0-1.19","null","<span style='color:GreenYellow; font-size: 70px;'>正确! </span>","null","","","","","","","","","","","","","","","","","","","","","","","feedback_test",""
"","","","","","psychophysics","375","742971","0.0-18.0-0.0-0.20","null","","null","","","","","","","","","","","","","key","null","16.664429530201343","683","380","f","false","img/H_28.png","朋友","prac_stranger","","朋友"
"","","","","","html-keyboard-response","376","743282","0.0-18.0-0.0-1.20","null","<span class='add_' style='color:yellow; font-size: 70px;'> 太慢! </span>","null","","","","","","","","","","","","","","","","","","","","","","","feedback_test",""
"","","","","","psychophysics","377","745216","0.0-18.0-0.0-0.21","919","","j","","","","","","","","","","","","","key","j","16.663508771929948","683","380","k","false","img/C_28.png","自我","prac_stranger","","生人"
"","","","","","html-keyboard-response","378","745518","0.0-18.0-0.0-1.21","null","<span style='color:red; font-size: 70px;'>错误! </span>","null","","","","","","","","","","","","","","","","","","","","","","","feedback_test",""
"","","","","","psychophysics","379","747660","0.0-18.0-0.0-0.22","1133","","d","","","","","","","","","","","","","key","d","16.663307086615017","683","380","d","true","img/H_28.png","自我","prac_stranger","","朋友"
"","","","","","html-keyboard-response","380","747971","0.0-18.0-0.0-1.22","null","<span style='color:GreenYellow; font-size: 70px;'>正确! </span>","null","","","","","","","","","","","","","","","","","","","","","","","feedback_test",""
"","","","","","psychophysics","381","750143","0.0-18.0-0.0-0.23","1164","","f","","","","","","","","","","","","","key","f","16.66434108527096","683","380","f","true","img/H_28.png","朋友","prac_stranger","","朋友"
"","","","","","html-keyboard-response","382","750457","0.0-18.0-0.0-1.23","null","<span style='color:GreenYellow; font-size: 70px;'>正确! </span>","null","","","","","","","","","","","","","","","","","","","","","","","feedback_test",""
"","","","","","html-keyboard-response","383","825272","0.0-19.0","74808","[""<style>.context{color:white; font-size: 35px; line-height:40px}</style>                                        <div><p class='context'>您正确回答了79% 的试次。</p><p class='context'>您的平均反应时为892毫秒。</p><p class='context'>恭喜您完成练习。您可以在此时休息一段时间，准备好后按任意键进入正式实验。</p><p class='footer' style='font-size: 35px; line-height:40px;'>请在进入正式实验实验之前将您的<span style='color: lightgreen;'>食指和中指</span>放在电脑键盘的相应键位上，做好按键准备。</p>""]","enter","","","","","","","","","","","","","","","","","","","","","","","",""
"","","","","","html-keyboard-response","384","838530","0.0-20.0-1.0-0.0","13256","
                    <p>请您将食指和中指放在相应按键上，准备进入<span style='color: yellow;'>重点图形为“朋友”对应图形</span>的正式匹配任务</p>
                    <p> <div style = ""color: green""><按任意键开始></div></p>
                    ","enter","","","","","","","","","","","","","","","","","","","","","","","",""
"","","","","","psychophysics","385","840769","0.0-20.0-1.0-1.0-0.0-0.0","1233","","d","","","","","","","","","","","","","key","d","16.66421052631642","683","380","d","true","img/S_28.png","朋友","friend","","自我"
"","","","","","html-keyboard-response","386","841082","0.0-20.0-1.0-1.0-0.0-1.0","null","<span style='color:GreenYellow; font-size: 70px;'>正确! </span>","null","","","","","","","","","","","","","","","","","","","","","","","feedback_test",""
"","","","","","psychophysics","387","842885","0.0-20.0-1.0-1.0-0.0-0.1","794","","k","","","","","","","","","","","","","key","k","16.66448598130928","683","380","k","true","img/H_28.png","自我","friend","","朋友"
"","","","","","html-keyboard-response","388","843195","0.0-20.0-1.0-1.0-0.0-1.1","null","<span style='color:GreenYellow; font-size: 70px;'>正确! </span>","null","","","","","","","","","","","","","","","","","","","","","","","feedback_test",""
"","","","","","psychophysics","389","845053","0.0-20.0-1.0-1.0-0.0-0.2","851","","f","","","","","","","","","","","","","key","f","16.664363636363255","683","380","f","true","img/C_28.png","生人","friend","","生人"
"","","","","","html-keyboard-response","390","845366","0.0-20.0-1.0-1.0-0.0-1.2","null","<span style='color:GreenYellow; font-size: 70px;'>正确! </span>","null","","","","","","","","","","","","","","","","","","","","","","","feedback_test",""
"","","","","","psychophysics","391","847171","0.0-20.0-1.0-1.0-0.0-0.3","796","","f","","","","","","","","","","","","","key","f","16.664112149532144","683","380","f","true","img/C_28.png","生人","friend","","生人"
"","","","","","html-keyboard-response","392","847484","0.0-20.0-1.0-1.0-0.0-1.3","null","<span style='color:GreenYellow; font-size: 70px;'>正确! </span>","null","","","","","","","","","","","","","","","","","","","","","","","feedback_test",""
"","","","","","psychophysics","393","849094","0.0-20.0-1.0-1.0-0.0-0.4","607","","j","","","","","","","","","","","","","key","j","16.664583333332605","683","380","j","true","img/H_28.png","朋友","friend","","朋友"
"","","","","","html-keyboard-response","394","849403","0.0-20.0-1.0-1.0-0.0-1.4","null","<span style='color:GreenYellow; font-size: 70px;'>正确! </span>","null","","","","","","","","","","","","","","","","","","","","","","","feedback_test",""
"","","","","","psychophysics","395","851187","0.0-20.0-1.0-1.0-0.0-0.5","775","","k","","","","","","","","","","","","","key","k","16.663238095238228","683","380","k","true","img/H_28.png","生人","friend","","朋友"
"","","","","","html-keyboard-response","396","851500","0.0-20.0-1.0-1.0-0.0-1.5","null","<span style='color:GreenYellow; font-size: 70px;'>正确! </span>","null","","","","","","","","","","","","","","","","","","","","","","","feedback_test",""
"","","","","","psychophysics","397","853179","0.0-20.0-1.0-1.0-0.0-0.6","673","","j","","","","","","","","","","","","","key","j","16.664400000000605","683","380","j","true","img/H_28.png","朋友","friend","","朋友"
"","","","","","html-keyboard-response","398","853491","0.0-20.0-1.0-1.0-0.0-1.6","null","<span style='color:GreenYellow; font-size: 70px;'>正确! </span>","null","","","","","","","","","","","","","","","","","","","","","","","feedback_test",""
"","","","","","psychophysics","399","855523","0.0-20.0-1.0-1.0-0.0-0.7","1019","","d","","","","","","","","","","","","","key","d","16.66446280991755","683","380","d","true","img/S_28.png","生人","friend","","自我"
"","","","","","html-keyboard-response","400","855830","0.0-20.0-1.0-1.0-0.0-1.7","null","<span style='color:GreenYellow; font-size: 70px;'>正确! </span>","null","","","","","","","","","","","","","","","","","","","","","","","feedback_test",""
"","","","","","psychophysics","401","857790","0.0-20.0-1.0-1.0-0.0-0.8","944","","f","","","","","","","","","","","","","key","f","16.664273504273265","683","380","f","true","img/S_28.png","自我","friend","","自我"
"","","","","","html-keyboard-response","402","858092","0.0-20.0-1.0-1.0-0.0-1.8","null","<span style='color:GreenYellow; font-size: 70px;'>正确! </span>","null","","","","","","","","","","","","","","","","","","","","","","","feedback_test",""
"","","","","","psychophysics","403","859960","0.0-20.0-1.0-1.0-0.0-0.9","859","","d","","","","","","","","","","","","","key","d","16.662882882882506","683","380","d","true","img/C_28.png","自我","friend","","生人"
"","","","","","html-keyboard-response","404","860270","0.0-20.0-1.0-1.0-0.0-1.9","null","<span style='color:GreenYellow; font-size: 70px;'>正确! </span>","null","","","","","","","","","","","","","","","","","","","","","","","feedback_test",""
"","","","","","psychophysics","405","862210","0.0-20.0-1.0-1.0-0.0-0.10","931","","d","","","","","","","","","","","","","key","d","16.664521739129786","683","380","d","true","img/C_28.png","朋友","friend","","生人"
"","","","","","html-keyboard-response","406","862522","0.0-20.0-1.0-1.0-0.0-1.10","null","<span style='color:GreenYellow; font-size: 70px;'>正确! </span>","null","","","","","","","","","","","","","","","","","","","","","","","feedback_test",""
"","","","","","psychophysics","407","864215","0.0-20.0-1.0-1.0-0.0-0.11","679","","f","","","","","","","","","","","","","key","f","16.663000000000466","683","380","f","true","img/S_28.png","自我","friend","","自我"
"","","","","","html-keyboard-response","408","864517","0.0-20.0-1.0-1.0-0.0-1.11","null","<span style='color:GreenYellow; font-size: 70px;'>正确! </span>","null","","","","","","","","","","","","","","","","","","","","","","","feedback_test",""
"","","","","","psychophysics","409","866205","0.0-20.0-1.0-1.0-0.0-0.12","676","","d","","","","","","","","","","","","","key","d","16.664399999999443","683","380","f","false","img/C_28.png","生人","friend","","生人"
"","","","","","html-keyboard-response","410","866513","0.0-20.0-1.0-1.0-0.0-1.12","null","<span style='color:red; font-size: 70px;'>错误! </span>","null","","","","","","","","","","","","","","","","","","","","","","","feedback_test",""
"","","","","","psychophysics","411","868380","0.0-20.0-1.0-1.0-0.0-0.13","853","","d","","","","","","","","","","","","","key","d","16.664545454545244","683","380","d","true","img/C_28.png","自我","friend","","生人"
"","","","","","html-keyboard-response","412","868686","0.0-20.0-1.0-1.0-0.0-1.13","null","<span style='color:GreenYellow; font-size: 70px;'>正确! </span>","null","","","","","","","","","","","","","","","","","","","","","","","feedback_test",""
"","","","","","psychophysics","413","870705","0.0-20.0-1.0-1.0-0.0-0.14","1006","","d","","","","","","","","","","","","","key","d","16.663999999999458","683","380","d","true","img/S_28.png","朋友","friend","","自我"
"","","","","","html-keyboard-response","414","871013","0.0-20.0-1.0-1.0-0.0-1.14","null","<span style='color:GreenYellow; font-size: 70px;'>正确! </span>","null","","","","","","","","","","","","","","","","","","","","","","","feedback_test",""
"","","","","","psychophysics","415","872517","0.0-20.0-1.0-1.0-0.0-0.15","494","","j","","","","","","","","","","","","","key","j","16.664494382022628","683","380","j","true","img/H_28.png","朋友","friend","","朋友"
"","","","","","html-keyboard-response","416","872831","0.0-20.0-1.0-1.0-0.0-1.15","null","<span style='color:GreenYellow; font-size: 70px;'>正确! </span>","null","","","","","","","","","","","","","","","","","","","","","","","feedback_test",""
"","","","","","psychophysics","417","874664","0.0-20.0-1.0-1.0-0.0-0.16","820","","f","","","","","","","","","","","","","key","f","16.664220183486453","683","380","f","true","img/C_28.png","生人","friend","","生人"
"","","","","","html-keyboard-response","418","874966","0.0-20.0-1.0-1.0-0.0-1.16","null","<span style='color:GreenYellow; font-size: 70px;'>正确! </span>","null","","","","","","","","","","","","","","","","","","","","","","","feedback_test",""
"","","","","","psychophysics","419","876733","0.0-20.0-1.0-1.0-0.0-0.17","753","","d","","","","","","","","","","","","","key","d","16.661923076922765","683","380","d","true","img/C_28.png","朋友","friend","","生人"
"","","","","","html-keyboard-response","420","877037","0.0-20.0-1.0-1.0-0.0-1.17","null","<span style='color:GreenYellow; font-size: 70px;'>正确! </span>","null","","","","","","","","","","","","","","","","","","","","","","","feedback_test",""
"","","","","","psychophysics","421","878992","0.0-20.0-1.0-1.0-0.0-0.18","945","","f","","","","","","","","","","","","","key","f","16.664137931034805","683","380","f","true","img/S_28.png","自我","friend","","自我"
"","","","","","html-keyboard-response","422","879295","0.0-20.0-1.0-1.0-0.0-1.18","null","<span style='color:GreenYellow; font-size: 70px;'>正确! </span>","null","","","","","","","","","","","","","","","","","","","","","","","feedback_test",""
"","","","","","psychophysics","423","881157","0.0-20.0-1.0-1.0-0.0-0.19","852","","k","","","","","","","","","","","","","key","k","16.66450450450354","683","380","k","true","img/H_28.png","自我","friend","","朋友"
