"success","timeout","failed_images","failed_audio","failed_video","trial_type","trial_index","time_elapsed","internal_node_id","rt","stimulus","response","value","item_width_mm","item_height_mm","item_width_px","px2mm","view_dist_mm","item_width_deg","px2deg","scale_factor","win_width_deg","win_height_deg","view_history","response_type","key_press","avg_frame_time","center_x","center_y","correct_response","correct","Image","text","condition","screen_id","label"
"true","false","[]","[]","[]","preload","0","98","0.0-0.0","","","","","","","","","","","","","","","","","","","","","","","","","","",""
"","","","","","html-keyboard-response","1","91082","0.0-1.0","90983","
     <p>您好，欢迎参加本次实验。</p>
     <p>为充分保障您的权利，请确保您已经知晓并同意《参与实验同意书》以及《数据公开知情同意书》。</p>
     <p>如果您未见过上述内容，请咨询实验员。</p>
     <p>如果您选择继续实验，则表示您已经清楚两份知情同意书的内容并同意。</p>
     <p> <div style = ""color: green""><按任意键至下页></div> </p>
     ","d","","","","","","","","","","","","","","","","","","","","","","","",""
"","","","","","html-keyboard-response","2","94087","0.0-2.0","3004","
     <p>本实验首先需要您填写一些基本个人信息。</p>
     <p> <div style = ""color: green""><按任意键至下页></div></p>
     "," ","","","","","","","","","","","","","","","","","","","","","","","",""
"","","","","","call-function","3","94088","0.0-3.0-0.0","","","","","","","","","","","","","","","","","","","","","","","","","","",""
"","","","","","survey-html-form","4","100878","0.0-3.0-1.0","6787","","{""Q0"":""6""}","","","","","","","","","","","","","","","","","","","","","","","",""
"","","","","","html-button-response","5","102409","0.0-3.0-2.0","1529","<p style = 'color : white'>您的性别</p>","0","","","","","","","","","","","","","","","","","","","","","","","",""
"","","","","","survey-html-form","6","106756","0.0-3.0-3.0","4346","","{""Q0"":""1999""}","","","","","","","","","","","","","","","","","","","","","","","",""
"","","","","","survey-html-form","7","110072","0.0-3.0-4.0","3315","","{""Q0"":""6""}","","","","","","","","","","","","","","","","","","","","","","","",""
"","","","","","virtual-chinrest","8","203383","0.0-4.0","93309","","","","85.6","53.98","445.62223282537354","5.208209846146554","549.19","8.912444656507471","50","1.077145538625085","38.4","18.74","","","","","","","","","","","","",""
"true","","","","","fullscreen","9","207045","0.0-5.0","","","","","","","","","","","","","","","","","","","","","","","","","","",""
"","","","","","instructions","10","264017","0.0-6.0","56970","","","","","","","","","","","","","","[{""page_index"":0,""viewing_time"":5440},{""page_index"":1,""viewing_time"":5521},{""page_index"":2,""viewing_time"":38011},{""page_index"":3,""viewing_time"":5503},{""page_index"":4,""viewing_time"":2495}]","","","","","","","","","","","",""
"","","","","","instructions","11","289334","0.0-7.0","25316","","","","","","","","","","","","","","[{""page_index"":0,""viewing_time"":25315}]","","","","","","","","","","","",""
"","","","","","psychophysics","12","294436","0.0-8.0-0.0-0.0","4097","","k","","","","","","","","","","","","","key","k","16.64908881578939","960","536","d","false","img/H_28.png","生人","freeprac_self","",""
"","","","","","html-keyboard-response","13","294740","0.0-8.0-0.0-1.0","null","<span style='color:red; font-size: 70px;'>错误! </span>","null","","","","","","","","","","","","","","","","","","","","","","","feedback_test",""
"","","","","","psychophysics","14","314227","0.0-8.0-0.0-0.1","18484","","d","","","","","","","","","","","","","key","d","16.64919418306244","960","536","f","false","img/H_28.png","自我","freeprac_self","",""
"","","","","","html-keyboard-response","15","314528","0.0-8.0-0.0-1.1","null","<span style='color:red; font-size: 70px;'>错误! </span>","null","","","","","","","","","","","","","","","","","","","","","","","feedback_test",""
"","","","","","psychophysics","16","316719","0.0-8.0-0.0-0.2","1189","","k","","","","","","","","","","","","","key","k","16.648641221374113","960","536","k","true","img/C_28.png","自我","freeprac_self","",""
"","","","","","html-keyboard-response","17","317020","0.0-8.0-0.0-1.2","null","<span style='color:GreenYellow; font-size: 70px;'>正确! </span>","null","","","","","","","","","","","","","","","","","","","","","","","feedback_test",""
"","","","","","psychophysics","18","319388","0.0-8.0-0.0-0.3","1365","","j","","","","","","","","","","","","","key","j","16.648985815602718","960","536","f","false","img/S_28.png","自我","freeprac_self","",""
"","","","","","html-keyboard-response","19","319689","0.0-8.0-0.0-1.3","null","<span style='color:red; font-size: 70px;'>错误! </span>","null","","","","","","","","","","","","","","","","","","","","","","","feedback_test",""
"","","","","","psychophysics","20","325261","0.0-8.0-0.0-0.4","4569","","f","","","","","","","","","","","","","key","f","16.6493952095808","960","536","d","false","img/S_28.png","朋友","freeprac_self","",""
"","","","","","html-keyboard-response","21","325563","0.0-8.0-0.0-1.4","null","<span style='color:red; font-size: 70px;'>错误! </span>","null","","","","","","","","","","","","","","","","","","","","","","","feedback_test",""
"","","","","","psychophysics","22","329410","0.0-8.0-0.0-0.5","2846","","f","","","","","","","","","","","","","key","f","16.64921739130438","960","536","f","true","img/H_28.png","朋友","freeprac_self","",""
"","","","","","html-keyboard-response","23","329711","0.0-8.0-0.0-1.5","null","<span style='color:GreenYellow; font-size: 70px;'>正确! </span>","null","","","","","","","","","","","","","","","","","","","","","","","feedback_test",""
"","","","","","psychophysics","24","335451","0.0-8.0-0.0-0.6","4738","","d","","","","","","","","","","","","","key","d","16.64933430232554","960","536","d","true","img/S_28.png","朋友","freeprac_self","",""
"","","","","","html-keyboard-response","25","335753","0.0-8.0-0.0-1.6","null","<span style='color:GreenYellow; font-size: 70px;'>正确! </span>","null","","","","","","","","","","","","","","","","","","","","","","","feedback_test",""
"","","","","","psychophysics","26","338582","0.0-8.0-0.0-0.7","1827","","d","","","","","","","","","","","","","key","d","16.64875739644979","960","536","d","true","img/H_28.png","生人","freeprac_self","",""
"","","","","","html-keyboard-response","27","338885","0.0-8.0-0.0-1.7","null","<span style='color:GreenYellow; font-size: 70px;'>正确! </span>","null","","","","","","","","","","","","","","","","","","","","","","","feedback_test",""
"","","","","","psychophysics","28","340853","0.0-8.0-0.0-0.8","967","","f","","","","","","","","","","","","","key","f","16.649769230769614","960","536","j","false","img/C_28.png","朋友","freeprac_self","",""
"","","","","","html-keyboard-response","29","341154","0.0-8.0-0.0-1.8","null","<span style='color:red; font-size: 70px;'>错误! </span>","null","","","","","","","","","","","","","","","","","","","","","","","feedback_test",""
"","","","","","psychophysics","30","343865","0.0-8.0-0.0-0.9","1710","","j","","","","","","","","","","","","","key","j","16.648546583851097","960","536","j","true","img/C_28.png","生人","freeprac_self","",""
"","","","","","html-keyboard-response","31","344167","0.0-8.0-0.0-1.9","null","<span style='color:GreenYellow; font-size: 70px;'>正确! </span>","null","","","","","","","","","","","","","","","","","","","","","","","feedback_test",""
"","","","","","psychophysics","32","347649","0.0-8.0-0.0-0.10","2480","","f","","","","","","","","","","","","","key","f","16.649163461538244","960","536","f","true","img/S_28.png","生人","freeprac_self","",""
"","","","","","html-keyboard-response","33","347951","0.0-8.0-0.0-1.10","null","<span style='color:GreenYellow; font-size: 70px;'>正确! </span>","null","","","","","","","","","","","","","","","","","","","","","","","feedback_test",""
"","","","","","psychophysics","34","349881","0.0-8.0-0.0-0.11","930","","k","","","","","","","","","","","","","key","k","16.64934782608736","960","536","k","true","img/C_28.png","自我","freeprac_self","",""
"","","","","","html-keyboard-response","35","350183","0.0-8.0-0.0-1.11","null","<span style='color:GreenYellow; font-size: 70px;'>正确! </span>","null","","","","","","","","","","","","","","","","","","","","","","","feedback_test",""
"","","","","","html-keyboard-response","36","353240","0.0-8.0-1.0-0.0","3054","<style>.context{color:white; font-size: 35px; line-height:40px}</style>                              <div><p class='context'>您正确回答了58% 的试次。</p><p class='context'>您的平均反应时为2246毫秒。</p>","j","","","","","","","","","","","","","","","","","","","","","","","",""
"","","","","","instructions","37","366980","0.0-8.0-1.0-1.0","13738","","","","","","","","","","","","","","[{""page_index"":0,""viewing_time"":7485},{""page_index"":1,""viewing_time"":3834},{""page_index"":2,""viewing_time"":2418}]","","","","","","","","","","","",""
"","","","","","psychophysics","38","369479","0.0-8.1-0.1-0.12","1495","","j","","","","","","","","","","","","","key","j","16.649476510067096","960","536","f","false","img/S_28.png","自我","freeprac_self","",""
"","","","","","html-keyboard-response","39","369780","0.0-8.1-0.1-1.12","null","<span style='color:red; font-size: 70px;'>错误! </span>","null","","","","","","","","","","","","","","","","","","","","","","","feedback_test",""
"","","","","","psychophysics","40","373543","0.0-8.1-0.1-0.13","2761","","f","","","","","","","","","","","","","key","f","16.6490044444445","960","536","d","false","img/H_28.png","生人","freeprac_self","",""
"","","","","","html-keyboard-response","41","373844","0.0-8.1-0.1-1.13","null","<span style='color:red; font-size: 70px;'>错误! </span>","null","","","","","","","","","","","","","","","","","","","","","","","feedback_test",""
"","","","","","psychophysics","42","377855","0.0-8.1-0.1-0.14","3008","","d","","","","","","","","","","","","","key","d","16.648641666666663","960","536","d","true","img/S_28.png","朋友","freeprac_self","",""
"","","","","","html-keyboard-response","43","378156","0.0-8.1-0.1-1.14","null","<span style='color:GreenYellow; font-size: 70px;'>正确! </span>","null","","","","","","","","","","","","","","","","","","","","","","","feedback_test",""
"","","","","","psychophysics","44","380915","0.0-8.1-0.1-0.15","1757","","j","","","","","","","","","","","","","key","j","16.648387878787858","960","536","j","true","img/C_28.png","生人","freeprac_self","",""
"","","","","","html-keyboard-response","45","381217","0.0-8.1-0.1-1.15","null","<span style='color:GreenYellow; font-size: 70px;'>正确! </span>","null","","","","","","","","","","","","","","","","","","","","","","","feedback_test",""
"","","","","","psychophysics","46","384148","0.0-8.1-0.1-0.16","1930","","f","","","","","","","","","","","","","key","f","16.64930857142866","960","536","d","false","img/H_28.png","生人","freeprac_self","",""
"","","","","","html-keyboard-response","47","384450","0.0-8.1-0.1-1.16","null","<span style='color:red; font-size: 70px;'>错误! </span>","null","","","","","","","","","","","","","","","","","","","","","","","feedback_test",""
"","","","","","psychophysics","48","387290","0.0-8.1-0.1-0.17","1839","","f","","","","","","","","","","","","","key","f","16.64939411764704","960","536","f","true","img/S_28.png","生人","freeprac_self","",""
"","","","","","html-keyboard-response","49","387592","0.0-8.1-0.1-1.17","null","<span style='color:GreenYellow; font-size: 70px;'>正确! </span>","null","","","","","","","","","","","","","","","","","","","","","","","feedback_test",""
"","","","","","psychophysics","50","389940","0.0-8.1-0.1-0.18","1346","","d","","","","","","","","","","","","","key","d","16.64880714285703","960","536","d","true","img/S_28.png","朋友","freeprac_self","",""
"","","","","","html-keyboard-response","51","390241","0.0-8.1-0.1-1.18","null","<span style='color:GreenYellow; font-size: 70px;'>正确! </span>","null","","","","","","","","","","","","","","","","","","","","","","","feedback_test",""
"","","","","","psychophysics","52","393658","0.0-8.1-0.1-0.19","2416","","f","","","","","","","","","","","","","key","f","16.64935784313717","960","536","f","true","img/H_28.png","自我","freeprac_self","",""
"","","","","","html-keyboard-response","53","393959","0.0-8.1-0.1-1.19","null","<span style='color:GreenYellow; font-size: 70px;'>正确! </span>","null","","","","","","","","","","","","","","","","","","","","","","","feedback_test",""
"","","","","","psychophysics","54","396232","0.0-8.1-0.1-0.20","1271","","f","","","","","","","","","","","","","key","f","16.649742647058755","960","536","f","true","img/H_28.png","朋友","freeprac_self","",""
"","","","","","html-keyboard-response","55","396534","0.0-8.1-0.1-1.20","null","<span style='color:GreenYellow; font-size: 70px;'>正确! </span>","null","","","","","","","","","","","","","","","","","","","","","","","feedback_test",""
"","","","","","psychophysics","56","398641","0.0-8.1-0.1-0.21","1106","","k","","","","","","","","","","","","","key","k","16.64959200000018","960","536","k","true","img/C_28.png","自我","freeprac_self","",""
"","","","","","html-keyboard-response","57","398943","0.0-8.1-0.1-1.21","null","<span style='color:GreenYellow; font-size: 70px;'>正确! </span>","null","","","","","","","","","","","","","","","","","","","","","","","feedback_test",""
"","","","","","psychophysics","58","400693","0.0-8.1-0.1-0.22","749","","k","","","","","","","","","","","","","key","k","16.64935576923073","960","536","k","true","img/C_28.png","自我","freeprac_self","",""
"","","","","","html-keyboard-response","59","400995","0.0-8.1-0.1-1.22","null","<span style='color:GreenYellow; font-size: 70px;'>正确! </span>","null","","","","","","","","","","","","","","","","","","","","","","","feedback_test",""
"","","","","","psychophysics","60","402799","0.0-8.1-0.1-0.23","803","","j","","","","","","","","","","","","","key","j","16.64832710280414","960","536","j","true","img/C_28.png","朋友","freeprac_self","",""
"","","","","","html-keyboard-response","61","403106","0.0-8.1-0.1-1.23","null","<span style='color:GreenYellow; font-size: 70px;'>正确! </span>","null","","","","","","","","","","","","","","","","","","","","","","","feedback_test",""
"","","","","","html-keyboard-response","62","415571","0.0-9.0","12464","[""<style>.context{color:white; font-size: 35px; line-height:40px}</style>              <div><p class='context'>您正确回答了75% 的试次。</p><p class='context'>您的平均反应时为1588毫秒。</p><p class='context'>恭喜您完成这一阶段的练习。按任意键进入<span style='color: yellow;'>重点关注图形为“朋友”</span>的练习。</p></div><p class='footer' style='font-size:35px; line-height:30px;'>任务要求：\n              <p class='footer' style='font-size:35px; line-height:35px;'>对于与“朋友”对应的图形：如果 匹配 ，请按 <span style=\""color: lightgreen;\"">k键</span></p><p class='footer' style='font-size:35px'>如果 不匹配 ，请按<span style=\""color: lightgreen;\"">j键</p></span>\n              <p class='footer' style='font-size:35px; line-height:35px;'>对于非“朋友”对应的图形：如果 匹配 ，请按 <span style=\""color: lightgreen;\"">d键</span></p><p class='footer' style='font-size:35px'>如果 不匹配 ，请按<span style=\""color: lightgreen;\"">f键</p></span>\n              <p class='footer' style='font-size:22px; line-height:25px;'>请在实验过程中将您的<span style=\""color: lightgreen;\"">食指和中指</span>放在电脑键盘的相应键位上进行按键。</p></span>""]","j","","","","","","","","","","","","","","","","","","","","","","","",""
"","","","","","psychophysics","63","417463","0.0-10.0-0.0-0.0","887","","k","","","","","","","","","","","","","key","k","16.649628318584035","960","536","k","true","img/S_28.png","朋友","freeprac_friend","",""
"","","","","","html-keyboard-response","64","417764","0.0-10.0-0.0-1.0","null","<span style='color:GreenYellow; font-size: 70px;'>正确! </span>","null","","","","","","","","","","","","","","","","","","","","","","","feedback_test",""
"","","","","","psychophysics","65","419645","0.0-10.0-0.0-0.1","880","","j","","","","","","","","","","","","","key","j","16.65025892857167","960","536","j","true","img/S_28.png","自我","freeprac_friend","",""
"","","","","","html-keyboard-response","66","419947","0.0-10.0-0.0-1.1","null","<span style='color:GreenYellow; font-size: 70px;'>正确! </span>","null","","","","","","","","","","","","","","","","","","","","","","","feedback_test",""
"","","","","","psychophysics","67","422549","0.0-10.0-0.0-0.2","1600","","f","","","","","","","","","","","","","key","f","16.649761290322886","960","536","f","true","img/H_28.png","自我","freeprac_friend","",""
"","","","","","html-keyboard-response","68","422850","0.0-10.0-0.0-1.2","null","<span style='color:GreenYellow; font-size: 70px;'>正确! </span>","null","","","","","","","","","","","","","","","","","","","","","","","feedback_test",""
"","","","","","psychophysics","69","425223","0.0-10.0-0.0-0.3","1372","","f","","","","","","","","","","","","","key","f","16.64141843971633","960","536","d","false","img/C_28.png","自我","freeprac_friend","",""
"","","","","","html-keyboard-response","70","425524","0.0-10.0-0.0-1.3","null","<span style='color:red; font-size: 70px;'>错误! </span>","null","","","","","","","","","","","","","","","","","","","","","","","feedback_test",""
"","","","","","psychophysics","71","427316","0.0-10.0-0.0-0.4","790","","f","","","","","","","","","","","","","key","f","16.64802803738297","960","536","f","true","img/C_28.png","生人","freeprac_friend","",""
"","","","","","html-keyboard-response","72","427617","0.0-10.0-0.0-1.4","null","<span style='color:GreenYellow; font-size: 70px;'>正确! </span>","null","","","","","","","","","","","","","","","","","","","","","","","feedback_test",""
"","","","","","psychophysics","73","429460","0.0-10.0-0.0-0.5","842","","d","","","","","","","","","","","","","key","d","16.65030275229386","960","536","f","false","img/C_28.png","朋友","freeprac_friend","",""
"","","","","","html-keyboard-response","74","429762","0.0-10.0-0.0-1.5","null","<span style='color:red; font-size: 70px;'>错误! </span>","null","","","","","","","","","","","","","","","","","","","","","","","feedback_test",""
"","","","","","psychophysics","75","431947","0.0-10.0-0.0-0.6","1182","","d","","","","","","","","","","","","","key","d","16.650099999999824","960","536","j","false","img/S_28.png","生人","freeprac_friend","",""
"","","","","","html-keyboard-response","76","432249","0.0-10.0-0.0-1.6","null","<span style='color:red; font-size: 70px;'>错误! </span>","null","","","","","","","","","","","","","","","","","","","","","","","feedback_test",""
"","","","","","psychophysics","77","435578","0.0-10.0-0.0-0.7","2328","","d","","","","","","","","","","","","","key","d","16.649216080401807","960","536","f","false","img/H_28.png","朋友","freeprac_friend","",""
"","","","","","html-keyboard-response","78","435879","0.0-10.0-0.0-1.7","null","<span style='color:red; font-size: 70px;'>错误! </span>","null","","","","","","","","","","","","","","","","","","","","","","","feedback_test",""
"","","","","","psychophysics","79","438860","0.0-10.0-0.0-0.8","1974","","k","","","","","","","","","","","","","key","k","16.64918539325839","960","536","k","true","img/S_28.png","朋友","freeprac_friend","",""
"","","","","","html-keyboard-response","80","439162","0.0-10.0-0.0-1.8","null","<span style='color:GreenYellow; font-size: 70px;'>正确! </span>","null","","","","","","","","","","","","","","","","","","","","","","","feedback_test",""
"","","","","","psychophysics","81","442919","0.0-10.0-0.0-0.9","2756","","d","","","","","","","","","","","","","key","d","16.649955555555515","960","536","d","true","img/H_28.png","生人","freeprac_friend","",""
"","","","","","html-keyboard-response","82","443220","0.0-10.0-0.0-1.9","null","<span style='color:GreenYellow; font-size: 70px;'>正确! </span>","null","","","","","","","","","","","","","","","","","","","","","","","feedback_test",""
"","","","","","psychophysics","83","446366","0.0-10.0-0.0-0.10","2145","","d","","","","","","","","","","","","","key","d","16.64828191489381","960","536","d","true","img/H_28.png","生人","freeprac_friend","",""
"","","","","","html-keyboard-response","84","446669","0.0-10.0-0.0-1.10","null","<span style='color:GreenYellow; font-size: 70px;'>正确! </span>","null","","","","","","","","","","","","","","","","","","","","","","","feedback_test",""
"","","","","","psychophysics","85","451795","0.0-10.0-0.0-0.11","4125","","d","","","","","","","","","","","","","key","d","16.649192182410317","960","536","d","true","img/C_28.png","自我","freeprac_friend","",""
"","","","","","html-keyboard-response","86","452097","0.0-10.0-0.0-1.11","null","<span style='color:GreenYellow; font-size: 70px;'>正确! </span>","null","","","","","","","","","","","","","","","","","","","","","","","feedback_test",""
"","","","","","html-keyboard-response","87","453327","0.0-10.0-1.0-0.0","1230","<style>.context{color:white; font-size: 35px; line-height:40px}</style>                              <div><p class='context'>您正确回答了67% 的试次。</p><p class='context'>您的平均反应时为1895毫秒。</p>","j","","","","","","","","","","","","","","","","","","","","","","","",""
"","","","","","instructions","88","459187","0.0-10.0-1.0-1.0","5857","","","","","","","","","","","","","","[{""page_index"":0,""viewing_time"":2714},{""page_index"":1,""viewing_time"":1791},{""page_index"":2,""viewing_time"":1352}]","","","","","","","","","","","",""
"","","","","","psychophysics","89","461988","0.0-10.1-0.1-0.12","1799","","d","","","","","","","","","","","","","key","d","16.65038922155718","960","536","k","false","img/S_28.png","朋友","freeprac_friend","",""
"","","","","","html-keyboard-response","90","462289","0.0-10.1-0.1-1.12","null","<span style='color:red; font-size: 70px;'>错误! </span>","null","","","","","","","","","","","","","","","","","","","","","","","feedback_test",""
"","","","","","psychophysics","91","466500","0.0-10.1-0.1-0.13","3209","","d","","","","","","","","","","","","","key","d","16.649190476190554","960","536","f","false","img/C_28.png","朋友","freeprac_friend","",""
"","","","","","html-keyboard-response","92","466801","0.0-10.1-0.1-1.13","null","<span style='color:red; font-size: 70px;'>错误! </span>","null","","","","","","","","","","","","","","","","","","","","","","","feedback_test",""
"","","","","","psychophysics","93","470085","0.0-10.1-0.1-0.14","2282","","d","","","","","","","","","","","","","key","d","16.649693877550853","960","536","d","true","img/H_28.png","生人","freeprac_friend","",""
"","","","","","html-keyboard-response","94","470388","0.0-10.1-0.1-1.14","null","<span style='color:GreenYellow; font-size: 70px;'>正确! </span>","null","","","","","","","","","","","","","","","","","","","","","","","feedback_test",""
"","","","","","psychophysics","95","472715","0.0-10.1-0.1-0.15","1325","","d","","","","","","","","","","","","","key","d","16.64902173913045","960","536","d","true","img/C_28.png","自我","freeprac_friend","",""
"","","","","","html-keyboard-response","96","473016","0.0-10.1-0.1-1.15","null","<span style='color:GreenYellow; font-size: 70px;'>正确! </span>","null","","","","","","","","","","","","","","","","","","","","","","","feedback_test",""
"","","","","","psychophysics","97","475294","0.0-10.1-0.1-0.16","1277","","f","","","","","","","","","","","","","key","f","16.649385185185302","960","536","f","true","img/H_28.png","朋友","freeprac_friend","",""
"","","","","","html-keyboard-response","98","475596","0.0-10.1-0.1-1.16","null","<span style='color:GreenYellow; font-size: 70px;'>正确! </span>","null","","","","","","","","","","","","","","","","","","","","","","","feedback_test",""
"","","","","","psychophysics","99","478350","0.0-10.1-0.1-0.17","1752","","f","","","","","","","","","","","","","key","f","16.648914634146465","960","536","f","true","img/H_28.png","自我","freeprac_friend","",""
"","","","","","html-keyboard-response","100","478651","0.0-10.1-0.1-1.17","null","<span style='color:GreenYellow; font-size: 70px;'>正确! </span>","null","","","","","","","","","","","","","","","","","","","","","","","feedback_test",""
"","","","","","psychophysics","101","481058","0.0-10.1-0.1-0.18","1406","","d","","","","","","","","","","","","","key","d","16.649124999999913","960","536","d","true","img/H_28.png","生人","freeprac_friend","",""
"","","","","","html-keyboard-response","102","481360","0.0-10.1-0.1-1.18","null","<span style='color:GreenYellow; font-size: 70px;'>正确! </span>","null","","","","","","","","","","","","","","","","","","","","","","","feedback_test",""
"","","","","","psychophysics","103","483595","0.0-10.1-0.1-0.19","1235","","d","","","","","","","","","","","","","key","d","16.649729323308193","960","536","d","true","img/C_28.png","自我","freeprac_friend","",""
"","","","","","html-keyboard-response","104","483896","0.0-10.1-0.1-1.19","null","<span style='color:GreenYellow; font-size: 70px;'>正确! </span>","null","","","","","","","","","","","","","","","","","","","","","","","feedback_test",""
"","","","","","psychophysics","105","486003","0.0-10.1-0.1-0.20","1105","","f","","","","","","","","","","","","","key","f","16.650143999999855","960","536","f","true","img/C_28.png","生人","freeprac_friend","",""
"","","","","","html-keyboard-response","106","486305","0.0-10.1-0.1-1.20","null","<span style='color:GreenYellow; font-size: 70px;'>正确! </span>","null","","","","","","","","","","","","","","","","","","","","","","","feedback_test",""
"","","","","","psychophysics","107","490104","0.0-10.1-0.1-0.21","2797","","j","","","","","","","","","","","","","key","j","16.648784140969312","960","536","j","true","img/S_28.png","生人","freeprac_friend","",""
"","","","","","html-keyboard-response","108","490406","0.0-10.1-0.1-1.21","null","<span style='color:GreenYellow; font-size: 70px;'>正确! </span>","null","","","","","","","","","","","","","","","","","","","","","","","feedback_test",""
"","","","","","psychophysics","109","492202","0.0-10.1-0.1-0.22","795","","k","","","","","","","","","","","","","key","k","16.649299065420887","960","536","k","true","img/S_28.png","朋友","freeprac_friend","",""
"","","","","","html-keyboard-response","110","492503","0.0-10.1-0.1-1.22","null","<span style='color:GreenYellow; font-size: 70px;'>正确! </span>","null","","","","","","","","","","","","","","","","","","","","","","","feedback_test",""
"","","","","","psychophysics","111","494832","0.0-10.1-0.1-0.23","1327","","f","","","","","","","","","","","","","key","f","16.64958992805717","960","536","j","false","img/S_28.png","自我","freeprac_friend","",""
"","","","","","html-keyboard-response","112","495141","0.0-10.1-0.1-1.23","null","<span style='color:red; font-size: 70px;'>错误! </span>","null","","","","","","","","","","","","","","","","","","","","","","","feedback_test",""
"","","","","","html-keyboard-response","113","498582","0.0-11.0","3439","[""<style>.context{color:white; font-size: 35px; line-height:40px}</style>                  <div><p class='context'>您正确回答了75% 的试次。</p><p class='context'>您的平均反应时为1553毫秒。</p><p class='context'>恭喜您完成这一阶段的练习。按任意键进入<span style='color: yellow;'>重点关注图形为“生人”</span>的练习。</p></div><p class='footer' style='font-size:35px; line-height:30px;'>任务要求：\n                  <p class='footer' style='font-size:35px; line-height:35px;'>对与“生人”对应的图形，如果 匹配 ，请按 <span style=\""color: lightgreen;\"">k键</span></p><p class='footer' style='font-size:35px'>如果 不匹配 ，请按<span style=\""color: lightgreen;\"">j键</p></span>\n                  <p class='footer' style='font-size:35px; line-height:35px;'>对非“生人”对应的图形，如果 匹配 ，请按 <span style=\""color: lightgreen;\"">d键</span></p><p class='footer' style='font-size:35px'>如果 不匹配 ，请按<span style=\""color: lightgreen;\"">f键</p></span>\n                  <p class='footer' style='font-size:22px; line-height:25px;'>请在实验过程中将您的<span style=\""color: lightgreen;\"">食指和中指</span>放在电脑键盘的相应键位上进行按键。</p></span>""]","j","","","","","","","","","","","","","","","","","","","","","","","",""
"","","","","","psychophysics","114","502521","0.0-12.0-0.0-0.0","2934","","f","","","","","","","","","","","","","key","f","16.649338983050875","960","536","f","true","img/S_28.png","生人","freeprac_stranger","",""
"","","","","","html-keyboard-response","115","502823","0.0-12.0-0.0-1.0","null","<span style='color:GreenYellow; font-size: 70px;'>正确! </span>","null","","","","","","","","","","","","","","","","","","","","","","","feedback_test",""
"","","","","","psychophysics","116","505576","0.0-12.0-0.0-0.1","1752","","d","","","","","","","","","","","","","key","d","16.650615853658543","960","536","d","true","img/S_28.png","朋友","freeprac_stranger","",""
"","","","","","html-keyboard-response","117","505878","0.0-12.0-0.0-1.1","null","<span style='color:GreenYellow; font-size: 70px;'>正确! </span>","null","","","","","","","","","","","","","","","","","","","","","","","feedback_test",""
"","","","","","psychophysics","118","508198","0.0-12.0-0.0-0.2","1319","","d","","","","","","","","","","","","","key","d","16.650690647481987","960","536","d","true","img/C_28.png","自我","freeprac_stranger","",""
"","","","","","html-keyboard-response","119","508500","0.0-12.0-0.0-1.2","null","<span style='color:GreenYellow; font-size: 70px;'>正确! </span>","null","","","","","","","","","","","","","","","","","","","","","","","feedback_test",""
"","","","","","psychophysics","120","511042","0.0-12.0-0.0-0.3","1540","","j","","","","","","","","","","","","","key","j","16.64825165562913","960","536","k","false","img/H_28.png","生人","freeprac_stranger","",""
"","","","","","html-keyboard-response","121","511343","0.0-12.0-0.0-1.3","null","<span style='color:red; font-size: 70px;'>错误! </span>","null","","","","","","","","","","","","","","","","","","","","","","","feedback_test",""
"","","","","","psychophysics","122","513797","0.0-12.0-0.0-0.4","1453","","j","","","","","","","","","","","","","key","j","16.64931506849307","960","536","j","true","img/H_28.png","自我","freeprac_stranger","",""
"","","","","","html-keyboard-response","123","514099","0.0-12.0-0.0-1.4","null","<span style='color:GreenYellow; font-size: 70px;'>正确! </span>","null","","","","","","","","","","","","","","","","","","","","","","","feedback_test",""
"","","","","","psychophysics","124","516380","0.0-12.0-0.0-0.5","1281","","d","","","","","","","","","","","","","key","d","16.649323529411905","960","536","d","true","img/C_28.png","自我","freeprac_stranger","",""
"","","","","","html-keyboard-response","125","516681","0.0-12.0-0.0-1.5","null","<span style='color:GreenYellow; font-size: 70px;'>正确! </span>","null","","","","","","","","","","","","","","","","","","","","","","","feedback_test",""
"","","","","","psychophysics","126","519605","0.0-12.0-0.0-0.6","1922","","f","","","","","","","","","","","","","key","f","16.649525714285804","960","536","f","true","img/C_28.png","生人","freeprac_stranger","",""
"","","","","","html-keyboard-response","127","519906","0.0-12.0-0.0-1.6","null","<span style='color:GreenYellow; font-size: 70px;'>正确! </span>","null","","","","","","","","","","","","","","","","","","","","","","","feedback_test",""
"","","","","","psychophysics","128","522235","0.0-12.0-0.0-0.7","1328","","f","","","","","","","","","","","","","key","f","16.64823021582728","960","536","f","true","img/C_28.png","朋友","freeprac_stranger","",""
"","","","","","html-keyboard-response","129","522538","0.0-12.0-0.0-1.7","null","<span style='color:GreenYellow; font-size: 70px;'>正确! </span>","null","","","","","","","","","","","","","","","","","","","","","","","feedback_test",""
"","","","","","psychophysics","130","525569","0.0-12.0-0.0-0.8","2030","","f","","","","","","","","","","","","","key","f","16.64997237569039","960","536","f","true","img/S_28.png","自我","freeprac_stranger","",""
"","","","","","html-keyboard-response","131","525871","0.0-12.0-0.0-1.8","null","<span style='color:GreenYellow; font-size: 70px;'>正确! </span>","null","","","","","","","","","","","","","","","","","","","","","","","feedback_test",""
"","","","","","psychophysics","132","528097","0.0-12.0-0.0-0.9","1225","","j","","","","","","","","","","","","","key","j","16.650518796992266","960","536","j","true","img/H_28.png","朋友","freeprac_stranger","",""
"","","","","","html-keyboard-response","133","528399","0.0-12.0-0.0-1.9","null","<span style='color:GreenYellow; font-size: 70px;'>正确! </span>","null","","","","","","","","","","","","","","","","","","","","","","","feedback_test",""
"","","","","","psychophysics","134","530158","0.0-12.0-0.0-0.10","757","","k","","","","","","","","","","","","","key","k","16.65002857142882","960","536","k","true","img/H_28.png","生人","freeprac_stranger","",""
"","","","","","html-keyboard-response","135","530460","0.0-12.0-0.0-1.10","null","<span style='color:GreenYellow; font-size: 70px;'>正确! </span>","null","","","","","","","","","","","","","","","","","","","","","","","feedback_test",""
"","","","","","psychophysics","136","533049","0.0-12.0-0.0-0.11","1588","","d","","","","","","","","","","","","","key","d","16.649266233766003","960","536","d","true","img/S_28.png","朋友","freeprac_stranger","",""
"","","","","","html-keyboard-response","137","533350","0.0-12.0-0.0-1.11","null","<span style='color:GreenYellow; font-size: 70px;'>正确! </span>","null","","","","","","","","","","","","","","","","","","","","","","","feedback_test",""
"","","","","","instructions","138","540625","0.0-13.0","7274","","","","","","","","","","","","","","[{""page_index"":0,""viewing_time"":7274}]","","","","","","","","","","","",""
"","","","","","psychophysics","139","542320","0.0-14.0-0.0-0.0","693","","k","","","","","","","","","","","","","key","k","16.649159999999682","960","536","k","true","img/C_28.png","自我","prac_self","","自我"
"","","","","","html-keyboard-response","140","542621","0.0-14.0-0.0-1.0","null","<span style='color:GreenYellow; font-size: 70px;'>正确! </span>","null","","","","","","","","","","","","","","","","","","","","","","","feedback_test",""
"","","","","","psychophysics","141","544332","0.0-14.0-0.0-0.1","709","","j","","","","","","","","","","","","","key","j","16.65005882353038","960","536","j","true","img/C_28.png","生人","prac_self","","自我"
"","","","","","html-keyboard-response","142","544633","0.0-14.0-0.0-1.1","null","<span style='color:GreenYellow; font-size: 70px;'>正确! </span>","null","","","","","","","","","","","","","","","","","","","","","","","feedback_test",""
"","","","","","psychophysics","143","546167","0.0-14.0-0.0-0.2","532","","k","","","","","","","","","","","","","key","k","16.65039560439546","960","536","k","true","img/C_28.png","自我","prac_self","","自我"
"","","","","","html-keyboard-response","144","546468","0.0-14.0-0.0-1.2","null","<span style='color:GreenYellow; font-size: 70px;'>正确! </span>","null","","","","","","","","","","","","","","","","","","","","","","","feedback_test",""
"","","","","","psychophysics","145","548361","0.0-14.0-0.0-0.3","892","","f","","","","","","","","","","","","","key","f","16.649654867256316","960","536","d","false","img/H_28.png","生人","prac_self","","生人"
"","","","","","html-keyboard-response","146","548663","0.0-14.0-0.0-1.3","null","<span style='color:red; font-size: 70px;'>错误! </span>","null","","","","","","","","","","","","","","","","","","","","","","","feedback_test",""
"","","","","","psychophysics","147","551167","0.0-14.0-0.0-0.4","null","","null","","","","","","","","","","","","","key","null","16.649570469798412","960","536","f","false","img/S_28.png","自我","prac_self","","朋友"
"","","","","","html-keyboard-response","148","551468","0.0-14.0-0.0-1.4","null","<span class='add_' style='color:yellow; font-size: 70px;'> 太慢! </span>","null","","","","","","","","","","","","","","","","","","","","","","","feedback_test",""
"","","","","","psychophysics","149","553824","0.0-14.0-0.0-0.5","1353","","f","","","","","","","","","","","","","key","f","16.649721428571503","960","536","j","false","img/C_28.png","朋友","prac_self","","自我"
"","","","","","html-keyboard-response","150","554126","0.0-14.0-0.0-1.5","null","<span style='color:red; font-size: 70px;'>错误! </span>","null","","","","","","","","","","","","","","","","","","","","","","","feedback_test",""
"","","","","","psychophysics","151","556628","0.0-14.0-0.0-0.6","null","","null","","","","","","","","","","","","","key","null","16.649020000000018","960","536","f","false","img/H_28.png","朋友","prac_self","","生人"
"","","","","","html-keyboard-response","152","556930","0.0-14.0-0.0-1.6","null","<span class='add_' style='color:yellow; font-size: 70px;'> 太慢! </span>","null","","","","","","","","","","","","","","","","","","","","","","","feedback_test",""
"","","","","","psychophysics","153","559181","0.0-14.0-0.0-0.7","1249","","d","","","","","","","","","","","","","key","d","16.64878358208981","960","536","d","true","img/H_28.png","生人","prac_self","","生人"
"","","","","","html-keyboard-response","154","559483","0.0-14.0-0.0-1.7","null","<span style='color:GreenYellow; font-size: 70px;'>正确! </span>","null","","","","","","","","","","","","","","","","","","","","","","","feedback_test",""
"","","","","","psychophysics","155","561469","0.0-14.0-0.0-0.8","985","","d","","","","","","","","","","","","","key","d","16.65069491525429","960","536","d","true","img/S_28.png","朋友","prac_self","","朋友"
"","","","","","html-keyboard-response","156","561770","0.0-14.0-0.0-1.8","null","<span style='color:GreenYellow; font-size: 70px;'>正确! </span>","null","","","","","","","","","","","","","","","","","","","","","","","feedback_test",""
"","","","","","psychophysics","157","563696","0.0-14.0-0.0-0.9","924","","d","","","","","","","","","","","","","key","d","16.64921052631485","960","536","d","true","img/S_28.png","朋友","prac_self","","朋友"
"","","","","","html-keyboard-response","158","563998","0.0-14.0-0.0-1.9","null","<span style='color:GreenYellow; font-size: 70px;'>正确! </span>","null","","","","","","","","","","","","","","","","","","","","","","","feedback_test",""
"","","","","","psychophysics","159","566008","0.0-14.0-0.0-0.10","1009","","f","","","","","","","","","","","","","key","f","16.650941666666768","960","536","f","true","img/H_28.png","自我","prac_self","","生人"
"","","","","","html-keyboard-response","160","566311","0.0-14.0-0.0-1.10","null","<span style='color:GreenYellow; font-size: 70px;'>正确! </span>","null","","","","","","","","","","","","","","","","","","","","","","","feedback_test",""
"","","","","","psychophysics","161","568497","0.0-14.0-0.0-0.11","1184","","f","","","","","","","","","","","","","key","f","16.65090000000066","960","536","f","true","img/S_28.png","生人","prac_self","","朋友"
"","","","","","html-keyboard-response","162","568798","0.0-14.0-0.0-1.11","null","<span style='color:GreenYellow; font-size: 70px;'>正确! </span>","null","","","","","","","","","","","","","","","","","","","","","","","feedback_test",""
"","","","","","psychophysics","163","570771","0.0-14.0-0.0-0.12","971","","f","","","","","","","","","","","","","key","f","16.648034188034746","960","536","f","true","img/S_28.png","生人","prac_self","","朋友"
"","","","","","html-keyboard-response","164","571073","0.0-14.0-0.0-1.12","null","<span style='color:GreenYellow; font-size: 70px;'>正确! </span>","null","","","","","","","","","","","","","","","","","","","","","","","feedback_test",""
"","","","","","psychophysics","165","573482","0.0-14.0-0.0-0.13","1409","","f","","","","","","","","","","","","","key","f","16.649250000000595","960","536","f","true","img/H_28.png","朋友","prac_self","","生人"
"","","","","","html-keyboard-response","166","573784","0.0-14.0-0.0-1.13","null","<span style='color:GreenYellow; font-size: 70px;'>正确! </span>","null","","","","","","","","","","","","","","","","","","","","","","","feedback_test",""
"","","","","","psychophysics","167","575669","0.0-14.0-0.0-0.14","885","","d","","","","","","","","","","","","","key","d","16.64936607142902","960","536","d","true","img/S_28.png","朋友","prac_self","","朋友"
"","","","","","html-keyboard-response","168","575971","0.0-14.0-0.0-1.14","null","<span style='color:GreenYellow; font-size: 70px;'>正确! </span>","null","","","","","","","","","","","","","","","","","","","","","","","feedback_test",""
"","","","","","psychophysics","169","578484","0.0-14.0-0.0-0.15","null","","null","","","","","","","","","","","","","key","null","16.64992666666629","960","536","f","false","img/H_28.png","自我","prac_self","","生人"
"","","","","","html-keyboard-response","170","578785","0.0-14.0-0.0-1.15","null","<span class='add_' style='color:yellow; font-size: 70px;'> 太慢! </span>","null","","","","","","","","","","","","","","","","","","","","","","","feedback_test",""
"","","","","","psychophysics","171","580389","0.0-14.0-0.0-0.16","603","","k","","","","","","","","","","","","","key","k","16.640494736841585","960","536","k","true","img/C_28.png","自我","prac_self","","自我"
"","","","","","html-keyboard-response","172","580692","0.0-14.0-0.0-1.16","null","<span style='color:GreenYellow; font-size: 70px;'>正确! </span>","null","","","","","","","","","","","","","","","","","","","","","","","feedback_test",""
"","","","","","psychophysics","173","582314","0.0-14.0-0.0-0.17","622","","j","","","","","","","","","","","","","key","j","16.650302083333372","960","536","j","true","img/C_28.png","朋友","prac_self","","自我"
"","","","","","html-keyboard-response","174","582615","0.0-14.0-0.0-1.17","null","<span style='color:GreenYellow; font-size: 70px;'>正确! </span>","null","","","","","","","","","","","","","","","","","","","","","","","feedback_test",""
"","","","","","psychophysics","175","584247","0.0-14.0-0.0-0.18","630","","k","","","","","","","","","","","","","key","k","16.65082291666719","960","536","j","false","img/C_28.png","生人","prac_self","","自我"
"","","","","","html-keyboard-response","176","584549","0.0-14.0-0.0-1.18","null","<span style='color:red; font-size: 70px;'>错误! </span>","null","","","","","","","","","","","","","","","","","","","","","","","feedback_test",""
"","","","","","psychophysics","177","587052","0.0-14.0-0.0-0.19","null","","null","","","","","","","","","","","","","key","null","16.649221476510437","960","536","f","false","img/S_28.png","自我","prac_self","","朋友"
"","","","","","html-keyboard-response","178","587353","0.0-14.0-0.0-1.19","null","<span class='add_' style='color:yellow; font-size: 70px;'> 太慢! </span>","null","","","","","","","","","","","","","","","","","","","","","","","feedback_test",""
"","","","","","psychophysics","179","589455","0.0-14.0-0.0-0.20","1100","","f","","","","","","","","","","","","","key","f","16.650879999999887","960","536","d","false","img/H_28.png","生人","prac_self","","生人"
"","","","","","html-keyboard-response","180","589756","0.0-14.0-0.0-1.20","null","<span style='color:red; font-size: 70px;'>错误! </span>","null","","","","","","","","","","","","","","","","","","","","","","","feedback_test",""
"","","","","","psychophysics","181","591871","0.0-14.0-0.0-0.21","1113","","d","","","","","","","","","","","","","key","d","16.64934920634897","960","536","d","true","img/S_28.png","朋友","prac_self","","朋友"
"","","","","","html-keyboard-response","182","592172","0.0-14.0-0.0-1.21","null","<span style='color:GreenYellow; font-size: 70px;'>正确! </span>","null","","","","","","","","","","","","","","","","","","","","","","","feedback_test",""
"","","","","","psychophysics","183","593957","0.0-14.0-0.0-0.22","784","","f","","","","","","","","","","","","","key","f","16.648311320754903","960","536","d","false","img/H_28.png","生人","prac_self","","生人"
"","","","","","html-keyboard-response","184","594259","0.0-14.0-0.0-1.22","null","<span style='color:red; font-size: 70px;'>错误! </span>","null","","","","","","","","","","","","","","","","","","","","","","","feedback_test",""
"","","","","","psychophysics","185","595975","0.0-14.0-0.0-0.23","715","","k","","","","","","","","","","","","","key","k","16.981759999999777","960","536","k","true","img/C_28.png","自我","prac_self","","自我"
"","","","","","html-keyboard-response","186","596276","0.0-14.0-0.0-1.23","null","<span style='color:GreenYellow; font-size: 70px;'>正确! </span>","null","","","","","","","","","","","","","","","","","","","","","","","feedback_test",""
"","","","","","html-keyboard-response","187","599418","0.0-14.0-1.0-0.0","3140","<style>.context{color:white; font-size: 35px; line-height:40px}</style>                              <div><p class='context'>您正确回答了63% 的试次。</p><p class='context'>您的平均反应时为907毫秒。</p>","j","","","","","","","","","","","","","","","","","","","","","","","",""
"","","","","","instructions","188","606880","0.0-14.0-1.0-1.0","7459","","","","","","","","","","","","","","[{""page_index"":0,""viewing_time"":2080},{""page_index"":1,""viewing_time"":3384},{""page_index"":2,""viewing_time"":1995}]","","","","","","","","","","","",""
"","","","","","psychophysics","189","608787","0.0-14.1-0.1-0.24","904","","d","","","","","","","","","","","","","key","d","16.649778761062358","960","536","d","true","img/S_28.png","朋友","prac_self","","朋友"
"","","","","","html-keyboard-response","190","609088","0.0-14.1-0.1-1.24","null","<span style='color:GreenYellow; font-size: 70px;'>正确! </span>","null","","","","","","","","","","","","","","","","","","","","","","","feedback_test",""
"","","","","","psychophysics","191","610708","0.0-14.1-0.1-0.25","618","","d","","","","","","","","","","","","","key","d","16.650416666666086","960","536","d","true","img/S_28.png","朋友","prac_self","","朋友"
"","","","","","html-keyboard-response","192","611010","0.0-14.1-0.1-1.25","null","<span style='color:GreenYellow; font-size: 70px;'>正确! </span>","null","","","","","","","","","","","","","","","","","","","","","","","feedback_test",""
"","","","","","psychophysics","193","613145","0.0-14.1-0.1-0.26","1134","","k","","","","","","","","","","","","","key","k","16.65042519685079","960","536","j","false","img/C_28.png","朋友","prac_self","","自我"
"","","","","","html-keyboard-response","194","613446","0.0-14.1-0.1-1.26","null","<span style='color:red; font-size: 70px;'>错误! </span>","null","","","","","","","","","","","","","","","","","","","","","","","feedback_test",""
"","","","","","psychophysics","195","615421","0.0-14.1-0.1-0.27","973","","f","","","","","","","","","","","","","key","f","16.649567796609965","960","536","f","true","img/S_28.png","生人","prac_self","","朋友"
"","","","","","html-keyboard-response","196","615722","0.0-14.1-0.1-1.27","null","<span style='color:GreenYellow; font-size: 70px;'>正确! </span>","null","","","","","","","","","","","","","","","","","","","","","","","feedback_test",""
"","","","","","psychophysics","197","617729","0.0-14.1-0.1-0.28","1004","","f","","","","","","","","","","","","","key","f","16.64997478991653","960","536","f","true","img/S_28.png","自我","prac_self","","朋友"
"","","","","","html-keyboard-response","198","618031","0.0-14.1-0.1-1.28","null","<span style='color:GreenYellow; font-size: 70px;'>正确! </span>","null","","","","","","","","","","","","","","","","","","","","","","","feedback_test",""
"","","","","","psychophysics","199","620095","0.0-14.1-0.1-0.29","1062","","f","","","","","","","","","","","","","key","f","16.649154471544875","960","536","f","true","img/H_28.png","自我","prac_self","","生人"
"","","","","","html-keyboard-response","200","620397","0.0-14.1-0.1-1.29","null","<span style='color:GreenYellow; font-size: 70px;'>正确! </span>","null","","","","","","","","","","","","","","","","","","","","","","","feedback_test",""
"","","","","","psychophysics","201","622061","0.0-14.1-0.1-0.30","663","","k","","","","","","","","","","","","","key","k","16.649464646464853","960","536","k","true","img/C_28.png","自我","prac_self","","自我"
"","","","","","html-keyboard-response","202","622363","0.0-14.1-0.1-1.30","null","<span style='color:GreenYellow; font-size: 70px;'>正确! </span>","null","","","","","","","","","","","","","","","","","","","","","","","feedback_test",""
"","","","","","psychophysics","203","624464","0.0-14.1-0.1-0.31","1100","","f","","","","","","","","","","","","","key","f","16.65083999999985","960","536","d","false","img/H_28.png","生人","prac_self","","生人"
"","","","","","html-keyboard-response","204","624766","0.0-14.1-0.1-1.31","null","<span style='color:red; font-size: 70px;'>错误! </span>","null","","","","","","","","","","","","","","","","","","","","","","","feedback_test",""
"","","","","","psychophysics","205","626693","0.0-14.1-0.1-0.32","925","","k","","","","","","","","","","","","","key","k","16.651356521738773","960","536","j","false","img/C_28.png","生人","prac_self","","自我"
"","","","","","html-keyboard-response","206","626994","0.0-14.1-0.1-1.32","null","<span style='color:red; font-size: 70px;'>错误! </span>","null","","","","","","","","","","","","","","","","","","","","","","","feedback_test",""
"","","","","","psychophysics","207","628620","0.0-14.1-0.1-0.33","624","","k","","","","","","","","","","","","","key","k","16.651134020617693","960","536","k","true","img/C_28.png","自我","prac_self","","自我"
"","","","","","html-keyboard-response","208","628928","0.0-14.1-0.1-1.33","null","<span style='color:GreenYellow; font-size: 70px;'>正确! </span>","null","","","","","","","","","","","","","","","","","","","","","","","feedback_test",""
"","","","","","psychophysics","209","631157","0.0-14.1-0.1-0.34","1228","","j","","","","","","","","","","","","","key","j","16.649503759399085","960","536","f","false","img/H_28.png","朋友","prac_self","","生人"
"","","","","","html-keyboard-response","210","631458","0.0-14.1-0.1-1.34","null","<span style='color:red; font-size: 70px;'>错误! </span>","null","","","","","","","","","","","","","","","","","","","","","","","feedback_test",""
"","","","","","psychophysics","211","633734","0.0-14.1-0.1-0.35","1274","","f","","","","","","","","","","","","","key","f","16.650279411765307","960","536","d","false","img/H_28.png","生人","prac_self","","生人"
"","","","","","html-keyboard-response","212","634036","0.0-14.1-0.1-1.35","null","<span style='color:red; font-size: 70px;'>错误! </span>","null","","","","","","","","","","","","","","","","","","","","","","","feedback_test",""
"","","","","","psychophysics","213","635857","0.0-14.1-0.1-0.36","819","","d","","","","","","","","","","","","","key","d","16.650379629629985","960","536","f","false","img/H_28.png","自我","prac_self","","生人"
"","","","","","html-keyboard-response","214","636158","0.0-14.1-0.1-1.36","null","<span style='color:red; font-size: 70px;'>错误! </span>","null","","","","","","","","","","","","","","","","","","","","","","","feedback_test",""
"","","","","","psychophysics","215","638352","0.0-14.1-0.1-0.37","1193","","f","","","","","","","","","","","","","key","f","16.64325384615401","960","536","d","false","img/S_28.png","朋友","prac_self","","朋友"
"","","","","","html-keyboard-response","216","638653","0.0-14.1-0.1-1.37","null","<span style='color:red; font-size: 70px;'>错误! </span>","null","","","","","","","","","","","","","","","","","","","","","","","feedback_test",""
"","","","","","psychophysics","217","640410","0.0-14.1-0.1-0.38","755","","k","","","","","","","","","","","","","key","k","16.647752380952063","960","536","k","true","img/C_28.png","自我","prac_self","","自我"
"","","","","","html-keyboard-response","218","640711","0.0-14.1-0.1-1.38","null","<span style='color:GreenYellow; font-size: 70px;'>正确! </span>","null","","","","","","","","","","","","","","","","","","","","","","","feedback_test",""
"","","","","","psychophysics","219","642863","0.0-14.1-0.1-0.39","1151","","f","","","","","","","","","","","","","key","f","16.650218750000022","960","536","d","false","img/H_28.png","生人","prac_self","","生人"
"","","","","","html-keyboard-response","220","643165","0.0-14.1-0.1-1.39","null","<span style='color:red; font-size: 70px;'>错误! </span>","null","","","","","","","","","","","","","","","","","","","","","","","feedback_test",""
"","","","","","psychophysics","221","645436","0.0-14.1-0.1-0.40","1270","","f","","","","","","","","","","","","","key","f","16.65055882352959","960","536","f","true","img/S_28.png","自我","prac_self","","朋友"
"","","","","","html-keyboard-response","222","645738","0.0-14.1-0.1-1.40","null","<span style='color:GreenYellow; font-size: 70px;'>正确! </span>","null","","","","","","","","","","","","","","","","","","","","","","","feedback_test",""
"","","","","","psychophysics","223","647815","0.0-14.1-0.1-0.41","1075","","f","","","","","","","","","","","","","key","f","16.649637096774608","960","536","f","true","img/H_28.png","朋友","prac_self","","生人"
"","","","","","html-keyboard-response","224","648117","0.0-14.1-0.1-1.41","null","<span style='color:GreenYellow; font-size: 70px;'>正确! </span>","null","","","","","","","","","","","","","","","","","","","","","","","feedback_test",""
"","","","","","psychophysics","225","650091","0.0-14.1-0.1-0.42","973","","d","","","","","","","","","","","","","key","d","16.64888888888825","960","536","d","true","img/S_28.png","朋友","prac_self","","朋友"
"","","","","","html-keyboard-response","226","650392","0.0-14.1-0.1-1.42","null","<span style='color:GreenYellow; font-size: 70px;'>正确! </span>","null","","","","","","","","","","","","","","","","","","","","","","","feedback_test",""
"","","","","","psychophysics","227","652544","0.0-14.1-0.1-0.43","1150","","k","","","","","","","","","","","","","key","k","16.64610937499947","960","536","k","true","img/C_28.png","自我","prac_self","","自我"
"","","","","","html-keyboard-response","228","652845","0.0-14.1-0.1-1.43","null","<span style='color:GreenYellow; font-size: 70px;'>正确! </span>","null","","","","","","","","","","","","","","","","","","","","","","","feedback_test",""
"","","","","","psychophysics","229","654642","0.0-14.1-0.1-0.44","795","","j","","","","","","","","","","","","","key","j","16.647392523365102","960","536","j","true","img/C_28.png","生人","prac_self","","自我"
"","","","","","html-keyboard-response","230","654944","0.0-14.1-0.1-1.44","null","<span style='color:GreenYellow; font-size: 70px;'>正确! </span>","null","","","","","","","","","","","","","","","","","","","","","","","feedback_test",""
"","","","","","psychophysics","231","657222","0.0-14.1-0.1-0.45","1277","","j","","","","","","","","","","","","","key","j","16.649698529411314","960","536","j","true","img/C_28.png","朋友","prac_self","","自我"
"","","","","","html-keyboard-response","232","657526","0.0-14.1-0.1-1.45","null","<span style='color:GreenYellow; font-size: 70px;'>正确! </span>","null","","","","","","","","","","","","","","","","","","","","","","","feedback_test",""
"","","","","","psychophysics","233","659707","0.0-14.1-0.1-0.46","1180","","f","","","","","","","","","","","","","key","f","16.648984615384745","960","536","d","false","img/H_28.png","生人","prac_self","","生人"
"","","","","","html-keyboard-response","234","660010","0.0-14.1-0.1-1.46","null","<span style='color:red; font-size: 70px;'>错误! </span>","null","","","","","","","","","","","","","","","","","","","","","","","feedback_test",""
"","","","","","psychophysics","235","661820","0.0-14.1-0.1-0.47","809","","f","","","","","","","","","","","","","key","f","16.64898148148118","960","536","f","true","img/S_28.png","生人","prac_self","","朋友"
"","","","","","html-keyboard-response","236","662122","0.0-14.1-0.1-1.47","null","<span style='color:GreenYellow; font-size: 70px;'>正确! </span>","null","","","","","","","","","","","","","","","","","","","","","","","feedback_test",""
"","","","","","html-keyboard-response","237","663121","0.0-14.1-1.1-0.1","997","<style>.context{color:white; font-size: 35px; line-height:40px}</style>                              <div><p class='context'>您正确回答了63% 的试次。</p><p class='context'>您的平均反应时为930毫秒。</p>","j","","","","","","","","","","","","","","","","","","","","","","","",""
"","","","","","instructions","238","673668","0.0-14.1-1.1-1.1","10544","","","","","","","","","","","","","","[{""page_index"":0,""viewing_time"":3154},{""page_index"":1,""viewing_time"":5095},{""page_index"":2,""viewing_time"":2295}]","","","","","","","","","","","",""
"","","","","","psychophysics","239","675854","0.0-14.2-0.2-0.48","1183","","j","","","","","","","","","","","","","key","j","16.639307692307586","960","536","j","true","img/C_28.png","生人","prac_self","","自我"
"","","","","","html-keyboard-response","240","676156","0.0-14.2-0.2-1.48","null","<span style='color:GreenYellow; font-size: 70px;'>正确! </span>","null","","","","","","","","","","","","","","","","","","","","","","","feedback_test",""
"","","","","","psychophysics","241","678264","0.0-14.2-0.2-0.49","1107","","d","","","","","","","","","","","","","key","d","16.649248000000604","960","536","d","true","img/S_28.png","朋友","prac_self","","朋友"
"","","","","","html-keyboard-response","242","678566","0.0-14.2-0.2-1.49","null","<span style='color:GreenYellow; font-size: 70px;'>正确! </span>","null","","","","","","","","","","","","","","","","","","","","","","","feedback_test",""
"","","","","","psychophysics","243","680331","0.0-14.2-0.2-0.50","763","","d","","","","","","","","","","","","","key","d","16.64967619047633","960","536","f","false","img/H_28.png","朋友","prac_self","","生人"
"","","","","","html-keyboard-response","244","680634","0.0-14.2-0.2-1.50","null","<span style='color:red; font-size: 70px;'>错误! </span>","null","","","","","","","","","","","","","","","","","","","","","","","feedback_test",""
"","","","","","psychophysics","245","682861","0.0-14.2-0.2-0.51","1224","","d","","","","","","","","","","","","","key","d","16.649646616541723","960","536","f","false","img/S_28.png","生人","prac_self","","朋友"
"","","","","","html-keyboard-response","246","683163","0.0-14.2-0.2-1.51","null","<span style='color:red; font-size: 70px;'>错误! </span>","null","","","","","","","","","","","","","","","","","","","","","","","feedback_test",""
"","","","","","psychophysics","247","685665","0.0-14.2-0.2-0.52","null","","null","","","","","","","","","","","","","key","null","16.650093959731944","960","536","f","false","img/S_28.png","自我","prac_self","","朋友"
"","","","","","html-keyboard-response","248","685966","0.0-14.2-0.2-1.52","null","<span class='add_' style='color:yellow; font-size: 70px;'> 太慢! </span>","null","","","","","","","","","","","","","","","","","","","","","","","feedback_test",""
"","","","","","psychophysics","249","688069","0.0-14.2-0.2-0.53","1102","","f","","","","","","","","","","","","","key","f","16.6494160000002","960","536","f","true","img/H_28.png","自我","prac_self","","生人"
"","","","","","html-keyboard-response","250","688371","0.0-14.2-0.2-1.53","null","<span style='color:GreenYellow; font-size: 70px;'>正确! </span>","null","","","","","","","","","","","","","","","","","","","","","","","feedback_test",""
"","","","","","psychophysics","251","690045","0.0-14.2-0.2-0.54","672","","k","","","","","","","","","","","","","key","k","16.649515151515406","960","536","k","true","img/C_28.png","自我","prac_self","","自我"
"","","","","","html-keyboard-response","252","690347","0.0-14.2-0.2-1.54","null","<span style='color:GreenYellow; font-size: 70px;'>正确! </span>","null","","","","","","","","","","","","","","","","","","","","","","","feedback_test",""
"","","","","","psychophysics","253","692357","0.0-14.2-0.2-0.55","1009","","f","","","","","","","","","","","","","key","f","16.650016666666488","960","536","d","false","img/H_28.png","生人","prac_self","","生人"
"","","","","","html-keyboard-response","254","692659","0.0-14.2-0.2-1.55","null","<span style='color:red; font-size: 70px;'>错误! </span>","null","","","","","","","","","","","","","","","","","","","","","","","feedback_test",""
"","","","","","psychophysics","255","694578","0.0-14.2-0.2-0.56","918","","f","","","","","","","","","","","","","key","f","16.649052631578677","960","536","d","false","img/H_28.png","生人","prac_self","","生人"
"","","","","","html-keyboard-response","256","694885","0.0-14.2-0.2-1.56","null","<span style='color:red; font-size: 70px;'>错误! </span>","null","","","","","","","","","","","","","","","","","","","","","","","feedback_test",""
"","","","","","psychophysics","257","696538","0.0-14.2-0.2-0.57","651","","k","","","","","","","","","","","","","key","k","16.649418367347348","960","536","k","true","img/C_28.png","自我","prac_self","","自我"
"","","","","","html-keyboard-response","258","696840","0.0-14.2-0.2-1.57","null","<span style='color:GreenYellow; font-size: 70px;'>正确! </span>","null","","","","","","","","","","","","","","","","","","","","","","","feedback_test",""
"","","","","","psychophysics","259","698647","0.0-14.2-0.2-0.58","806","","j","","","","","","","","","","","","","key","j","16.649361111111595","960","536","j","true","img/C_28.png","朋友","prac_self","","自我"
"","","","","","html-keyboard-response","260","698950","0.0-14.2-0.2-1.58","null","<span style='color:GreenYellow; font-size: 70px;'>正确! </span>","null","","","","","","","","","","","","","","","","","","","","","","","feedback_test",""
"","","","","","psychophysics","261","701260","0.0-14.2-0.2-0.59","1310","","d","","","","","","","","","","","","","key","d","16.64935507246401","960","536","d","true","img/S_28.png","朋友","prac_self","","朋友"
"","","","","","html-keyboard-response","262","701562","0.0-14.2-0.2-1.59","null","<span style='color:GreenYellow; font-size: 70px;'>正确! </span>","null","","","","","","","","","","","","","","","","","","","","","","","feedback_test",""
"","","","","","psychophysics","263","703722","0.0-14.2-0.2-0.60","1157","","j","","","","","","","","","","","","","key","j","16.64917187500032","960","536","j","true","img/C_28.png","朋友","prac_self","","自我"
"","","","","","html-keyboard-response","264","704023","0.0-14.2-0.2-1.60","null","<span style='color:GreenYellow; font-size: 70px;'>正确! </span>","null","","","","","","","","","","","","","","","","","","","","","","","feedback_test",""
"","","","","","psychophysics","265","705688","0.0-14.2-0.2-0.61","663","","k","","","","","","","","","","","","","key","k","16.64910101010041","960","536","k","true","img/C_28.png","自我","prac_self","","自我"
"","","","","","html-keyboard-response","266","705990","0.0-14.2-0.2-1.61","null","<span style='color:GreenYellow; font-size: 70px;'>正确! </span>","null","","","","","","","","","","","","","","","","","","","","","","","feedback_test",""
"","","","","","psychophysics","267","708222","0.0-14.2-0.2-0.62","1226","","d","","","","","","","","","","","","","key","d","16.650195488721987","960","536","f","false","img/H_28.png","朋友","prac_self","","生人"
"","","","","","html-keyboard-response","268","708524","0.0-14.2-0.2-1.62","null","<span style='color:red; font-size: 70px;'>错误! </span>","null","","","","","","","","","","","","","","","","","","","","","","","feedback_test",""
"","","","","","psychophysics","269","710659","0.0-14.2-0.2-0.63","1134","","f","","","","","","","","","","","","","key","f","16.649244094488402","960","536","f","true","img/S_28.png","自我","prac_self","","朋友"
"","","","","","html-keyboard-response","270","710961","0.0-14.2-0.2-1.63","null","<span style='color:GreenYellow; font-size: 70px;'>正确! </span>","null","","","","","","","","","","","","","","","","","","","","","","","feedback_test",""
"","","","","","psychophysics","271","713067","0.0-14.2-0.2-0.64","1105","","f","","","","","","","","","","","","","key","f","16.649761904761867","960","536","f","true","img/S_28.png","生人","prac_self","","朋友"
"","","","","","html-keyboard-response","272","713368","0.0-14.2-0.2-1.64","null","<span style='color:GreenYellow; font-size: 70px;'>正确! </span>","null","","","","","","","","","","","","","","","","","","","","","","","feedback_test",""
"","","","","","psychophysics","273","715433","0.0-14.2-0.2-0.65","1063","","f","","","","","","","","","","","","","key","f","16.650609756096802","960","536","f","true","img/H_28.png","自我","prac_self","","生人"
"","","","","","html-keyboard-response","274","715736","0.0-14.2-0.2-1.65","null","<span style='color:GreenYellow; font-size: 70px;'>正确! </span>","null","","","","","","","","","","","","","","","","","","","","","","","feedback_test",""
"","","","","","psychophysics","275","717412","0.0-14.2-0.2-0.66","674","","k","","","","","","","","","","","","","key","k","16.64792000000016","960","536","k","true","img/C_28.png","自我","prac_self","","自我"
"","","","","","html-keyboard-response","276","717713","0.0-14.2-0.2-1.66","null","<span style='color:GreenYellow; font-size: 70px;'>正确! </span>","null","","","","","","","","","","","","","","","","","","","","","","","feedback_test",""
"","","","","","psychophysics","277","719992","0.0-14.2-0.2-0.67","1275","","k","","","","","","","","","","","","","key","k","16.647485294118216","960","536","j","false","img/C_28.png","生人","prac_self","","自我"
"","","","","","html-keyboard-response","278","720293","0.0-14.2-0.2-1.67","null","<span style='color:red; font-size: 70px;'>错误! </span>","null","","","","","","","","","","","","","","","","","","","","","","","feedback_test",""
"","","","","","psychophysics","279","722796","0.0-14.2-0.2-0.68","null","","null","","","","","","","","","","","","","key","null","16.649322147651468","960","536","d","false","img/S_28.png","朋友","prac_self","","朋友"
"","","","","","html-keyboard-response","280","723098","0.0-14.2-0.2-1.68","null","<span class='add_' style='color:yellow; font-size: 70px;'> 太慢! </span>","null","","","","","","","","","","","","","","","","","","","","","","","feedback_test",""
"","","","","","psychophysics","281","725060","0.0-14.2-0.2-0.69","959","","d","","","","","","","","","","","","","key","d","16.649461538461235","960","536","d","true","img/S_28.png","朋友","prac_self","","朋友"
"","","","","","html-keyboard-response","282","725361","0.0-14.2-0.2-1.69","null","<span style='color:GreenYellow; font-size: 70px;'>正确! </span>","null","","","","","","","","","","","","","","","","","","","","","","","feedback_test",""
"","","","","","psychophysics","283","727414","0.0-14.2-0.2-0.70","1051","","f","","","","","","","","","","","","","key","f","16.64978861788617","960","536","d","false","img/H_28.png","生人","prac_self","","生人"
"","","","","","html-keyboard-response","284","727716","0.0-14.2-0.2-1.70","null","<span style='color:red; font-size: 70px;'>错误! </span>","null","","","","","","","","","","","","","","","","","","","","","","","feedback_test",""
"","","","","","psychophysics","285","729631","0.0-14.2-0.2-0.71","912","","d","","","","","","","","","","","","","key","d","16.649456140351393","960","536","d","true","img/H_28.png","生人","prac_self","","生人"
"","","","","","html-keyboard-response","286","729933","0.0-14.2-0.2-1.71","null","<span style='color:GreenYellow; font-size: 70px;'>正确! </span>","null","","","","","","","","","","","","","","","","","","","","","","","feedback_test",""
"","","","","","html-keyboard-response","287","730807","0.0-14.2-1.2-0.2","872","<style>.context{color:white; font-size: 35px; line-height:40px}</style>                              <div><p class='context'>您正确回答了63% 的试次。</p><p class='context'>您的平均反应时为967毫秒。</p>","f","","","","","","","","","","","","","","","","","","","","","","","",""
"","","","","","instructions","288","736029","0.0-14.2-1.2-1.2","5219","","","","","","","","","","","","","","[{""page_index"":0,""viewing_time"":1865},{""page_index"":1,""viewing_time"":2278},{""page_index"":2,""viewing_time"":1076}]","","","","","","","","","","","",""
"","","","","","psychophysics","289","738176","0.0-14.3-0.3-0.72","1144","","d","","","","","","","","","","","","","key","d","16.649679687499884","960","536","d","true","img/H_28.png","生人","prac_self","","生人"
"","","","","","html-keyboard-response","290","738479","0.0-14.3-0.3-1.72","null","<span style='color:GreenYellow; font-size: 70px;'>正确! </span>","null","","","","","","","","","","","","","","","","","","","","","","","feedback_test",""
"","","","","","psychophysics","291","740417","0.0-14.3-0.3-0.73","935","","k","","","","","","","","","","","","","key","k","16.64953448275879","960","536","f","false","img/H_28.png","自我","prac_self","","生人"
"","","","","","html-keyboard-response","292","740719","0.0-14.3-0.3-1.73","null","<span style='color:red; font-size: 70px;'>错误! </span>","null","","","","","","","","","","","","","","","","","","","","","","","feedback_test",""
"","","","","","psychophysics","293","742643","0.0-14.3-0.3-0.74","923","","d","","","","","","","","","","","","","key","d","16.649210526315873","960","536","d","true","img/S_28.png","朋友","prac_self","","朋友"
"","","","","","html-keyboard-response","294","742944","0.0-14.3-0.3-1.74","null","<span style='color:GreenYellow; font-size: 70px;'>正确! </span>","null","","","","","","","","","","","","","","","","","","","","","","","feedback_test",""
"","","","","","psychophysics","295","744905","0.0-14.3-0.3-0.75","960","","j","","","","","","","","","","","","","key","j","16.648829059828568","960","536","j","true","img/C_28.png","朋友","prac_self","","自我"
"","","","","","html-keyboard-response","296","745208","0.0-14.3-0.3-1.75","null","<span style='color:GreenYellow; font-size: 70px;'>正确! </span>","null","","","","","","","","","","","","","","","","","","","","","","","feedback_test",""
"","","","","","psychophysics","297","747617","0.0-14.3-0.3-0.76","1406","","j","","","","","","","","","","","","","key","j","16.650819444444398","960","536","j","true","img/C_28.png","生人","prac_self","","自我"
"","","","","","html-keyboard-response","298","747919","0.0-14.3-0.3-1.76","null","<span style='color:GreenYellow; font-size: 70px;'>正确! </span>","null","","","","","","","","","","","","","","","","","","","","","","","feedback_test",""
"","","","","","psychophysics","299","750320","0.0-14.3-0.3-0.77","1400","","d","","","","","","","","","","","","","key","d","16.64899300699288","960","536","d","true","img/H_28.png","生人","prac_self","","生人"
"","","","","","html-keyboard-response","300","750621","0.0-14.3-0.3-1.77","null","<span style='color:GreenYellow; font-size: 70px;'>正确! </span>","null","","","","","","","","","","","","","","","","","","","","","","","feedback_test",""
"","","","","","psychophysics","301","752716","0.0-14.3-0.3-0.78","1094","","f","","","","","","","","","","","","","key","f","16.65005645161258","960","536","f","true","img/S_28.png","自我","prac_self","","朋友"
"","","","","","html-keyboard-response","302","753017","0.0-14.3-0.3-1.78","null","<span style='color:GreenYellow; font-size: 70px;'>正确! </span>","null","","","","","","","","","","","","","","","","","","","","","","","feedback_test",""
"","","","","","psychophysics","303","754717","0.0-14.3-0.3-0.79","699","","f","","","","","","","","","","","","","key","f","16.64911881188106","960","536","f","true","img/S_28.png","生人","prac_self","","朋友"
"","","","","","html-keyboard-response","304","755018","0.0-14.3-0.3-1.79","null","<span style='color:GreenYellow; font-size: 70px;'>正确! </span>","null","","","","","","","","","","","","","","","","","","","","","","","feedback_test",""
"","","","","","psychophysics","305","756654","0.0-14.3-0.3-0.80","634","","k","","","","","","","","","","","","","key","k","16.6482577319593","960","536","k","true","img/C_28.png","自我","prac_self","","自我"
"","","","","","html-keyboard-response","306","756956","0.0-14.3-0.3-1.80","null","<span style='color:GreenYellow; font-size: 70px;'>正确! </span>","null","","","","","","","","","","","","","","","","","","","","","","","feedback_test",""
"","","","","","psychophysics","307","759227","0.0-14.3-0.3-0.81","1270","","d","","","","","","","","","","","","","key","d","16.64762222222225","960","536","d","true","img/S_28.png","朋友","prac_self","","朋友"
"","","","","","html-keyboard-response","308","759528","0.0-14.3-0.3-1.81","null","<span style='color:GreenYellow; font-size: 70px;'>正确! </span>","null","","","","","","","","","","","","","","","","","","","","","","","feedback_test",""
"","","","","","psychophysics","309","761168","0.0-14.3-0.3-0.82","639","","k","","","","","","","","","","","","","key","k","16.643391752577166","960","536","k","true","img/C_28.png","自我","prac_self","","自我"
"","","","","","html-keyboard-response","310","761470","0.0-14.3-0.3-1.82","null","<span style='color:GreenYellow; font-size: 70px;'>正确! </span>","null","","","","","","","","","","","","","","","","","","","","","","","feedback_test",""
"","","","","","psychophysics","311","763221","0.0-14.3-0.3-0.83","749","","d","","","","","","","","","","","","","key","d","16.650307692307532","960","536","f","false","img/H_28.png","朋友","prac_self","","生人"
"","","","","","html-keyboard-response","312","763522","0.0-14.3-0.3-1.83","null","<span style='color:red; font-size: 70px;'>错误! </span>","null","","","","","","","","","","","","","","","","","","","","","","","feedback_test",""
"","","","","","psychophysics","313","765313","0.0-14.3-0.3-0.84","788","","d","","","","","","","","","","","","","key","d","16.64943925233636","960","536","f","false","img/S_28.png","生人","prac_self","","朋友"
"","","","","","html-keyboard-response","314","765615","0.0-14.3-0.3-1.84","null","<span style='color:red; font-size: 70px;'>错误! </span>","null","","","","","","","","","","","","","","","","","","","","","","","feedback_test",""
"","","","","","psychophysics","315","768118","0.0-14.3-0.3-0.85","null","","null","","","","","","","","","","","","","key","null","16.64940268456414","960","536","f","false","img/H_28.png","朋友","prac_self","","生人"
"","","","","","html-keyboard-response","316","768420","0.0-14.3-0.3-1.85","null","<span class='add_' style='color:yellow; font-size: 70px;'> 太慢! </span>","null","","","","","","","","","","","","","","","","","","","","","","","feedback_test",""
"","","","","","psychophysics","317","770250","0.0-14.3-0.3-0.86","829","","d","","","","","","","","","","","","","key","d","16.647611111110397","960","536","d","true","img/S_28.png","朋友","prac_self","","朋友"
"","","","","","html-keyboard-response","318","770551","0.0-14.3-0.3-1.86","null","<span style='color:GreenYellow; font-size: 70px;'>正确! </span>","null","","","","","","","","","","","","","","","","","","","","","","","feedback_test",""
"","","","","","psychophysics","319","772532","0.0-14.3-0.3-0.87","979","","d","","","","","","","","","","","","","key","d","16.64960683760647","960","536","d","true","img/H_28.png","生人","prac_self","","生人"
"","","","","","html-keyboard-response","320","772835","0.0-14.3-0.3-1.87","null","<span style='color:GreenYellow; font-size: 70px;'>正确! </span>","null","","","","","","","","","","","","","","","","","","","","","","","feedback_test",""
"","","","","","psychophysics","321","774670","0.0-14.3-0.3-0.88","832","","d","","","","","","","","","","","","","key","d","16.647504587155776","960","536","j","false","img/C_28.png","朋友","prac_self","","自我"
"","","","","","html-keyboard-response","322","774972","0.0-14.3-0.3-1.88","null","<span style='color:red; font-size: 70px;'>错误! </span>","null","","","","","","","","","","","","","","","","","","","","","","","feedback_test",""
"","","","","","psychophysics","323","776876","0.0-14.3-0.3-0.89","903","","j","","","","","","","","","","","","","key","j","16.659353982300736","960","536","j","true","img/C_28.png","生人","prac_self","","自我"
"","","","","","html-keyboard-response","324","777178","0.0-14.3-0.3-1.89","null","<span style='color:GreenYellow; font-size: 70px;'>正确! </span>","null","","","","","","","","","","","","","","","","","","","","","","","feedback_test",""
"","","","","","psychophysics","325","779195","0.0-14.3-0.3-0.90","1015","","f","","","","","","","","","","","","","key","f","16.64883333333322","960","536","d","false","img/H_28.png","生人","prac_self","","生人"
"","","","","","html-keyboard-response","326","779497","0.0-14.3-0.3-1.90","null","<span style='color:red; font-size: 70px;'>错误! </span>","null","","","","","","","","","","","","","","","","","","","","","","","feedback_test",""
"","","","","","psychophysics","327","781417","0.0-14.3-0.3-0.91","918","","d","","","","","","","","","","","","","key","d","16.648780701754475","960","536","d","true","img/S_28.png","朋友","prac_self","","朋友"
"","","","","","html-keyboard-response","328","781718","0.0-14.3-0.3-1.91","null","<span style='color:GreenYellow; font-size: 70px;'>正确! </span>","null","","","","","","","","","","","","","","","","","","","","","","","feedback_test",""
"","","","","","psychophysics","329","783780","0.0-14.3-0.3-0.92","1061","","f","","","","","","","","","","","","","key","f","16.649463414633836","960","536","f","true","img/H_28.png","自我","prac_self","","生人"
"","","","","","html-keyboard-response","330","784087","0.0-14.3-0.3-1.92","null","<span style='color:GreenYellow; font-size: 70px;'>正确! </span>","null","","","","","","","","","","","","","","","","","","","","","","","feedback_test",""
"","","","","","psychophysics","331","786178","0.0-14.3-0.3-0.93","1089","","f","","","","","","","","","","","","","key","f","16.649088709677134","960","536","f","true","img/S_28.png","自我","prac_self","","朋友"
"","","","","","html-keyboard-response","332","786480","0.0-14.3-0.3-1.93","null","<span style='color:GreenYellow; font-size: 70px;'>正确! </span>","null","","","","","","","","","","","","","","","","","","","","","","","feedback_test",""
"","","","","","psychophysics","333","788101","0.0-14.3-0.3-0.94","619","","k","","","","","","","","","","","","","key","k","16.65011340206172","960","536","k","true","img/C_28.png","自我","prac_self","","自我"
"","","","","","html-keyboard-response","334","788403","0.0-14.3-0.3-1.94","null","<span style='color:GreenYellow; font-size: 70px;'>正确! </span>","null","","","","","","","","","","","","","","","","","","","","","","","feedback_test",""
"","","","","","psychophysics","335","789905","0.0-14.3-0.3-0.95","496","","k","","","","","","","","","","","","","key","k","16.649494382023047","960","536","k","true","img/C_28.png","自我","prac_self","","自我"
"","","","","","html-keyboard-response","336","790207","0.0-14.3-0.3-1.95","null","<span style='color:GreenYellow; font-size: 70px;'>正确! </span>","null","","","","","","","","","","","","","","","","","","","","","","","feedback_test",""
"","","","","","html-keyboard-response","337","796451","0.0-15.0","6241","[""<style>.context{color:white; font-size: 35px; line-height:40px}</style>              <div><p class='context'>您正确回答了75% 的试次。</p><p class='context'>您的平均反应时为948毫秒。</p><p class='context'>恭喜您完成这一阶段的练习。按任意键进入<span style='color: yellow;'>重点关注图形为“朋友”</span>的练习。</p></div><p class='footer' style='font-size:35px; line-height:30px;'>任务要求：\n              <p class='footer' style='font-size:35px; line-height:35px;'>对于与“朋友”对应的图形：如果 匹配 ，请按 <span style=\""color: lightgreen;\"">k键</span></p><p class='footer' style='font-size:35px'>如果 不匹配 ，请按<span style=\""color: lightgreen;\"">j键</p></span>\n              <p class='footer' style='font-size:35px; line-height:35px;'>对于非“朋友”对应的图形：如果 匹配 ，请按 <span style=\""color: lightgreen;\"">d键</span></p><p class='footer' style='font-size:35px'>如果 不匹配 ，请按<span style=\""color: lightgreen;\"">f键</p></span>\n              <p class='footer' style='font-size:22px; line-height:25px;'>请在实验过程中将您的<span style=\""color: lightgreen;\"">食指和中指</span>放在电脑键盘的相应键位上进行按键。</p></span>""]","j","","","","","","","","","","","","","","","","","","","","","","","",""
"","","","","","psychophysics","338","797929","0.0-16.0-0.0-0.0","473","","k","","","","","","","","","","","","","key","k","16.64834090908963","960","536","k","true","img/S_28.png","朋友","prac_friend","","朋友"
"","","","","","html-keyboard-response","339","798231","0.0-16.0-0.0-1.0","null","<span style='color:GreenYellow; font-size: 70px;'>正确! </span>","null","","","","","","","","","","","","","","","","","","","","","","","feedback_test",""
"","","","","","psychophysics","340","799902","0.0-16.0-0.0-0.1","670","","j","","","","","","","","","","","","","key","j","16.64858585858548","960","536","j","true","img/S_28.png","生人","prac_friend","","朋友"
"","","","","","html-keyboard-response","341","800203","0.0-16.0-0.0-1.1","null","<span style='color:GreenYellow; font-size: 70px;'>正确! </span>","null","","","","","","","","","","","","","","","","","","","","","","","feedback_test",""
"","","","","","psychophysics","342","802398","0.0-16.0-0.0-0.2","1193","","d","","","","","","","","","","","","","key","d","16.648307692307906","960","536","f","false","img/C_28.png","生人","prac_friend","","自我"
"","","","","","html-keyboard-response","343","802701","0.0-16.0-0.0-1.2","null","<span style='color:red; font-size: 70px;'>错误! </span>","null","","","","","","","","","","","","","","","","","","","","","","","feedback_test",""
"","","","","","psychophysics","344","804554","0.0-16.0-0.0-0.3","851","","f","","","","","","","","","","","","","key","f","16.65043636363698","960","536","f","true","img/C_28.png","朋友","prac_friend","","自我"
"","","","","","html-keyboard-response","345","804856","0.0-16.0-0.0-1.3","null","<span style='color:GreenYellow; font-size: 70px;'>正确! </span>","null","","","","","","","","","","","","","","","","","","","","","","","feedback_test",""
"","","","","","psychophysics","346","806948","0.0-16.0-0.0-0.4","1089","","d","","","","","","","","","","","","","key","d","16.648952000000513","960","536","d","true","img/C_28.png","自我","prac_friend","","自我"
"","","","","","html-keyboard-response","347","807250","0.0-16.0-0.0-1.4","null","<span style='color:GreenYellow; font-size: 70px;'>正确! </span>","null","","","","","","","","","","","","","","","","","","","","","","","feedback_test",""
"","","","","","psychophysics","348","809141","0.0-16.0-0.0-0.5","889","","f","","","","","","","","","","","","","key","f","16.647178571429063","960","536","f","true","img/H_28.png","朋友","prac_friend","","生人"
"","","","","","html-keyboard-response","349","809443","0.0-16.0-0.0-1.5","null","<span style='color:GreenYellow; font-size: 70px;'>正确! </span>","null","","","","","","","","","","","","","","","","","","","","","","","feedback_test",""
"","","","","","psychophysics","350","811512","0.0-16.0-0.0-0.6","1067","","d","","","","","","","","","","","","","key","d","16.648821138210852","960","536","d","true","img/C_28.png","自我","prac_friend","","自我"
"","","","","","html-keyboard-response","351","811814","0.0-16.0-0.0-1.6","null","<span style='color:GreenYellow; font-size: 70px;'>正确! </span>","null","","","","","","","","","","","","","","","","","","","","","","","feedback_test",""
"","","","","","psychophysics","352","814116","0.0-16.0-0.0-0.7","1301","","d","","","","","","","","","","","","","key","d","16.64926277372279","960","536","d","true","img/H_28.png","生人","prac_friend","","生人"
"","","","","","html-keyboard-response","353","814417","0.0-16.0-0.0-1.7","null","<span style='color:GreenYellow; font-size: 70px;'>正确! </span>","null","","","","","","","","","","","","","","","","","","","","","","","feedback_test",""
"","","","","","psychophysics","354","816518","0.0-16.0-0.0-0.8","1099","","f","","","","","","","","","","","","","key","f","16.64995999999996","960","536","j","false","img/S_28.png","自我","prac_friend","","朋友"
"","","","","","html-keyboard-response","355","816820","0.0-16.0-0.0-1.8","null","<span style='color:red; font-size: 70px;'>错误! </span>","null","","","","","","","","","","","","","","","","","","","","","","","feedback_test",""
"","","","","","psychophysics","356","819145","0.0-16.0-0.0-0.9","1322","","d","","","","","","","","","","","","","key","d","16.650347826087113","960","536","d","true","img/H_28.png","生人","prac_friend","","生人"
"","","","","","html-keyboard-response","357","819447","0.0-16.0-0.0-1.9","null","<span style='color:GreenYellow; font-size: 70px;'>正确! </span>","null","","","","","","","","","","","","","","","","","","","","","","","feedback_test",""
"","","","","","psychophysics","358","821589","0.0-16.0-0.0-0.10","1141","","d","","","","","","","","","","","","","key","d","16.64959375000035","960","536","k","false","img/S_28.png","朋友","prac_friend","","朋友"
"","","","","","html-keyboard-response","359","821891","0.0-16.0-0.0-1.10","null","<span style='color:red; font-size: 70px;'>错误! </span>","null","","","","","","","","","","","","","","","","","","","","","","","feedback_test",""
"","","","","","psychophysics","360","824179","0.0-16.0-0.0-0.11","1287","","d","","","","","","","","","","","","","key","d","16.64963503649635","960","536","f","false","img/H_28.png","自我","prac_friend","","生人"
"","","","","","html-keyboard-response","361","824481","0.0-16.0-0.0-1.11","null","<span style='color:red; font-size: 70px;'>错误! </span>","null","","","","","","","","","","","","","","","","","","","","","","","feedback_test",""
"","","","","","psychophysics","362","826807","0.0-16.0-0.0-0.12","1323","","f","","","","","","","","","","","","","key","f","16.649586956521187","960","536","d","false","img/H_28.png","生人","prac_friend","","生人"
"","","","","","html-keyboard-response","363","827107","0.0-16.0-0.0-1.12","null","<span style='color:red; font-size: 70px;'>错误! </span>","null","","","","","","","","","","","","","","","","","","","","","","","feedback_test",""
"","","","","","psychophysics","364","829338","0.0-16.0-0.0-0.13","1230","","j","","","","","","","","","","","","","key","j","16.64793939393977","960","536","j","true","img/S_28.png","自我","prac_friend","","朋友"
"","","","","","html-keyboard-response","365","829640","0.0-16.0-0.0-1.13","null","<span style='color:GreenYellow; font-size: 70px;'>正确! </span>","null","","","","","","","","","","","","","","","","","","","","","","","feedback_test",""
"","","","","","psychophysics","366","831743","0.0-16.0-0.0-0.14","1100","","d","","","","","","","","","","","","","key","d","16.64901599999983","960","536","f","false","img/H_28.png","自我","prac_friend","","生人"
"","","","","","html-keyboard-response","367","832044","0.0-16.0-0.0-1.14","null","<span style='color:red; font-size: 70px;'>错误! </span>","null","","","","","","","","","","","","","","","","","","","","","","","feedback_test",""
"","","","","","psychophysics","368","834367","0.0-16.0-0.0-0.15","1322","","d","","","","","","","","","","","","","key","d","16.649666666666526","960","536","d","true","img/C_28.png","自我","prac_friend","","自我"
"","","","","","html-keyboard-response","369","834668","0.0-16.0-0.0-1.15","null","<span style='color:GreenYellow; font-size: 70px;'>正确! </span>","null","","","","","","","","","","","","","","","","","","","","","","","feedback_test",""
"","","","","","psychophysics","370","836473","0.0-16.0-0.0-0.16","803","","d","","","","","","","","","","","","","key","d","16.64952336448554","960","536","d","true","img/C_28.png","自我","prac_friend","","自我"
"","","","","","html-keyboard-response","371","836774","0.0-16.0-0.0-1.16","null","<span style='color:GreenYellow; font-size: 70px;'>正确! </span>","null","","","","","","","","","","","","","","","","","","","","","","","feedback_test",""
"","","","","","psychophysics","372","838441","0.0-16.0-0.0-0.17","666","","k","","","","","","","","","","","","","key","k","16.649909090908064","960","536","k","true","img/S_28.png","朋友","prac_friend","","朋友"
"","","","","","html-keyboard-response","373","838742","0.0-16.0-0.0-1.17","null","<span style='color:GreenYellow; font-size: 70px;'>正确! </span>","null","","","","","","","","","","","","","","","","","","","","","","","feedback_test",""
"","","","","","psychophysics","374","840767","0.0-16.0-0.0-0.18","1024","","f","","","","","","","","","","","","","key","f","16.649867768594724","960","536","f","true","img/H_28.png","朋友","prac_friend","","生人"
"","","","","","html-keyboard-response","375","841068","0.0-16.0-0.0-1.18","null","<span style='color:GreenYellow; font-size: 70px;'>正确! </span>","null","","","","","","","","","","","","","","","","","","","","","","","feedback_test",""
"","","","","","psychophysics","376","843427","0.0-16.0-0.0-0.19","1356","","j","","","","","","","","","","","","","key","j","16.64841843971649","960","536","j","true","img/S_28.png","生人","prac_friend","","朋友"
"","","","","","html-keyboard-response","377","843729","0.0-16.0-0.0-1.19","null","<span style='color:GreenYellow; font-size: 70px;'>正确! </span>","null","","","","","","","","","","","","","","","","","","","","","","","feedback_test",""
"","","","","","psychophysics","378","845378","0.0-16.0-0.0-0.20","647","","k","","","","","","","","","","","","","key","k","16.65113265306109","960","536","k","true","img/S_28.png","朋友","prac_friend","","朋友"
"","","","","","html-keyboard-response","379","845679","0.0-16.0-0.0-1.20","null","<span style='color:GreenYellow; font-size: 70px;'>正确! </span>","null","","","","","","","","","","","","","","","","","","","","","","","feedback_test",""
"","","","","","psychophysics","380","847665","0.0-16.0-0.0-0.21","983","","d","","","","","","","","","","","","","key","d","16.649296610170218","960","536","f","false","img/C_28.png","生人","prac_friend","","自我"
"","","","","","html-keyboard-response","381","847966","0.0-16.0-0.0-1.21","null","<span style='color:red; font-size: 70px;'>错误! </span>","null","","","","","","","","","","","","","","","","","","","","","","","feedback_test",""
"","","","","","psychophysics","382","850203","0.0-16.0-0.0-0.22","1236","","d","","","","","","","","","","","","","key","d","16.649686567163887","960","536","d","true","img/H_28.png","生人","prac_friend","","生人"
"","","","","","html-keyboard-response","383","850505","0.0-16.0-0.0-1.22","null","<span style='color:GreenYellow; font-size: 70px;'>正确! </span>","null","","","","","","","","","","","","","","","","","","","","","","","feedback_test",""
"","","","","","psychophysics","384","852789","0.0-16.0-0.0-0.23","1282","","f","","","","","","","","","","","","","key","f","16.647845588235","960","536","f","true","img/C_28.png","朋友","prac_friend","","自我"
"","","","","","html-keyboard-response","385","853090","0.0-16.0-0.0-1.23","null","<span style='color:GreenYellow; font-size: 70px;'>正确! </span>","null","","","","","","","","","","","","","","","","","","","","","","","feedback_test",""
"","","","","","html-keyboard-response","386","856665","0.0-17.0","3572","[""<style>.context{color:white; font-size: 35px; line-height:40px}</style>                  <div><p class='context'>您正确回答了71% 的试次。</p><p class='context'>您的平均反应时为1013毫秒。</p><p class='context'>恭喜您完成这一阶段的练习。按任意键进入<span style='color: yellow;'>重点关注图形为“生人”</span>的练习。</p></div><p class='footer' style='font-size:35px; line-height:30px;'>任务要求：\n                  <p class='footer' style='font-size:35px; line-height:35px;'>对与“生人”对应的图形，如果 匹配 ，请按 <span style=\""color: lightgreen;\"">k键</span></p><p class='footer' style='font-size:35px'>如果 不匹配 ，请按<span style=\""color: lightgreen;\"">j键</p></span>\n                  <p class='footer' style='font-size:35px; line-height:35px;'>对非“生人”对应的图形，如果 匹配 ，请按 <span style=\""color: lightgreen;\"">d键</span></p><p class='footer' style='font-size:35px'>如果 不匹配 ，请按<span style=\""color: lightgreen;\"">f键</p></span>\n                  <p class='footer' style='font-size:22px; line-height:25px;'>请在实验过程中将您的<span style=\""color: lightgreen;\"">食指和中指</span>放在电脑键盘的相应键位上进行按键。</p></span>""]","j","","","","","","","","","","","","","","","","","","","","","","","",""
"","","","","","psychophysics","387","858765","0.0-18.0-0.0-0.0","1096","","f","","","","","","","","","","","","","key","f","16.649608000000008","960","536","f","true","img/S_28.png","生人","prac_stranger","","朋友"
"","","","","","html-keyboard-response","388","859067","0.0-18.0-0.0-1.0","null","<span style='color:GreenYellow; font-size: 70px;'>正确! </span>","null","","","","","","","","","","","","","","","","","","","","","","","feedback_test",""
"","","","","","psychophysics","389","860960","0.0-18.0-0.0-0.1","893","","f","","","","","","","","","","","","","key","f","16.65049557522067","960","536","f","true","img/S_28.png","自我","prac_stranger","","朋友"
"","","","","","html-keyboard-response","390","861262","0.0-18.0-0.0-1.1","null","<span style='color:GreenYellow; font-size: 70px;'>正确! </span>","null","","","","","","","","","","","","","","","","","","","","","","","feedback_test",""
"","","","","","psychophysics","391","863191","0.0-18.0-0.0-0.2","928","","d","","","","","","","","","","","","","key","d","16.649495652174252","960","536","j","false","img/H_28.png","朋友","prac_stranger","","生人"
"","","","","","html-keyboard-response","392","863493","0.0-18.0-0.0-1.2","null","<span style='color:red; font-size: 70px;'>错误! </span>","null","","","","","","","","","","","","","","","","","","","","","","","feedback_test",""
"","","","","","psychophysics","393","865808","0.0-18.0-0.0-0.3","1313","","d","","","","","","","","","","","","","key","d","16.649391304348104","960","536","f","false","img/C_28.png","朋友","prac_stranger","","自我"
"","","","","","html-keyboard-response","394","866109","0.0-18.0-0.0-1.3","null","<span style='color:red; font-size: 70px;'>错误! </span>","null","","","","","","","","","","","","","","","","","","","","","","","feedback_test",""
"","","","","","psychophysics","395","867913","0.0-18.0-0.0-0.4","799","","d","","","","","","","","","","","","","key","d","16.649757009345567","960","536","d","true","img/C_28.png","自我","prac_stranger","","自我"
"","","","","","html-keyboard-response","396","868215","0.0-18.0-0.0-1.4","null","<span style='color:GreenYellow; font-size: 70px;'>正确! </span>","null","","","","","","","","","","","","","","","","","","","","","","","feedback_test",""
"","","","","","psychophysics","397","870146","0.0-18.0-0.0-0.5","928","","f","","","","","","","","","","","","","key","f","16.65042105263197","960","536","k","false","img/H_28.png","生人","prac_stranger","","生人"
"","","","","","html-keyboard-response","398","870448","0.0-18.0-0.0-1.5","null","<span style='color:red; font-size: 70px;'>错误! </span>","null","","","","","","","","","","","","","","","","","","","","","","","feedback_test",""
"","","","","","psychophysics","399","872766","0.0-18.0-0.0-0.6","1317","","f","","","","","","","","","","","","","key","f","16.64944202898482","960","536","d","false","img/S_28.png","朋友","prac_stranger","","朋友"
"","","","","","html-keyboard-response","400","873067","0.0-18.0-0.0-1.6","null","<span style='color:red; font-size: 70px;'>错误! </span>","null","","","","","","","","","","","","","","","","","","","","","","","feedback_test",""
"","","","","","psychophysics","401","875513","0.0-18.0-0.0-0.7","1445","","f","","","","","","","","","","","","","key","f","16.649493150684936","960","536","f","true","img/C_28.png","生人","prac_stranger","","自我"
"","","","","","html-keyboard-response","402","875815","0.0-18.0-0.0-1.7","null","<span style='color:GreenYellow; font-size: 70px;'>正确! </span>","null","","","","","","","","","","","","","","","","","","","","","","","feedback_test",""
"","","","","","psychophysics","403","878219","0.0-18.0-0.0-0.8","1403","","k","","","","","","","","","","","","","key","k","16.650020979020837","960","536","j","false","img/H_28.png","自我","prac_stranger","","生人"
"","","","","","html-keyboard-response","404","878520","0.0-18.0-0.0-1.8","null","<span style='color:red; font-size: 70px;'>错误! </span>","null","","","","","","","","","","","","","","","","","","","","","","","feedback_test",""
"","","","","","psychophysics","405","880918","0.0-18.0-0.0-0.9","1397","","k","","","","","","","","","","","","","key","k","16.649239436619993","960","536","k","true","img/H_28.png","生人","prac_stranger","","生人"
"","","","","","html-keyboard-response","406","881219","0.0-18.0-0.0-1.9","null","<span style='color:GreenYellow; font-size: 70px;'>正确! </span>","null","","","","","","","","","","","","","","","","","","","","","","","feedback_test",""
"","","","","","psychophysics","407","883104","0.0-18.0-0.0-0.10","882","","d","","","","","","","","","","","","","key","d","16.650232142857153","960","536","d","true","img/C_28.png","自我","prac_stranger","","自我"
"","","","","","html-keyboard-response","408","883406","0.0-18.0-0.0-1.10","null","<span style='color:GreenYellow; font-size: 70px;'>正确! </span>","null","","","","","","","","","","","","","","","","","","","","","","","feedback_test",""
"","","","","","psychophysics","409","885602","0.0-18.0-0.0-0.11","1196","","d","","","","","","","","","","","","","key","d","16.649580152671543","960","536","d","true","img/S_28.png","朋友","prac_stranger","","朋友"
"","","","","","html-keyboard-response","410","885904","0.0-18.0-0.0-1.11","null","<span style='color:GreenYellow; font-size: 70px;'>正确! </span>","null","","","","","","","","","","","","","","","","","","","","","","","feedback_test",""
"","","","","","psychophysics","411","887750","0.0-18.0-0.0-0.12","844","","f","","","","","","","","","","","","","key","f","16.648372727272694","960","536","j","false","img/H_28.png","朋友","prac_stranger","","生人"
"","","","","","html-keyboard-response","412","888051","0.0-18.0-0.0-1.12","null","<span style='color:red; font-size: 70px;'>错误! </span>","null","","","","","","","","","","","","","","","","","","","","","","","feedback_test",""
"","","","","","psychophysics","413","890067","0.0-18.0-0.0-0.13","1015","","k","","","","","","","","","","","","","key","k","16.64944166666731","960","536","j","false","img/H_28.png","自我","prac_stranger","","生人"
"","","","","","html-keyboard-response","414","890369","0.0-18.0-0.0-1.13","null","<span style='color:red; font-size: 70px;'>错误! </span>","null","","","","","","","","","","","","","","","","","","","","","","","feedback_test",""
"","","","","","psychophysics","415","892645","0.0-18.0-0.0-0.14","1275","","d","","","","","","","","","","","","","key","d","16.649889705882423","960","536","f","false","img/S_28.png","生人","prac_stranger","","朋友"
"","","","","","html-keyboard-response","416","892946","0.0-18.0-0.0-1.14","null","<span style='color:red; font-size: 70px;'>错误! </span>","null","","","","","","","","","","","","","","","","","","","","","","","feedback_test",""
"","","","","","psychophysics","417","894821","0.0-18.0-0.0-0.15","873","","d","","","","","","","","","","","","","key","d","16.649187500000284","960","536","d","true","img/S_28.png","朋友","prac_stranger","","朋友"
"","","","","","html-keyboard-response","418","895124","0.0-18.0-0.0-1.15","null","<span style='color:GreenYellow; font-size: 70px;'>正确! </span>","null","","","","","","","","","","","","","","","","","","","","","","","feedback_test",""
"","","","","","psychophysics","419","897158","0.0-18.0-0.0-0.16","1033","","d","","","","","","","","","","","","","key","d","16.650165289256545","960","536","d","true","img/C_28.png","自我","prac_stranger","","自我"
"","","","","","html-keyboard-response","420","897460","0.0-18.0-0.0-1.16","null","<span style='color:GreenYellow; font-size: 70px;'>正确! </span>","null","","","","","","","","","","","","","","","","","","","","","","","feedback_test",""
"","","","","","psychophysics","421","899823","0.0-18.0-0.0-0.17","1362","","f","","","","","","","","","","","","","key","f","16.648007092198213","960","536","f","true","img/C_28.png","朋友","prac_stranger","","自我"
"","","","","","html-keyboard-response","422","900125","0.0-18.0-0.0-1.17","null","<span style='color:GreenYellow; font-size: 70px;'>正确! </span>","null","","","","","","","","","","","","","","","","","","","","","","","feedback_test",""
"","","","","","psychophysics","423","902628","0.0-18.0-0.0-0.18","null","","null","","","","","","","","","","","","","key","null","16.649275167785028","960","536","f","false","img/S_28.png","自我","prac_stranger","","朋友"
"","","","","","html-keyboard-response","424","902930","0.0-18.0-0.0-1.18","null","<span class='add_' style='color:yellow; font-size: 70px;'> 太慢! </span>","null","","","","","","","","","","","","","","","","","","","","","","","feedback_test",""
"","","","","","psychophysics","425","905210","0.0-18.0-0.0-0.19","1278","","d","","","","","","","","","","","","","key","d","16.649573529411366","960","536","f","false","img/C_28.png","生人","prac_stranger","","自我"
