"success","timeout","failed_images","failed_audio","failed_video","trial_type","trial_index","time_elapsed","internal_node_id","rt","stimulus","response","value","item_width_mm","item_height_mm","item_width_px","px2mm","view_dist_mm","item_width_deg","px2deg","scale_factor","win_width_deg","win_height_deg","view_history","response_type","key_press","avg_frame_time","center_x","center_y","correct_response","correct","Image","word","condition","screen_id"
"true","false","[]","[]","[]","preload","0","672","0.0-0.0","","","","","","","","","","","","","","","","","","","","","","","","","",""
"","","","","","html-keyboard-response","1","35133","0.0-1.0","34458","
     <p>您好，欢迎参加本次实验。</p>
     <p>为充分保障您的权利，请确保您已经知晓并同意《参与实验同意书》以及《数据公开知情同意书》。</p>
     <p>如果您未见过上述内容，请咨询实验员。</p>
     <p>如果您选择继续实验，则表示您已经清楚两份知情同意书的内容并同意。</p>
     <p> <div style = ""color: green""><按任意键至下页></div> </p>
     "," ","","","","","","","","","","","","","","","","","","","","","","",""
"","","","","","html-keyboard-response","2","37229","0.0-2.0","2095","
     <p>本实验首先需要您填写一些基本个人信息。</p>
     <p> <div style = ""color: green""><按任意键至下页></div></p>
     "," ","","","","","","","","","","","","","","","","","","","","","","",""
"","","","","","call-function","3","37230","0.0-3.0-0.0","","","","","","","","","","","","","","","","","","","","","","","","","",""
"","","","","","survey-html-form","4","44397","0.0-3.0-1.0","7164","","{""Q0"":""18""}","","","","","","","","","","","","","","","","","","","","","","",""
"","","","","","html-button-response","5","45614","0.0-3.0-2.0","1215","<p style = 'color : white'>您的性别</p>","1","","","","","","","","","","","","","","","","","","","","","","",""
"","","","","","survey-html-form","6","48718","0.0-3.0-3.0","3103","","{""Q0"":""2002""}","","","","","","","","","","","","","","","","","","","","","","",""
"","","","","","survey-html-form","7","53052","0.0-3.0-4.0","4333","","{""Q0"":""5""}","","","","","","","","","","","","","","","","","","","","","","",""
"","","","","","virtual-chinrest","8","236404","0.0-4.0","183351","","","","85.6","53.98","538.1764450243288","6.283143717771721","454.32","10.763528900486577","50","0.7543994237459545","31.04","18.26","","","","","","","","","","","",""
"true","","","","","fullscreen","9","244654","0.0-5.0","","","","","","","","","","","","","","","","","","","","","","","","","",""
"","","","","","instructions","10","317633","0.0-6.0","72977","","","","","","","","","","","","","","[{""page_index"":0,""viewing_time"":10422},{""page_index"":1,""viewing_time"":48815},{""page_index"":2,""viewing_time"":3819},{""page_index"":3,""viewing_time"":9922}]","","","","","","","","","","",""
"","","","","","psychophysics","11","320153","0.0-7.0-0.0","null","","null","","","","","","","","","","","","","key","null","15.201711656441812","800","496","f","false","img/T_ambi40.png","をる","prac",""
"","","","","","html-keyboard-response","12","320664","0.0-7.0-1.0","null","<span class='add_' style='color:yellow; font-size: 70px;'> 太慢! </span>","null","","","","","","","","","","","","","","","","","","","","","","","feedback_test"
"","","","","","psychophysics","13","323830","0.0-7.0-0.1","null","","null","","","","","","","","","","","","","key","null","15.138458937197893","800","496","j","false","img/S_ambi40.png","自我","prac",""
"","","","","","html-keyboard-response","14","324824","0.0-7.0-1.1","null","<span class='add_' style='color:yellow; font-size: 70px;'> 太慢! </span>","null","","","","","","","","","","","","","","","","","","","","","","","feedback_test"
"","","","","","psychophysics","15","326159","0.0-7.0-0.2","312","","j","","","","","","","","","","","","","key","j","15.611202380952559","800","496","f","false","img/C_ambi40.png","自我","prac",""
"","","","","","html-keyboard-response","16","326673","0.0-7.0-1.2","null","<span style='color:red; font-size: 70px;'>错误! </span>","null","","","","","","","","","","","","","","","","","","","","","","","feedback_test"
"","","","","","psychophysics","17","328096","0.0-7.0-0.3","420","","f","","","","","","","","","","","","","key","f","14.86049999999987","800","496","f","true","img/T_ambi40.png","をる","prac",""
"","","","","","html-keyboard-response","18","328601","0.0-7.0-1.3","null","<span style='color:GreenYellow; font-size: 70px;'>正确! </span>","null","","","","","","","","","","","","","","","","","","","","","","","feedback_test"
"","","","","","psychophysics","19","330202","0.0-7.0-0.4","593","","j","","","","","","","","","","","","","key","j","14.88561320754717","800","496","j","true","img/C_ambi40.png","朋友","prac",""
"","","","","","html-keyboard-response","20","330711","0.0-7.0-1.4","null","<span style='color:GreenYellow; font-size: 70px;'>正确! </span>","null","","","","","","","","","","","","","","","","","","","","","","","feedback_test"
"","","","","","psychophysics","21","332531","0.0-7.0-0.5","703","","j","","","","","","","","","","","","","key","j","15.789447368420824","800","496","f","false","img/S_ambi40.png","朋友","prac",""
"","","","","","html-keyboard-response","22","333045","0.0-7.0-1.5","null","<span style='color:red; font-size: 70px;'>错误! </span>","null","","","","","","","","","","","","","","","","","","","","","","","feedback_test"
"","","","","","psychophysics","23","334843","0.0-7.0-0.6","793","","f","","","","","","","","","","","","","key","f","15.194803418803554","800","496","j","false","img/H_ambi40.png","朋友","prac",""
"","","","","","html-keyboard-response","24","335357","0.0-7.0-1.6","null","<span style='color:red; font-size: 70px;'>错误! </span>","null","","","","","","","","","","","","","","","","","","","","","","","feedback_test"
"","","","","","psychophysics","25","337162","0.0-7.0-0.7","798","","j","","","","","","","","","","","","","key","j","14.816924999999658","800","496","f","false","img/S_ambi40.png","朋友","prac",""
"","","","","","html-keyboard-response","26","337832","0.0-7.0-1.7","null","<span style='color:red; font-size: 70px;'>错误! </span>","null","","","","","","","","","","","","","","","","","","","","","","","feedback_test"
"","","","","","psychophysics","27","340351","0.0-7.0-0.8","null","","null","","","","","","","","","","","","","key","null","15.724729559748543","800","496","f","false","img/H_ambi40.png","生人","prac",""
"","","","","","html-keyboard-response","28","340860","0.0-7.0-1.8","null","<span class='add_' style='color:yellow; font-size: 70px;'> 太慢! </span>","null","","","","","","","","","","","","","","","","","","","","","","","feedback_test"
"","","","","","psychophysics","29","342522","0.0-7.0-0.9","657","","f","","","","","","","","","","","","","key","f","15.655533333333386","800","496","f","true","img/T_ambi40.png","をる","prac",""
"","","","","","html-keyboard-response","30","343040","0.0-7.0-1.9","null","<span style='color:GreenYellow; font-size: 70px;'>正确! </span>","null","","","","","","","","","","","","","","","","","","","","","","","feedback_test"
"","","","","","psychophysics","31","344682","0.0-7.0-0.10","638","","f","","","","","","","","","","","","","key","f","15.198801886792216","800","496","f","true","img/T_ambi40.png","をる","prac",""
"","","","","","html-keyboard-response","32","345195","0.0-7.0-1.10","null","<span style='color:GreenYellow; font-size: 70px;'>正确! </span>","null","","","","","","","","","","","","","","","","","","","","","","","feedback_test"
"","","","","","psychophysics","33","347156","0.0-7.0-0.11","951","","j","","","","","","","","","","","","","key","j","14.96265891472883","800","496","f","false","img/C_ambi40.png","自我","prac",""
"","","","","","html-keyboard-response","34","347666","0.0-7.0-1.11","null","<span style='color:red; font-size: 70px;'>错误! </span>","null","","","","","","","","","","","","","","","","","","","","","","","feedback_test"
"","","","","","psychophysics","35","349080","0.0-7.0-0.12","406","","f","","","","","","","","","","","","","key","f","14.814655913978875","800","496","j","false","img/H_ambi40.png","自我","prac",""
"","","","","","html-keyboard-response","36","349597","0.0-7.0-1.12","null","<span style='color:red; font-size: 70px;'>错误! </span>","null","","","","","","","","","","","","","","","","","","","","","","","feedback_test"
"","","","","","psychophysics","37","351426","0.0-7.0-0.13","600","","f","","","","","","","","","","","","","key","f","14.846467213114517","800","496","j","false","img/S_ambi40.png","生人","prac",""
"","","","","","html-keyboard-response","38","351931","0.0-7.0-1.13","null","<span style='color:red; font-size: 70px;'>错误! </span>","null","","","","","","","","","","","","","","","","","","","","","","","feedback_test"
"","","","","","psychophysics","39","354116","0.0-7.0-0.14","1178","","j","","","","","","","","","","","","","key","j","14.255184210526318","800","496","j","true","img/C_ambi40.png","生人","prac",""
"","","","","","html-keyboard-response","40","354627","0.0-7.0-1.14","null","<span style='color:GreenYellow; font-size: 70px;'>正确! </span>","null","","","","","","","","","","","","","","","","","","","","","","","feedback_test"
"","","","","","psychophysics","41","356771","0.0-7.0-0.15","1140","","j","","","","","","","","","","","","","key","j","15.34941007194265","800","496","f","false","img/H_ambi40.png","生人","prac",""
"","","","","","html-keyboard-response","42","357281","0.0-7.0-1.15","null","<span style='color:red; font-size: 70px;'>错误! </span>","null","","","","","","","","","","","","","","","","","","","","","","","feedback_test"
"","","","","","psychophysics","43","359317","0.0-7.0-0.16","1025","","j","","","","","","","","","","","","","key","j","15.321393939393932","800","496","j","true","img/H_ambi40.png","朋友","prac",""
"","","","","","html-keyboard-response","44","359833","0.0-7.0-1.16","null","<span style='color:GreenYellow; font-size: 70px;'>正确! </span>","null","","","","","","","","","","","","","","","","","","","","","","","feedback_test"
"","","","","","psychophysics","45","361841","0.0-7.0-0.17","999","","j","","","","","","","","","","","","","key","j","15.41786046511658","800","496","f","false","img/S_ambi40.png","朋友","prac",""
"","","","","","html-keyboard-response","46","362355","0.0-7.0-1.17","null","<span style='color:red; font-size: 70px;'>错误! </span>","null","","","","","","","","","","","","","","","","","","","","","","","feedback_test"
"","","","","","psychophysics","47","364098","0.0-7.0-0.18","734","","f","","","","","","","","","","","","","key","f","15.107885964912272","800","496","f","true","img/T_ambi40.png","をる","prac",""
"","","","","","html-keyboard-response","48","364604","0.0-7.0-1.18","null","<span style='color:GreenYellow; font-size: 70px;'>正确! </span>","null","","","","","","","","","","","","","","","","","","","","","","","feedback_test"
"","","","","","psychophysics","49","366401","0.0-7.0-0.19","791","","f","","","","","","","","","","","","","key","f","16.017819819819845","800","496","f","true","img/T_ambi40.png","をる","prac",""
"","","","","","html-keyboard-response","50","367826","0.0-7.0-1.19","null","<span style='color:GreenYellow; font-size: 70px;'>正确! </span>","null","","","","","","","","","","","","","","","","","","","","","","","feedback_test"
"","","","","","psychophysics","51","369976","0.0-7.0-0.20","148","","f","","","","","","","","","","","","","key","f","15.34193525179842","800","496","f","true","img/H_ambi40.png","生人","prac",""
"","","","","","html-keyboard-response","52","370491","0.0-7.0-1.20","null","<span style='color:yellow; font-size: 70px;'>过快! </span>","null","","","","","","","","","","","","","","","","","","","","","","","feedback_test"
"","","","","","psychophysics","53","372640","0.0-7.0-0.21","1144","","j","","","","","","","","","","","","","key","j","15.128503546099333","800","496","j","true","img/S_ambi40.png","生人","prac",""
"","","","","","html-keyboard-response","54","373156","0.0-7.0-1.21","null","<span style='color:GreenYellow; font-size: 70px;'>正确! </span>","null","","","","","","","","","","","","","","","","","","","","","","","feedback_test"
"","","","","","psychophysics","55","375085","0.0-7.0-0.22","924","","f","","","","","","","","","","","","","key","f","15.079507936508254","800","496","f","true","img/C_ambi40.png","自我","prac",""
"","","","","","html-keyboard-response","56","375589","0.0-7.0-1.22","null","<span style='color:GreenYellow; font-size: 70px;'>正确! </span>","null","","","","","","","","","","","","","","","","","","","","","","","feedback_test"
"","","","","","psychophysics","57","377280","0.0-7.0-0.23","685","","f","","","","","","","","","","","","","key","f","14.749876106194472","800","496","f","true","img/T_ambi40.png","をる","prac",""
"","","","","","html-keyboard-response","58","377792","0.0-7.0-1.23","null","<span style='color:GreenYellow; font-size: 70px;'>正确! </span>","null","","","","","","","","","","","","","","","","","","","","","","","feedback_test"
"","","","","","psychophysics","59","379276","0.0-7.0-0.24","471","","f","","","","","","","","","","","","","key","f","15.275510416666293","800","496","j","false","img/C_ambi40.png","生人","prac",""
"","","","","","html-keyboard-response","60","379784","0.0-7.0-1.24","null","<span style='color:red; font-size: 70px;'>错误! </span>","null","","","","","","","","","","","","","","","","","","","","","","","feedback_test"
"","","","","","psychophysics","61","381450","0.0-7.0-0.25","624","","j","","","","","","","","","","","","","key","j","15.094416666666532","800","496","f","false","img/H_ambi40.png","生人","prac",""
"","","","","","html-keyboard-response","62","381958","0.0-7.0-1.25","null","<span style='color:red; font-size: 70px;'>错误! </span>","null","","","","","","","","","","","","","","","","","","","","","","","feedback_test"
"","","","","","psychophysics","63","383864","0.0-7.0-0.26","893","","f","","","","","","","","","","","","","key","f","15.357439024390452","800","496","j","false","img/C_ambi40.png","朋友","prac",""
"","","","","","html-keyboard-response","64","384382","0.0-7.0-1.26","null","<span style='color:red; font-size: 70px;'>错误! </span>","null","","","","","","","","","","","","","","","","","","","","","","","feedback_test"
"","","","","","psychophysics","65","386368","0.0-7.0-0.27","981","","j","","","","","","","","","","","","","key","j","15.119784615384503","800","496","j","true","img/S_ambi40.png","自我","prac",""
"","","","","","html-keyboard-response","66","386879","0.0-7.0-1.27","null","<span style='color:GreenYellow; font-size: 70px;'>正确! </span>","null","","","","","","","","","","","","","","","","","","","","","","","feedback_test"
"","","","","","psychophysics","67","388536","0.0-7.0-0.28","650","","f","","","","","","","","","","","","","key","f","15.113287037036908","800","496","f","true","img/T_ambi40.png","をる","prac",""
"","","","","","html-keyboard-response","68","389048","0.0-7.0-1.28","null","<span style='color:GreenYellow; font-size: 70px;'>正确! </span>","null","","","","","","","","","","","","","","","","","","","","","","","feedback_test"
"","","","","","psychophysics","69","391412","0.0-7.0-0.29","1359","","f","","","","","","","","","","","","","key","f","14.862254777070133","800","496","f","true","img/C_ambi40.png","自我","prac",""
"","","","","","html-keyboard-response","70","391927","0.0-7.0-1.29","null","<span style='color:GreenYellow; font-size: 70px;'>正确! </span>","null","","","","","","","","","","","","","","","","","","","","","","","feedback_test"
"","","","","","psychophysics","71","393992","0.0-7.0-0.30","1062","","j","","","","","","","","","","","","","key","j","15.488833333333428","800","496","f","false","img/S_ambi40.png","朋友","prac",""
"","","","","","html-keyboard-response","72","394500","0.0-7.0-1.30","null","<span style='color:red; font-size: 70px;'>错误! </span>","null","","","","","","","","","","","","","","","","","","","","","","","feedback_test"
"","","","","","psychophysics","73","396274","0.0-7.0-0.31","766","","f","","","","","","","","","","","","","key","f","15.13516379310348","800","496","j","false","img/H_ambi40.png","自我","prac",""
"","","","","","html-keyboard-response","74","396828","0.0-7.0-1.31","null","<span style='color:red; font-size: 70px;'>错误! </span>","null","","","","","","","","","","","","","","","","","","","","","","","feedback_test"
"","","","","","psychophysics","75","399352","0.0-8.0-0.0-0.0","null","","null","","","","","","","","","","","","","key","null","15.457167701863305","800","496","j","false","img/S_ambi40.png","自我","prac",""
"","","","","","html-keyboard-response","76","399864","0.0-8.0-0.0-1.0","null","<span class='add_' style='color:yellow; font-size: 70px;'> 太慢! </span>","null","","","","","","","","","","","","","","","","","","","","","","","feedback_test"
"","","","","","psychophysics","77","401808","0.0-8.0-0.0-0.1","942","","f","","","","","","","","","","","","","key","f","15.135417322834906","800","496","f","true","img/C_ambi40.png","自我","prac",""
"","","","","","html-keyboard-response","78","402317","0.0-8.0-0.0-1.1","null","<span style='color:GreenYellow; font-size: 70px;'>正确! </span>","null","","","","","","","","","","","","","","","","","","","","","","","feedback_test"
"","","","","","psychophysics","79","403994","0.0-8.0-0.0-0.2","663","","f","","","","","","","","","","","","","key","f","15.473691588785025","800","496","f","true","img/T_ambi40.png","をる","prac",""
"","","","","","html-keyboard-response","80","404497","0.0-8.0-0.0-1.2","null","<span style='color:GreenYellow; font-size: 70px;'>正确! </span>","null","","","","","","","","","","","","","","","","","","","","","","","feedback_test"
"","","","","","psychophysics","81","406816","0.0-8.0-0.0-0.3","1304","","j","","","","","","","","","","","","","key","j","15.05820394736848","800","496","j","true","img/S_ambi40.png","生人","prac",""
"","","","","","html-keyboard-response","82","407321","0.0-8.0-0.0-1.3","null","<span style='color:GreenYellow; font-size: 70px;'>正确! </span>","null","","","","","","","","","","","","","","","","","","","","","","","feedback_test"
"","","","","","psychophysics","83","409599","0.0-8.0-0.0-0.4","1273","","f","","","","","","","","","","","","","key","f","15.137402684563746","800","496","f","true","img/C_ambi40.png","自我","prac",""
"","","","","","html-keyboard-response","84","410104","0.0-8.0-0.0-1.4","null","<span style='color:GreenYellow; font-size: 70px;'>正确! </span>","null","","","","","","","","","","","","","","","","","","","","","","","feedback_test"
"","","","","","psychophysics","85","412450","0.0-8.0-0.0-0.5","1341","","f","","","","","","","","","","","","","key","f","15.080746753246737","800","496","f","true","img/S_ambi40.png","朋友","prac",""
"","","","","","html-keyboard-response","86","412958","0.0-8.0-0.0-1.5","null","<span style='color:GreenYellow; font-size: 70px;'>正确! </span>","null","","","","","","","","","","","","","","","","","","","","","","","feedback_test"
"","","","","","psychophysics","87","414744","0.0-8.0-0.0-0.6","776","","f","","","","","","","","","","","","","key","f","14.50847933884308","800","496","f","true","img/H_ambi40.png","生人","prac",""
"","","","","","html-keyboard-response","88","415260","0.0-8.0-0.0-1.6","null","<span style='color:GreenYellow; font-size: 70px;'>正确! </span>","null","","","","","","","","","","","","","","","","","","","","","","","feedback_test"
"","","","","","psychophysics","89","416997","0.0-8.0-0.0-0.7","732","","f","","","","","","","","","","","","","key","f","14.976730434782297","800","496","j","false","img/H_ambi40.png","朋友","prac",""
"","","","","","html-keyboard-response","90","417503","0.0-8.0-0.0-1.7","null","<span style='color:red; font-size: 70px;'>错误! </span>","null","","","","","","","","","","","","","","","","","","","","","","","feedback_test"
"","","","","","psychophysics","91","419336","0.0-8.0-0.0-0.8","828","","f","","","","","","","","","","","","","key","f","15.385871794871772","800","496","f","true","img/T_ambi40.png","をる","prac",""
"","","","","","html-keyboard-response","92","420824","0.0-8.0-0.0-1.8","null","<span style='color:GreenYellow; font-size: 70px;'>正确! </span>","null","","","","","","","","","","","","","","","","","","","","","","","feedback_test"
"","","","","","psychophysics","93","422892","0.0-8.0-0.0-0.9","66","","j","","","","","","","","","","","","","key","j","15.813200000000114","800","496","j","true","img/C_ambi40.png","生人","prac",""
"","","","","","html-keyboard-response","94","423395","0.0-8.0-0.0-1.9","null","<span style='color:yellow; font-size: 70px;'>过快! </span>","null","","","","","","","","","","","","","","","","","","","","","","","feedback_test"
"","","","","","psychophysics","95","425524","0.0-8.0-0.0-0.10","1127","","j","","","","","","","","","","","","","key","j","15.769436090225721","800","496","j","true","img/C_ambi40.png","朋友","prac",""
"","","","","","html-keyboard-response","96","426043","0.0-8.0-0.0-1.10","null","<span style='color:GreenYellow; font-size: 70px;'>正确! </span>","null","","","","","","","","","","","","","","","","","","","","","","","feedback_test"
"","","","","","psychophysics","97","428324","0.0-8.0-0.0-0.11","1273","","f","","","","","","","","","","","","","key","f","15.139006711409392","800","496","f","true","img/S_ambi40.png","朋友","prac",""
"","","","","","html-keyboard-response","98","428826","0.0-8.0-0.0-1.11","null","<span style='color:GreenYellow; font-size: 70px;'>正确! </span>","null","","","","","","","","","","","","","","","","","","","","","","","feedback_test"
"","","","","","psychophysics","99","430649","0.0-8.0-0.0-0.12","820","","f","","","","","","","","","","","","","key","f","15.383965811965805","800","496","f","true","img/T_ambi40.png","をる","prac",""
"","","","","","html-keyboard-response","100","431158","0.0-8.0-0.0-1.12","null","<span style='color:GreenYellow; font-size: 70px;'>正确! </span>","null","","","","","","","","","","","","","","","","","","","","","","","feedback_test"
"","","","","","psychophysics","101","433346","0.0-8.0-0.0-0.13","1182","","f","","","","","","","","","","","","","key","f","15.390085714285878","800","496","j","false","img/H_ambi40.png","自我","prac",""
"","","","","","html-keyboard-response","102","433859","0.0-8.0-0.0-1.13","null","<span style='color:red; font-size: 70px;'>错误! </span>","null","","","","","","","","","","","","","","","","","","","","","","","feedback_test"
"","","","","","psychophysics","103","435592","0.0-8.0-0.0-0.14","729","","f","","","","","","","","","","","","","key","f","15.656127272727264","800","496","f","true","img/T_ambi40.png","をる","prac",""
"","","","","","html-keyboard-response","104","436105","0.0-8.0-0.0-1.14","null","<span style='color:GreenYellow; font-size: 70px;'>正确! </span>","null","","","","","","","","","","","","","","","","","","","","","","","feedback_test"
"","","","","","psychophysics","105","438661","0.0-8.0-0.0-0.15","1549","","f","","","","","","","","","","","","","key","f","15.170664670658967","800","496","f","true","img/H_ambi40.png","生人","prac",""
"","","","","","html-keyboard-response","106","439175","0.0-8.0-0.0-1.15","null","<span class='add_' style='color:yellow; font-size: 70px;'> 太慢! </span>","null","","","","","","","","","","","","","","","","","","","","","","","feedback_test"
"","","","","","psychophysics","107","441171","0.0-8.0-0.0-0.16","991","","j","","","","","","","","","","","","","key","j","15.246511627906887","800","496","j","true","img/C_ambi40.png","生人","prac",""
"","","","","","html-keyboard-response","108","441682","0.0-8.0-0.0-1.16","null","<span style='color:GreenYellow; font-size: 70px;'>正确! </span>","null","","","","","","","","","","","","","","","","","","","","","","","feedback_test"
"","","","","","psychophysics","109","443925","0.0-8.0-0.0-0.17","1238","","j","","","","","","","","","","","","","key","j","14.710794701986863","800","496","j","true","img/S_ambi40.png","自我","prac",""
"","","","","","html-keyboard-response","110","444434","0.0-8.0-0.0-1.17","null","<span style='color:GreenYellow; font-size: 70px;'>正确! </span>","null","","","","","","","","","","","","","","","","","","","","","","","feedback_test"
"","","","","","psychophysics","111","446461","0.0-8.0-0.0-0.18","1020","","f","","","","","","","","","","","","","key","f","15.747889763779213","800","496","f","true","img/H_ambi40.png","生人","prac",""
"","","","","","html-keyboard-response","112","446971","0.0-8.0-0.0-1.18","null","<span style='color:GreenYellow; font-size: 70px;'>正确! </span>","null","","","","","","","","","","","","","","","","","","","","","","","feedback_test"
"","","","","","psychophysics","113","449234","0.0-8.0-0.0-0.19","1259","","f","","","","","","","","","","","","","key","f","14.790245033112903","800","496","f","true","img/S_ambi40.png","朋友","prac",""
"","","","","","html-keyboard-response","114","449745","0.0-8.0-0.0-1.19","null","<span style='color:GreenYellow; font-size: 70px;'>正确! </span>","null","","","","","","","","","","","","","","","","","","","","","","","feedback_test"
"","","","","","psychophysics","115","451623","0.0-8.0-0.0-0.20","864","","j","","","","","","","","","","","","","key","j","15.59442016806702","800","496","j","true","img/H_ambi40.png","朋友","prac",""
"","","","","","html-keyboard-response","116","452131","0.0-8.0-0.0-1.20","null","<span style='color:GreenYellow; font-size: 70px;'>正确! </span>","null","","","","","","","","","","","","","","","","","","","","","","","feedback_test"
"","","","","","psychophysics","117","454143","0.0-8.0-0.0-0.21","1003","","j","","","","","","","","","","","","","key","j","15.18351145038152","800","496","j","true","img/C_ambi40.png","朋友","prac",""
"","","","","","html-keyboard-response","118","454649","0.0-8.0-0.0-1.21","null","<span style='color:GreenYellow; font-size: 70px;'>正确! </span>","null","","","","","","","","","","","","","","","","","","","","","","","feedback_test"
"","","","","","psychophysics","119","456356","0.0-8.0-0.0-0.22","690","","f","","","","","","","","","","","","","key","f","15.63783333333332","800","496","f","true","img/T_ambi40.png","をる","prac",""
"","","","","","html-keyboard-response","120","456862","0.0-8.0-0.0-1.22","null","<span style='color:GreenYellow; font-size: 70px;'>正确! </span>","null","","","","","","","","","","","","","","","","","","","","","","","feedback_test"
"","","","","","psychophysics","121","458861","0.0-8.0-0.0-0.23","990","","j","","","","","","","","","","","","","key","j","14.87705303030309","800","496","f","false","img/S_ambi40.png","朋友","prac",""
"","","","","","html-keyboard-response","122","459833","0.0-8.0-0.0-1.23","null","<span style='color:red; font-size: 70px;'>错误! </span>","null","","","","","","","","","","","","","","","","","","","","","","","feedback_test"
"","","","","","psychophysics","123","461983","0.0-8.0-0.0-0.24","153","","f","","","","","","","","","","","","","key","f","14.43717006802738","800","496","f","true","img/H_ambi40.png","生人","prac",""
"","","","","","html-keyboard-response","124","462488","0.0-8.0-0.0-1.24","null","<span style='color:yellow; font-size: 70px;'>过快! </span>","null","","","","","","","","","","","","","","","","","","","","","","","feedback_test"
"","","","","","psychophysics","125","464705","0.0-8.0-0.0-0.25","1210","","f","","","","","","","","","","","","","key","f","15.27911805555535","800","496","f","true","img/C_ambi40.png","自我","prac",""
"","","","","","html-keyboard-response","126","465209","0.0-8.0-0.0-1.25","null","<span style='color:GreenYellow; font-size: 70px;'>正确! </span>","null","","","","","","","","","","","","","","","","","","","","","","","feedback_test"
"","","","","","psychophysics","127","467072","0.0-8.0-0.0-0.26","857","","j","","","","","","","","","","","","","key","j","14.877951612903534","800","496","j","true","img/S_ambi40.png","生人","prac",""
"","","","","","html-keyboard-response","128","467578","0.0-8.0-0.0-1.26","null","<span style='color:GreenYellow; font-size: 70px;'>正确! </span>","null","","","","","","","","","","","","","","","","","","","","","","","feedback_test"
"","","","","","psychophysics","129","469555","0.0-8.0-0.0-0.27","960","","f","","","","","","","","","","","","","key","f","14.815196969697189","800","496","f","true","img/T_ambi40.png","をる","prac",""
"","","","","","html-keyboard-response","130","470067","0.0-8.0-0.0-1.27","null","<span style='color:GreenYellow; font-size: 70px;'>正确! </span>","null","","","","","","","","","","","","","","","","","","","","","","","feedback_test"
"","","","","","psychophysics","131","471865","0.0-8.0-0.0-0.28","785","","f","","","","","","","","","","","","","key","f","15.19472649572646","800","496","f","true","img/T_ambi40.png","をる","prac",""
"","","","","","html-keyboard-response","132","472837","0.0-8.0-0.0-1.28","null","<span style='color:GreenYellow; font-size: 70px;'>正确! </span>","null","","","","","","","","","","","","","","","","","","","","","","","feedback_test"
"","","","","","psychophysics","133","475355","0.0-8.0-0.0-0.29","null","","null","","","","","","","","","","","","","key","null","14.988319277108355","800","496","f","false","img/T_ambi40.png","をる","prac",""
"","","","","","html-keyboard-response","134","475868","0.0-8.0-0.0-1.29","null","<span class='add_' style='color:yellow; font-size: 70px;'> 太慢! </span>","null","","","","","","","","","","","","","","","","","","","","","","","feedback_test"
"","","","","","psychophysics","135","478010","0.0-8.0-0.0-0.30","1131","","f","","","","","","","","","","","","","key","f","15.188618705035925","800","496","f","true","img/C_ambi40.png","自我","prac",""
"","","","","","html-keyboard-response","136","478524","0.0-8.0-0.0-1.30","null","<span style='color:GreenYellow; font-size: 70px;'>正确! </span>","null","","","","","","","","","","","","","","","","","","","","","","","feedback_test"
"","","","","","psychophysics","137","480059","0.0-8.0-0.0-0.31","226","","f","","","","","","","","","","","","","key","f","14.962732673267082","800","496","j","false","img/H_ambi40.png","自我","prac",""
"","","","","","html-keyboard-response","138","480565","0.0-8.0-0.0-1.31","null","<span style='color:red; font-size: 70px;'>错误! </span>","null","","","","","","","","","","","","","","","","","","","","","","","feedback_test"
"","","","","","html-keyboard-response","139","488642","0.0-9.0","8073","<style>.context{color:white; font-size: 35px; line-height:40px}</style>                          <div><p class='context'>您正确回答了81% 的试次。</p ><p class='context'>您的平均反应时为956毫秒。</p ><p class='context'>恭喜您完成练习。按任意键进入正式实验。</p ><p class='footer' style='font-size: 35px; line-height:40px;'>请在进入正式实验实验之前将您的<span style='color: lightgreen;'>食指</span>放在电脑键盘的相应键位上进行按键。</p >","j","","","","","","","","","","","","","","","","","","","","","","",""
"","","","","","psychophysics","140","490518","0.0-10.0-0.0-0.0-0.0-0.0","864","","f","","","","","","","","","","","","","key","f","17.024321100917547","800","496","f","true","img/H_ambi40.png","生人","same",""
"","","","","","html-keyboard-response","141","491032","0.0-10.0-0.0-0.0-0.0-1.0","null","<span style='color:GreenYellow; font-size: 70px;'>正确! </span>","null","","","","","","","","","","","","","","","","","","","","","","","feedback_test"
"","","","","","psychophysics","142","492829","0.0-10.0-0.0-0.0-0.0-0.1","787","","j","","","","","","","","","","","","","key","j","14.94126050420176","800","496","j","true","img/H_ambi40.png","自我","same",""
"","","","","","html-keyboard-response","143","493337","0.0-10.0-0.0-0.0-0.0-1.1","null","<span style='color:GreenYellow; font-size: 70px;'>正确! </span>","null","","","","","","","","","","","","","","","","","","","","","","","feedback_test"
"","","","","","psychophysics","144","495781","0.0-10.0-0.0-0.0-0.0-0.2","953","","j","","","","","","","","","","","","","key","j","15.133781250000174","800","496","j","true","img/S_ambi40.png","生人","same",""
"","","","","","html-keyboard-response","145","496292","0.0-10.0-0.0-0.0-0.0-1.2","null","<span style='color:GreenYellow; font-size: 70px;'>正确! </span>","null","","","","","","","","","","","","","","","","","","","","","","","feedback_test"
"","","","","","psychophysics","146","497794","0.0-10.0-0.0-0.0-0.0-0.3","496","","f","","","","","","","","","","","","","key","f","15.037696969697153","800","496","f","true","img/T_ambi40.png","をる","same",""
"","","","","","html-keyboard-response","147","498296","0.0-10.0-0.0-0.0-0.0-1.3","null","<span style='color:GreenYellow; font-size: 70px;'>正确! </span>","null","","","","","","","","","","","","","","","","","","","","","","","feedback_test"
"","","","","","psychophysics","148","499949","0.0-10.0-0.0-0.0-0.0-0.4","646","","f","","","","","","","","","","","","","key","f","14.584991071428833","800","496","f","true","img/T_ambi40.png","をる","same",""
"","","","","","html-keyboard-response","149","500460","0.0-10.0-0.0-0.0-0.0-1.4","null","<span style='color:GreenYellow; font-size: 70px;'>正确! </span>","null","","","","","","","","","","","","","","","","","","","","","","","feedback_test"
"","","","","","psychophysics","150","502472","0.0-10.0-0.0-0.0-0.0-0.5","646","","j","","","","","","","","","","","","","key","j","15.296469230768988","800","496","j","true","img/H_ambi40.png","自我","same",""
"","","","","","html-keyboard-response","151","502986","0.0-10.0-0.0-0.0-0.0-1.5","null","<span style='color:GreenYellow; font-size: 70px;'>正确! </span>","null","","","","","","","","","","","","","","","","","","","","","","","feedback_test"
"","","","","","psychophysics","152","504728","0.0-10.0-0.0-0.0-0.0-0.6","730","","f","","","","","","","","","","","","","key","f","14.976582608695912","800","496","f","true","img/C_ambi40.png","自我","same",""
"","","","","","html-keyboard-response","153","505241","0.0-10.0-0.0-0.0-0.0-1.6","null","<span style='color:GreenYellow; font-size: 70px;'>正确! </span>","null","","","","","","","","","","","","","","","","","","","","","","","feedback_test"
"","","","","","psychophysics","154","507337","0.0-10.0-0.0-0.0-0.0-0.7","1091","","j","","","","","","","","","","","","","key","j","14.737000000000112","800","496","f","false","img/S_ambi40.png","朋友","same",""
"","","","","","html-keyboard-response","155","508834","0.0-10.0-0.0-0.0-0.0-1.7","null","<span style='color:red; font-size: 70px;'>错误! </span>","null","","","","","","","","","","","","","","","","","","","","","","","feedback_test"
"","","","","","psychophysics","156","511352","0.0-10.0-0.0-0.0-0.0-0.8","null","","null","","","","","","","","","","","","","key","null","15.238920731707433","800","496","j","false","img/C_ambi40.png","朋友","same",""
"","","","","","html-keyboard-response","157","511859","0.0-10.0-0.0-0.0-0.0-1.8","null","<span class='add_' style='color:yellow; font-size: 70px;'> 太慢! </span>","null","","","","","","","","","","","","","","","","","","","","","","","feedback_test"
"","","","","","psychophysics","158","513319","0.0-10.0-0.0-0.0-0.0-0.9","458","","j","","","","","","","","","","","","","key","j","15.364095744681222","800","496","f","false","img/S_ambi40.png","朋友","same",""
"","","","","","html-keyboard-response","159","513824","0.0-10.0-0.0-0.0-0.0-1.9","null","<span style='color:red; font-size: 70px;'>错误! </span>","null","","","","","","","","","","","","","","","","","","","","","","","feedback_test"
"","","","","","psychophysics","160","515477","0.0-10.0-0.0-0.0-0.0-0.10","646","","f","","","","","","","","","","","","","key","f","14.747727272727273","800","496","f","true","img/T_ambi40.png","をる","same",""
"","","","","","html-keyboard-response","161","516821","0.0-10.0-0.0-0.0-0.0-1.10","null","<span style='color:GreenYellow; font-size: 70px;'>正确! </span>","null","","","","","","","","","","","","","","","","","","","","","","","feedback_test"
"","","","","","psychophysics","162","519183","0.0-10.0-0.0-0.0-0.0-0.11","579","","j","","","","","","","","","","","","","key","j","15.12621290322596","800","496","j","true","img/S_ambi40.png","生人","same",""
"","","","","","html-keyboard-response","163","519690","0.0-10.0-0.0-0.0-0.0-1.11","null","<span style='color:GreenYellow; font-size: 70px;'>正确! </span>","null","","","","","","","","","","","","","","","","","","","","","","","feedback_test"
"","","","","","psychophysics","164","521810","0.0-10.0-0.0-0.0-0.0-0.12","1117","","j","","","","","","","","","","","","","key","j","15.137050724637263","800","496","j","true","img/H_ambi40.png","朋友","same",""
"","","","","","html-keyboard-response","165","522325","0.0-10.0-0.0-0.0-0.0-1.12","null","<span style='color:GreenYellow; font-size: 70px;'>正确! </span>","null","","","","","","","","","","","","","","","","","","","","","","","feedback_test"
"","","","","","psychophysics","166","524326","0.0-10.0-0.0-0.0-0.0-0.13","998","","j","","","","","","","","","","","","","key","j","15.098748091602953","800","496","j","true","img/S_ambi40.png","自我","same",""
"","","","","","html-keyboard-response","167","524838","0.0-10.0-0.0-0.0-0.0-1.13","null","<span style='color:GreenYellow; font-size: 70px;'>正确! </span>","null","","","","","","","","","","","","","","","","","","","","","","","feedback_test"
"","","","","","psychophysics","168","527008","0.0-10.0-0.0-0.0-0.0-0.14","1166","","j","","","","","","","","","","","","","key","j","14.589061224490221","800","496","f","false","img/H_ambi40.png","生人","same",""
"","","","","","html-keyboard-response","169","527524","0.0-10.0-0.0-0.0-0.0-1.14","null","<span style='color:red; font-size: 70px;'>错误! </span>","null","","","","","","","","","","","","","","","","","","","","","","","feedback_test"
"","","","","","psychophysics","170","529506","0.0-10.0-0.0-0.0-0.0-0.15","978","","j","","","","","","","","","","","","","key","j","15.044023076923063","800","496","j","true","img/C_ambi40.png","生人","same",""
"","","","","","html-keyboard-response","171","530012","0.0-10.0-0.0-0.0-0.0-1.15","null","<span style='color:GreenYellow; font-size: 70px;'>正确! </span>","null","","","","","","","","","","","","","","","","","","","","","","","feedback_test"
"","","","","","psychophysics","172","532406","0.0-10.0-0.0-0.0-0.0-0.16","1391","","j","","","","","","","","","","","","","key","j","15.570592105263035","800","496","j","true","img/C_ambi40.png","朋友","same",""
"","","","","","html-keyboard-response","173","532911","0.0-10.0-0.0-0.0-0.0-1.16","null","<span style='color:GreenYellow; font-size: 70px;'>正确! </span>","null","","","","","","","","","","","","","","","","","","","","","","","feedback_test"
"","","","","","psychophysics","174","534720","0.0-10.0-0.0-0.0-0.0-0.17","803","","f","","","","","","","","","","","","","key","f","15.065898305084358","800","496","f","true","img/C_ambi40.png","自我","same",""
"","","","","","html-keyboard-response","175","535228","0.0-10.0-0.0-0.0-0.0-1.17","null","<span style='color:GreenYellow; font-size: 70px;'>正确! </span>","null","","","","","","","","","","","","","","","","","","","","","","","feedback_test"
"","","","","","psychophysics","176","537225","0.0-10.0-0.0-0.0-0.0-0.18","993","","j","","","","","","","","","","","","","key","j","15.418658914728553","800","496","j","true","img/S_ambi40.png","自我","same",""
"","","","","","html-keyboard-response","177","537730","0.0-10.0-0.0-0.0-0.0-1.18","null","<span style='color:GreenYellow; font-size: 70px;'>正确! </span>","null","","","","","","","","","","","","","","","","","","","","","","","feedback_test"
"","","","","","psychophysics","178","539953","0.0-10.0-0.0-0.0-0.0-0.19","1211","","f","","","","","","","","","","","","","key","f","15.069534246575355","800","496","f","true","img/T_ambi40.png","をる","same",""
"","","","","","html-keyboard-response","179","540467","0.0-10.0-0.0-0.0-0.0-1.19","null","<span style='color:GreenYellow; font-size: 70px;'>正确! </span>","null","","","","","","","","","","","","","","","","","","","","","","","feedback_test"
"","","","","","psychophysics","180","542697","0.0-10.0-0.0-0.0-0.0-0.20","1226","","j","","","","","","","","","","","","","key","j","15.04287074829949","800","496","j","true","img/H_ambi40.png","自我","same",""
"","","","","","html-keyboard-response","181","543210","0.0-10.0-0.0-0.0-0.0-1.20","null","<span style='color:GreenYellow; font-size: 70px;'>正确! </span>","null","","","","","","","","","","","","","","","","","","","","","","","feedback_test"
"","","","","","psychophysics","182","545429","0.0-10.0-0.0-0.0-0.0-0.21","1211","","j","","","","","","","","","","","","","key","j","15.49283098591521","800","496","j","true","img/H_ambi40.png","朋友","same",""
"","","","","","html-keyboard-response","183","545941","0.0-10.0-0.0-0.0-0.0-1.21","null","<span style='color:GreenYellow; font-size: 70px;'>正确! </span>","null","","","","","","","","","","","","","","","","","","","","","","","feedback_test"
"","","","","","psychophysics","184","547611","0.0-10.0-0.0-0.0-0.0-0.22","661","","f","","","","","","","","","","","","","key","f","15.088770642201629","800","496","f","true","img/T_ambi40.png","をる","same",""
"","","","","","html-keyboard-response","185","548115","0.0-10.0-0.0-0.0-0.0-1.22","null","<span style='color:GreenYellow; font-size: 70px;'>正确! </span>","null","","","","","","","","","","","","","","","","","","","","","","","feedback_test"
"","","","","","psychophysics","186","550104","0.0-10.0-0.0-0.0-0.0-0.23","987","","f","","","","","","","","","","","","","key","f","15.33254263565926","800","496","f","true","img/C_ambi40.png","自我","same",""
"","","","","","html-keyboard-response","187","550831","0.0-10.0-0.0-0.0-0.0-1.23","null","<span style='color:GreenYellow; font-size: 70px;'>正确! </span>","null","","","","","","","","","","","","","","","","","","","","","","","feedback_test"
"","","","","","psychophysics","188","553318","0.0-10.0-0.0-0.0-0.0-0.24","624","","f","","","","","","","","","","","","","key","f","15.064711656442135","800","496","f","true","img/S_ambi40.png","朋友","same",""
"","","","","","html-keyboard-response","189","553836","0.0-10.0-0.0-0.0-0.0-1.24","null","<span style='color:GreenYellow; font-size: 70px;'>正确! </span>","null","","","","","","","","","","","","","","","","","","","","","","","feedback_test"
"","","","","","psychophysics","190","555757","0.0-10.0-0.0-0.0-0.0-0.25","917","","j","","","","","","","","","","","","","key","j","15.232975806451343","800","496","j","true","img/S_ambi40.png","生人","same",""
"","","","","","html-keyboard-response","191","556266","0.0-10.0-0.0-0.0-0.0-1.25","null","<span style='color:GreenYellow; font-size: 70px;'>正确! </span>","null","","","","","","","","","","","","","","","","","","","","","","","feedback_test"
"","","","","","psychophysics","192","558406","0.0-10.0-0.0-0.0-0.0-0.26","1136","","f","","","","","","","","","","","","","key","f","14.361911564625856","800","496","f","true","img/S_ambi40.png","朋友","same",""
"","","","","","html-keyboard-response","193","558914","0.0-10.0-0.0-0.0-0.0-1.26","null","<span style='color:GreenYellow; font-size: 70px;'>正确! </span>","null","","","","","","","","","","","","","","","","","","","","","","","feedback_test"
"","","","","","psychophysics","194","561011","0.0-10.0-0.0-0.0-0.0-0.27","1080","","j","","","","","","","","","","","","","key","j","14.842471428571402","800","496","f","false","img/H_ambi40.png","生人","same",""
"","","","","","html-keyboard-response","195","561515","0.0-10.0-0.0-0.0-0.0-1.27","null","<span style='color:red; font-size: 70px;'>错误! </span>","null","","","","","","","","","","","","","","","","","","","","","","","feedback_test"
"","","","","","psychophysics","196","563694","0.0-10.0-0.0-0.0-0.0-0.28","1174","","j","","","","","","","","","","","","","key","j","14.86164137931091","800","496","j","true","img/C_ambi40.png","朋友","same",""
"","","","","","html-keyboard-response","197","564212","0.0-10.0-0.0-0.0-0.0-1.28","null","<span style='color:GreenYellow; font-size: 70px;'>正确! </span>","null","","","","","","","","","","","","","","","","","","","","","","","feedback_test"
"","","","","","psychophysics","198","565834","0.0-10.0-0.0-0.0-0.0-0.29","614","","f","","","","","","","","","","","","","key","f","14.679229357797832","800","496","f","true","img/C_ambi40.png","自我","same",""
"","","","","","html-keyboard-response","199","566342","0.0-10.0-0.0-0.0-0.0-1.29","null","<span style='color:GreenYellow; font-size: 70px;'>正确! </span>","null","","","","","","","","","","","","","","","","","","","","","","","feedback_test"
"","","","","","psychophysics","200","568361","0.0-10.0-0.0-0.0-0.0-0.30","1015","","j","","","","","","","","","","","","","key","j","14.926134328357875","800","496","j","true","img/C_ambi40.png","生人","same",""
"","","","","","html-keyboard-response","201","569830","0.0-10.0-0.0-0.0-0.0-1.30","null","<span style='color:GreenYellow; font-size: 70px;'>正确! </span>","null","","","","","","","","","","","","","","","","","","","","","","","feedback_test"
"","","","","","psychophysics","202","572057","0.0-10.0-0.0-0.0-0.0-0.31","232","","j","","","","","","","","","","","","","key","j","15.246882758620355","800","496","j","true","img/H_ambi40.png","自我","same",""
"","","","","","html-keyboard-response","203","572575","0.0-10.0-0.0-0.0-0.0-1.31","null","<span style='color:GreenYellow; font-size: 70px;'>正确! </span>","null","","","","","","","","","","","","","","","","","","","","","","","feedback_test"
"","","","","","psychophysics","204","575090","0.0-10.0-0.0-0.0-0.0-0.32","null","","null","","","","","","","","","","","","","key","null","15.269938650306749","800","496","f","false","img/H_ambi40.png","生人","same",""
"","","","","","html-keyboard-response","205","575598","0.0-10.0-0.0-0.0-0.0-1.32","null","<span class='add_' style='color:yellow; font-size: 70px;'> 太慢! </span>","null","","","","","","","","","","","","","","","","","","","","","","","feedback_test"
"","","","","","psychophysics","206","577385","0.0-10.0-0.0-0.0-0.0-0.33","782","","f","","","","","","","","","","","","","key","f","14.975559322033236","800","496","f","true","img/T_ambi40.png","をる","same",""
"","","","","","html-keyboard-response","207","577891","0.0-10.0-0.0-0.0-0.0-1.33","null","<span style='color:GreenYellow; font-size: 70px;'>正确! </span>","null","","","","","","","","","","","","","","","","","","","","","","","feedback_test"
"","","","","","psychophysics","208","579899","0.0-10.0-0.0-0.0-0.0-0.34","1004","","j","","","","","","","","","","","","","key","j","15.12990769230707","800","496","j","true","img/C_ambi40.png","朋友","same",""
"","","","","","html-keyboard-response","209","580412","0.0-10.0-0.0-0.0-0.0-1.34","null","<span style='color:GreenYellow; font-size: 70px;'>正确! </span>","null","","","","","","","","","","","","","","","","","","","","","","","feedback_test"
"","","","","","psychophysics","210","582325","0.0-10.0-0.0-0.0-0.0-0.35","909","","j","","","","","","","","","","","","","key","j","15.35788617886194","800","496","j","true","img/S_ambi40.png","生人","same",""
"","","","","","html-keyboard-response","211","582842","0.0-10.0-0.0-0.0-0.0-1.35","null","<span style='color:GreenYellow; font-size: 70px;'>正确! </span>","null","","","","","","","","","","","","","","","","","","","","","","","feedback_test"
"","","","","","psychophysics","212","584717","0.0-10.0-0.0-0.0-0.0-0.36","865","","j","","","","","","","","","","","","","key","j","14.90594308943075","800","496","j","true","img/C_ambi40.png","朋友","same",""
"","","","","","html-keyboard-response","213","585227","0.0-10.0-0.0-0.0-0.0-1.36","null","<span style='color:GreenYellow; font-size: 70px;'>正确! </span>","null","","","","","","","","","","","","","","","","","","","","","","","feedback_test"
"","","","","","psychophysics","214","587105","0.0-10.0-0.0-0.0-0.0-0.37","873","","f","","","","","","","","","","","","","key","f","15.293303278688967","800","496","f","true","img/T_ambi40.png","をる","same",""
"","","","","","html-keyboard-response","215","587832","0.0-10.0-0.0-0.0-0.0-1.37","null","<span style='color:GreenYellow; font-size: 70px;'>正确! </span>","null","","","","","","","","","","","","","","","","","","","","","","","feedback_test"
"","","","","","psychophysics","216","590083","0.0-10.0-0.0-0.0-0.0-0.38","258","","j","","","","","","","","","","","","","key","j","15.433333333333495","800","496","f","false","img/T_ambi40.png","をる","same",""
"","","","","","html-keyboard-response","217","590588","0.0-10.0-0.0-0.0-0.0-1.38","null","<span style='color:red; font-size: 70px;'>错误! </span>","null","","","","","","","","","","","","","","","","","","","","","","","feedback_test"
"","","","","","psychophysics","218","592425","0.0-10.0-0.0-0.0-0.0-0.39","832","","j","","","","","","","","","","","","","key","j","14.844999999999732","800","496","j","true","img/S_ambi40.png","生人","same",""
"","","","","","html-keyboard-response","219","592941","0.0-10.0-0.0-0.0-0.0-1.39","null","<span style='color:GreenYellow; font-size: 70px;'>正确! </span>","null","","","","","","","","","","","","","","","","","","","","","","","feedback_test"
"","","","","","psychophysics","220","594667","0.0-10.0-0.0-0.0-0.0-0.40","714","","f","","","","","","","","","","","","","key","f","14.912368421052713","800","496","j","false","img/H_ambi40.png","自我","same",""
"","","","","","html-keyboard-response","221","595827","0.0-10.0-0.0-0.0-0.0-1.40","null","<span style='color:red; font-size: 70px;'>错误! </span>","null","","","","","","","","","","","","","","","","","","","","","","","feedback_test"
"","","","","","psychophysics","222","598145","0.0-10.0-0.0-0.0-0.0-0.41","322","","j","","","","","","","","","","","","","key","j","14.863064935065008","800","496","j","true","img/H_ambi40.png","朋友","same",""
"","","","","","html-keyboard-response","223","598660","0.0-10.0-0.0-0.0-0.0-1.41","null","<span style='color:GreenYellow; font-size: 70px;'>正确! </span>","null","","","","","","","","","","","","","","","","","","","","","","","feedback_test"
"","","","","","psychophysics","224","600352","0.0-10.0-0.0-0.0-0.0-0.42","688","","j","","","","","","","","","","","","","key","j","15.247009090908845","800","496","j","true","img/C_ambi40.png","朋友","same",""
"","","","","","html-keyboard-response","225","600860","0.0-10.0-0.0-0.0-0.0-1.42","null","<span style='color:GreenYellow; font-size: 70px;'>正确! </span>","null","","","","","","","","","","","","","","","","","","","","","","","feedback_test"
"","","","","","psychophysics","226","602725","0.0-10.0-0.0-0.0-0.0-0.43","860","","f","","","","","","","","","","","","","key","f","15.372583333333022","800","496","f","true","img/H_ambi40.png","生人","same",""
"","","","","","html-keyboard-response","227","603828","0.0-10.0-0.0-0.0-0.0-1.43","null","<span style='color:GreenYellow; font-size: 70px;'>正确! </span>","null","","","","","","","","","","","","","","","","","","","","","","","feedback_test"
"","","","","","psychophysics","228","605986","0.0-10.0-0.0-0.0-0.0-0.44","429","","f","","","","","","","","","","","","","key","f","15.348601449275073","800","496","f","true","img/T_ambi40.png","をる","same",""
"","","","","","html-keyboard-response","229","606497","0.0-10.0-0.0-0.0-0.0-1.44","null","<span style='color:GreenYellow; font-size: 70px;'>正确! </span>","null","","","","","","","","","","","","","","","","","","","","","","","feedback_test"
"","","","","","psychophysics","230","608287","0.0-10.0-0.0-0.0-0.0-0.45","783","","j","","","","","","","","","","","","","key","j","14.973491525423508","800","496","j","true","img/H_ambi40.png","自我","same",""
"","","","","","html-keyboard-response","231","608800","0.0-10.0-0.0-0.0-0.0-1.45","null","<span style='color:GreenYellow; font-size: 70px;'>正确! </span>","null","","","","","","","","","","","","","","","","","","","","","","","feedback_test"
"","","","","","psychophysics","232","610998","0.0-10.0-0.0-0.0-0.0-0.46","1190","","f","","","","","","","","","","","","","key","f","15.229909090908942","800","496","f","true","img/S_ambi40.png","朋友","same",""
"","","","","","html-keyboard-response","233","611505","0.0-10.0-0.0-0.0-0.0-1.46","null","<span style='color:GreenYellow; font-size: 70px;'>正确! </span>","null","","","","","","","","","","","","","","","","","","","","","","","feedback_test"
"","","","","","psychophysics","234","613364","0.0-10.0-0.0-0.0-0.0-0.47","856","","j","","","","","","","","","","","","","key","j","14.99574796747931","800","496","j","true","img/C_ambi40.png","生人","same",""
"","","","","","html-keyboard-response","235","613880","0.0-10.0-0.0-0.0-0.0-1.47","null","<span style='color:GreenYellow; font-size: 70px;'>正确! </span>","null","","","","","","","","","","","","","","","","","","","","","","","feedback_test"
"","","","","","psychophysics","236","615871","0.0-10.0-0.0-0.0-0.0-0.48","980","","j","","","","","","","","","","","","","key","j","15.091618320611412","800","496","j","true","img/S_ambi40.png","生人","same",""
"","","","","","html-keyboard-response","237","616388","0.0-10.0-0.0-0.0-0.0-1.48","null","<span style='color:GreenYellow; font-size: 70px;'>正确! </span>","null","","","","","","","","","","","","","","","","","","","","","","","feedback_test"
"","","","","","psychophysics","238","617972","0.0-10.0-0.0-0.0-0.0-0.49","580","","f","","","","","","","","","","","","","key","f","14.781499999999244","800","496","f","true","img/H_ambi40.png","生人","same",""
"","","","","","html-keyboard-response","239","618487","0.0-10.0-0.0-0.0-0.0-1.49","null","<span style='color:GreenYellow; font-size: 70px;'>正确! </span>","null","","","","","","","","","","","","","","","","","","","","","","","feedback_test"
"","","","","","psychophysics","240","620226","0.0-10.0-0.0-0.0-0.0-0.50","723","","j","","","","","","","","","","","","","key","j","14.847706896551998","800","496","f","false","img/S_ambi40.png","朋友","same",""
"","","","","","html-keyboard-response","241","620731","0.0-10.0-0.0-0.0-0.0-1.50","null","<span style='color:red; font-size: 70px;'>错误! </span>","null","","","","","","","","","","","","","","","","","","","","","","","feedback_test"
"","","","","","psychophysics","242","622773","0.0-10.0-0.0-0.0-0.0-0.51","946","","f","","","","","","","","","","","","","key","f","15.152454545454185","800","496","f","true","img/C_ambi40.png","自我","same",""
"","","","","","html-keyboard-response","243","623283","0.0-10.0-0.0-0.0-0.0-1.51","null","<span style='color:GreenYellow; font-size: 70px;'>正确! </span>","null","","","","","","","","","","","","","","","","","","","","","","","feedback_test"
"","","","","","psychophysics","244","624893","0.0-10.0-0.0-0.0-0.0-0.52","606","","f","","","","","","","","","","","","","key","f","14.672366972477603","800","496","f","true","img/C_ambi40.png","自我","same",""
"","","","","","html-keyboard-response","245","625408","0.0-10.0-0.0-0.0-0.0-1.52","null","<span style='color:GreenYellow; font-size: 70px;'>正确! </span>","null","","","","","","","","","","","","","","","","","","","","","","","feedback_test"
"","","","","","psychophysics","246","627142","0.0-10.0-0.0-0.0-0.0-0.53","724","","j","","","","","","","","","","","","","key","j","15.010201754386479","800","496","j","true","img/S_ambi40.png","自我","same",""
"","","","","","html-keyboard-response","247","627650","0.0-10.0-0.0-0.0-0.0-1.53","null","<span style='color:GreenYellow; font-size: 70px;'>正确! </span>","null","","","","","","","","","","","","","","","","","","","","","","","feedback_test"
"","","","","","psychophysics","248","629425","0.0-10.0-0.0-0.0-0.0-0.54","600","","f","","","","","","","","","","","","","key","f","15.399517543860016","800","496","f","true","img/T_ambi40.png","をる","same",""
"","","","","","html-keyboard-response","249","629930","0.0-10.0-0.0-0.0-0.0-1.54","null","<span style='color:GreenYellow; font-size: 70px;'>正确! </span>","null","","","","","","","","","","","","","","","","","","","","","","","feedback_test"
"","","","","","psychophysics","250","631627","0.0-10.0-0.0-0.0-0.0-0.55","687","","j","","","","","","","","","","","","","key","j","15.330129629629448","800","496","j","true","img/H_ambi40.png","自我","same",""
"","","","","","html-keyboard-response","251","632137","0.0-10.0-0.0-0.0-0.0-1.55","null","<span style='color:GreenYellow; font-size: 70px;'>正确! </span>","null","","","","","","","","","","","","","","","","","","","","","","","feedback_test"
"","","","","","psychophysics","252","633816","0.0-10.0-0.0-0.0-0.0-0.56","676","","f","","","","","","","","","","","","","key","f","15.016999999999891","800","496","j","false","img/C_ambi40.png","朋友","same",""
"","","","","","html-keyboard-response","253","634324","0.0-10.0-0.0-0.0-0.0-1.56","null","<span style='color:red; font-size: 70px;'>错误! </span>","null","","","","","","","","","","","","","","","","","","","","","","","feedback_test"
"","","","","","psychophysics","254","635852","0.0-10.0-0.0-0.0-0.0-0.57","30","","j","","","","","","","","","","","","","key","j","14.816578431372239","800","496","f","false","img/T_ambi40.png","をる","same",""
"","","","","","html-keyboard-response","255","636359","0.0-10.0-0.0-0.0-0.0-1.57","null","<span style='color:yellow; font-size: 70px;'>过快! </span>","null","","","","","","","","","","","","","","","","","","","","","","","feedback_test"
"","","","","","psychophysics","256","638254","0.0-10.0-0.0-0.0-0.0-0.58","891","","j","","","","","","","","","","","","","key","j","14.814682539681801","800","496","j","true","img/S_ambi40.png","生人","same",""
"","","","","","html-keyboard-response","257","638757","0.0-10.0-0.0-0.0-0.0-1.58","null","<span style='color:GreenYellow; font-size: 70px;'>正确! </span>","null","","","","","","","","","","","","","","","","","","","","","","","feedback_test"
"","","","","","psychophysics","258","640632","0.0-10.0-0.0-0.0-0.0-0.59","868","","f","","","","","","","","","","","","","key","f","15.087601626016449","800","496","f","true","img/S_ambi40.png","朋友","same",""
"","","","","","html-keyboard-response","259","641834","0.0-10.0-0.0-0.0-0.0-1.59","null","<span style='color:GreenYellow; font-size: 70px;'>正确! </span>","null","","","","","","","","","","","","","","","","","","","","","","","feedback_test"
"","","","","","psychophysics","260","644150","0.0-10.0-0.0-0.0-0.0-0.60","460","","j","","","","","","","","","","","","","key","j","14.84025161290361","800","496","j","true","img/H_ambi40.png","自我","same",""
"","","","","","html-keyboard-response","261","644668","0.0-10.0-0.0-0.0-0.0-1.60","null","<span style='color:GreenYellow; font-size: 70px;'>正确! </span>","null","","","","","","","","","","","","","","","","","","","","","","","feedback_test"
"","","","","","psychophysics","262","646505","0.0-10.0-0.0-0.0-0.0-0.61","835","","j","","","","","","","","","","","","","key","j","14.937631147541488","800","496","j","true","img/C_ambi40.png","生人","same",""
"","","","","","html-keyboard-response","263","647009","0.0-10.0-0.0-0.0-0.0-1.61","null","<span style='color:GreenYellow; font-size: 70px;'>正确! </span>","null","","","","","","","","","","","","","","","","","","","","","","","feedback_test"
"","","","","","psychophysics","264","648772","0.0-10.0-0.0-0.0-0.0-0.62","758","","f","","","","","","","","","","","","","key","f","14.815273504273401","800","496","f","true","img/S_ambi40.png","朋友","same",""
"","","","","","html-keyboard-response","265","649283","0.0-10.0-0.0-0.0-0.0-1.62","null","<span style='color:GreenYellow; font-size: 70px;'>正确! </span>","null","","","","","","","","","","","","","","","","","","","","","","","feedback_test"
"","","","","","psychophysics","266","651206","0.0-10.0-0.0-0.0-0.0-0.63","919","","j","","","","","","","","","","","","","key","j","15.080420634920879","800","496","f","false","img/C_ambi40.png","自我","same",""
"","","","","","html-keyboard-response","267","651713","0.0-10.0-0.0-0.0-0.0-1.63","null","<span style='color:red; font-size: 70px;'>错误! </span>","null","","","","","","","","","","","","","","","","","","","","","","","feedback_test"
"","","","","","psychophysics","268","653834","0.0-10.0-0.0-0.0-0.0-0.64","1117","","j","","","","","","","","","","","","","key","j","14.789591549295592","800","496","j","true","img/C_ambi40.png","朋友","same",""
"","","","","","html-keyboard-response","269","654338","0.0-10.0-0.0-0.0-0.0-1.64","null","<span style='color:GreenYellow; font-size: 70px;'>正确! </span>","null","","","","","","","","","","","","","","","","","","","","","","","feedback_test"
"","","","","","psychophysics","270","656106","0.0-10.0-0.0-0.0-0.0-0.65","764","","f","","","","","","","","","","","","","key","f","15.170434782608494","800","496","f","true","img/C_ambi40.png","自我","same",""
"","","","","","html-keyboard-response","271","656614","0.0-10.0-0.0-0.0-0.0-1.65","null","<span style='color:GreenYellow; font-size: 70px;'>正确! </span>","null","","","","","","","","","","","","","","","","","","","","","","","feedback_test"
"","","","","","psychophysics","272","658292","0.0-10.0-0.0-0.0-0.0-0.66","673","","f","","","","","","","","","","","","","key","f","14.750300884955621","800","496","f","true","img/H_ambi40.png","生人","same",""
"","","","","","html-keyboard-response","273","658808","0.0-10.0-0.0-0.0-0.0-1.66","null","<span style='color:GreenYellow; font-size: 70px;'>正确! </span>","null","","","","","","","","","","","","","","","","","","","","","","","feedback_test"
"","","","","","psychophysics","274","660596","0.0-10.0-0.0-0.0-0.0-0.67","768","","f","","","","","","","","","","","","","key","f","14.75263025210055","800","496","f","true","img/H_ambi40.png","生人","same",""
"","","","","","html-keyboard-response","275","661104","0.0-10.0-0.0-0.0-0.0-1.67","null","<span style='color:GreenYellow; font-size: 70px;'>正确! </span>","null","","","","","","","","","","","","","","","","","","","","","","","feedback_test"
"","","","","","psychophysics","276","662832","0.0-10.0-0.0-0.0-0.0-0.68","724","","j","","","","","","","","","","","","","key","j","15.009105263157387","800","496","j","true","img/H_ambi40.png","朋友","same",""
"","","","","","html-keyboard-response","277","663343","0.0-10.0-0.0-0.0-0.0-1.68","null","<span style='color:GreenYellow; font-size: 70px;'>正确! </span>","null","","","","","","","","","","","","","","","","","","","","","","","feedback_test"
"","","","","","psychophysics","278","665027","0.0-10.0-0.0-0.0-0.0-0.69","669","","f","","","","","","","","","","","","","key","f","15.329731481480714","800","496","j","false","img/S_ambi40.png","生人","same",""
"","","","","","html-keyboard-response","279","665540","0.0-10.0-0.0-0.0-0.0-1.69","null","<span style='color:red; font-size: 70px;'>错误! </span>","null","","","","","","","","","","","","","","","","","","","","","","","feedback_test"
"","","","","","psychophysics","280","667237","0.0-10.0-0.0-0.0-0.0-0.70","412","","f","","","","","","","","","","","","","key","f","14.784562499999343","800","496","f","true","img/T_ambi40.png","をる","same",""
"","","","","","html-keyboard-response","281","667752","0.0-10.0-0.0-0.0-0.0-1.70","null","<span style='color:GreenYellow; font-size: 70px;'>正确! </span>","null","","","","","","","","","","","","","","","","","","","","","","","feedback_test"
"","","","","","psychophysics","282","669940","0.0-10.0-0.0-0.0-0.0-0.71","1184","","j","","","","","","","","","","","","","key","j","14.862917241378655","800","496","j","true","img/S_ambi40.png","自我","same",""
"","","","","","html-keyboard-response","283","670452","0.0-10.0-0.0-0.0-0.0-1.71","null","<span style='color:GreenYellow; font-size: 70px;'>正确! </span>","null","","","","","","","","","","","","","","","","","","","","","","","feedback_test"
"","","","","","psychophysics","284","672353","0.0-10.0-0.0-0.0-0.0-0.72","894","","j","","","","","","","","","","","","","key","j","14.358199999999936","800","496","f","false","img/T_ambi40.png","をる","same",""
"","","","","","html-keyboard-response","285","672866","0.0-10.0-0.0-0.0-0.0-1.72","null","<span style='color:red; font-size: 70px;'>错误! </span>","null","","","","","","","","","","","","","","","","","","","","","","","feedback_test"
"","","","","","psychophysics","286","675196","0.0-10.0-0.0-0.0-0.0-0.73","1322","","j","","","","","","","","","","","","","key","j","15.10592810457551","800","496","j","true","img/C_ambi40.png","朋友","same",""
"","","","","","html-keyboard-response","287","675702","0.0-10.0-0.0-0.0-0.0-1.73","null","<span style='color:GreenYellow; font-size: 70px;'>正确! </span>","null","","","","","","","","","","","","","","","","","","","","","","","feedback_test"
"","","","","","psychophysics","288","677689","0.0-10.0-0.0-0.0-0.0-0.74","981","","f","","","","","","","","","","","","","key","f","14.779571428571135","800","496","f","true","img/C_ambi40.png","自我","same",""
"","","","","","html-keyboard-response","289","678197","0.0-10.0-0.0-0.0-0.0-1.74","null","<span style='color:GreenYellow; font-size: 70px;'>正确! </span>","null","","","","","","","","","","","","","","","","","","","","","","","feedback_test"
"","","","","","psychophysics","290","680131","0.0-10.0-0.0-0.0-0.0-0.75","929","","j","","","","","","","","","","","","","key","j","15.047732283463922","800","496","j","true","img/C_ambi40.png","朋友","same",""
"","","","","","html-keyboard-response","291","680638","0.0-10.0-0.0-0.0-0.0-1.75","null","<span style='color:GreenYellow; font-size: 70px;'>正确! </span>","null","","","","","","","","","","","","","","","","","","","","","","","feedback_test"
"","","","","","psychophysics","292","683020","0.0-10.0-0.0-0.0-0.0-0.76","1378","","f","","","","","","","","","","","","","key","f","14.975398734177292","800","496","f","true","img/S_ambi40.png","朋友","same",""
"","","","","","html-keyboard-response","293","683537","0.0-10.0-0.0-0.0-0.0-1.76","null","<span style='color:GreenYellow; font-size: 70px;'>正确! </span>","null","","","","","","","","","","","","","","","","","","","","","","","feedback_test"
"","","","","","psychophysics","294","685326","0.0-10.0-0.0-0.0-0.0-0.77","784","","f","","","","","","","","","","","","","key","f","14.455552845528894","800","496","f","true","img/T_ambi40.png","をる","same",""
"","","","","","html-keyboard-response","295","685838","0.0-10.0-0.0-0.0-0.0-1.77","null","<span style='color:GreenYellow; font-size: 70px;'>正确! </span>","null","","","","","","","","","","","","","","","","","","","","","","","feedback_test"
"","","","","","psychophysics","296","687692","0.0-10.0-0.0-0.0-0.0-0.78","841","","j","","","","","","","","","","","","","key","j","15.15210743801676","800","496","f","false","img/H_ambi40.png","生人","same",""
"","","","","","html-keyboard-response","297","688824","0.0-10.0-0.0-0.0-0.0-1.78","null","<span style='color:red; font-size: 70px;'>错误! </span>","null","","","","","","","","","","","","","","","","","","","","","","","feedback_test"
"","","","","","psychophysics","298","691338","0.0-10.0-0.0-0.0-0.0-0.79","null","","null","","","","","","","","","","","","","key","null","14.388352601156392","800","496","j","false","img/H_ambi40.png","朋友","same",""
"","","","","","html-keyboard-response","299","691848","0.0-10.0-0.0-0.0-0.0-1.79","null","<span class='add_' style='color:yellow; font-size: 70px;'> 太慢! </span>","null","","","","","","","","","","","","","","","","","","","","","","","feedback_test"
"","","","","","psychophysics","300","694194","0.0-10.0-0.0-0.0-0.0-0.80","1341","","f","","","","","","","","","","","","","key","f","15.146954545454129","800","496","j","false","img/S_ambi40.png","生人","same",""
"","","","","","html-keyboard-response","301","694708","0.0-10.0-0.0-0.0-0.0-1.80","null","<span style='color:red; font-size: 70px;'>错误! </span>","null","","","","","","","","","","","","","","","","","","","","","","","feedback_test"
"","","","","","psychophysics","302","696652","0.0-10.0-0.0-0.0-0.0-0.81","935","","f","","","","","","","","","","","","","key","f","14.902992248062276","800","496","f","true","img/H_ambi40.png","生人","same",""
"","","","","","html-keyboard-response","303","697166","0.0-10.0-0.0-0.0-0.0-1.81","null","<span style='color:GreenYellow; font-size: 70px;'>正确! </span>","null","","","","","","","","","","","","","","","","","","","","","","","feedback_test"
"","","","","","psychophysics","304","699051","0.0-10.0-0.0-0.0-0.0-0.82","878","","j","","","","","","","","","","","","","key","j","14.934311999999919","800","496","j","true","img/S_ambi40.png","生人","same",""
"","","","","","html-keyboard-response","305","699564","0.0-10.0-0.0-0.0-0.0-1.82","null","<span style='color:GreenYellow; font-size: 70px;'>正确! </span>","null","","","","","","","","","","","","","","","","","","","","","","","feedback_test"
"","","","","","psychophysics","306","701458","0.0-10.0-0.0-0.0-0.0-0.83","885","","f","","","","","","","","","","","","","key","f","14.118548872180394","800","496","f","true","img/T_ambi40.png","をる","same",""
"","","","","","html-keyboard-response","307","701963","0.0-10.0-0.0-0.0-0.0-1.83","null","<span style='color:GreenYellow; font-size: 70px;'>正确! </span>","null","","","","","","","","","","","","","","","","","","","","","","","feedback_test"
"","","","","","psychophysics","308","704230","0.0-10.0-0.0-0.0-0.0-0.84","1263","","j","","","","","","","","","","","","","key","j","14.962939999999945","800","496","j","true","img/S_ambi40.png","自我","same",""
"","","","","","html-keyboard-response","309","704735","0.0-10.0-0.0-0.0-0.0-1.84","null","<span style='color:GreenYellow; font-size: 70px;'>正确! </span>","null","","","","","","","","","","","","","","","","","","","","","","","feedback_test"
"","","","","","psychophysics","310","706540","0.0-10.0-0.0-0.0-0.0-0.85","798","","f","","","","","","","","","","","","","key","f","15.065796610169208","800","496","j","false","img/H_ambi40.png","自我","same",""
"","","","","","html-keyboard-response","311","707048","0.0-10.0-0.0-0.0-0.0-1.85","null","<span style='color:red; font-size: 70px;'>错误! </span>","null","","","","","","","","","","","","","","","","","","","","","","","feedback_test"
"","","","","","psychophysics","312","708805","0.0-10.0-0.0-0.0-0.0-0.86","751","","j","","","","","","","","","","","","","key","j","14.538850000000092","800","496","j","true","img/H_ambi40.png","自我","same",""
"","","","","","html-keyboard-response","313","709316","0.0-10.0-0.0-0.0-0.0-1.86","null","<span style='color:GreenYellow; font-size: 70px;'>正确! </span>","null","","","","","","","","","","","","","","","","","","","","","","","feedback_test"
"","","","","","psychophysics","314","711494","0.0-10.0-0.0-0.0-0.0-0.87","1175","","f","","","","","","","","","","","","","key","f","14.841075342465894","800","496","f","true","img/S_ambi40.png","朋友","same",""
"","","","","","html-keyboard-response","315","712833","0.0-10.0-0.0-0.0-0.0-1.87","null","<span style='color:GreenYellow; font-size: 70px;'>正确! </span>","null","","","","","","","","","","","","","","","","","","","","","","","feedback_test"
"","","","","","psychophysics","316","715223","0.0-10.0-0.0-0.0-0.0-0.88","613","","f","","","","","","","","","","","","","key","f","15.468483660130433","800","496","f","true","img/C_ambi40.png","自我","same",""
"","","","","","html-keyboard-response","317","715727","0.0-10.0-0.0-0.0-0.0-1.88","null","<span style='color:GreenYellow; font-size: 70px;'>正确! </span>","null","","","","","","","","","","","","","","","","","","","","","","","feedback_test"
"","","","","","psychophysics","318","717529","0.0-10.0-0.0-0.0-0.0-0.89","798","","j","","","","","","","","","","","","","key","j","15.325448275861884","800","496","j","true","img/C_ambi40.png","生人","same",""
"","","","","","html-keyboard-response","319","718037","0.0-10.0-0.0-0.0-0.0-1.89","null","<span style='color:GreenYellow; font-size: 70px;'>正确! </span>","null","","","","","","","","","","","","","","","","","","","","","","","feedback_test"
"","","","","","psychophysics","320","719715","0.0-10.0-0.0-0.0-0.0-0.90","673","","j","","","","","","","","","","","","","key","j","15.016297297297372","800","496","f","false","img/T_ambi40.png","をる","same",""
"","","","","","html-keyboard-response","321","720222","0.0-10.0-0.0-0.0-0.0-1.90","null","<span style='color:red; font-size: 70px;'>错误! </span>","null","","","","","","","","","","","","","","","","","","","","","","","feedback_test"
"","","","","","psychophysics","322","722694","0.0-10.0-0.0-0.0-0.0-0.91","1467","","j","","","","","","","","","","","","","key","j","14.975042682926869","800","496","f","false","img/T_ambi40.png","をる","same",""
"","","","","","html-keyboard-response","323","723207","0.0-10.0-0.0-0.0-0.0-1.91","null","<span style='color:red; font-size: 70px;'>错误! </span>","null","","","","","","","","","","","","","","","","","","","","","","","feedback_test"
"","","","","","psychophysics","324","725061","0.0-10.0-0.0-0.0-0.0-0.92","843","","j","","","","","","","","","","","","","key","j","14.5524285714288","800","496","j","true","img/C_ambi40.png","朋友","same",""
"","","","","","html-keyboard-response","325","725564","0.0-10.0-0.0-0.0-0.0-1.92","null","<span style='color:GreenYellow; font-size: 70px;'>正确! </span>","null","","","","","","","","","","","","","","","","","","","","","","","feedback_test"
"","","","","","psychophysics","326","728077","0.0-10.0-0.0-0.0-0.0-0.93","null","","null","","","","","","","","","","","","","key","null","14.902173652694962","800","496","j","false","img/S_ambi40.png","生人","same",""
"","","","","","html-keyboard-response","327","728582","0.0-10.0-0.0-0.0-0.0-1.93","null","<span class='add_' style='color:yellow; font-size: 70px;'> 太慢! </span>","null","","","","","","","","","","","","","","","","","","","","","","","feedback_test"
"","","","","","psychophysics","328","730866","0.0-10.0-0.0-0.0-0.0-0.94","1283","","f","","","","","","","","","","","","","key","f","14.737973856208603","800","496","j","false","img/C_ambi40.png","生人","same",""
"","","","","","html-keyboard-response","329","731379","0.0-10.0-0.0-0.0-0.0-1.94","null","<span style='color:red; font-size: 70px;'>错误! </span>","null","","","","","","","","","","","","","","","","","","","","","","","feedback_test"
"","","","","","psychophysics","330","733487","0.0-10.0-0.0-0.0-0.0-0.95","1100","","j","","","","","","","","","","","","","key","j","15.057318840579104","800","496","j","true","img/H_ambi40.png","自我","same",""
"","","","","","html-keyboard-response","331","733992","0.0-10.0-0.0-0.0-0.0-1.95","null","<span style='color:GreenYellow; font-size: 70px;'>正确! </span>","null","","","","","","","","","","","","","","","","","","","","","","","feedback_test"
"","","","","","psychophysics","332","735725","0.0-10.0-0.0-0.0-0.0-0.96","731","","f","","","","","","","","","","","","","key","f","15.316054054053483","800","496","f","true","img/T_ambi40.png","をる","same",""
"","","","","","html-keyboard-response","333","736243","0.0-10.0-0.0-0.0-0.0-1.96","null","<span style='color:GreenYellow; font-size: 70px;'>正确! </span>","null","","","","","","","","","","","","","","","","","","","","","","","feedback_test"
"","","","","","psychophysics","334","738140","0.0-10.0-0.0-0.0-0.0-0.97","885","","j","","","","","","","","","","","","","key","j","14.787425196850599","800","496","f","false","img/S_ambi40.png","朋友","same",""
"","","","","","html-keyboard-response","335","738651","0.0-10.0-0.0-0.0-0.0-1.97","null","<span style='color:red; font-size: 70px;'>错误! </span>","null","","","","","","","","","","","","","","","","","","","","","","","feedback_test"
"","","","","","psychophysics","336","740416","0.0-10.0-0.0-0.0-0.0-0.98","757","","j","","","","","","","","","","","","","key","j","14.209491803278368","800","496","j","true","img/H_ambi40.png","朋友","same",""
"","","","","","html-keyboard-response","337","740924","0.0-10.0-0.0-0.0-0.0-1.98","null","<span style='color:GreenYellow; font-size: 70px;'>正确! </span>","null","","","","","","","","","","","","","","","","","","","","","","","feedback_test"
"","","","","","psychophysics","338","743048","0.0-10.0-0.0-0.0-0.0-0.99","221","","j","","","","","","","","","","","","","key","j","14.893624113475514","800","496","f","false","img/H_ambi40.png","生人","same",""
"","","","","","html-keyboard-response","339","743559","0.0-10.0-0.0-0.0-0.0-1.99","null","<span style='color:red; font-size: 70px;'>错误! </span>","null","","","","","","","","","","","","","","","","","","","","","","","feedback_test"
"","","","","","psychophysics","340","745301","0.0-10.0-0.0-0.0-0.0-0.100","737","","f","","","","","","","","","","","","","key","f","14.233925619835134","800","496","f","true","img/C_ambi40.png","自我","same",""
"","","","","","html-keyboard-response","341","745805","0.0-10.0-0.0-0.0-0.0-1.100","null","<span style='color:GreenYellow; font-size: 70px;'>正确! </span>","null","","","","","","","","","","","","","","","","","","","","","","","feedback_test"
"","","","","","psychophysics","342","747587","0.0-10.0-0.0-0.0-0.0-0.101","778","","j","","","","","","","","","","","","","key","j","14.602181818181348","800","496","j","true","img/S_ambi40.png","自我","same",""
"","","","","","html-keyboard-response","343","748828","0.0-10.0-0.0-0.0-0.0-1.101","null","<span style='color:GreenYellow; font-size: 70px;'>正确! </span>","null","","","","","","","","","","","","","","","","","","","","","","","feedback_test"
"","","","","","psychophysics","344","750856","0.0-10.0-0.0-0.0-0.0-0.102","477","","f","","","","","","","","","","","","","key","f","15.160473282442727","800","496","f","true","img/H_ambi40.png","生人","same",""
"","","","","","html-keyboard-response","345","751363","0.0-10.0-0.0-0.0-0.0-1.102","null","<span style='color:GreenYellow; font-size: 70px;'>正确! </span>","null","","","","","","","","","","","","","","","","","","","","","","","feedback_test"
"","","","","","psychophysics","346","753256","0.0-10.0-0.0-0.0-0.0-0.103","885","","j","","","","","","","","","","","","","key","j","14.36033076923072","800","496","j","true","img/C_ambi40.png","朋友","same",""
"","","","","","html-keyboard-response","347","753760","0.0-10.0-0.0-0.0-0.0-1.103","null","<span style='color:GreenYellow; font-size: 70px;'>正确! </span>","null","","","","","","","","","","","","","","","","","","","","","","","feedback_test"
"","","","","","psychophysics","348","755951","0.0-10.0-0.0-0.0-0.0-0.104","1187","","j","","","","","","","","","","","","","key","j","15.014544827585784","800","496","j","true","img/S_ambi40.png","生人","same",""
"","","","","","html-keyboard-response","349","756467","0.0-10.0-0.0-0.0-0.0-1.104","null","<span style='color:GreenYellow; font-size: 70px;'>正确! </span>","null","","","","","","","","","","","","","","","","","","","","","","","feedback_test"
"","","","","","psychophysics","350","758422","0.0-10.0-0.0-0.0-0.0-0.105","951","","f","","","","","","","","","","","","","key","f","14.784938461538584","800","496","f","true","img/S_ambi40.png","朋友","same",""
"","","","","","html-keyboard-response","351","758928","0.0-10.0-0.0-0.0-0.0-1.105","null","<span style='color:GreenYellow; font-size: 70px;'>正确! </span>","null","","","","","","","","","","","","","","","","","","","","","","","feedback_test"
"","","","","","psychophysics","352","760691","0.0-10.0-0.0-0.0-0.0-0.106","756","","j","","","","","","","","","","","","","key","j","15.294333333333366","800","496","j","true","img/H_ambi40.png","自我","same",""
"","","","","","html-keyboard-response","353","761826","0.0-10.0-0.0-0.0-0.0-1.106","null","<span style='color:GreenYellow; font-size: 70px;'>正确! </span>","null","","","","","","","","","","","","","","","","","","","","","","","feedback_test"
"","","","","","psychophysics","354","764144","0.0-10.0-0.0-0.0-0.0-0.107","540","","f","","","","","","","","","","","","","key","f","14.651050955413805","800","496","f","true","img/C_ambi40.png","自我","same",""
"","","","","","html-keyboard-response","355","764651","0.0-10.0-0.0-0.0-0.0-1.107","null","<span style='color:GreenYellow; font-size: 70px;'>正确! </span>","null","","","","","","","","","","","","","","","","","","","","","","","feedback_test"
"","","","","","html-keyboard-response","356","767975","0.0-10.0-0.0-0.0-1.0","3321","<style>.context{color:white; font-size: 35px; line-height:40px}</style>                          <div><p class='context'>您正确回答了78% 的试次。</p><p class='context'>您的平均反应时为846毫秒。</p><p class='context'>请按任意键进入休息</p></div>"," ","","","","","","","","","","","","","","","","","","","","","","",""
"","","","","","html-button-response","357","831441","0.0-10.0-0.0-0.0-2.0","63459","
                    <p>您当前还剩余5组实验</p>
                    <p>现在是休息时间，当您结束休息后，您可以点击 结束休息 按钮 继续</p>
                    <p>建议休息时间还剩余<span id=""iii"">60</span>秒</p>","0","","","","","","","","","","","","","","","","","","","","","","",""
"","","","","","psychophysics","358","833182","0.0-10.0-0.0-0.0-0.1-0.108","735","","f","","","","","","","","","","","","","key","f","15.505936936936802","800","496","f","true","img/T_ambi40.png","をる","same",""
"","","","","","html-keyboard-response","359","833692","0.0-10.0-0.0-0.0-0.1-1.108","null","<span style='color:GreenYellow; font-size: 70px;'>正确! </span>","null","","","","","","","","","","","","","","","","","","","","","","","feedback_test"
"","","","","","psychophysics","360","835645","0.0-10.0-0.0-0.0-0.1-0.109","818","","j","","","","","","","","","","","","","key","j","14.640984848484743","800","496","j","true","img/C_ambi40.png","朋友","same",""
"","","","","","html-keyboard-response","361","836160","0.0-10.0-0.0-0.0-0.1-1.109","null","<span style='color:GreenYellow; font-size: 70px;'>正确! </span>","null","","","","","","","","","","","","","","","","","","","","","","","feedback_test"
"","","","","","psychophysics","362","837740","0.0-10.0-0.0-0.0-0.1-0.110","578","","f","","","","","","","","","","","","","key","f","14.36502752293525","800","496","f","true","img/C_ambi40.png","自我","same",""
"","","","","","html-keyboard-response","363","838257","0.0-10.0-0.0-0.0-0.1-1.110","null","<span style='color:GreenYellow; font-size: 70px;'>正确! </span>","null","","","","","","","","","","","","","","","","","","","","","","","feedback_test"
"","","","","","psychophysics","364","839909","0.0-10.0-0.0-0.0-0.1-0.111","648","","j","","","","","","","","","","","","","key","j","14.608837837837887","800","496","j","true","img/S_ambi40.png","自我","same",""
"","","","","","html-keyboard-response","365","840416","0.0-10.0-0.0-0.0-0.1-1.111","null","<span style='color:GreenYellow; font-size: 70px;'>正确! </span>","null","","","","","","","","","","","","","","","","","","","","","","","feedback_test"
"","","","","","psychophysics","366","842023","0.0-10.0-0.0-0.0-0.1-0.112","192","","f","","","","","","","","","","","","","key","f","14.712861111110586","800","496","f","true","img/T_ambi40.png","をる","same",""
"","","","","","html-keyboard-response","367","842528","0.0-10.0-0.0-0.0-0.1-1.112","null","<span style='color:yellow; font-size: 70px;'>过快! </span>","null","","","","","","","","","","","","","","","","","","","","","","","feedback_test"
"","","","","","psychophysics","368","844358","0.0-10.0-0.0-0.0-0.1-0.113","821","","j","","","","","","","","","","","","","key","j","14.725121951219059","800","496","j","true","img/H_ambi40.png","自我","same",""
"","","","","","html-keyboard-response","369","844867","0.0-10.0-0.0-0.0-0.1-1.113","null","<span style='color:GreenYellow; font-size: 70px;'>正确! </span>","null","","","","","","","","","","","","","","","","","","","","","","","feedback_test"
"","","","","","psychophysics","370","846920","0.0-10.0-0.0-0.0-0.1-0.114","1051","","j","","","","","","","","","","","","","key","j","14.420921985815438","800","496","j","true","img/S_ambi40.png","生人","same",""
"","","","","","html-keyboard-response","371","847435","0.0-10.0-0.0-0.0-0.1-1.114","null","<span style='color:GreenYellow; font-size: 70px;'>正确! </span>","null","","","","","","","","","","","","","","","","","","","","","","","feedback_test"
"","","","","","psychophysics","372","849173","0.0-10.0-0.0-0.0-0.1-0.115","735","","j","","","","","","","","","","","","","key","j","14.625914529915182","800","496","j","true","img/C_ambi40.png","生人","same",""
"","","","","","html-keyboard-response","373","849678","0.0-10.0-0.0-0.0-0.1-1.115","null","<span style='color:GreenYellow; font-size: 70px;'>正确! </span>","null","","","","","","","","","","","","","","","","","","","","","","","feedback_test"
"","","","","","psychophysics","374","851369","0.0-10.0-0.0-0.0-0.1-0.116","686","","f","","","","","","","","","","","","","key","f","14.487017391305214","800","496","j","false","img/H_ambi40.png","朋友","same",""
"","","","","","html-keyboard-response","375","851877","0.0-10.0-0.0-0.0-0.1-1.116","null","<span style='color:red; font-size: 70px;'>错误! </span>","null","","","","","","","","","","","","","","","","","","","","","","","feedback_test"
"","","","","","psychophysics","376","854162","0.0-10.0-0.0-0.0-0.1-0.117","515","","j","","","","","","","","","","","","","key","j","14.91305263157885","800","496","j","true","img/C_ambi40.png","朋友","same",""
"","","","","","html-keyboard-response","377","854670","0.0-10.0-0.0-0.0-0.1-1.117","null","<span style='color:GreenYellow; font-size: 70px;'>正确! </span>","null","","","","","","","","","","","","","","","","","","","","","","","feedback_test"
"","","","","","psychophysics","378","856352","0.0-10.0-0.0-0.0-0.1-0.118","677","","f","","","","","","","","","","","","","key","f","14.749982300885145","800","496","f","true","img/H_ambi40.png","生人","same",""
"","","","","","html-keyboard-response","379","856861","0.0-10.0-0.0-0.0-0.1-1.118","null","<span style='color:GreenYellow; font-size: 70px;'>正确! </span>","null","","","","","","","","","","","","","","","","","","","","","","","feedback_test"
"","","","","","psychophysics","380","858488","0.0-10.0-0.0-0.0-0.1-0.119","622","","j","","","","","","","","","","","","","key","j","14.578504587156237","800","496","f","false","img/S_ambi40.png","朋友","same",""
"","","","","","html-keyboard-response","381","858996","0.0-10.0-0.0-0.0-0.1-1.119","null","<span style='color:red; font-size: 70px;'>错误! </span>","null","","","","","","","","","","","","","","","","","","","","","","","feedback_test"
"","","","","","psychophysics","382","860888","0.0-10.0-0.0-0.0-0.1-0.120","884","","j","","","","","","","","","","","","","key","j","14.699645669292108","800","496","j","true","img/S_ambi40.png","生人","same",""
"","","","","","html-keyboard-response","383","861401","0.0-10.0-0.0-0.0-0.1-1.120","null","<span style='color:GreenYellow; font-size: 70px;'>正确! </span>","null","","","","","","","","","","","","","","","","","","","","","","","feedback_test"
"","","","","","psychophysics","384","863570","0.0-10.0-0.0-0.0-0.1-0.121","1167","","f","","","","","","","","","","","","","key","f","14.586142857143257","800","496","f","true","img/C_ambi40.png","自我","same",""
"","","","","","html-keyboard-response","385","864082","0.0-10.0-0.0-0.0-0.1-1.121","null","<span style='color:GreenYellow; font-size: 70px;'>正确! </span>","null","","","","","","","","","","","","","","","","","","","","","","","feedback_test"
"","","","","","psychophysics","386","865835","0.0-10.0-0.0-0.0-0.1-0.122","744","","f","","","","","","","","","","","","","key","f","14.443074999999954","800","496","f","true","img/T_ambi40.png","をる","same",""
"","","","","","html-keyboard-response","387","866343","0.0-10.0-0.0-0.0-0.1-1.122","null","<span style='color:GreenYellow; font-size: 70px;'>正确! </span>","null","","","","","","","","","","","","","","","","","","","","","","","feedback_test"
"","","","","","psychophysics","388","868436","0.0-10.0-0.0-0.0-0.1-0.123","1083","","f","","","","","","","","","","","","","key","f","14.352034722222015","800","496","f","true","img/H_ambi40.png","生人","same",""
"","","","","","html-keyboard-response","389","869832","0.0-10.0-0.0-0.0-0.1-1.123","null","<span style='color:GreenYellow; font-size: 70px;'>正确! </span>","null","","","","","","","","","","","","","","","","","","","","","","","feedback_test"
"","","","","","psychophysics","390","872120","0.0-10.0-0.0-0.0-0.1-0.124","422","","j","","","","","","","","","","","","","key","j","14.438828025478129","800","496","j","true","img/H_ambi40.png","自我","same",""
"","","","","","html-keyboard-response","391","872636","0.0-10.0-0.0-0.0-0.1-1.124","null","<span style='color:GreenYellow; font-size: 70px;'>正确! </span>","null","","","","","","","","","","","","","","","","","","","","","","","feedback_test"
"","","","","","psychophysics","392","874629","0.0-10.0-0.0-0.0-0.1-0.125","986","","f","","","","","","","","","","","","","key","f","14.754485074627047","800","496","f","true","img/S_ambi40.png","朋友","same",""
"","","","","","html-keyboard-response","393","875146","0.0-10.0-0.0-0.0-0.1-1.125","null","<span style='color:GreenYellow; font-size: 70px;'>正确! </span>","null","","","","","","","","","","","","","","","","","","","","","","","feedback_test"
"","","","","","psychophysics","394","876948","0.0-10.0-0.0-0.0-0.1-0.126","795","","f","","","","","","","","","","","","","key","f","14.356382113820835","800","496","f","true","img/H_ambi40.png","生人","same",""
"","","","","","html-keyboard-response","395","877451","0.0-10.0-0.0-0.0-0.1-1.126","null","<span style='color:GreenYellow; font-size: 70px;'>正确! </span>","null","","","","","","","","","","","","","","","","","","","","","","","feedback_test"
"","","","","","psychophysics","396","879186","0.0-10.0-0.0-0.0-0.1-0.127","725","","j","","","","","","","","","","","","","key","j","14.713370689654578","800","496","j","true","img/S_ambi40.png","自我","same",""
"","","","","","html-keyboard-response","397","879702","0.0-10.0-0.0-0.0-0.1-1.127","null","<span style='color:GreenYellow; font-size: 70px;'>正确! </span>","null","","","","","","","","","","","","","","","","","","","","","","","feedback_test"
"","","","","","psychophysics","398","881395","0.0-10.0-0.0-0.0-0.1-0.128","685","","j","","","","","","","","","","","","","key","j","14.590817391304501","800","496","j","true","img/S_ambi40.png","生人","same",""
"","","","","","html-keyboard-response","399","881901","0.0-10.0-0.0-0.0-0.1-1.128","null","<span style='color:GreenYellow; font-size: 70px;'>正确! </span>","null","","","","","","","","","","","","","","","","","","","","","","","feedback_test"
"","","","","","psychophysics","400","884083","0.0-10.0-0.0-0.0-0.1-0.129","346","","f","","","","","","","","","","","","","key","f","14.5419395973159","800","496","f","true","img/S_ambi40.png","朋友","same",""
"","","","","","html-keyboard-response","401","884590","0.0-10.0-0.0-0.0-0.1-1.129","null","<span style='color:GreenYellow; font-size: 70px;'>正确! </span>","null","","","","","","","","","","","","","","","","","","","","","","","feedback_test"
"","","","","","psychophysics","402","886741","0.0-10.0-0.0-0.0-0.1-0.130","1140","","f","","","","","","","","","","","","","key","f","14.361197278911698","800","496","j","false","img/S_ambi40.png","生人","same",""
"","","","","","html-keyboard-response","403","887251","0.0-10.0-0.0-0.0-0.1-1.130","null","<span style='color:red; font-size: 70px;'>错误! </span>","null","","","","","","","","","","","","","","","","","","","","","","","feedback_test"
"","","","","","psychophysics","404","889129","0.0-10.0-0.0-0.0-0.1-0.131","872","","f","","","","","","","","","","","","","key","f","14.497210937500313","800","496","f","true","img/H_ambi40.png","生人","same",""
"","","","","","html-keyboard-response","405","889632","0.0-10.0-0.0-0.0-0.1-1.131","null","<span style='color:GreenYellow; font-size: 70px;'>正确! </span>","null","","","","","","","","","","","","","","","","","","","","","","","feedback_test"
"","","","","","psychophysics","406","891334","0.0-10.0-0.0-0.0-0.1-0.132","700","","j","","","","","","","","","","","","","key","j","14.847008849557003","800","496","j","true","img/C_ambi40.png","生人","same",""
"","","","","","html-keyboard-response","407","891846","0.0-10.0-0.0-0.0-0.1-1.132","null","<span style='color:GreenYellow; font-size: 70px;'>正确! </span>","null","","","","","","","","","","","","","","","","","","","","","","","feedback_test"
"","","","","","psychophysics","408","893627","0.0-10.0-0.0-0.0-0.1-0.133","778","","f","","","","","","","","","","","","","key","f","14.65899159663803","800","496","f","true","img/T_ambi40.png","をる","same",""
"","","","","","html-keyboard-response","409","894138","0.0-10.0-0.0-0.0-0.1-1.133","null","<span style='color:GreenYellow; font-size: 70px;'>正确! </span>","null","","","","","","","","","","","","","","","","","","","","","","","feedback_test"
"","","","","","psychophysics","410","896331","0.0-10.0-0.0-0.0-0.1-0.134","507","","j","","","","","","","","","","","","","key","j","14.918034246574916","800","496","f","false","img/T_ambi40.png","をる","same",""
"","","","","","html-keyboard-response","411","896835","0.0-10.0-0.0-0.0-0.1-1.134","null","<span style='color:red; font-size: 70px;'>错误! </span>","null","","","","","","","","","","","","","","","","","","","","","","","feedback_test"
"","","","","","psychophysics","412","899348","0.0-10.0-0.0-0.0-0.1-0.135","null","","null","","","","","","","","","","","","","key","null","14.556561403508892","800","496","j","false","img/H_ambi40.png","朋友","same",""
"","","","","","html-keyboard-response","413","899858","0.0-10.0-0.0-0.0-0.1-1.135","null","<span class='add_' style='color:yellow; font-size: 70px;'> 太慢! </span>","null","","","","","","","","","","","","","","","","","","","","","","","feedback_test"
"","","","","","psychophysics","414","901668","0.0-10.0-0.0-0.0-0.1-0.136","796","","j","","","","","","","","","","","","","key","j","14.785380165288917","800","496","j","true","img/H_ambi40.png","自我","same",""
"","","","","","html-keyboard-response","415","902182","0.0-10.0-0.0-0.0-0.1-1.136","null","<span style='color:GreenYellow; font-size: 70px;'>正确! </span>","null","","","","","","","","","","","","","","","","","","","","","","","feedback_test"
"","","","","","psychophysics","416","903864","0.0-10.0-0.0-0.0-0.1-0.137","677","","f","","","","","","","","","","","","","key","f","14.619552631579593","800","496","f","true","img/C_ambi40.png","自我","same",""
"","","","","","html-keyboard-response","417","904365","0.0-10.0-0.0-0.0-0.1-1.137","null","<span style='color:GreenYellow; font-size: 70px;'>正确! </span>","null","","","","","","","","","","","","","","","","","","","","","","","feedback_test"
"","","","","","psychophysics","418","906182","0.0-10.0-0.0-0.0-0.1-0.138","809","","j","","","","","","","","","","","","","key","j","15.033873949580466","800","496","j","true","img/C_ambi40.png","朋友","same",""
"","","","","","html-keyboard-response","419","906686","0.0-10.0-0.0-0.0-0.1-1.138","null","<span style='color:GreenYellow; font-size: 70px;'>正确! </span>","null","","","","","","","","","","","","","","","","","","","","","","","feedback_test"
"","","","","","psychophysics","420","908341","0.0-10.0-0.0-0.0-0.1-0.139","507","","f","","","","","","","","","","","","","key","f","14.71512612612574","800","496","f","true","img/T_ambi40.png","をる","same",""
"","","","","","html-keyboard-response","421","908851","0.0-10.0-0.0-0.0-0.1-1.139","null","<span style='color:GreenYellow; font-size: 70px;'>正确! </span>","null","","","","","","","","","","","","","","","","","","","","","","","feedback_test"
"","","","","","psychophysics","422","910669","0.0-10.0-0.0-0.0-0.1-0.140","816","","f","","","","","","","","","","","","","key","f","14.371632000000217","800","496","f","true","img/S_ambi40.png","朋友","same",""
"","","","","","html-keyboard-response","423","911178","0.0-10.0-0.0-0.0-0.1-1.140","null","<span style='color:GreenYellow; font-size: 70px;'>正确! </span>","null","","","","","","","","","","","","","","","","","","","","","","","feedback_test"
"","","","","","psychophysics","424","912949","0.0-10.0-0.0-0.0-0.1-0.141","753","","j","","","","","","","","","","","","","key","j","14.391434426229546","800","496","j","true","img/H_ambi40.png","自我","same",""
"","","","","","html-keyboard-response","425","913829","0.0-10.0-0.0-0.0-0.1-1.141","null","<span style='color:GreenYellow; font-size: 70px;'>正确! </span>","null","","","","","","","","","","","","","","","","","","","","","","","feedback_test"
"","","","","","psychophysics","426","915832","0.0-10.0-0.0-0.0-0.1-0.142","448","","f","","","","","","","","","","","","","key","f","14.436051470588769","800","496","f","true","img/C_ambi40.png","自我","same",""
"","","","","","html-keyboard-response","427","916335","0.0-10.0-0.0-0.0-0.1-1.142","null","<span style='color:GreenYellow; font-size: 70px;'>正确! </span>","null","","","","","","","","","","","","","","","","","","","","","","","feedback_test"
"","","","","","psychophysics","428","918116","0.0-10.0-0.0-0.0-0.1-0.143","774","","j","","","","","","","","","","","","","key","j","14.481303278688861","800","496","j","true","img/C_ambi40.png","朋友","same",""
"","","","","","html-keyboard-response","429","918625","0.0-10.0-0.0-0.0-0.1-1.143","null","<span style='color:GreenYellow; font-size: 70px;'>正确! </span>","null","","","","","","","","","","","","","","","","","","","","","","","feedback_test"
"","","","","","psychophysics","430","920382","0.0-10.0-0.0-0.0-0.1-0.144","749","","f","","","","","","","","","","","","","key","f","14.652983193277937","800","496","f","true","img/T_ambi40.png","をる","same",""
"","","","","","html-keyboard-response","431","920896","0.0-10.0-0.0-0.0-0.1-1.144","null","<span style='color:GreenYellow; font-size: 70px;'>正确! </span>","null","","","","","","","","","","","","","","","","","","","","","","","feedback_test"
"","","","","","psychophysics","432","922628","0.0-10.0-0.0-0.0-0.1-0.145","724","","f","","","","","","","","","","","","","key","f","14.531897435897093","800","496","f","true","img/T_ambi40.png","をる","same",""
"","","","","","html-keyboard-response","433","923138","0.0-10.0-0.0-0.0-0.1-1.145","null","<span style='color:GreenYellow; font-size: 70px;'>正确! </span>","null","","","","","","","","","","","","","","","","","","","","","","","feedback_test"
"","","","","","psychophysics","434","925034","0.0-10.0-0.0-0.0-0.1-0.146","891","","f","","","","","","","","","","","","","key","f","14.558457364340839","800","496","j","false","img/S_ambi40.png","生人","same",""
"","","","","","html-keyboard-response","435","925545","0.0-10.0-0.0-0.0-0.1-1.146","null","<span style='color:red; font-size: 70px;'>错误! </span>","null","","","","","","","","","","","","","","","","","","","","","","","feedback_test"
"","","","","","psychophysics","436","927907","0.0-10.0-0.0-0.0-0.1-0.147","1358","","f","","","","","","","","","","","","","key","f","14.792248407643507","800","496","f","true","img/T_ambi40.png","をる","same",""
"","","","","","html-keyboard-response","437","928413","0.0-10.0-0.0-0.0-0.1-1.147","null","<span style='color:GreenYellow; font-size: 70px;'>正确! </span>","null","","","","","","","","","","","","","","","","","","","","","","","feedback_test"
"","","","","","psychophysics","438","930149","0.0-10.0-0.0-0.0-0.1-0.148","733","","f","","","","","","","","","","","","","key","f","14.753672413792911","800","496","f","true","img/C_ambi40.png","自我","same",""
"","","","","","html-keyboard-response","439","930825","0.0-10.0-0.0-0.0-0.1-1.148","null","<span style='color:GreenYellow; font-size: 70px;'>正确! </span>","null","","","","","","","","","","","","","","","","","","","","","","","feedback_test"
"","","","","","psychophysics","440","933132","0.0-10.0-0.0-0.0-0.1-0.149","435","","j","","","","","","","","","","","","","key","j","14.48836075949344","800","496","j","true","img/H_ambi40.png","自我","same",""
"","","","","","html-keyboard-response","441","933642","0.0-10.0-0.0-0.0-0.1-1.149","null","<span style='color:GreenYellow; font-size: 70px;'>正确! </span>","null","","","","","","","","","","","","","","","","","","","","","","","feedback_test"
"","","","","","psychophysics","442","935717","0.0-10.0-0.0-0.0-0.1-0.150","1063","","f","","","","","","","","","","","","","key","f","14.274090277777255","800","496","f","true","img/H_ambi40.png","生人","same",""
"","","","","","html-keyboard-response","443","936223","0.0-10.0-0.0-0.0-0.1-1.150","null","<span style='color:GreenYellow; font-size: 70px;'>正确! </span>","null","","","","","","","","","","","","","","","","","","","","","","","feedback_test"
