"success","timeout","failed_images","failed_audio","failed_video","trial_type","trial_index","time_elapsed","internal_node_id","rt","stimulus","response","value","item_width_mm","item_height_mm","item_width_px","px2mm","view_dist_mm","item_width_deg","px2deg","scale_factor","win_width_deg","win_height_deg","view_history","response_type","key_press","avg_frame_time","center_x","center_y","correct_response","correct","Image","word","condition","screen_id"
"true","false","[]","[]","[]","preload","0","36944","0.0-0.0","","","","","","","","","","","","","","","","","","","","","","","","","",""
"","","","","","html-keyboard-response","1","90642","0.0-1.0","53696","
     <p>您好，欢迎参加本次实验。</p>
     <p>为充分保障您的权利，请确保您已经知晓并同意《参与实验同意书》以及《数据公开知情同意书》。</p>
     <p>如果您未见过上述内容，请咨询实验员。</p>
     <p>如果您选择继续实验，则表示您已经清楚两份知情同意书的内容并同意。</p>
     <p> <div style = ""color: green""><按任意键至下页></div> </p>
     ","arrowright","","","","","","","","","","","","","","","","","","","","","","",""
"","","","","","html-keyboard-response","2","93878","0.0-2.0","3234","
     <p>本实验首先需要您填写一些基本个人信息。</p>
     <p> <div style = ""color: green""><按任意键至下页></div></p>
     ","arrowright","","","","","","","","","","","","","","","","","","","","","","",""
"","","","","","call-function","3","93881","0.0-3.0-0.0","","","","","","","","","","","","","","","","","","","","","","","","","",""
"","","","","","survey-html-form","4","180301","0.0-3.0-1.0","86414","","{""Q0"":""10""}","","","","","","","","","","","","","","","","","","","","","","",""
"","","","","","html-button-response","5","181885","0.0-3.0-2.0","1579","<p style = 'color : white'>您的性别</p>","1","","","","","","","","","","","","","","","","","","","","","","",""
"","","","","","survey-html-form","6","186379","0.0-3.0-3.0","4473","","{""Q0"":""2000""}","","","","","","","","","","","","","","","","","","","","","","",""
"","","","","","survey-html-form","7","191111","0.0-3.0-4.0","4729","","{""Q0"":""5""}","","","","","","","","","","","","","","","","","","","","","","",""
"","","","","","virtual-chinrest","8","450163","0.0-4.0","259047","","","","85.6","53.98","559.6664257763234","6.5343252852418905","436.77","11.193328515526467","50","0.6825494301719474","26.36","11.94","","","","","","","","","","","",""
"true","","","","","fullscreen","9","454056","0.0-5.0","","","","","","","","","","","","","","","","","","","","","","","","","",""
"","","","","","instructions","10","503097","0.0-6.0","49038","","","","","","","","","","","","","","[{""page_index"":0,""viewing_time"":6913},{""page_index"":1,""viewing_time"":31426},{""page_index"":2,""viewing_time"":5394},{""page_index"":3,""viewing_time"":5305}]","","","","","","","","","","",""
"","","","","","psychophysics","11","505620","0.0-7.0-0.0","null","","null","","","","","","","","","","","","","key","null","17.865395683453507","683","380","f","false","img/T_ambi40.png","をる","prac",""
"","","","","","html-keyboard-response","12","506122","0.0-7.0-1.0","null","<span class='add_' style='color:yellow; font-size: 70px;'> 太慢! </span>","null","","","","","","","","","","","","","","","","","","","","","","","feedback_test"
"","","","","","psychophysics","13","508629","0.0-7.0-0.1","null","","null","","","","","","","","","","","","","key","null","16.66577852348994","683","380","j","false","img/C_ambi40.png","朋友","prac",""
"","","","","","html-keyboard-response","14","509135","0.0-7.0-1.1","null","<span class='add_' style='color:yellow; font-size: 70px;'> 太慢! </span>","null","","","","","","","","","","","","","","","","","","","","","","","feedback_test"
"","","","","","psychophysics","15","510706","0.0-7.0-0.2","569","","f","","","","","","","","","","","","","key","f","16.66735483870982","683","380","j","false","img/S_ambi40.png","生人","prac",""
"","","","","","html-keyboard-response","16","511209","0.0-7.0-1.2","null","<span style='color:red; font-size: 70px;'>错误! </span>","null","","","","","","","","","","","","","","","","","","","","","","","feedback_test"
"","","","","","psychophysics","17","512683","0.0-7.0-0.3","467","","f","","","","","","","","","","","","","key","f","16.85970930232623","683","380","j","false","img/H_ambi40.png","生人","prac",""
"","","","","","html-keyboard-response","18","513187","0.0-7.0-1.3","null","<span style='color:red; font-size: 70px;'>错误! </span>","null","","","","","","","","","","","","","","","","","","","","","","","feedback_test"
"","","","","","psychophysics","19","515690","0.0-7.0-0.4","null","","null","","","","","","","","","","","","","key","null","16.6660335570466","683","380","f","false","img/S_ambi40.png","自我","prac",""
"","","","","","html-keyboard-response","20","516191","0.0-7.0-1.4","null","<span class='add_' style='color:yellow; font-size: 70px;'> 太慢! </span>","null","","","","","","","","","","","","","","","","","","","","","","","feedback_test"
"","","","","","psychophysics","21","517702","0.0-7.0-0.5","505","","j","","","","","","","","","","","","","key","j","16.666483146067854","683","380","f","false","img/C_ambi40.png","生人","prac",""
"","","","","","html-keyboard-response","22","518204","0.0-7.0-1.5","null","<span style='color:red; font-size: 70px;'>错误! </span>","null","","","","","","","","","","","","","","","","","","","","","","","feedback_test"
"","","","","","psychophysics","23","519658","0.0-7.0-0.6","451","","f","","","","","","","","","","","","","key","f","16.66638823529459","683","380","j","false","img/H_ambi40.png","自我","prac",""
"","","","","","html-keyboard-response","24","520162","0.0-7.0-1.6","null","<span style='color:red; font-size: 70px;'>错误! </span>","null","","","","","","","","","","","","","","","","","","","","","","","feedback_test"
"","","","","","psychophysics","25","521620","0.0-7.0-0.7","454","","j","","","","","","","","","","","","","key","j","16.666500000000205","683","380","f","false","img/T_ambi40.png","をる","prac",""
"","","","","","html-keyboard-response","26","522121","0.0-7.0-1.7","null","<span style='color:red; font-size: 70px;'>错误! </span>","null","","","","","","","","","","","","","","","","","","","","","","","feedback_test"
"","","","","","psychophysics","27","523685","0.0-7.0-0.8","561","","f","","","","","","","","","","","","","key","f","16.84635869565207","683","380","f","true","img/C_ambi40.png","生人","prac",""
"","","","","","html-keyboard-response","28","524187","0.0-7.0-1.8","null","<span style='color:GreenYellow; font-size: 70px;'>正确! </span>","null","","","","","","","","","","","","","","","","","","","","","","","feedback_test"
"","","","","","psychophysics","29","526690","0.0-7.0-0.9","null","","null","","","","","","","","","","","","","key","null","17.010413793103513","683","380","f","false","img/T_ambi40.png","をる","prac",""
"","","","","","html-keyboard-response","30","527192","0.0-7.0-1.9","null","<span class='add_' style='color:yellow; font-size: 70px;'> 太慢! </span>","null","","","","","","","","","","","","","","","","","","","","","","","feedback_test"
"","","","","","psychophysics","31","528557","0.0-7.0-0.10","360","","j","","","","","","","","","","","","","key","j","16.6669624999995","683","380","j","true","img/C_ambi40.png","自我","prac",""
"","","","","","html-keyboard-response","32","529060","0.0-7.0-1.10","null","<span style='color:GreenYellow; font-size: 70px;'>正确! </span>","null","","","","","","","","","","","","","","","","","","","","","","","feedback_test"
"","","","","","psychophysics","33","530473","0.0-7.0-0.11","404","","f","","","","","","","","","","","","","key","f","16.66724096385605","683","380","f","true","img/T_ambi40.png","をる","prac",""
"","","","","","html-keyboard-response","34","530976","0.0-7.0-1.11","null","<span style='color:GreenYellow; font-size: 70px;'>正确! </span>","null","","","","","","","","","","","","","","","","","","","","","","","feedback_test"
"","","","","","psychophysics","35","532389","0.0-7.0-0.12","403","","j","","","","","","","","","","","","","key","j","16.666349397589318","683","380","f","false","img/H_ambi40.png","朋友","prac",""
"","","","","","html-keyboard-response","36","532891","0.0-7.0-1.12","null","<span style='color:red; font-size: 70px;'>错误! </span>","null","","","","","","","","","","","","","","","","","","","","","","","feedback_test"
"","","","","","psychophysics","37","534465","0.0-7.0-0.13","569","","j","","","","","","","","","","","","","key","j","16.66609677419402","683","380","f","false","img/H_ambi40.png","朋友","prac",""
"","","","","","html-keyboard-response","38","534968","0.0-7.0-1.13","null","<span style='color:red; font-size: 70px;'>错误! </span>","null","","","","","","","","","","","","","","","","","","","","","","","feedback_test"
"","","","","","psychophysics","39","536306","0.0-7.0-0.14","336","","f","","","","","","","","","","","","","key","f","16.667354430379994","683","380","j","false","img/S_ambi40.png","朋友","prac",""
"","","","","","html-keyboard-response","40","536809","0.0-7.0-1.14","null","<span style='color:red; font-size: 70px;'>错误! </span>","null","","","","","","","","","","","","","","","","","","","","","","","feedback_test"
"","","","","","psychophysics","41","539314","0.0-7.0-0.15","null","","null","","","","","","","","","","","","","key","null","16.66590604026905","683","380","f","false","img/S_ambi40.png","自我","prac",""
"","","","","","html-keyboard-response","42","539819","0.0-7.0-1.15","null","<span class='add_' style='color:yellow; font-size: 70px;'> 太慢! </span>","null","","","","","","","","","","","","","","","","","","","","","","","feedback_test"
"","","","","","psychophysics","43","542330","0.0-7.0-0.16","null","","null","","","","","","","","","","","","","key","null","16.66560402684595","683","380","f","false","img/T_ambi40.png","をる","prac",""
"","","","","","html-keyboard-response","44","542832","0.0-7.0-1.16","null","<span class='add_' style='color:yellow; font-size: 70px;'> 太慢! </span>","null","","","","","","","","","","","","","","","","","","","","","","","feedback_test"
"","","","","","psychophysics","45","544172","0.0-7.0-0.17","339","","f","","","","","","","","","","","","","key","f","16.666164556961753","683","380","f","true","img/C_ambi40.png","生人","prac",""
"","","","","","html-keyboard-response","46","544673","0.0-7.0-1.17","null","<span style='color:GreenYellow; font-size: 70px;'>正确! </span>","null","","","","","","","","","","","","","","","","","","","","","","","feedback_test"
"","","","","","psychophysics","47","546019","0.0-7.0-0.18","343","","j","","","","","","","","","","","","","key","j","16.66701265822807","683","380","f","false","img/T_ambi40.png","をる","prac",""
"","","","","","html-keyboard-response","48","546520","0.0-7.0-1.18","null","<span style='color:red; font-size: 70px;'>错误! </span>","null","","","","","","","","","","","","","","","","","","","","","","","feedback_test"
"","","","","","psychophysics","49","547940","0.0-7.0-0.19","418","","f","","","","","","","","","","","","","key","f","16.667048192770974","683","380","j","false","img/S_ambi40.png","生人","prac",""
"","","","","","html-keyboard-response","50","548442","0.0-7.0-1.19","null","<span style='color:red; font-size: 70px;'>错误! </span>","null","","","","","","","","","","","","","","","","","","","","","","","feedback_test"
"","","","","","psychophysics","51","549836","0.0-7.0-0.20","386","","j","","","","","","","","","","","","","key","j","16.6668902439017","683","380","j","true","img/H_ambi40.png","自我","prac",""
"","","","","","html-keyboard-response","52","550337","0.0-7.0-1.20","null","<span style='color:GreenYellow; font-size: 70px;'>正确! </span>","null","","","","","","","","","","","","","","","","","","","","","","","feedback_test"
"","","","","","psychophysics","53","551787","0.0-7.0-0.21","446","","j","","","","","","","","","","","","","key","j","16.666458823529126","683","380","f","false","img/T_ambi40.png","をる","prac",""
"","","","","","html-keyboard-response","54","552290","0.0-7.0-1.21","null","<span style='color:red; font-size: 70px;'>错误! </span>","null","","","","","","","","","","","","","","","","","","","","","","","feedback_test"
"","","","","","psychophysics","55","553722","0.0-7.0-0.22","424","","f","","","","","","","","","","","","","key","f","16.66654761904751","683","380","f","true","img/S_ambi40.png","自我","prac",""
"","","","","","html-keyboard-response","56","554224","0.0-7.0-1.22","null","<span style='color:GreenYellow; font-size: 70px;'>正确! </span>","null","","","","","","","","","","","","","","","","","","","","","","","feedback_test"
"","","","","","psychophysics","57","555698","0.0-7.0-0.23","467","","f","","","","","","","","","","","","","key","f","16.66713793103412","683","380","j","false","img/S_ambi40.png","朋友","prac",""
"","","","","","html-keyboard-response","58","556202","0.0-7.0-1.23","null","<span style='color:red; font-size: 70px;'>错误! </span>","null","","","","","","","","","","","","","","","","","","","","","","","feedback_test"
"","","","","","psychophysics","59","557632","0.0-7.0-0.24","428","","j","","","","","","","","","","","","","key","j","16.665811764706365","683","380","f","false","img/H_ambi40.png","朋友","prac",""
"","","","","","html-keyboard-response","60","558134","0.0-7.0-1.24","null","<span style='color:red; font-size: 70px;'>错误! </span>","null","","","","","","","","","","","","","","","","","","","","","","","feedback_test"
"","","","","","psychophysics","61","559484","0.0-7.0-0.25","346","","f","","","","","","","","","","","","","key","f","16.66668750000099","683","380","f","true","img/S_ambi40.png","自我","prac",""
"","","","","","html-keyboard-response","62","559985","0.0-7.0-1.25","null","<span style='color:GreenYellow; font-size: 70px;'>正确! </span>","null","","","","","","","","","","","","","","","","","","","","","","","feedback_test"
"","","","","","psychophysics","63","561355","0.0-7.0-0.26","368","","j","","","","","","","","","","","","","key","j","16.665913580247075","683","380","f","false","img/T_ambi40.png","をる","prac",""
"","","","","","html-keyboard-response","64","561856","0.0-7.0-1.26","null","<span style='color:red; font-size: 70px;'>错误! </span>","null","","","","","","","","","","","","","","","","","","","","","","","feedback_test"
"","","","","","psychophysics","65","563191","0.0-7.0-0.27","331","","f","","","","","","","","","","","","","key","f","16.66637179487122","683","380","j","false","img/C_ambi40.png","朋友","prac",""
"","","","","","html-keyboard-response","66","563693","0.0-7.0-1.27","null","<span style='color:red; font-size: 70px;'>错误! </span>","null","","","","","","","","","","","","","","","","","","","","","","","feedback_test"
"","","","","","psychophysics","67","565056","0.0-7.0-0.28","355","","f","","","","","","","","","","","","","key","f","16.66609999999928","683","380","f","true","img/H_ambi40.png","朋友","prac",""
"","","","","","html-keyboard-response","68","565563","0.0-7.0-1.28","null","<span style='color:GreenYellow; font-size: 70px;'>正确! </span>","null","","","","","","","","","","","","","","","","","","","","","","","feedback_test"
"","","","","","psychophysics","69","566855","0.0-7.0-0.29","288","","j","","","","","","","","","","","","","key","j","16.666684210525617","683","380","j","true","img/H_ambi40.png","生人","prac",""
"","","","","","html-keyboard-response","70","567358","0.0-7.0-1.29","null","<span style='color:GreenYellow; font-size: 70px;'>正确! </span>","null","","","","","","","","","","","","","","","","","","","","","","","feedback_test"
"","","","","","psychophysics","71","568700","0.0-7.0-0.30","338","","f","","","","","","","","","","","","","key","f","16.66768354430347","683","380","f","true","img/C_ambi40.png","生人","prac",""
"","","","","","html-keyboard-response","72","569201","0.0-7.0-1.30","null","<span style='color:GreenYellow; font-size: 70px;'>正确! </span>","null","","","","","","","","","","","","","","","","","","","","","","","feedback_test"
"","","","","","psychophysics","73","570567","0.0-7.0-0.31","364","","f","","","","","","","","","","","","","key","f","16.667419753086257","683","380","j","false","img/C_ambi40.png","自我","prac",""
"","","","","","html-keyboard-response","74","571070","0.0-7.0-1.31","null","<span style='color:red; font-size: 70px;'>错误! </span>","null","","","","","","","","","","","","","","","","","","","","","","","feedback_test"
"","","","","","psychophysics","75","572467","0.0-8.0-0.0-0.0","394","","j","","","","","","","","","","","","","key","j","16.666072289156446","683","380","j","true","img/S_ambi40.png","朋友","prac",""
"","","","","","html-keyboard-response","76","572970","0.0-8.0-0.0-1.0","null","<span style='color:GreenYellow; font-size: 70px;'>正确! </span>","null","","","","","","","","","","","","","","","","","","","","","","","feedback_test"
"","","","","","psychophysics","77","574433","0.0-8.0-0.0-0.1","458","","j","","","","","","","","","","","","","key","j","16.859744186047465","683","380","f","false","img/C_ambi40.png","生人","prac",""
"","","","","","html-keyboard-response","78","574935","0.0-8.0-0.0-1.1","null","<span style='color:red; font-size: 70px;'>错误! </span>","null","","","","","","","","","","","","","","","","","","","","","","","feedback_test"
"","","","","","psychophysics","79","576800","0.0-8.0-0.0-0.2","863","","j","","","","","","","","","","","","","key","j","16.665990909090564","683","380","f","false","img/T_ambi40.png","をる","prac",""
"","","","","","html-keyboard-response","80","577302","0.0-8.0-0.0-1.2","null","<span style='color:red; font-size: 70px;'>错误! </span>","null","","","","","","","","","","","","","","","","","","","","","","","feedback_test"
"","","","","","psychophysics","81","578664","0.0-8.0-0.0-0.3","359","","f","","","","","","","","","","","","","key","f","16.661537499999394","683","380","f","true","img/H_ambi40.png","朋友","prac",""
"","","","","","html-keyboard-response","82","579168","0.0-8.0-0.0-1.3","null","<span style='color:GreenYellow; font-size: 70px;'>正确! </span>","null","","","","","","","","","","","","","","","","","","","","","","","feedback_test"
"","","","","","psychophysics","83","580635","0.0-8.0-0.0-0.4","466","","f","","","","","","","","","","","","","key","f","16.66674418604613","683","380","j","false","img/H_ambi40.png","自我","prac",""
"","","","","","html-keyboard-response","84","581138","0.0-8.0-0.0-1.4","null","<span style='color:red; font-size: 70px;'>错误! </span>","null","","","","","","","","","","","","","","","","","","","","","","","feedback_test"
"","","","","","psychophysics","85","582487","0.0-8.0-0.0-0.5","347","","j","","","","","","","","","","","","","key","j","16.87701265822766","683","380","f","false","img/H_ambi40.png","朋友","prac",""
"","","","","","html-keyboard-response","86","582988","0.0-8.0-0.0-1.5","null","<span style='color:red; font-size: 70px;'>错误! </span>","null","","","","","","","","","","","","","","","","","","","","","","","feedback_test"
"","","","","","psychophysics","87","584345","0.0-8.0-0.0-0.6","354","","f","","","","","","","","","","","","","key","f","16.665737499999523","683","380","j","false","img/C_ambi40.png","朋友","prac",""
"","","","","","html-keyboard-response","88","584848","0.0-8.0-0.0-1.6","null","<span style='color:red; font-size: 70px;'>错误! </span>","null","","","","","","","","","","","","","","","","","","","","","","","feedback_test"
"","","","","","psychophysics","89","586189","0.0-8.0-0.0-0.7","334","","j","","","","","","","","","","","","","key","j","16.66712658227822","683","380","j","true","img/H_ambi40.png","生人","prac",""
"","","","","","html-keyboard-response","90","586703","0.0-8.0-0.0-1.7","null","<span style='color:GreenYellow; font-size: 70px;'>正确! </span>","null","","","","","","","","","","","","","","","","","","","","","","","feedback_test"
"","","","","","psychophysics","91","588082","0.0-8.0-0.0-0.8","376","","j","","","","","","","","","","","","","key","j","16.87214814814923","683","380","j","true","img/S_ambi40.png","生人","prac",""
"","","","","","html-keyboard-response","92","588585","0.0-8.0-0.0-1.8","null","<span style='color:GreenYellow; font-size: 70px;'>正确! </span>","null","","","","","","","","","","","","","","","","","","","","","","","feedback_test"
"","","","","","psychophysics","93","589896","0.0-8.0-0.0-0.9","309","","j","","","","","","","","","","","","","key","j","16.66687012986921","683","380","f","false","img/T_ambi40.png","をる","prac",""
"","","","","","html-keyboard-response","94","590401","0.0-8.0-0.0-1.9","null","<span style='color:red; font-size: 70px;'>错误! </span>","null","","","","","","","","","","","","","","","","","","","","","","","feedback_test"
"","","","","","psychophysics","95","591753","0.0-8.0-0.0-0.10","349","","f","","","","","","","","","","","","","key","f","16.665696202532708","683","380","f","true","img/S_ambi40.png","自我","prac",""
"","","","","","html-keyboard-response","96","592255","0.0-8.0-0.0-1.10","null","<span style='color:GreenYellow; font-size: 70px;'>正确! </span>","null","","","","","","","","","","","","","","","","","","","","","","","feedback_test"
"","","","","","psychophysics","97","593604","0.0-8.0-0.0-0.11","344","","f","","","","","","","","","","","","","key","f","16.666822784810172","683","380","f","true","img/T_ambi40.png","をる","prac",""
"","","","","","html-keyboard-response","98","594106","0.0-8.0-0.0-1.11","null","<span style='color:GreenYellow; font-size: 70px;'>正确! </span>","null","","","","","","","","","","","","","","","","","","","","","","","feedback_test"
"","","","","","psychophysics","99","595410","0.0-8.0-0.0-0.12","289","","f","","","","","","","","","","","","","key","f","16.667381578947627","683","380","f","true","img/C_ambi40.png","生人","prac",""
"","","","","","html-keyboard-response","100","595914","0.0-8.0-0.0-1.12","null","<span style='color:GreenYellow; font-size: 70px;'>正确! </span>","null","","","","","","","","","","","","","","","","","","","","","","","feedback_test"
"","","","","","psychophysics","101","597297","0.0-8.0-0.0-0.13","380","","j","","","","","","","","","","","","","key","j","16.664304878048757","683","380","j","true","img/C_ambi40.png","自我","prac",""
"","","","","","html-keyboard-response","102","597800","0.0-8.0-0.0-1.13","null","<span style='color:GreenYellow; font-size: 70px;'>正确! </span>","null","","","","","","","","","","","","","","","","","","","","","","","feedback_test"
"","","","","","psychophysics","103","599071","0.0-8.0-0.0-0.14","269","","f","","","","","","","","","","","","","key","f","16.666053333333693","683","380","f","true","img/S_ambi40.png","自我","prac",""
"","","","","","html-keyboard-response","104","599573","0.0-8.0-0.0-1.14","null","<span style='color:GreenYellow; font-size: 70px;'>正确! </span>","null","","","","","","","","","","","","","","","","","","","","","","","feedback_test"
"","","","","","psychophysics","105","600886","0.0-8.0-0.0-0.15","305","","f","","","","","","","","","","","","","key","f","16.665337662338036","683","380","f","true","img/T_ambi40.png","をる","prac",""
"","","","","","html-keyboard-response","106","601387","0.0-8.0-0.0-1.15","null","<span style='color:GreenYellow; font-size: 70px;'>正确! </span>","null","","","","","","","","","","","","","","","","","","","","","","","feedback_test"
"","","","","","psychophysics","107","602745","0.0-8.0-0.0-0.16","352","","f","","","","","","","","","","","","","key","f","16.66723750000092","683","380","j","false","img/S_ambi40.png","朋友","prac",""
"","","","","","html-keyboard-response","108","603250","0.0-8.0-0.0-1.16","null","<span style='color:red; font-size: 70px;'>错误! </span>","null","","","","","","","","","","","","","","","","","","","","","","","feedback_test"
"","","","","","psychophysics","109","604564","0.0-8.0-0.0-0.17","311","","j","","","","","","","","","","","","","key","j","16.66753846153957","683","380","f","false","img/S_ambi40.png","自我","prac",""
"","","","","","html-keyboard-response","110","605067","0.0-8.0-0.0-1.17","null","<span style='color:red; font-size: 70px;'>错误! </span>","null","","","","","","","","","","","","","","","","","","","","","","","feedback_test"
"","","","","","psychophysics","111","606373","0.0-8.0-0.0-0.18","304","","f","","","","","","","","","","","","","key","f","16.66640259740215","683","380","f","true","img/T_ambi40.png","をる","prac",""
"","","","","","html-keyboard-response","112","606879","0.0-8.0-0.0-1.18","null","<span style='color:GreenYellow; font-size: 70px;'>正确! </span>","null","","","","","","","","","","","","","","","","","","","","","","","feedback_test"
"","","","","","psychophysics","113","608218","0.0-8.0-0.0-0.19","336","","f","","","","","","","","","","","","","key","f","16.666227848101055","683","380","f","true","img/T_ambi40.png","をる","prac",""
"","","","","","html-keyboard-response","114","608720","0.0-8.0-0.0-1.19","null","<span style='color:GreenYellow; font-size: 70px;'>正确! </span>","null","","","","","","","","","","","","","","","","","","","","","","","feedback_test"
"","","","","","psychophysics","115","610099","0.0-8.0-0.0-0.20","367","","f","","","","","","","","","","","","","key","f","16.666851851852023","683","380","f","true","img/C_ambi40.png","生人","prac",""
"","","","","","html-keyboard-response","116","610602","0.0-8.0-0.0-1.20","null","<span style='color:GreenYellow; font-size: 70px;'>正确! </span>","null","","","","","","","","","","","","","","","","","","","","","","","feedback_test"
"","","","","","psychophysics","117","611949","0.0-8.0-0.0-0.21","346","","f","","","","","","","","","","","","","key","f","16.664683544303916","683","380","j","false","img/C_ambi40.png","自我","prac",""
"","","","","","html-keyboard-response","118","612451","0.0-8.0-0.0-1.21","null","<span style='color:red; font-size: 70px;'>错误! </span>","null","","","","","","","","","","","","","","","","","","","","","","","feedback_test"
"","","","","","psychophysics","119","613820","0.0-8.0-0.0-0.22","356","","j","","","","","","","","","","","","","key","j","16.667225000000325","683","380","f","false","img/S_ambi40.png","自我","prac",""
"","","","","","html-keyboard-response","120","614322","0.0-8.0-0.0-1.22","null","<span style='color:red; font-size: 70px;'>错误! </span>","null","","","","","","","","","","","","","","","","","","","","","","","feedback_test"
"","","","","","psychophysics","121","615734","0.0-8.0-0.0-0.23","405","","f","","","","","","","","","","","","","key","f","16.667817073171424","683","380","j","false","img/H_ambi40.png","生人","prac",""
"","","","","","html-keyboard-response","122","616236","0.0-8.0-0.0-1.23","null","<span style='color:red; font-size: 70px;'>错误! </span>","null","","","","","","","","","","","","","","","","","","","","","","","feedback_test"
"","","","","","psychophysics","123","617681","0.0-8.0-0.0-0.24","430","","j","","","","","","","","","","","","","key","j","16.861705882352886","683","380","f","false","img/T_ambi40.png","をる","prac",""
"","","","","","html-keyboard-response","124","618182","0.0-8.0-0.0-1.24","null","<span style='color:red; font-size: 70px;'>错误! </span>","null","","","","","","","","","","","","","","","","","","","","","","","feedback_test"
"","","","","","psychophysics","125","619519","0.0-8.0-0.0-0.25","334","","f","","","","","","","","","","","","","key","f","16.667000000000908","683","380","f","true","img/C_ambi40.png","生人","prac",""
"","","","","","html-keyboard-response","126","620022","0.0-8.0-0.0-1.25","null","<span style='color:GreenYellow; font-size: 70px;'>正确! </span>","null","","","","","","","","","","","","","","","","","","","","","","","feedback_test"
"","","","","","psychophysics","127","621413","0.0-8.0-0.0-0.26","385","","f","","","","","","","","","","","","","key","f","16.667000000000215","683","380","f","true","img/T_ambi40.png","をる","prac",""
"","","","","","html-keyboard-response","128","621915","0.0-8.0-0.0-1.26","null","<span style='color:GreenYellow; font-size: 70px;'>正确! </span>","null","","","","","","","","","","","","","","","","","","","","","","","feedback_test"
"","","","","","psychophysics","129","623330","0.0-8.0-0.0-0.27","414","","f","","","","","","","","","","","","","key","f","16.666107142856898","683","380","f","true","img/H_ambi40.png","朋友","prac",""
"","","","","","html-keyboard-response","130","623832","0.0-8.0-0.0-1.27","null","<span style='color:GreenYellow; font-size: 70px;'>正确! </span>","null","","","","","","","","","","","","","","","","","","","","","","","feedback_test"
"","","","","","psychophysics","131","625184","0.0-8.0-0.0-0.28","349","","f","","","","","","","","","","","","","key","f","16.666550000000278","683","380","j","false","img/H_ambi40.png","自我","prac",""
"","","","","","html-keyboard-response","132","625688","0.0-8.0-0.0-1.28","null","<span style='color:red; font-size: 70px;'>错误! </span>","null","","","","","","","","","","","","","","","","","","","","","","","feedback_test"
"","","","","","psychophysics","133","627013","0.0-8.0-0.0-0.29","321","","j","","","","","","","","","","","","","key","j","16.667256410256066","683","380","j","true","img/C_ambi40.png","朋友","prac",""
"","","","","","html-keyboard-response","134","627515","0.0-8.0-0.0-1.29","null","<span style='color:GreenYellow; font-size: 70px;'>正确! </span>","null","","","","","","","","","","","","","","","","","","","","","","","feedback_test"
"","","","","","psychophysics","135","628912","0.0-8.0-0.0-0.30","391","","f","","","","","","","","","","","","","key","f","16.66625301204818","683","380","f","true","img/H_ambi40.png","朋友","prac",""
"","","","","","html-keyboard-response","136","629418","0.0-8.0-0.0-1.30","null","<span style='color:GreenYellow; font-size: 70px;'>正确! </span>","null","","","","","","","","","","","","","","","","","","","","","","","feedback_test"
"","","","","","psychophysics","137","630682","0.0-8.0-0.0-0.31","262","","j","","","","","","","","","","","","","key","j","16.66616216216337","683","380","j","true","img/S_ambi40.png","生人","prac",""
"","","","","","html-keyboard-response","138","631185","0.0-8.0-0.0-1.31","null","<span style='color:GreenYellow; font-size: 70px;'>正确! </span>","null","","","","","","","","","","","","","","","","","","","","","","","feedback_test"
"","","","","","html-keyboard-response","139","646516","0.0-8.0-1.0-0.0","15325","<style>.context{color:white; font-size: 35px; line-height:40px}</style>                          <div><p class='context'>您正确回答了59% 的试次。</p ><p class='context'>您的平均反应时为343毫秒。</p >"," ","","","","","","","","","","","","","","","","","","","","","","",""
"","","","","","instructions","140","678982","0.0-8.0-1.0-1.0","32454","","","","","","","","","","","","","","[{""page_index"":0,""viewing_time"":3775},{""page_index"":1,""viewing_time"":25832},{""page_index"":2,""viewing_time"":2846}]","","","","","","","","","","",""
"","","","","","psychophysics","141","680412","0.0-8.1-0.1-0.32","419","","f","","","","","","","","","","","","","key","f","16.66605952380979","683","380","f","true","img/T_ambi40.png","をる","prac",""
"","","","","","html-keyboard-response","142","680925","0.0-8.1-0.1-1.32","null","<span style='color:GreenYellow; font-size: 70px;'>正确! </span>","null","","","","","","","","","","","","","","","","","","","","","","","feedback_test"
"","","","","","psychophysics","143","682332","0.0-8.1-0.1-0.33","402","","f","","","","","","","","","","","","","key","f","16.66625301204818","683","380","f","true","img/T_ambi40.png","をる","prac",""
"","","","","","html-keyboard-response","144","682833","0.0-8.1-0.1-1.33","null","<span style='color:GreenYellow; font-size: 70px;'>正确! </span>","null","","","","","","","","","","","","","","","","","","","","","","","feedback_test"
"","","","","","psychophysics","145","684181","0.0-8.1-0.1-0.34","344","","f","","","","","","","","","","","","","key","f","16.66607594936703","683","380","f","true","img/H_ambi40.png","朋友","prac",""
"","","","","","html-keyboard-response","146","684684","0.0-8.1-0.1-1.34","null","<span style='color:GreenYellow; font-size: 70px;'>正确! </span>","null","","","","","","","","","","","","","","","","","","","","","","","feedback_test"
"","","","","","psychophysics","147","686048","0.0-8.1-0.1-0.35","355","","f","","","","","","","","","","","","","key","f","16.66820000000007","683","380","f","true","img/S_ambi40.png","自我","prac",""
"","","","","","html-keyboard-response","148","686550","0.0-8.1-0.1-1.35","null","<span style='color:GreenYellow; font-size: 70px;'>正确! </span>","null","","","","","","","","","","","","","","","","","","","","","","","feedback_test"
"","","","","","psychophysics","149","687933","0.0-8.1-0.1-0.36","379","","j","","","","","","","","","","","","","key","j","16.66504938271684","683","380","j","true","img/S_ambi40.png","生人","prac",""
"","","","","","html-keyboard-response","150","688435","0.0-8.1-0.1-1.36","null","<span style='color:GreenYellow; font-size: 70px;'>正确! </span>","null","","","","","","","","","","","","","","","","","","","","","","","feedback_test"
"","","","","","psychophysics","151","689762","0.0-8.1-0.1-0.37","319","","f","","","","","","","","","","","","","key","f","16.666346153845854","683","380","j","false","img/C_ambi40.png","朋友","prac",""
"","","","","","html-keyboard-response","152","690263","0.0-8.1-0.1-1.37","null","<span style='color:red; font-size: 70px;'>错误! </span>","null","","","","","","","","","","","","","","","","","","","","","","","feedback_test"
"","","","","","psychophysics","153","691601","0.0-8.1-0.1-0.38","337","","f","","","","","","","","","","","","","key","f","16.666576923075645","683","380","f","true","img/T_ambi40.png","をる","prac",""
"","","","","","html-keyboard-response","154","692106","0.0-8.1-0.1-1.38","null","<span style='color:GreenYellow; font-size: 70px;'>正确! </span>","null","","","","","","","","","","","","","","","","","","","","","","","feedback_test"
"","","","","","psychophysics","155","693608","0.0-8.1-0.1-0.39","499","","j","","","","","","","","","","","","","key","j","16.665932584268806","683","380","f","false","img/H_ambi40.png","朋友","prac",""
"","","","","","html-keyboard-response","156","694112","0.0-8.1-0.1-1.39","null","<span style='color:red; font-size: 70px;'>错误! </span>","null","","","","","","","","","","","","","","","","","","","","","","","feedback_test"
"","","","","","psychophysics","157","695501","0.0-8.1-0.1-0.40","387","","f","","","","","","","","","","","","","key","f","16.667469135803216","683","380","f","true","img/S_ambi40.png","自我","prac",""
"","","","","","html-keyboard-response","158","696005","0.0-8.1-0.1-1.40","null","<span style='color:GreenYellow; font-size: 70px;'>正确! </span>","null","","","","","","","","","","","","","","","","","","","","","","","feedback_test"
"","","","","","psychophysics","159","697371","0.0-8.1-0.1-0.41","362","","f","","","","","","","","","","","","","key","f","16.66617283950715","683","380","f","true","img/C_ambi40.png","生人","prac",""
"","","","","","html-keyboard-response","160","697874","0.0-8.1-0.1-1.41","null","<span style='color:GreenYellow; font-size: 70px;'>正确! </span>","null","","","","","","","","","","","","","","","","","","","","","","","feedback_test"
"","","","","","psychophysics","161","699309","0.0-8.1-0.1-0.42","432","","f","","","","","","","","","","","","","key","f","16.665070588234812","683","380","j","false","img/C_ambi40.png","自我","prac",""
"","","","","","html-keyboard-response","162","699812","0.0-8.1-0.1-1.42","null","<span style='color:red; font-size: 70px;'>错误! </span>","null","","","","","","","","","","","","","","","","","","","","","","","feedback_test"
"","","","","","psychophysics","163","701139","0.0-8.1-0.1-0.43","324","","f","","","","","","","","","","","","","key","f","16.666448717948814","683","380","f","true","img/C_ambi40.png","生人","prac",""
"","","","","","html-keyboard-response","164","701643","0.0-8.1-0.1-1.43","null","<span style='color:GreenYellow; font-size: 70px;'>正确! </span>","null","","","","","","","","","","","","","","","","","","","","","","","feedback_test"
"","","","","","psychophysics","165","703008","0.0-8.1-0.1-0.44","362","","f","","","","","","","","","","","","","key","f","16.665938271604833","683","380","f","true","img/T_ambi40.png","をる","prac",""
"","","","","","html-keyboard-response","166","703512","0.0-8.1-0.1-1.44","null","<span style='color:GreenYellow; font-size: 70px;'>正确! </span>","null","","","","","","","","","","","","","","","","","","","","","","","feedback_test"
"","","","","","psychophysics","167","704865","0.0-8.1-0.1-0.45","350","","f","","","","","","","","","","","","","key","f","16.665412500000095","683","380","j","false","img/H_ambi40.png","自我","prac",""
"","","","","","html-keyboard-response","168","705369","0.0-8.1-0.1-1.45","null","<span style='color:red; font-size: 70px;'>错误! </span>","null","","","","","","","","","","","","","","","","","","","","","","","feedback_test"
"","","","","","psychophysics","169","706732","0.0-8.1-0.1-0.46","358","","f","","","","","","","","","","","","","key","f","16.665774999999847","683","380","j","false","img/H_ambi40.png","生人","prac",""
"","","","","","html-keyboard-response","170","707235","0.0-8.1-0.1-1.46","null","<span style='color:red; font-size: 70px;'>错误! </span>","null","","","","","","","","","","","","","","","","","","","","","","","feedback_test"
"","","","","","psychophysics","171","708627","0.0-8.1-0.1-0.47","384","","j","","","","","","","","","","","","","key","j","16.66709756097478","683","380","j","true","img/S_ambi40.png","朋友","prac",""
"","","","","","html-keyboard-response","172","709129","0.0-8.1-0.1-1.47","null","<span style='color:GreenYellow; font-size: 70px;'>正确! </span>","null","","","","","","","","","","","","","","","","","","","","","","","feedback_test"
"","","","","","psychophysics","173","710489","0.0-8.1-0.1-0.48","358","","f","","","","","","","","","","","","","key","f","16.665612499999405","683","380","j","false","img/S_ambi40.png","朋友","prac",""
"","","","","","html-keyboard-response","174","710991","0.0-8.1-0.1-1.48","null","<span style='color:red; font-size: 70px;'>错误! </span>","null","","","","","","","","","","","","","","","","","","","","","","","feedback_test"
"","","","","","psychophysics","175","712425","0.0-8.1-0.1-0.49","430","","f","","","","","","","","","","","","","key","f","16.666352941175266","683","380","j","false","img/H_ambi40.png","生人","prac",""
"","","","","","html-keyboard-response","176","712927","0.0-8.1-0.1-1.49","null","<span style='color:red; font-size: 70px;'>错误! </span>","null","","","","","","","","","","","","","","","","","","","","","","","feedback_test"
"","","","","","psychophysics","177","714264","0.0-8.1-0.1-0.50","335","","j","","","","","","","","","","","","","key","j","16.667113924049772","683","380","f","false","img/S_ambi40.png","自我","prac",""
"","","","","","html-keyboard-response","178","714767","0.0-8.1-0.1-1.50","null","<span style='color:red; font-size: 70px;'>错误! </span>","null","","","","","","","","","","","","","","","","","","","","","","","feedback_test"
"","","","","","psychophysics","179","716198","0.0-8.1-0.1-0.51","421","","f","","","","","","","","","","","","","key","f","16.665583333333156","683","380","f","true","img/T_ambi40.png","をる","prac",""
"","","","","","html-keyboard-response","180","716713","0.0-8.1-0.1-1.51","null","<span style='color:GreenYellow; font-size: 70px;'>正确! </span>","null","","","","","","","","","","","","","","","","","","","","","","","feedback_test"
"","","","","","psychophysics","181","718130","0.0-8.1-0.1-0.52","414","","f","","","","","","","","","","","","","key","f","16.867373493976935","683","380","j","false","img/C_ambi40.png","朋友","prac",""
"","","","","","html-keyboard-response","182","718632","0.0-8.1-0.1-1.52","null","<span style='color:red; font-size: 70px;'>错误! </span>","null","","","","","","","","","","","","","","","","","","","","","","","feedback_test"
"","","","","","psychophysics","183","720045","0.0-8.1-0.1-0.53","404","","f","","","","","","","","","","","","","key","f","16.665915662649997","683","380","f","true","img/C_ambi40.png","生人","prac",""
"","","","","","html-keyboard-response","184","720552","0.0-8.1-0.1-1.53","null","<span style='color:GreenYellow; font-size: 70px;'>正确! </span>","null","","","","","","","","","","","","","","","","","","","","","","","feedback_test"
"","","","","","psychophysics","185","721941","0.0-8.1-0.1-0.54","383","","f","","","","","","","","","","","","","key","f","16.665743902439207","683","380","j","false","img/S_ambi40.png","生人","prac",""
"","","","","","html-keyboard-response","186","722444","0.0-8.1-0.1-1.54","null","<span style='color:red; font-size: 70px;'>错误! </span>","null","","","","","","","","","","","","","","","","","","","","","","","feedback_test"
"","","","","","psychophysics","187","723706","0.0-8.1-0.1-0.55","259","","j","","","","","","","","","","","","","key","j","16.666013513513953","683","380","f","false","img/T_ambi40.png","をる","prac",""
"","","","","","html-keyboard-response","188","724218","0.0-8.1-0.1-1.55","null","<span style='color:red; font-size: 70px;'>错误! </span>","null","","","","","","","","","","","","","","","","","","","","","","","feedback_test"
"","","","","","psychophysics","189","725496","0.0-8.1-0.1-0.56","274","","f","","","","","","","","","","","","","key","f","16.666919999999614","683","380","f","true","img/C_ambi40.png","生人","prac",""
"","","","","","html-keyboard-response","190","725999","0.0-8.1-0.1-1.56","null","<span style='color:GreenYellow; font-size: 70px;'>正确! </span>","null","","","","","","","","","","","","","","","","","","","","","","","feedback_test"
"","","","","","psychophysics","191","727309","0.0-8.1-0.1-0.57","306","","f","","","","","","","","","","","","","key","f","16.666012987013687","683","380","f","true","img/T_ambi40.png","をる","prac",""
"","","","","","html-keyboard-response","192","727811","0.0-8.1-0.1-1.57","null","<span style='color:GreenYellow; font-size: 70px;'>正确! </span>","null","","","","","","","","","","","","","","","","","","","","","","","feedback_test"
"","","","","","psychophysics","193","729175","0.0-8.1-0.1-0.58","361","","f","","","","","","","","","","","","","key","f","16.666224999999393","683","380","f","true","img/H_ambi40.png","朋友","prac",""
"","","","","","html-keyboard-response","194","729678","0.0-8.1-0.1-1.58","null","<span style='color:GreenYellow; font-size: 70px;'>正确! </span>","null","","","","","","","","","","","","","","","","","","","","","","","feedback_test"
"","","","","","psychophysics","195","731140","0.0-8.1-0.1-0.59","459","","f","","","","","","","","","","","","","key","f","16.666976744185884","683","380","f","true","img/T_ambi40.png","をる","prac",""
"","","","","","html-keyboard-response","196","731645","0.0-8.1-0.1-1.59","null","<span style='color:GreenYellow; font-size: 70px;'>正确! </span>","null","","","","","","","","","","","","","","","","","","","","","","","feedback_test"
"","","","","","psychophysics","197","733038","0.0-8.1-0.1-0.60","387","","f","","","","","","","","","","","","","key","f","16.66687804878059","683","380","f","true","img/S_ambi40.png","自我","prac",""
"","","","","","html-keyboard-response","198","733544","0.0-8.1-0.1-1.60","null","<span style='color:GreenYellow; font-size: 70px;'>正确! </span>","null","","","","","","","","","","","","","","","","","","","","","","","feedback_test"
"","","","","","psychophysics","199","734931","0.0-8.1-0.1-0.61","385","","j","","","","","","","","","","","","","key","j","16.666370370370668","683","380","f","false","img/H_ambi40.png","朋友","prac",""
"","","","","","html-keyboard-response","200","735436","0.0-8.1-0.1-1.61","null","<span style='color:red; font-size: 70px;'>错误! </span>","null","","","","","","","","","","","","","","","","","","","","","","","feedback_test"
"","","","","","psychophysics","201","736797","0.0-8.1-0.1-0.62","356","","f","","","","","","","","","","","","","key","f","16.665699999999198","683","380","j","false","img/H_ambi40.png","自我","prac",""
"","","","","","html-keyboard-response","202","737300","0.0-8.1-0.1-1.62","null","<span style='color:red; font-size: 70px;'>错误! </span>","null","","","","","","","","","","","","","","","","","","","","","","","feedback_test"
"","","","","","psychophysics","203","738746","0.0-8.1-0.1-0.63","442","","j","","","","","","","","","","","","","key","j","16.66612941176521","683","380","j","true","img/C_ambi40.png","自我","prac",""
"","","","","","html-keyboard-response","204","739257","0.0-8.1-0.1-1.63","null","<span style='color:GreenYellow; font-size: 70px;'>正确! </span>","null","","","","","","","","","","","","","","","","","","","","","","","feedback_test"
"","","","","","html-keyboard-response","205","743651","0.0-8.1-1.1-0.1","4391","<style>.context{color:white; font-size: 35px; line-height:40px}</style>                          <div><p class='context'>您正确回答了59% 的试次。</p ><p class='context'>您的平均反应时为374毫秒。</p >"," ","","","","","","","","","","","","","","","","","","","","","","",""
"","","","","","instructions","206","774156","0.0-8.1-1.1-1.1","30500","","","","","","","","","","","","","","[{""page_index"":0,""viewing_time"":2220},{""page_index"":1,""viewing_time"":23925},{""page_index"":2,""viewing_time"":4354}]","","","","","","","","","","",""
"","","","","","psychophysics","207","776688","0.0-8.2-0.2-0.64","null","","null","","","","","","","","","","","","","key","null","16.666221476510017","683","380","f","false","img/H_ambi40.png","朋友","prac",""
"","","","","","html-keyboard-response","208","777190","0.0-8.2-0.2-1.64","null","<span class='add_' style='color:yellow; font-size: 70px;'> 太慢! </span>","null","","","","","","","","","","","","","","","","","","","","","","","feedback_test"
"","","","","","psychophysics","209","778607","0.0-8.2-0.2-0.65","416","","f","","","","","","","","","","","","","key","f","16.665988095239125","683","380","f","true","img/C_ambi40.png","生人","prac",""
"","","","","","html-keyboard-response","210","779121","0.0-8.2-0.2-1.65","null","<span style='color:GreenYellow; font-size: 70px;'>正确! </span>","null","","","","","","","","","","","","","","","","","","","","","","","feedback_test"
"","","","","","psychophysics","211","780575","0.0-8.2-0.2-0.66","448","","j","","","","","","","","","","","","","key","j","16.665395348836388","683","380","j","true","img/S_ambi40.png","朋友","prac",""
"","","","","","html-keyboard-response","212","781077","0.0-8.2-0.2-1.66","null","<span style='color:GreenYellow; font-size: 70px;'>正确! </span>","null","","","","","","","","","","","","","","","","","","","","","","","feedback_test"
"","","","","","psychophysics","213","782536","0.0-8.2-0.2-0.67","457","","f","","","","","","","","","","","","","key","f","16.858895348837102","683","380","j","false","img/H_ambi40.png","生人","prac",""
"","","","","","html-keyboard-response","214","783040","0.0-8.2-0.2-1.67","null","<span style='color:red; font-size: 70px;'>错误! </span>","null","","","","","","","","","","","","","","","","","","","","","","","feedback_test"
"","","","","","psychophysics","215","784375","0.0-8.2-0.2-0.68","333","","f","","","","","","","","","","","","","key","f","16.665924050633006","683","380","f","true","img/S_ambi40.png","自我","prac",""
"","","","","","html-keyboard-response","216","784876","0.0-8.2-0.2-1.68","null","<span style='color:GreenYellow; font-size: 70px;'>正确! </span>","null","","","","","","","","","","","","","","","","","","","","","","","feedback_test"
"","","","","","psychophysics","217","786422","0.0-8.2-0.2-0.69","544","","j","","","","","","","","","","","","","key","j","16.66734065934069","683","380","f","false","img/C_ambi40.png","生人","prac",""
"","","","","","html-keyboard-response","218","786923","0.0-8.2-0.2-1.69","null","<span style='color:red; font-size: 70px;'>错误! </span>","null","","","","","","","","","","","","","","","","","","","","","","","feedback_test"
"","","","","","psychophysics","219","788270","0.0-8.2-0.2-0.70","344","","f","","","","","","","","","","","","","key","f","16.666962025315748","683","380","f","true","img/T_ambi40.png","をる","prac",""
"","","","","","html-keyboard-response","220","788771","0.0-8.2-0.2-1.70","null","<span style='color:GreenYellow; font-size: 70px;'>正确! </span>","null","","","","","","","","","","","","","","","","","","","","","","","feedback_test"
"","","","","","psychophysics","221","790161","0.0-8.2-0.2-0.71","389","","f","","","","","","","","","","","","","key","f","16.667195121950765","683","380","j","false","img/S_ambi40.png","生人","prac",""
"","","","","","html-keyboard-response","222","790664","0.0-8.2-0.2-1.71","null","<span style='color:red; font-size: 70px;'>错误! </span>","null","","","","","","","","","","","","","","","","","","","","","","","feedback_test"
"","","","","","psychophysics","223","791938","0.0-8.2-0.2-0.72","267","","j","","","","","","","","","","","","","key","j","16.66671999999943","683","380","f","false","img/S_ambi40.png","自我","prac",""
"","","","","","html-keyboard-response","224","792440","0.0-8.2-0.2-1.72","null","<span style='color:red; font-size: 70px;'>错误! </span>","null","","","","","","","","","","","","","","","","","","","","","","","feedback_test"
"","","","","","psychophysics","225","793730","0.0-8.2-0.2-0.73","288","","f","","","","","","","","","","","","","key","f","16.66696052631443","683","380","j","false","img/H_ambi40.png","自我","prac",""
"","","","","","html-keyboard-response","226","794235","0.0-8.2-0.2-1.73","null","<span style='color:red; font-size: 70px;'>错误! </span>","null","","","","","","","","","","","","","","","","","","","","","","","feedback_test"
"","","","","","psychophysics","227","795591","0.0-8.2-0.2-0.74","354","","j","","","","","","","","","","","","","key","j","16.666150000000197","683","380","f","false","img/T_ambi40.png","をる","prac",""
"","","","","","html-keyboard-response","228","796095","0.0-8.2-0.2-1.74","null","<span style='color:red; font-size: 70px;'>错误! </span>","null","","","","","","","","","","","","","","","","","","","","","","","feedback_test"
"","","","","","psychophysics","229","797379","0.0-8.2-0.2-0.75","281","","f","","","","","","","","","","","","","key","f","16.666386666667336","683","380","f","true","img/H_ambi40.png","朋友","prac",""
"","","","","","html-keyboard-response","230","797881","0.0-8.2-0.2-1.75","null","<span style='color:GreenYellow; font-size: 70px;'>正确! </span>","null","","","","","","","","","","","","","","","","","","","","","","","feedback_test"
"","","","","","psychophysics","231","799219","0.0-8.2-0.2-0.76","335","","f","","","","","","","","","","","","","key","f","16.666088607594006","683","380","f","true","img/T_ambi40.png","をる","prac",""
"","","","","","html-keyboard-response","232","799722","0.0-8.2-0.2-1.76","null","<span style='color:GreenYellow; font-size: 70px;'>正确! </span>","null","","","","","","","","","","","","","","","","","","","","","","","feedback_test"
"","","","","","psychophysics","233","801071","0.0-8.2-0.2-0.77","344","","f","","","","","","","","","","","","","key","f","16.666500000000816","683","380","j","false","img/C_ambi40.png","朋友","prac",""
"","","","","","html-keyboard-response","234","801574","0.0-8.2-0.2-1.77","null","<span style='color:red; font-size: 70px;'>错误! </span>","null","","","","","","","","","","","","","","","","","","","","","","","feedback_test"
"","","","","","psychophysics","235","803076","0.0-8.2-0.2-0.78","500","","f","","","","","","","","","","","","","key","f","16.665730337078653","683","380","f","true","img/T_ambi40.png","をる","prac",""
"","","","","","html-keyboard-response","236","803578","0.0-8.2-0.2-1.78","null","<span style='color:GreenYellow; font-size: 70px;'>正确! </span>","null","","","","","","","","","","","","","","","","","","","","","","","feedback_test"
"","","","","","psychophysics","237","804905","0.0-8.2-0.2-0.79","325","","j","","","","","","","","","","","","","key","j","16.666128205128","683","380","j","true","img/C_ambi40.png","自我","prac",""
"","","","","","html-keyboard-response","238","805409","0.0-8.2-0.2-1.79","null","<span style='color:GreenYellow; font-size: 70px;'>正确! </span>","null","","","","","","","","","","","","","","","","","","","","","","","feedback_test"
"","","","","","psychophysics","239","806724","0.0-8.2-0.2-0.80","312","","f","","","","","","","","","","","","","key","f","16.665181818180837","683","380","j","false","img/S_ambi40.png","生人","prac",""
"","","","","","html-keyboard-response","240","807227","0.0-8.2-0.2-1.80","null","<span style='color:red; font-size: 70px;'>错误! </span>","null","","","","","","","","","","","","","","","","","","","","","","","feedback_test"
"","","","","","psychophysics","241","808592","0.0-8.2-0.2-0.81","362","","f","","","","","","","","","","","","","key","f","16.666425000000164","683","380","j","false","img/S_ambi40.png","朋友","prac",""
"","","","","","html-keyboard-response","242","809095","0.0-8.2-0.2-1.81","null","<span style='color:red; font-size: 70px;'>错误! </span>","null","","","","","","","","","","","","","","","","","","","","","","","feedback_test"
"","","","","","psychophysics","243","810358","0.0-8.2-0.2-0.82","254","","j","","","","","","","","","","","","","key","j","16.666783783784627","683","380","f","false","img/T_ambi40.png","をる","prac",""
"","","","","","html-keyboard-response","244","810860","0.0-8.2-0.2-1.82","null","<span style='color:red; font-size: 70px;'>错误! </span>","null","","","","","","","","","","","","","","","","","","","","","","","feedback_test"
"","","","","","psychophysics","245","812195","0.0-8.2-0.2-0.83","333","","f","","","","","","","","","","","","","key","f","16.666179487178734","683","380","j","false","img/C_ambi40.png","朋友","prac",""
"","","","","","html-keyboard-response","246","812696","0.0-8.2-0.2-1.83","null","<span style='color:red; font-size: 70px;'>错误! </span>","null","","","","","","","","","","","","","","","","","","","","","","","feedback_test"
"","","","","","psychophysics","247","813944","0.0-8.2-0.2-0.84","242","","j","","","","","","","","","","","","","key","j","16.6663150684924","683","380","f","false","img/C_ambi40.png","生人","prac",""
"","","","","","html-keyboard-response","248","814446","0.0-8.2-0.2-1.84","null","<span style='color:red; font-size: 70px;'>错误! </span>","null","","","","","","","","","","","","","","","","","","","","","","","feedback_test"
"","","","","","psychophysics","249","815822","0.0-8.2-0.2-0.85","373","","f","","","","","","","","","","","","","key","f","16.665358024691002","683","380","j","false","img/H_ambi40.png","生人","prac",""
"","","","","","html-keyboard-response","250","816325","0.0-8.2-0.2-1.85","null","<span style='color:red; font-size: 70px;'>错误! </span>","null","","","","","","","","","","","","","","","","","","","","","","","feedback_test"
"","","","","","psychophysics","251","817621","0.0-8.2-0.2-0.86","293","","j","","","","","","","","","","","","","key","j","16.664223684210906","683","380","f","false","img/S_ambi40.png","自我","prac",""
"","","","","","html-keyboard-response","252","818123","0.0-8.2-0.2-1.86","null","<span style='color:red; font-size: 70px;'>错误! </span>","null","","","","","","","","","","","","","","","","","","","","","","","feedback_test"
"","","","","","psychophysics","253","819507","0.0-8.2-0.2-0.87","381","","f","","","","","","","","","","","","","key","f","16.665913580247075","683","380","f","true","img/T_ambi40.png","をる","prac",""
"","","","","","html-keyboard-response","254","820008","0.0-8.2-0.2-1.87","null","<span style='color:GreenYellow; font-size: 70px;'>正确! </span>","null","","","","","","","","","","","","","","","","","","","","","","","feedback_test"
"","","","","","psychophysics","255","821439","0.0-8.2-0.2-0.88","416","","f","","","","","","","","","","","","","key","f","16.66566666666629","683","380","f","true","img/T_ambi40.png","をる","prac",""
"","","","","","html-keyboard-response","256","821941","0.0-8.2-0.2-1.88","null","<span style='color:GreenYellow; font-size: 70px;'>正确! </span>","null","","","","","","","","","","","","","","","","","","","","","","","feedback_test"
"","","","","","psychophysics","257","823302","0.0-8.2-0.2-0.89","358","","f","","","","","","","","","","","","","key","f","16.873037499999917","683","380","f","true","img/H_ambi40.png","朋友","prac",""
"","","","","","html-keyboard-response","258","823805","0.0-8.2-0.2-1.89","null","<span style='color:GreenYellow; font-size: 70px;'>正确! </span>","null","","","","","","","","","","","","","","","","","","","","","","","feedback_test"
"","","","","","psychophysics","259","825278","0.0-8.2-0.2-0.90","470","","f","","","","","","","","","","","","","key","f","16.666425287355562","683","380","j","false","img/H_ambi40.png","自我","prac",""
"","","","","","html-keyboard-response","260","825788","0.0-8.2-0.2-1.90","null","<span style='color:red; font-size: 70px;'>错误! </span>","null","","","","","","","","","","","","","","","","","","","","","","","feedback_test"
"","","","","","psychophysics","261","827170","0.0-8.2-0.2-0.91","379","","j","","","","","","","","","","","","","key","j","16.664670731706217","683","380","f","false","img/H_ambi40.png","朋友","prac",""
"","","","","","html-keyboard-response","262","827672","0.0-8.2-0.2-1.91","null","<span style='color:red; font-size: 70px;'>错误! </span>","null","","","","","","","","","","","","","","","","","","","","","","","feedback_test"
"","","","","","psychophysics","263","829003","0.0-8.2-0.2-0.92","329","","f","","","","","","","","","","","","","key","f","16.666518987342126","683","380","f","true","img/T_ambi40.png","をる","prac",""
"","","","","","html-keyboard-response","264","829504","0.0-8.2-0.2-1.92","null","<span style='color:GreenYellow; font-size: 70px;'>正确! </span>","null","","","","","","","","","","","","","","","","","","","","","","","feedback_test"
"","","","","","psychophysics","265","830936","0.0-8.2-0.2-0.93","429","","f","","","","","","","","","","","","","key","f","16.665999999999837","683","380","f","true","img/C_ambi40.png","生人","prac",""
"","","","","","html-keyboard-response","266","831440","0.0-8.2-0.2-1.93","null","<span style='color:GreenYellow; font-size: 70px;'>正确! </span>","null","","","","","","","","","","","","","","","","","","","","","","","feedback_test"
"","","","","","psychophysics","267","832858","0.0-8.2-0.2-0.94","414","","f","","","","","","","","","","","","","key","f","16.665469879518735","683","380","j","false","img/C_ambi40.png","自我","prac",""
"","","","","","html-keyboard-response","268","833361","0.0-8.2-0.2-1.94","null","<span style='color:red; font-size: 70px;'>错误! </span>","null","","","","","","","","","","","","","","","","","","","","","","","feedback_test"
"","","","","","psychophysics","269","834863","0.0-8.2-0.2-0.95","498","","j","","","","","","","","","","","","","key","j","16.665659090910182","683","380","f","false","img/S_ambi40.png","自我","prac",""
"","","","","","html-keyboard-response","270","835369","0.0-8.2-0.2-1.95","null","<span style='color:red; font-size: 70px;'>错误! </span>","null","","","","","","","","","","","","","","","","","","","","","","","feedback_test"
"","","","","","html-keyboard-response","271","839939","0.0-8.2-1.2-0.2","4567","<style>.context{color:white; font-size: 35px; line-height:40px}</style>                          <div><p class='context'>您正确回答了41% 的试次。</p ><p class='context'>您的平均反应时为377毫秒。</p >"," ","","","","","","","","","","","","","","","","","","","","","","",""
"","","","","","instructions","272","861807","0.0-8.2-1.2-1.2","21863","","","","","","","","","","","","","","[{""page_index"":0,""viewing_time"":1981},{""page_index"":1,""viewing_time"":17458},{""page_index"":2,""viewing_time"":2423}]","","","","","","","","","","",""
"","","","","","psychophysics","273","863258","0.0-8.3-0.3-0.96","447","","j","","","","","","","","","","","","","key","j","16.664282352941605","683","380","f","false","img/C_ambi40.png","生人","prac",""
"","","","","","html-keyboard-response","274","863760","0.0-8.3-0.3-1.96","null","<span style='color:red; font-size: 70px;'>错误! </span>","null","","","","","","","","","","","","","","","","","","","","","","","feedback_test"
"","","","","","psychophysics","275","865241","0.0-8.3-0.3-0.97","474","","j","","","","","","","","","","","","","key","j","16.666241379310215","683","380","j","true","img/C_ambi40.png","自我","prac",""
"","","","","","html-keyboard-response","276","865742","0.0-8.3-0.3-1.97","null","<span style='color:GreenYellow; font-size: 70px;'>正确! </span>","null","","","","","","","","","","","","","","","","","","","","","","","feedback_test"
"","","","","","psychophysics","277","867135","0.0-8.3-0.3-0.98","391","","j","","","","","","","","","","","","","key","j","16.66641463414715","683","380","j","true","img/H_ambi40.png","自我","prac",""
"","","","","","html-keyboard-response","278","867637","0.0-8.3-0.3-1.98","null","<span style='color:GreenYellow; font-size: 70px;'>正确! </span>","null","","","","","","","","","","","","","","","","","","","","","","","feedback_test"
"","","","","","psychophysics","279","868937","0.0-8.3-0.3-0.99","298","","f","","","","","","","","","","","","","key","f","16.66681818181933","683","380","j","false","img/H_ambi40.png","生人","prac",""
"","","","","","html-keyboard-response","280","869439","0.0-8.3-0.3-1.99","null","<span style='color:red; font-size: 70px;'>错误! </span>","null","","","","","","","","","","","","","","","","","","","","","","","feedback_test"
"","","","","","psychophysics","281","870836","0.0-8.3-0.3-0.100","394","","j","","","","","","","","","","","","","key","j","16.66729268292675","683","380","f","false","img/S_ambi40.png","自我","prac",""
"","","","","","html-keyboard-response","282","871338","0.0-8.3-0.3-1.100","null","<span style='color:red; font-size: 70px;'>错误! </span>","null","","","","","","","","","","","","","","","","","","","","","","","feedback_test"
"","","","","","psychophysics","283","872754","0.0-8.3-0.3-0.101","414","","f","","","","","","","","","","","","","key","f","16.867325301204964","683","380","f","true","img/T_ambi40.png","をる","prac",""
"","","","","","html-keyboard-response","284","873255","0.0-8.3-0.3-1.101","null","<span style='color:GreenYellow; font-size: 70px;'>正确! </span>","null","","","","","","","","","","","","","","","","","","","","","","","feedback_test"
"","","","","","psychophysics","285","874615","0.0-8.3-0.3-0.102","356","","j","","","","","","","","","","","","","key","j","16.666549999998825","683","380","f","false","img/H_ambi40.png","朋友","prac",""
"","","","","","html-keyboard-response","286","875128","0.0-8.3-0.3-1.102","null","<span style='color:red; font-size: 70px;'>错误! </span>","null","","","","","","","","","","","","","","","","","","","","","","","feedback_test"
"","","","","","psychophysics","287","876415","0.0-8.3-0.3-0.103","285","","f","","","","","","","","","","","","","key","f","16.666894736842217","683","380","f","true","img/S_ambi40.png","自我","prac",""
"","","","","","html-keyboard-response","288","876920","0.0-8.3-0.3-1.103","null","<span style='color:GreenYellow; font-size: 70px;'>正确! </span>","null","","","","","","","","","","","","","","","","","","","","","","","feedback_test"
"","","","","","psychophysics","289","878399","0.0-8.3-0.3-0.104","476","","j","","","","","","","","","","","","","key","j","16.666402298850063","683","380","f","false","img/C_ambi40.png","生人","prac",""
"","","","","","html-keyboard-response","290","878902","0.0-8.3-0.3-1.104","null","<span style='color:red; font-size: 70px;'>错误! </span>","null","","","","","","","","","","","","","","","","","","","","","","","feedback_test"
"","","","","","psychophysics","291","880190","0.0-8.3-0.3-0.105","284","","f","","","","","","","","","","","","","key","f","16.66547368421054","683","380","f","true","img/T_ambi40.png","をる","prac",""
"","","","","","html-keyboard-response","292","880693","0.0-8.3-0.3-1.105","null","<span style='color:GreenYellow; font-size: 70px;'>正确! </span>","null","","","","","","","","","","","","","","","","","","","","","","","feedback_test"
"","","","","","psychophysics","293","881999","0.0-8.3-0.3-0.106","300","","f","","","","","","","","","","","","","key","f","16.667013157894345","683","380","j","false","img/S_ambi40.png","朋友","prac",""
"","","","","","html-keyboard-response","294","882502","0.0-8.3-0.3-1.106","null","<span style='color:red; font-size: 70px;'>错误! </span>","null","","","","","","","","","","","","","","","","","","","","","","","feedback_test"
"","","","","","psychophysics","295","883767","0.0-8.3-0.3-0.107","264","","j","","","","","","","","","","","","","key","j","16.664759999999465","683","380","j","true","img/C_ambi40.png","朋友","prac",""
"","","","","","html-keyboard-response","296","884270","0.0-8.3-0.3-1.107","null","<span style='color:GreenYellow; font-size: 70px;'>正确! </span>","null","","","","","","","","","","","","","","","","","","","","","","","feedback_test"
"","","","","","psychophysics","297","885704","0.0-8.3-0.3-0.108","405","","j","","","","","","","","","","","","","key","j","16.66824096385446","683","380","f","false","img/H_ambi40.png","朋友","prac",""
"","","","","","html-keyboard-response","298","886207","0.0-8.3-0.3-1.108","null","<span style='color:red; font-size: 70px;'>错误! </span>","null","","","","","","","","","","","","","","","","","","","","","","","feedback_test"
"","","","","","psychophysics","299","887567","0.0-8.3-0.3-0.109","357","","f","","","","","","","","","","","","","key","f","16.664737500000047","683","380","f","true","img/T_ambi40.png","をる","prac",""
"","","","","","html-keyboard-response","300","888068","0.0-8.3-0.3-1.109","null","<span style='color:GreenYellow; font-size: 70px;'>正确! </span>","null","","","","","","","","","","","","","","","","","","","","","","","feedback_test"
"","","","","","psychophysics","301","889400","0.0-8.3-0.3-0.110","330","","f","","","","","","","","","","","","","key","f","16.665329113923885","683","380","f","true","img/T_ambi40.png","をる","prac",""
"","","","","","html-keyboard-response","302","889902","0.0-8.3-0.3-1.110","null","<span style='color:GreenYellow; font-size: 70px;'>正确! </span>","null","","","","","","","","","","","","","","","","","","","","","","","feedback_test"
"","","","","","psychophysics","303","891255","0.0-8.3-0.3-0.111","351","","f","","","","","","","","","","","","","key","f","16.66563749999914","683","380","j","false","img/S_ambi40.png","生人","prac",""
"","","","","","html-keyboard-response","304","891766","0.0-8.3-0.3-1.111","null","<span style='color:red; font-size: 70px;'>错误! </span>","null","","","","","","","","","","","","","","","","","","","","","","","feedback_test"
"","","","","","psychophysics","305","893083","0.0-8.3-0.3-0.112","313","","j","","","","","","","","","","","","","key","j","16.665935897435514","683","380","j","true","img/S_ambi40.png","朋友","prac",""
"","","","","","html-keyboard-response","306","893585","0.0-8.3-0.3-1.112","null","<span style='color:GreenYellow; font-size: 70px;'>正确! </span>","null","","","","","","","","","","","","","","","","","","","","","","","feedback_test"
"","","","","","psychophysics","307","894906","0.0-8.3-0.3-0.113","319","","f","","","","","","","","","","","","","key","f","16.666717948717398","683","380","f","true","img/T_ambi40.png","をる","prac",""
"","","","","","html-keyboard-response","308","895408","0.0-8.3-0.3-1.113","null","<span style='color:GreenYellow; font-size: 70px;'>正确! </span>","null","","","","","","","","","","","","","","","","","","","","","","","feedback_test"
"","","","","","psychophysics","309","896766","0.0-8.3-0.3-0.114","350","","j","","","","","","","","","","","","","key","j","16.664487499999815","683","380","f","false","img/T_ambi40.png","をる","prac",""
"","","","","","html-keyboard-response","310","897273","0.0-8.3-0.3-1.114","null","<span style='color:red; font-size: 70px;'>错误! </span>","null","","","","","","","","","","","","","","","","","","","","","","","feedback_test"
"","","","","","psychophysics","311","898623","0.0-8.3-0.3-0.115","347","","f","","","","","","","","","","","","","key","f","16.667227848101394","683","380","f","true","img/S_ambi40.png","自我","prac",""
"","","","","","html-keyboard-response","312","899125","0.0-8.3-0.3-1.115","null","<span style='color:GreenYellow; font-size: 70px;'>正确! </span>","null","","","","","","","","","","","","","","","","","","","","","","","feedback_test"
"","","","","","psychophysics","313","900465","0.0-8.3-0.3-0.116","322","","f","","","","","","","","","","","","","key","f","16.66671794871889","683","380","j","false","img/C_ambi40.png","自我","prac",""
"","","","","","html-keyboard-response","314","900968","0.0-8.3-0.3-1.116","null","<span style='color:red; font-size: 70px;'>错误! </span>","null","","","","","","","","","","","","","","","","","","","","","","","feedback_test"
"","","","","","psychophysics","315","902400","0.0-8.3-0.3-0.117","431","","j","","","","","","","","","","","","","key","j","16.666247058824144","683","380","f","false","img/H_ambi40.png","朋友","prac",""
"","","","","","html-keyboard-response","316","902901","0.0-8.3-0.3-1.117","null","<span style='color:red; font-size: 70px;'>错误! </span>","null","","","","","","","","","","","","","","","","","","","","","","","feedback_test"
"","","","","","psychophysics","317","904151","0.0-8.3-0.3-0.118","247","","f","","","","","","","","","","","","","key","f","16.666702702702842","683","380","j","false","img/H_ambi40.png","生人","prac",""
"","","","","","html-keyboard-response","318","904652","0.0-8.3-0.3-1.118","null","<span style='color:red; font-size: 70px;'>错误! </span>","null","","","","","","","","","","","","","","","","","","","","","","","feedback_test"
"","","","","","psychophysics","319","905922","0.0-8.3-0.3-0.119","267","","j","","","","","","","","","","","","","key","j","16.66688000000082","683","380","f","false","img/S_ambi40.png","自我","prac",""
"","","","","","html-keyboard-response","320","906424","0.0-8.3-0.3-1.119","null","<span style='color:red; font-size: 70px;'>错误! </span>","null","","","","","","","","","","","","","","","","","","","","","","","feedback_test"
"","","","","","psychophysics","321","907867","0.0-8.3-0.3-0.120","438","","f","","","","","","","","","","","","","key","f","16.666682352941923","683","380","f","true","img/H_ambi40.png","朋友","prac",""
"","","","","","html-keyboard-response","322","908368","0.0-8.3-0.3-1.120","null","<span style='color:GreenYellow; font-size: 70px;'>正确! </span>","null","","","","","","","","","","","","","","","","","","","","","","","feedback_test"
"","","","","","psychophysics","323","909701","0.0-8.3-0.3-0.121","331","","j","","","","","","","","","","","","","key","j","16.668797468353958","683","380","j","true","img/H_ambi40.png","自我","prac",""
"","","","","","html-keyboard-response","324","910202","0.0-8.3-0.3-1.121","null","<span style='color:GreenYellow; font-size: 70px;'>正确! </span>","null","","","","","","","","","","","","","","","","","","","","","","","feedback_test"
"","","","","","psychophysics","325","911588","0.0-8.3-0.3-0.122","384","","f","","","","","","","","","","","","","key","f","16.66653086419827","683","380","f","true","img/T_ambi40.png","をる","prac",""
"","","","","","html-keyboard-response","326","912089","0.0-8.3-0.3-1.122","null","<span style='color:GreenYellow; font-size: 70px;'>正确! </span>","null","","","","","","","","","","","","","","","","","","","","","","","feedback_test"
"","","","","","psychophysics","327","913533","0.0-8.3-0.3-0.123","439","","f","","","","","","","","","","","","","key","f","16.667188235294237","683","380","j","false","img/C_ambi40.png","朋友","prac",""
"","","","","","html-keyboard-response","328","914047","0.0-8.3-0.3-1.123","null","<span style='color:red; font-size: 70px;'>错误! </span>","null","","","","","","","","","","","","","","","","","","","","","","","feedback_test"
"","","","","","psychophysics","329","915364","0.0-8.3-0.3-0.124","310","","f","","","","","","","","","","","","","key","f","16.666558441557836","683","380","j","false","img/S_ambi40.png","生人","prac",""
"","","","","","html-keyboard-response","330","915867","0.0-8.3-0.3-1.124","null","<span style='color:red; font-size: 70px;'>错误! </span>","null","","","","","","","","","","","","","","","","","","","","","","","feedback_test"
"","","","","","psychophysics","331","917300","0.0-8.3-0.3-0.125","430","","j","","","","","","","","","","","","","key","j","16.66611764705877","683","380","f","false","img/C_ambi40.png","生人","prac",""
"","","","","","html-keyboard-response","332","917801","0.0-8.3-0.3-1.125","null","<span style='color:red; font-size: 70px;'>错误! </span>","null","","","","","","","","","","","","","","","","","","","","","","","feedback_test"
"","","","","","psychophysics","333","919235","0.0-8.3-0.3-0.126","431","","f","","","","","","","","","","","","","key","f","16.66563095238165","683","380","f","true","img/C_ambi40.png","生人","prac",""
"","","","","","html-keyboard-response","334","919737","0.0-8.3-0.3-1.126","null","<span style='color:GreenYellow; font-size: 70px;'>正确! </span>","null","","","","","","","","","","","","","","","","","","","","","","","feedback_test"
"","","","","","psychophysics","335","921322","0.0-8.3-0.3-0.127","583","","j","","","","","","","","","","","","","key","j","16.666204301074586","683","380","f","false","img/T_ambi40.png","をる","prac",""
"","","","","","html-keyboard-response","336","921824","0.0-8.3-0.3-1.127","null","<span style='color:red; font-size: 70px;'>错误! </span>","null","","","","","","","","","","","","","","","","","","","","","","","feedback_test"
"","","","","","html-keyboard-response","337","925086","0.0-8.3-1.3-0.3","3259","<style>.context{color:white; font-size: 35px; line-height:40px}</style>                          <div><p class='context'>您正确回答了47% 的试次。</p ><p class='context'>您的平均反应时为357毫秒。</p >"," ","","","","","","","","","","","","","","","","","","","","","","",""
"","","","","","instructions","338","932419","0.0-8.3-1.3-1.3","7327","","","","","","","","","","","","","","[{""page_index"":0,""viewing_time"":1439},{""page_index"":1,""viewing_time"":2860},{""page_index"":2,""viewing_time"":3028}]","","","","","","","","","","",""
"","","","","","psychophysics","339","933865","0.0-8.4-0.4-0.128","441","","f","","","","","","","","","","","","","key","f","16.665200000000187","683","380","f","true","img/C_ambi40.png","生人","prac",""
"","","","","","html-keyboard-response","340","934368","0.0-8.4-0.4-1.128","null","<span style='color:GreenYellow; font-size: 70px;'>正确! </span>","null","","","","","","","","","","","","","","","","","","","","","","","feedback_test"
"","","","","","psychophysics","341","935731","0.0-8.4-0.4-0.129","360","","f","","","","","","","","","","","","","key","f","16.66759999999922","683","380","j","false","img/C_ambi40.png","自我","prac",""
"","","","","","html-keyboard-response","342","936234","0.0-8.4-0.4-1.129","null","<span style='color:red; font-size: 70px;'>错误! </span>","null","","","","","","","","","","","","","","","","","","","","","","","feedback_test"
"","","","","","psychophysics","343","937654","0.0-8.4-0.4-0.130","400","","f","","","","","","","","","","","","","key","f","16.86939024390289","683","380","f","true","img/C_ambi40.png","生人","prac",""
"","","","","","html-keyboard-response","344","938155","0.0-8.4-0.4-1.130","null","<span style='color:GreenYellow; font-size: 70px;'>正确! </span>","null","","","","","","","","","","","","","","","","","","","","","","","feedback_test"
"","","","","","psychophysics","345","939482","0.0-8.4-0.4-0.131","324","","j","","","","","","","","","","","","","key","j","16.665756410254964","683","380","j","true","img/H_ambi40.png","自我","prac",""
"","","","","","html-keyboard-response","346","939983","0.0-8.4-0.4-1.131","null","<span style='color:GreenYellow; font-size: 70px;'>正确! </span>","null","","","","","","","","","","","","","","","","","","","","","","","feedback_test"
"","","","","","psychophysics","347","941378","0.0-8.4-0.4-0.132","388","","f","","","","","","","","","","","","","key","f","16.66718518518538","683","380","f","true","img/H_ambi40.png","朋友","prac",""
"","","","","","html-keyboard-response","348","941886","0.0-8.4-0.4-1.132","null","<span style='color:GreenYellow; font-size: 70px;'>正确! </span>","null","","","","","","","","","","","","","","","","","","","","","","","feedback_test"
"","","","","","psychophysics","349","943268","0.0-8.4-0.4-0.133","380","","f","","","","","","","","","","","","","key","f","16.872530864198104","683","380","j","false","img/S_ambi40.png","生人","prac",""
"","","","","","html-keyboard-response","350","943769","0.0-8.4-0.4-1.133","null","<span style='color:red; font-size: 70px;'>错误! </span>","null","","","","","","","","","","","","","","","","","","","","","","","feedback_test"
"","","","","","psychophysics","351","945188","0.0-8.4-0.4-0.134","417","","f","","","","","","","","","","","","","key","f","16.666481927710485","683","380","j","false","img/H_ambi40.png","生人","prac",""
"","","","","","html-keyboard-response","352","945691","0.0-8.4-0.4-1.134","null","<span style='color:red; font-size: 70px;'>错误! </span>","null","","","","","","","","","","","","","","","","","","","","","","","feedback_test"
"","","","","","psychophysics","353","947005","0.0-8.4-0.4-0.135","303","","j","","","","","","","","","","","","","key","j","16.665907894737565","683","380","f","false","img/H_ambi40.png","朋友","prac",""
"","","","","","html-keyboard-response","354","947507","0.0-8.4-0.4-1.135","null","<span style='color:red; font-size: 70px;'>错误! </span>","null","","","","","","","","","","","","","","","","","","","","","","","feedback_test"
"","","","","","psychophysics","355","948971","0.0-8.4-0.4-0.136","458","","f","","","","","","","","","","","","","key","f","16.66580232558095","683","380","f","true","img/T_ambi40.png","をる","prac",""
"","","","","","html-keyboard-response","356","949473","0.0-8.4-0.4-1.136","null","<span style='color:GreenYellow; font-size: 70px;'>正确! </span>","null","","","","","","","","","","","","","","","","","","","","","","","feedback_test"
"","","","","","psychophysics","357","950964","0.0-8.4-0.4-0.137","488","","f","","","","","","","","","","","","","key","f","16.666204545455084","683","380","f","true","img/T_ambi40.png","をる","prac",""
"","","","","","html-keyboard-response","358","951466","0.0-8.4-0.4-1.137","null","<span style='color:GreenYellow; font-size: 70px;'>正确! </span>","null","","","","","","","","","","","","","","","","","","","","","","","feedback_test"
"","","","","","psychophysics","359","952852","0.0-8.4-0.4-0.138","382","","f","","","","","","","","","","","","","key","f","16.642170731707974","683","380","f","true","img/T_ambi40.png","をる","prac",""
"","","","","","html-keyboard-response","360","953356","0.0-8.4-0.4-1.138","null","<span style='color:GreenYellow; font-size: 70px;'>正确! </span>","null","","","","","","","","","","","","","","","","","","","","","","","feedback_test"
"","","","","","psychophysics","361","954750","0.0-8.4-0.4-0.139","390","","f","","","","","","","","","","","","","key","f","16.666365853658444","683","380","j","false","img/C_ambi40.png","朋友","prac",""
"","","","","","html-keyboard-response","362","955252","0.0-8.4-0.4-1.139","null","<span style='color:red; font-size: 70px;'>错误! </span>","null","","","","","","","","","","","","","","","","","","","","","","","feedback_test"
"","","","","","psychophysics","363","956689","0.0-8.4-0.4-0.140","433","","f","","","","","","","","","","","","","key","f","16.666035714286235","683","380","f","true","img/S_ambi40.png","自我","prac",""
"","","","","","html-keyboard-response","364","957193","0.0-8.4-0.4-1.140","null","<span style='color:GreenYellow; font-size: 70px;'>正确! </span>","null","","","","","","","","","","","","","","","","","","","","","","","feedback_test"
"","","","","","psychophysics","365","958748","0.0-8.4-0.4-0.141","552","","f","","","","","","","","","","","","","key","f","16.666891304348372","683","380","f","true","img/T_ambi40.png","をる","prac",""
"","","","","","html-keyboard-response","366","959249","0.0-8.4-0.4-1.141","null","<span style='color:GreenYellow; font-size: 70px;'>正确! </span>","null","","","","","","","","","","","","","","","","","","","","","","","feedback_test"
"","","","","","psychophysics","367","960767","0.0-8.4-0.4-0.142","515","","f","","","","","","","","","","","","","key","f","16.6666222222227","683","380","j","false","img/S_ambi40.png","朋友","prac",""
"","","","","","html-keyboard-response","368","961268","0.0-8.4-0.4-1.142","null","<span style='color:red; font-size: 70px;'>错误! </span>","null","","","","","","","","","","","","","","","","","","","","","","","feedback_test"
"","","","","","psychophysics","369","962816","0.0-8.4-0.4-0.143","545","","j","","","","","","","","","","","","","key","j","16.84916483516457","683","380","f","false","img/S_ambi40.png","自我","prac",""
"","","","","","html-keyboard-response","370","963318","0.0-8.4-0.4-1.143","null","<span style='color:red; font-size: 70px;'>错误! </span>","null","","","","","","","","","","","","","","","","","","","","","","","feedback_test"
"","","","","","psychophysics","371","964830","0.0-8.4-0.4-0.144","500","","f","","","","","","","","","","","","","key","f","16.66602272727257","683","380","j","false","img/C_ambi40.png","自我","prac",""
"","","","","","html-keyboard-response","372","965332","0.0-8.4-0.4-1.144","null","<span style='color:red; font-size: 70px;'>错误! </span>","null","","","","","","","","","","","","","","","","","","","","","","","feedback_test"
"","","","","","psychophysics","373","966785","0.0-8.4-0.4-0.145","450","","f","","","","","","","","","","","","","key","f","16.666244186045397","683","380","f","true","img/H_ambi40.png","朋友","prac",""
"","","","","","html-keyboard-response","374","967288","0.0-8.4-0.4-1.145","null","<span style='color:GreenYellow; font-size: 70px;'>正确! </span>","null","","","","","","","","","","","","","","","","","","","","","","","feedback_test"
"","","","","","psychophysics","375","968738","0.0-8.4-0.4-0.146","445","","f","","","","","","","","","","","","","key","f","16.66683529411744","683","380","f","true","img/C_ambi40.png","生人","prac",""
"","","","","","html-keyboard-response","376","969240","0.0-8.4-0.4-1.146","null","<span style='color:GreenYellow; font-size: 70px;'>正确! </span>","null","","","","","","","","","","","","","","","","","","","","","","","feedback_test"
"","","","","","psychophysics","377","970633","0.0-8.4-0.4-0.147","389","","j","","","","","","","","","","","","","key","j","16.6660609756108","683","380","f","false","img/S_ambi40.png","自我","prac",""
"","","","","","html-keyboard-response","378","971135","0.0-8.4-0.4-1.147","null","<span style='color:red; font-size: 70px;'>错误! </span>","null","","","","","","","","","","","","","","","","","","","","","","","feedback_test"
"","","","","","psychophysics","379","972614","0.0-8.4-0.4-0.148","472","","f","","","","","","","","","","","","","key","f","16.665287356321894","683","380","f","true","img/T_ambi40.png","をる","prac",""
"","","","","","html-keyboard-response","380","973116","0.0-8.4-0.4-1.148","null","<span style='color:GreenYellow; font-size: 70px;'>正确! </span>","null","","","","","","","","","","","","","","","","","","","","","","","feedback_test"
"","","","","","psychophysics","381","974565","0.0-8.4-0.4-0.149","447","","f","","","","","","","","","","","","","key","f","16.66604705882423","683","380","f","true","img/C_ambi40.png","生人","prac",""
"","","","","","html-keyboard-response","382","975067","0.0-8.4-0.4-1.149","null","<span style='color:GreenYellow; font-size: 70px;'>正确! </span>","null","","","","","","","","","","","","","","","","","","","","","","","feedback_test"
"","","","","","psychophysics","383","976548","0.0-8.4-0.4-0.150","478","","f","","","","","","","","","","","","","key","f","16.665569767441198","683","380","j","false","img/C_ambi40.png","朋友","prac",""
"","","","","","html-keyboard-response","384","977050","0.0-8.4-0.4-1.150","null","<span style='color:red; font-size: 70px;'>错误! </span>","null","","","","","","","","","","","","","","","","","","","","","","","feedback_test"
"","","","","","psychophysics","385","978471","0.0-8.4-0.4-0.151","418","","f","","","","","","","","","","","","","key","f","16.86645783132492","683","380","f","true","img/H_ambi40.png","朋友","prac",""
"","","","","","html-keyboard-response","386","978974","0.0-8.4-0.4-1.151","null","<span style='color:GreenYellow; font-size: 70px;'>正确! </span>","null","","","","","","","","","","","","","","","","","","","","","","","feedback_test"
"","","","","","psychophysics","387","980432","0.0-8.4-0.4-0.152","449","","f","","","","","","","","","","","","","key","f","16.668534883720323","683","380","f","true","img/T_ambi40.png","をる","prac",""
"","","","","","html-keyboard-response","388","980933","0.0-8.4-0.4-1.152","null","<span style='color:GreenYellow; font-size: 70px;'>正确! </span>","null","","","","","","","","","","","","","","","","","","","","","","","feedback_test"
"","","","","","psychophysics","389","982302","0.0-8.4-0.4-0.153","367","","f","","","","","","","","","","","","","key","f","16.666024999998626","683","380","f","true","img/T_ambi40.png","をる","prac",""
"","","","","","html-keyboard-response","390","982804","0.0-8.4-0.4-1.153","null","<span style='color:GreenYellow; font-size: 70px;'>正确! </span>","null","","","","","","","","","","","","","","","","","","","","","","","feedback_test"
"","","","","","psychophysics","391","984200","0.0-8.4-0.4-0.154","389","","f","","","","","","","","","","","","","key","f","16.666109756098084","683","380","f","true","img/S_ambi40.png","自我","prac",""
"","","","","","html-keyboard-response","392","984702","0.0-8.4-0.4-1.154","null","<span style='color:GreenYellow; font-size: 70px;'>正确! </span>","null","","","","","","","","","","","","","","","","","","","","","","","feedback_test"
"","","","","","psychophysics","393","986146","0.0-8.4-0.4-0.155","437","","f","","","","","","","","","","","","","key","f","16.66311904761824","683","380","j","false","img/S_ambi40.png","生人","prac",""
"","","","","","html-keyboard-response","394","986649","0.0-8.4-0.4-1.155","null","<span style='color:red; font-size: 70px;'>错误! </span>","null","","","","","","","","","","","","","","","","","","","","","","","feedback_test"
"","","","","","psychophysics","395","988164","0.0-8.4-0.4-0.156","512","","f","","","","","","","","","","","","","key","f","16.853539325843638","683","380","f","true","img/T_ambi40.png","をる","prac",""
"","","","","","html-keyboard-response","396","988666","0.0-8.4-0.4-1.156","null","<span style='color:GreenYellow; font-size: 70px;'>正确! </span>","null","","","","","","","","","","","","","","","","","","","","","","","feedback_test"
"","","","","","psychophysics","397","990178","0.0-8.4-0.4-0.157","509","","j","","","","","","","","","","","","","key","j","16.665123595505577","683","380","j","true","img/S_ambi40.png","朋友","prac",""
"","","","","","html-keyboard-response","398","990680","0.0-8.4-0.4-1.157","null","<span style='color:GreenYellow; font-size: 70px;'>正确! </span>","null","","","","","","","","","","","","","","","","","","","","","","","feedback_test"
"","","","","","psychophysics","399","992119","0.0-8.4-0.4-0.158","436","","f","","","","","","","","","","","","","key","f","16.66504705882467","683","380","j","false","img/H_ambi40.png","生人","prac",""
"","","","","","html-keyboard-response","400","992621","0.0-8.4-0.4-1.158","null","<span style='color:red; font-size: 70px;'>错误! </span>","null","","","","","","","","","","","","","","","","","","","","","","","feedback_test"
"","","","","","psychophysics","401","994052","0.0-8.4-0.4-0.159","426","","f","","","","","","","","","","","","","key","f","16.666142857142923","683","380","j","false","img/H_ambi40.png","自我","prac",""
"","","","","","html-keyboard-response","402","994553","0.0-8.4-0.4-1.159","null","<span style='color:red; font-size: 70px;'>错误! </span>","null","","","","","","","","","","","","","","","","","","","","","","","feedback_test"
"","","","","","html-keyboard-response","403","997669","0.0-8.4-1.4-0.4","3111","<style>.context{color:white; font-size: 35px; line-height:40px}</style>                          <div><p class='context'>您正确回答了59% 的试次。</p ><p class='context'>您的平均反应时为438毫秒。</p >"," ","","","","","","","","","","","","","","","","","","","","","","",""
"","","","","","instructions","404","1011071","0.0-8.4-1.4-1.4","13397","","","","","","","","","","","","","","[{""page_index"":0,""viewing_time"":1957},{""page_index"":1,""viewing_time"":8662},{""page_index"":2,""viewing_time"":2777}]","","","","","","","","","","",""
"","","","","","psychophysics","405","1012569","0.0-8.5-0.5-0.160","491","","f","","","","","","","","","","","","","key","f","16.665749999998795","683","380","j","false","img/C_ambi40.png","自我","prac",""
"","","","","","html-keyboard-response","406","1013071","0.0-8.5-0.5-1.160","null","<span style='color:red; font-size: 70px;'>错误! </span>","null","","","","","","","","","","","","","","","","","","","","","","","feedback_test"
"","","","","","psychophysics","407","1014677","0.0-8.5-0.5-0.161","597","","j","","","","","","","","","","","","","key","j","16.665821052631852","683","380","j","true","img/H_ambi40.png","生人","prac",""
"","","","","","html-keyboard-response","408","1015179","0.0-8.5-0.5-1.161","null","<span style='color:GreenYellow; font-size: 70px;'>正确! </span>","null","","","","","","","","","","","","","","","","","","","","","","","feedback_test"
"","","","","","psychophysics","409","1016735","0.0-8.5-0.5-0.162","549","","f","","","","","","","","","","","","","key","f","16.666086956522044","683","380","j","false","img/C_ambi40.png","朋友","prac",""
"","","","","","html-keyboard-response","410","1017238","0.0-8.5-0.5-1.162","null","<span style='color:red; font-size: 70px;'>错误! </span>","null","","","","","","","","","","","","","","","","","","","","","","","feedback_test"
"","","","","","psychophysics","411","1018647","0.0-8.5-0.5-0.163","404","","f","","","","","","","","","","","","","key","f","16.667012048192344","683","380","f","true","img/H_ambi40.png","朋友","prac",""
"","","","","","html-keyboard-response","412","1019147","0.0-8.5-0.5-1.163","null","<span style='color:GreenYellow; font-size: 70px;'>正确! </span>","null","","","","","","","","","","","","","","","","","","","","","","","feedback_test"
"","","","","","psychophysics","413","1020581","0.0-8.5-0.5-0.164","419","","j","","","","","","","","","","","","","key","j","16.666321428570274","683","380","f","false","img/T_ambi40.png","をる","prac",""
"","","","","","html-keyboard-response","414","1021083","0.0-8.5-0.5-1.164","null","<span style='color:red; font-size: 70px;'>错误! </span>","null","","","","","","","","","","","","","","","","","","","","","","","feedback_test"
"","","","","","psychophysics","415","1022784","0.0-8.5-0.5-0.165","690","","j","","","","","","","","","","","","","key","j","16.832760000000707","683","380","f","false","img/C_ambi40.png","生人","prac",""
"","","","","","html-keyboard-response","416","1023287","0.0-8.5-0.5-1.165","null","<span style='color:red; font-size: 70px;'>错误! </span>","null","","","","","","","","","","","","","","","","","","","","","","","feedback_test"
"","","","","","psychophysics","417","1024680","0.0-8.5-0.5-0.166","390","","f","","","","","","","","","","","","","key","f","16.666207317072647","683","380","f","true","img/S_ambi40.png","自我","prac",""
"","","","","","html-keyboard-response","418","1025182","0.0-8.5-0.5-1.166","null","<span style='color:GreenYellow; font-size: 70px;'>正确! </span>","null","","","","","","","","","","","","","","","","","","","","","","","feedback_test"
"","","","","","psychophysics","419","1026642","0.0-8.5-0.5-0.167","457","","f","","","","","","","","","","","","","key","f","16.666811764705926","683","380","f","true","img/C_ambi40.png","生人","prac",""
"","","","","","html-keyboard-response","420","1027145","0.0-8.5-0.5-1.167","null","<span style='color:GreenYellow; font-size: 70px;'>正确! </span>","null","","","","","","","","","","","","","","","","","","","","","","","feedback_test"
"","","","","","psychophysics","421","1028783","0.0-8.5-0.5-0.168","636","","j","","","","","","","","","","","","","key","j","16.666484536082226","683","380","j","true","img/H_ambi40.png","自我","prac",""
"","","","","","html-keyboard-response","422","1029285","0.0-8.5-0.5-1.168","null","<span style='color:GreenYellow; font-size: 70px;'>正确! </span>","null","","","","","","","","","","","","","","","","","","","","","","","feedback_test"
"","","","","","psychophysics","423","1030880","0.0-8.5-0.5-0.169","586","","f","","","","","","","","","","","","","key","f","16.667297872338207","683","380","f","true","img/T_ambi40.png","をる","prac",""
"","","","","","html-keyboard-response","424","1031382","0.0-8.5-0.5-1.169","null","<span style='color:GreenYellow; font-size: 70px;'>正确! </span>","null","","","","","","","","","","","","","","","","","","","","","","","feedback_test"
"","","","","","psychophysics","425","1032965","0.0-8.5-0.5-0.170","581","","f","","","","","","","","","","","","","key","f","16.84551612903384","683","380","f","true","img/T_ambi40.png","をる","prac",""
"","","","","","html-keyboard-response","426","1033466","0.0-8.5-0.5-1.170","null","<span style='color:GreenYellow; font-size: 70px;'>正确! </span>","null","","","","","","","","","","","","","","","","","","","","","","","feedback_test"
"","","","","","psychophysics","427","1035147","0.0-8.5-0.5-0.171","679","","j","","","","","","","","","","","","","key","j","16.66615151514939","683","380","j","true","img/S_ambi40.png","生人","prac",""
"","","","","","html-keyboard-response","428","1035650","0.0-8.5-0.5-1.171","null","<span style='color:GreenYellow; font-size: 70px;'>正确! </span>","null","","","","","","","","","","","","","","","","","","","","","","","feedback_test"
"","","","","","psychophysics","429","1037246","0.0-8.5-0.5-0.172","594","","f","","","","","","","","","","","","","key","f","16.665547368420583","683","380","f","true","img/H_ambi40.png","朋友","prac",""
"","","","","","html-keyboard-response","430","1037748","0.0-8.5-0.5-1.172","null","<span style='color:GreenYellow; font-size: 70px;'>正确! </span>","null","","","","","","","","","","","","","","","","","","","","","","","feedback_test"
"","","","","","psychophysics","431","1039409","0.0-8.5-0.5-0.173","659","","j","","","","","","","","","","","","","key","j","16.835540816325658","683","380","j","true","img/S_ambi40.png","朋友","prac",""
"","","","","","html-keyboard-response","432","1039912","0.0-8.5-0.5-1.173","null","<span style='color:GreenYellow; font-size: 70px;'>正确! </span>","null","","","","","","","","","","","","","","","","","","","","","","","feedback_test"
"","","","","","psychophysics","433","1041610","0.0-8.5-0.5-0.174","696","","f","","","","","","","","","","","","","key","f","16.66603960396058","683","380","f","true","img/S_ambi40.png","自我","prac",""
"","","","","","html-keyboard-response","434","1042112","0.0-8.5-0.5-1.174","null","<span style='color:GreenYellow; font-size: 70px;'>正确! </span>","null","","","","","","","","","","","","","","","","","","","","","","","feedback_test"
"","","","","","psychophysics","435","1043732","0.0-8.5-0.5-0.175","618","","f","","","","","","","","","","","","","key","f","16.66561458333308","683","380","f","true","img/T_ambi40.png","をる","prac",""
"","","","","","html-keyboard-response","436","1044235","0.0-8.5-0.5-1.175","null","<span style='color:GreenYellow; font-size: 70px;'>正确! </span>","null","","","","","","","","","","","","","","","","","","","","","","","feedback_test"
"","","","","","psychophysics","437","1045929","0.0-8.5-0.5-0.176","686","","f","","","","","","","","","","","","","key","f","16.666383838382163","683","380","f","true","img/H_ambi40.png","朋友","prac",""
"","","","","","html-keyboard-response","438","1046431","0.0-8.5-0.5-1.176","null","<span style='color:GreenYellow; font-size: 70px;'>正确! </span>","null","","","","","","","","","","","","","","","","","","","","","","","feedback_test"
"","","","","","psychophysics","439","1048164","0.0-8.5-0.5-0.177","731","","f","","","","","","","","","","","","","key","f","16.829666666668274","683","380","f","true","img/T_ambi40.png","をる","prac",""
"","","","","","html-keyboard-response","440","1048667","0.0-8.5-0.5-1.177","null","<span style='color:GreenYellow; font-size: 70px;'>正确! </span>","null","","","","","","","","","","","","","","","","","","","","","","","feedback_test"
"","","","","","psychophysics","441","1050341","0.0-8.5-0.5-0.178","665","","f","","","","","","","","","","","","","key","f","16.666214285712993","683","380","f","true","img/T_ambi40.png","をる","prac",""
"","","","","","html-keyboard-response","442","1050843","0.0-8.5-0.5-1.178","null","<span style='color:GreenYellow; font-size: 70px;'>正确! </span>","null","","","","","","","","","","","","","","","","","","","","","","","feedback_test"
"","","","","","psychophysics","443","1052427","0.0-8.5-0.5-0.179","582","","f","","","","","","","","","","","","","key","f","16.665031914891518","683","380","f","true","img/S_ambi40.png","自我","prac",""
"","","","","","html-keyboard-response","444","1052928","0.0-8.5-0.5-1.179","null","<span style='color:GreenYellow; font-size: 70px;'>正确! </span>","null","","","","","","","","","","","","","","","","","","","","","","","feedback_test"
"","","","","","psychophysics","445","1054558","0.0-8.5-0.5-0.180","628","","j","","","","","","","","","","","","","key","j","16.665453608246214","683","380","f","false","img/T_ambi40.png","をる","prac",""
"","","","","","html-keyboard-response","446","1055060","0.0-8.5-0.5-1.180","null","<span style='color:red; font-size: 70px;'>错误! </span>","null","","","","","","","","","","","","","","","","","","","","","","","feedback_test"
"","","","","","psychophysics","447","1056613","0.0-8.5-0.5-0.181","551","","f","","","","","","","","","","","","","key","f","16.666076086957574","683","380","f","true","img/S_ambi40.png","自我","prac",""
"","","","","","html-keyboard-response","448","1057114","0.0-8.5-0.5-1.181","null","<span style='color:GreenYellow; font-size: 70px;'>正确! </span>","null","","","","","","","","","","","","","","","","","","","","","","","feedback_test"
"","","","","","psychophysics","449","1059108","0.0-8.5-0.5-0.182","991","","f","","","","","","","","","","","","","key","f","16.66562711864402","683","380","f","true","img/C_ambi40.png","生人","prac",""
"","","","","","html-keyboard-response","450","1059612","0.0-8.5-0.5-1.182","null","<span style='color:GreenYellow; font-size: 70px;'>正确! </span>","null","","","","","","","","","","","","","","","","","","","","","","","feedback_test"
"","","","","","psychophysics","451","1061279","0.0-8.5-0.5-0.183","665","","f","","","","","","","","","","","","","key","f","16.666122448979877","683","380","f","true","img/T_ambi40.png","をる","prac",""
"","","","","","html-keyboard-response","452","1061781","0.0-8.5-0.5-1.183","null","<span style='color:GreenYellow; font-size: 70px;'>正确! </span>","null","","","","","","","","","","","","","","","","","","","","","","","feedback_test"
"","","","","","psychophysics","453","1063479","0.0-8.5-0.5-0.184","696","","j","","","","","","","","","","","","","key","j","16.833740000000688","683","380","j","true","img/S_ambi40.png","生人","prac",""
"","","","","","html-keyboard-response","454","1063981","0.0-8.5-0.5-1.184","null","<span style='color:GreenYellow; font-size: 70px;'>正确! </span>","null","","","","","","","","","","","","","","","","","","","","","","","feedback_test"
"","","","","","psychophysics","455","1065827","0.0-8.5-0.5-0.185","844","","f","","","","","","","","","","","","","key","f","16.666348623853057","683","380","f","true","img/C_ambi40.png","生人","prac",""
"","","","","","html-keyboard-response","456","1066328","0.0-8.5-0.5-1.185","null","<span style='color:GreenYellow; font-size: 70px;'>正确! </span>","null","","","","","","","","","","","","","","","","","","","","","","","feedback_test"
