"success","timeout","failed_images","failed_audio","failed_video","trial_type","trial_index","time_elapsed","internal_node_id","rt","stimulus","response","value","item_width_mm","item_height_mm","item_width_px","px2mm","view_dist_mm","item_width_deg","px2deg","scale_factor","win_width_deg","win_height_deg","view_history","response_type","key_press","avg_frame_time","center_x","center_y","correct_response","correct","Image","word","condition","screen_id"
"true","false","[]","[]","[]","preload","0","203","0.0-0.0","","","","","","","","","","","","","","","","","","","","","","","","","",""
"","","","","","html-keyboard-response","1","2662","0.0-1.0","2458","
     <p>您好，欢迎参加本次实验。</p>
     <p>为充分保障您的权利，请确保您已经知晓并同意《参与实验同意书》以及《数据公开知情同意书》。</p>
     <p>如果您未见过上述内容，请咨询实验员。</p>
     <p>如果您选择继续实验，则表示您已经清楚两份知情同意书的内容并同意。</p>
     <p> <div style = ""color: green""><按任意键至下页></div> </p>
     ","enter","","","","","","","","","","","","","","","","","","","","","","",""
"","","","","","html-keyboard-response","2","3426","0.0-2.0","763","
     <p>本实验首先需要您填写一些基本个人信息。</p>
     <p> <div style = ""color: green""><按任意键至下页></div></p>
     ","enter","","","","","","","","","","","","","","","","","","","","","","",""
"","","","","","call-function","3","3427","0.0-3.0-0.0","","","","","","","","","","","","","","","","","","","","","","","","","",""
"","","","","","survey-html-form","4","6700","0.0-3.0-1.0","3271","","{""Q0"":""19""}","","","","","","","","","","","","","","","","","","","","","","",""
"","","","","","html-button-response","5","7604","0.0-3.0-2.0","902","<p style = 'color : white'>您的性别</p>","0","","","","","","","","","","","","","","","","","","","","","","",""
"","","","","","survey-html-form","6","10532","0.0-3.0-3.0","2927","","{""Q0"":""2004""}","","","","","","","","","","","","","","","","","","","","","","",""
"","","","","","survey-html-form","7","12228","0.0-3.0-4.0","1695","","{""Q0"":""5""}","","","","","","","","","","","","","","","","","","","","","","",""
"","","","","","virtual-chinrest","8","71876","0.0-4.0","59647","","","","85.6","53.98","355.5773788571174","4.148402753333036","688.77","7.111547577142348","50","0.8605721797700769","23.38","12.06","","","","","","","","","","","",""
"true","","","","","fullscreen","9","73914","0.0-5.0","","","","","","","","","","","","","","","","","","","","","","","","","",""
"","","","","","instructions","10","100220","0.0-6.0","26305","","","","","","","","","","","","","","[{""page_index"":0,""viewing_time"":1065},{""page_index"":1,""viewing_time"":21184},{""page_index"":2,""viewing_time"":2312},{""page_index"":3,""viewing_time"":1743}]","","","","","","","","","","",""
"","","","","","psychophysics","11","102744","0.0-7.0-0.0","null","","null","","","","","","","","","","","","","key","null","17.19451034482757","614.4","341.44","f","false","img/H_ambi40.png","自我","prac",""
"","","","","","html-keyboard-response","12","103256","0.0-7.0-1.0","null","<span class='add_' style='color:yellow; font-size: 70px;'> 太慢! </span>","null","","","","","","","","","","","","","","","","","","","","","","","feedback_test"
"","","","","","psychophysics","13","105766","0.0-7.0-0.1","null","","null","","","","","","","","","","","","","key","null","18.199029197080343","614.4","341.44","f","false","img/H_ambi40.png","生人","prac",""
"","","","","","html-keyboard-response","14","106281","0.0-7.0-1.1","null","<span class='add_' style='color:yellow; font-size: 70px;'> 太慢! </span>","null","","","","","","","","","","","","","","","","","","","","","","","feedback_test"
"","","","","","psychophysics","15","108786","0.0-7.0-0.2","null","","null","","","","","","","","","","","","","key","null","17.93688489208643","614.4","341.44","f","false","img/C_ambi40.png","生人","prac",""
"","","","","","html-keyboard-response","16","109300","0.0-7.0-1.2","null","<span class='add_' style='color:yellow; font-size: 70px;'> 太慢! </span>","null","","","","","","","","","","","","","","","","","","","","","","","feedback_test"
"","","","","","psychophysics","17","111803","0.0-7.0-0.3","null","","null","","","","","","","","","","","","","key","null","17.080599999999937","614.4","341.44","f","false","img/C_ambi40.png","朋友","prac",""
"","","","","","html-keyboard-response","18","112308","0.0-7.0-1.3","null","<span class='add_' style='color:yellow; font-size: 70px;'> 太慢! </span>","null","","","","","","","","","","","","","","","","","","","","","","","feedback_test"
"","","","","","psychophysics","19","114812","0.0-7.0-0.4","null","","null","","","","","","","","","","","","","key","null","17.68521276595738","614.4","341.44","j","false","img/S_ambi40.png","生人","prac",""
"","","","","","html-keyboard-response","20","115320","0.0-7.0-1.4","null","<span class='add_' style='color:yellow; font-size: 70px;'> 太慢! </span>","null","","","","","","","","","","","","","","","","","","","","","","","feedback_test"
"","","","","","psychophysics","21","116352","0.0-7.0-0.5","31","","j","","","","","","","","","","","","","key","j","17.184508474576248","614.4","341.44","f","false","img/T_ambi40.png","をる","prac",""
"","","","","","html-keyboard-response","22","116864","0.0-7.0-1.5","null","<span style='color:yellow; font-size: 70px;'>过快! </span>","null","","","","","","","","","","","","","","","","","","","","","","","feedback_test"
"","","","","","psychophysics","23","119381","0.0-7.0-0.6","null","","null","","","","","","","","","","","","","key","null","17.19924137931044","614.4","341.44","j","false","img/S_ambi40.png","生人","prac",""
"","","","","","html-keyboard-response","24","119894","0.0-7.0-1.6","null","<span class='add_' style='color:yellow; font-size: 70px;'> 太慢! </span>","null","","","","","","","","","","","","","","","","","","","","","","","feedback_test"
"","","","","","psychophysics","25","122407","0.0-7.0-0.7","null","","null","","","","","","","","","","","","","key","null","17.07918493150686","614.4","341.44","j","false","img/H_ambi40.png","朋友","prac",""
"","","","","","html-keyboard-response","26","122922","0.0-7.0-1.7","null","<span class='add_' style='color:yellow; font-size: 70px;'> 太慢! </span>","null","","","","","","","","","","","","","","","","","","","","","","","feedback_test"
"","","","","","psychophysics","27","125431","0.0-7.0-0.8","null","","null","","","","","","","","","","","","","key","null","16.962999999999987","614.4","341.44","f","false","img/T_ambi40.png","をる","prac",""
"","","","","","html-keyboard-response","28","125948","0.0-7.0-1.8","null","<span class='add_' style='color:yellow; font-size: 70px;'> 太慢! </span>","null","","","","","","","","","","","","","","","","","","","","","","","feedback_test"
"","","","","","psychophysics","29","127170","0.0-7.0-0.9","215","","j","","","","","","","","","","","","","key","j","18.40249230769248","614.4","341.44","j","true","img/C_ambi40.png","自我","prac",""
"","","","","","html-keyboard-response","30","127671","0.0-7.0-1.9","null","<span style='color:GreenYellow; font-size: 70px;'>正确! </span>","null","","","","","","","","","","","","","","","","","","","","","","","feedback_test"
"","","","","","psychophysics","31","130174","0.0-7.0-0.10","null","","null","","","","","","","","","","","","","key","null","17.19432413793101","614.4","341.44","f","false","img/T_ambi40.png","をる","prac",""
"","","","","","html-keyboard-response","32","130686","0.0-7.0-1.10","null","<span class='add_' style='color:yellow; font-size: 70px;'> 太慢! </span>","null","","","","","","","","","","","","","","","","","","","","","","","feedback_test"
"","","","","","psychophysics","33","133194","0.0-7.0-0.11","null","","null","","","","","","","","","","","","","key","null","17.444211267605695","614.4","341.44","f","false","img/S_ambi40.png","朋友","prac",""
"","","","","","html-keyboard-response","34","133697","0.0-7.0-1.11","null","<span class='add_' style='color:yellow; font-size: 70px;'> 太慢! </span>","null","","","","","","","","","","","","","","","","","","","","","","","feedback_test"
"","","","","","psychophysics","35","136202","0.0-7.0-0.12","null","","null","","","","","","","","","","","","","key","null","17.321076923076852","614.4","341.44","f","false","img/T_ambi40.png","をる","prac",""
"","","","","","html-keyboard-response","36","136707","0.0-7.0-1.12","null","<span class='add_' style='color:yellow; font-size: 70px;'> 太慢! </span>","null","","","","","","","","","","","","","","","","","","","","","","","feedback_test"
"","","","","","psychophysics","37","139211","0.0-7.0-0.13","null","","null","","","","","","","","","","","","","key","null","17.945797101449198","614.4","341.44","f","false","img/S_ambi40.png","自我","prac",""
"","","","","","html-keyboard-response","38","139719","0.0-7.0-1.13","null","<span class='add_' style='color:yellow; font-size: 70px;'> 太慢! </span>","null","","","","","","","","","","","","","","","","","","","","","","","feedback_test"
"","","","","","psychophysics","39","142222","0.0-7.0-0.14","null","","null","","","","","","","","","","","","","key","null","17.682007092198585","614.4","341.44","j","false","img/H_ambi40.png","朋友","prac",""
"","","","","","html-keyboard-response","40","142731","0.0-7.0-1.14","null","<span class='add_' style='color:yellow; font-size: 70px;'> 太慢! </span>","null","","","","","","","","","","","","","","","","","","","","","","","feedback_test"
"","","","","","psychophysics","41","145233","0.0-7.0-0.15","null","","null","","","","","","","","","","","","","key","null","17.1974482758621","614.4","341.44","j","false","img/C_ambi40.png","自我","prac",""
"","","","","","html-keyboard-response","42","145747","0.0-7.0-1.15","null","<span class='add_' style='color:yellow; font-size: 70px;'> 太慢! </span>","null","","","","","","","","","","","","","","","","","","","","","","","feedback_test"
"","","","","","psychophysics","43","148254","0.0-7.0-0.16","null","","null","","","","","","","","","","","","","key","null","18.607432835820738","614.4","341.44","f","false","img/S_ambi40.png","朋友","prac",""
"","","","","","html-keyboard-response","44","148755","0.0-7.0-1.16","null","<span class='add_' style='color:yellow; font-size: 70px;'> 太慢! </span>","null","","","","","","","","","","","","","","","","","","","","","","","feedback_test"
"","","","","","psychophysics","45","151259","0.0-7.0-0.17","null","","null","","","","","","","","","","","","","key","null","17.07988965517243","614.4","341.44","j","false","img/S_ambi40.png","生人","prac",""
"","","","","","html-keyboard-response","46","151774","0.0-7.0-1.17","null","<span class='add_' style='color:yellow; font-size: 70px;'> 太慢! </span>","null","","","","","","","","","","","","","","","","","","","","","","","feedback_test"
"","","","","","psychophysics","47","154280","0.0-7.0-0.18","null","","null","","","","","","","","","","","","","key","null","17.109402777777884","614.4","341.44","f","false","img/T_ambi40.png","をる","prac",""
"","","","","","html-keyboard-response","48","154793","0.0-7.0-1.18","null","<span class='add_' style='color:yellow; font-size: 70px;'> 太慢! </span>","null","","","","","","","","","","","","","","","","","","","","","","","feedback_test"
"","","","","","psychophysics","49","157296","0.0-7.0-0.19","null","","null","","","","","","","","","","","","","key","null","17.812471428571527","614.4","341.44","f","false","img/T_ambi40.png","をる","prac",""
"","","","","","html-keyboard-response","50","157799","0.0-7.0-1.19","null","<span class='add_' style='color:yellow; font-size: 70px;'> 太慢! </span>","null","","","","","","","","","","","","","","","","","","","","","","","feedback_test"
"","","","","","psychophysics","51","160163","0.0-7.0-0.20","1356","","f","","","","","","","","","","","","","key","f","17.8943587786259","614.4","341.44","f","true","img/H_ambi40.png","生人","prac",""
"","","","","","html-keyboard-response","52","160665","0.0-7.0-1.20","null","<span style='color:GreenYellow; font-size: 70px;'>正确! </span>","null","","","","","","","","","","","","","","","","","","","","","","","feedback_test"
"","","","","","psychophysics","53","162876","0.0-7.0-0.21","1209","","j","","","","","","","","","","","","","key","j","16.752671755725235","614.4","341.44","f","false","img/H_ambi40.png","自我","prac",""
"","","","","","html-keyboard-response","54","163379","0.0-7.0-1.21","null","<span style='color:red; font-size: 70px;'>错误! </span>","null","","","","","","","","","","","","","","","","","","","","","","","feedback_test"
"","","","","","psychophysics","55","165882","0.0-7.0-0.22","null","","null","","","","","","","","","","","","","key","null","17.19613194444456","614.4","341.44","j","false","img/C_ambi40.png","自我","prac",""
"","","","","","html-keyboard-response","56","166397","0.0-7.0-1.22","null","<span class='add_' style='color:yellow; font-size: 70px;'> 太慢! </span>","null","","","","","","","","","","","","","","","","","","","","","","","feedback_test"
"","","","","","psychophysics","57","167905","0.0-7.0-0.23","505","","f","","","","","","","","","","","","","key","f","16.618344444444585","614.4","341.44","f","true","img/T_ambi40.png","をる","prac",""
"","","","","","html-keyboard-response","58","168410","0.0-7.0-1.23","null","<span style='color:GreenYellow; font-size: 70px;'>正确! </span>","null","","","","","","","","","","","","","","","","","","","","","","","feedback_test"
"","","","","","psychophysics","59","170045","0.0-7.0-0.24","634","","j","","","","","","","","","","","","","key","j","16.97106250000009","614.4","341.44","j","true","img/S_ambi40.png","生人","prac",""
"","","","","","html-keyboard-response","60","170554","0.0-7.0-1.24","null","<span style='color:GreenYellow; font-size: 70px;'>正确! </span>","null","","","","","","","","","","","","","","","","","","","","","","","feedback_test"
"","","","","","psychophysics","61","172023","0.0-7.0-0.25","467","","f","","","","","","","","","","","","","key","f","17.208223529411686","614.4","341.44","f","true","img/C_ambi40.png","朋友","prac",""
"","","","","","html-keyboard-response","62","172534","0.0-7.0-1.25","null","<span style='color:GreenYellow; font-size: 70px;'>正确! </span>","null","","","","","","","","","","","","","","","","","","","","","","","feedback_test"
"","","","","","psychophysics","63","174049","0.0-7.0-0.26","509","","j","","","","","","","","","","","","","key","j","16.841448275862135","614.4","341.44","f","false","img/S_ambi40.png","自我","prac",""
"","","","","","html-keyboard-response","64","174554","0.0-7.0-1.26","null","<span style='color:red; font-size: 70px;'>错误! </span>","null","","","","","","","","","","","","","","","","","","","","","","","feedback_test"
"","","","","","psychophysics","65","176076","0.0-7.0-0.27","514","","f","","","","","","","","","","","","","key","f","16.802808988764177","614.4","341.44","f","true","img/T_ambi40.png","をる","prac",""
"","","","","","html-keyboard-response","66","176591","0.0-7.0-1.27","null","<span style='color:GreenYellow; font-size: 70px;'>正确! </span>","null","","","","","","","","","","","","","","","","","","","","","","","feedback_test"
"","","","","","psychophysics","67","178278","0.0-7.0-0.28","683","","f","","","","","","","","","","","","","key","f","16.626149999999907","614.4","341.44","j","false","img/H_ambi40.png","朋友","prac",""
"","","","","","html-keyboard-response","68","178786","0.0-7.0-1.28","null","<span style='color:red; font-size: 70px;'>错误! </span>","null","","","","","","","","","","","","","","","","","","","","","","","feedback_test"
"","","","","","psychophysics","69","180213","0.0-7.0-0.29","425","","j","","","","","","","","","","","","","key","j","17.023560975609765","614.4","341.44","j","true","img/H_ambi40.png","朋友","prac",""
"","","","","","html-keyboard-response","70","180725","0.0-7.0-1.29","null","<span style='color:GreenYellow; font-size: 70px;'>正确! </span>","null","","","","","","","","","","","","","","","","","","","","","","","feedback_test"
"","","","","","psychophysics","71","182798","0.0-7.0-0.30","1070","","f","","","","","","","","","","","","","key","f","17.46676271186448","614.4","341.44","j","false","img/C_ambi40.png","自我","prac",""
"","","","","","html-keyboard-response","72","183301","0.0-7.0-1.30","null","<span style='color:red; font-size: 70px;'>错误! </span>","null","","","","","","","","","","","","","","","","","","","","","","","feedback_test"
"","","","","","psychophysics","73","185221","0.0-7.0-0.31","917","","j","","","","","","","","","","","","","key","j","16.91563716814163","614.4","341.44","f","false","img/C_ambi40.png","生人","prac",""
"","","","","","html-keyboard-response","74","185729","0.0-7.0-1.31","null","<span style='color:red; font-size: 70px;'>错误! </span>","null","","","","","","","","","","","","","","","","","","","","","","","feedback_test"
"","","","","","psychophysics","75","188243","0.0-8.0-0.0-0.0","null","","null","","","","","","","","","","","","","key","null","17.1987310344829","614.4","341.44","f","false","img/T_ambi40.png","をる","prac",""
"","","","","","html-keyboard-response","76","188751","0.0-8.0-0.0-1.0","null","<span class='add_' style='color:yellow; font-size: 70px;'> 太慢! </span>","null","","","","","","","","","","","","","","","","","","","","","","","feedback_test"
"","","","","","psychophysics","77","191253","0.0-8.0-0.0-0.1","null","","null","","","","","","","","","","","","","key","null","17.937208633093505","614.4","341.44","f","false","img/C_ambi40.png","朋友","prac",""
"","","","","","html-keyboard-response","78","191759","0.0-8.0-0.0-1.1","null","<span class='add_' style='color:yellow; font-size: 70px;'> 太慢! </span>","null","","","","","","","","","","","","","","","","","","","","","","","feedback_test"
"","","","","","psychophysics","79","193098","0.0-8.0-0.0-0.2","334","","f","","","","","","","","","","","","","key","f","16.83064556962006","614.4","341.44","f","true","img/T_ambi40.png","をる","prac",""
"","","","","","html-keyboard-response","80","193602","0.0-8.0-0.0-1.2","null","<span style='color:GreenYellow; font-size: 70px;'>正确! </span>","null","","","","","","","","","","","","","","","","","","","","","","","feedback_test"
"","","","","","psychophysics","81","195647","0.0-8.0-0.0-0.3","1037","","j","","","","","","","","","","","","","key","j","16.897949999999884","614.4","341.44","j","true","img/C_ambi40.png","自我","prac",""
"","","","","","html-keyboard-response","82","196158","0.0-8.0-0.0-1.3","null","<span style='color:GreenYellow; font-size: 70px;'>正确! </span>","null","","","","","","","","","","","","","","","","","","","","","","","feedback_test"
"","","","","","psychophysics","83","198665","0.0-8.0-0.0-0.4","null","","null","","","","","","","","","","","","","key","null","17.81682733812942","614.4","341.44","j","false","img/S_ambi40.png","生人","prac",""
"","","","","","html-keyboard-response","84","199173","0.0-8.0-0.0-1.4","null","<span class='add_' style='color:yellow; font-size: 70px;'> 太慢! </span>","null","","","","","","","","","","","","","","","","","","","","","","","feedback_test"
"","","","","","psychophysics","85","201675","0.0-8.0-0.0-0.5","null","","null","","","","","","","","","","","","","key","null","18.74976691729332","614.4","341.44","f","false","img/S_ambi40.png","自我","prac",""
"","","","","","html-keyboard-response","86","202187","0.0-8.0-0.0-1.5","null","<span class='add_' style='color:yellow; font-size: 70px;'> 太慢! </span>","null","","","","","","","","","","","","","","","","","","","","","","","feedback_test"
"","","","","","psychophysics","87","204083","0.0-8.0-0.0-0.6","893","","f","","","","","","","","","","","","","key","f","16.623276785714292","614.4","341.44","f","true","img/C_ambi40.png","生人","prac",""
"","","","","","html-keyboard-response","88","204593","0.0-8.0-0.0-1.6","null","<span style='color:GreenYellow; font-size: 70px;'>正确! </span>","null","","","","","","","","","","","","","","","","","","","","","","","feedback_test"
"","","","","","psychophysics","89","206603","0.0-8.0-0.0-0.7","1007","","j","","","","","","","","","","","","","key","j","17.3434869565219","614.4","341.44","f","false","img/T_ambi40.png","をる","prac",""
"","","","","","html-keyboard-response","90","207108","0.0-8.0-0.0-1.7","null","<span style='color:red; font-size: 70px;'>错误! </span>","null","","","","","","","","","","","","","","","","","","","","","","","feedback_test"
"","","","","","psychophysics","91","208554","0.0-8.0-0.0-0.8","433","","f","","","","","","","","","","","","","key","f","17.022228915662666","614.4","341.44","f","true","img/H_ambi40.png","自我","prac",""
"","","","","","html-keyboard-response","92","209071","0.0-8.0-0.0-1.8","null","<span style='color:GreenYellow; font-size: 70px;'>正确! </span>","null","","","","","","","","","","","","","","","","","","","","","","","feedback_test"
"","","","","","psychophysics","93","210924","0.0-8.0-0.0-0.9","840","","f","","","","","","","","","","","","","key","f","18.468242424242423","614.4","341.44","j","false","img/H_ambi40.png","朋友","prac",""
"","","","","","html-keyboard-response","94","211432","0.0-8.0-0.0-1.9","null","<span style='color:red; font-size: 70px;'>错误! </span>","null","","","","","","","","","","","","","","","","","","","","","","","feedback_test"
"","","","","","psychophysics","95","212812","0.0-8.0-0.0-0.10","379","","j","","","","","","","","","","","","","key","j","17.033200000000214","614.4","341.44","j","true","img/C_ambi40.png","自我","prac",""
"","","","","","html-keyboard-response","96","213323","0.0-8.0-0.0-1.10","null","<span style='color:GreenYellow; font-size: 70px;'>正确! </span>","null","","","","","","","","","","","","","","","","","","","","","","","feedback_test"
"","","","","","psychophysics","97","214911","0.0-8.0-0.0-0.11","586","","f","","","","","","","","","","","","","key","f","16.622787234042722","614.4","341.44","j","false","img/H_ambi40.png","朋友","prac",""
"","","","","","html-keyboard-response","98","215420","0.0-8.0-0.0-1.11","null","<span style='color:red; font-size: 70px;'>错误! </span>","null","","","","","","","","","","","","","","","","","","","","","","","feedback_test"
"","","","","","psychophysics","99","217000","0.0-8.0-0.0-0.12","578","","j","","","","","","","","","","","","","key","j","16.619946236559127","614.4","341.44","j","true","img/S_ambi40.png","生人","prac",""
"","","","","","html-keyboard-response","100","217510","0.0-8.0-0.0-1.12","null","<span style='color:GreenYellow; font-size: 70px;'>正确! </span>","null","","","","","","","","","","","","","","","","","","","","","","","feedback_test"
"","","","","","psychophysics","101","219028","0.0-8.0-0.0-0.13","516","","f","","","","","","","","","","","","","key","f","16.809633333333316","614.4","341.44","f","true","img/S_ambi40.png","朋友","prac",""
"","","","","","html-keyboard-response","102","219543","0.0-8.0-0.0-1.13","null","<span style='color:GreenYellow; font-size: 70px;'>正确! </span>","null","","","","","","","","","","","","","","","","","","","","","","","feedback_test"
"","","","","","psychophysics","103","221093","0.0-8.0-0.0-0.14","548","","j","","","","","","","","","","","","","key","j","19.11162499999991","614.4","341.44","f","false","img/H_ambi40.png","生人","prac",""
"","","","","","html-keyboard-response","104","221596","0.0-8.0-0.0-1.14","null","<span style='color:red; font-size: 70px;'>错误! </span>","null","","","","","","","","","","","","","","","","","","","","","","","feedback_test"
"","","","","","psychophysics","105","223030","0.0-8.0-0.0-0.15","432","","f","","","","","","","","","","","","","key","f","17.028626506024317","614.4","341.44","f","true","img/T_ambi40.png","をる","prac",""
"","","","","","html-keyboard-response","106","223539","0.0-8.0-0.0-1.15","null","<span style='color:GreenYellow; font-size: 70px;'>正确! </span>","null","","","","","","","","","","","","","","","","","","","","","","","feedback_test"
"","","","","","psychophysics","107","225388","0.0-8.0-0.0-0.16","843","","j","","","","","","","","","","","","","key","j","17.08992452830195","614.4","341.44","f","false","img/H_ambi40.png","生人","prac",""
"","","","","","html-keyboard-response","108","225902","0.0-8.0-0.0-1.16","null","<span style='color:red; font-size: 70px;'>错误! </span>","null","","","","","","","","","","","","","","","","","","","","","","","feedback_test"
"","","","","","psychophysics","109","227625","0.0-8.0-0.0-0.17","721","","f","","","","","","","","","","","","","key","f","18.02061052631562","614.4","341.44","f","true","img/S_ambi40.png","自我","prac",""
"","","","","","html-keyboard-response","110","228141","0.0-8.0-0.0-1.17","null","<span style='color:GreenYellow; font-size: 70px;'>正确! </span>","null","","","","","","","","","","","","","","","","","","","","","","","feedback_test"
"","","","","","psychophysics","111","230059","0.0-8.0-0.0-0.18","912","","f","","","","","","","","","","","","","key","f","17.231109090909012","614.4","341.44","f","true","img/T_ambi40.png","をる","prac",""
"","","","","","html-keyboard-response","112","230573","0.0-8.0-0.0-1.18","null","<span style='color:GreenYellow; font-size: 70px;'>正确! </span>","null","","","","","","","","","","","","","","","","","","","","","","","feedback_test"
"","","","","","psychophysics","113","232629","0.0-8.0-0.0-0.19","1054","","j","","","","","","","","","","","","","key","j","17.039716666666695","614.4","341.44","j","true","img/C_ambi40.png","自我","prac",""
"","","","","","html-keyboard-response","114","233137","0.0-8.0-0.0-1.19","null","<span style='color:GreenYellow; font-size: 70px;'>正确! </span>","null","","","","","","","","","","","","","","","","","","","","","","","feedback_test"
"","","","","","psychophysics","115","235144","0.0-8.0-0.0-0.20","993","","f","","","","","","","","","","","","","key","f","17.048301724137954","614.4","341.44","f","true","img/T_ambi40.png","をる","prac",""
"","","","","","html-keyboard-response","116","235647","0.0-8.0-0.0-1.20","null","<span style='color:GreenYellow; font-size: 70px;'>正确! </span>","null","","","","","","","","","","","","","","","","","","","","","","","feedback_test"
"","","","","","psychophysics","117","237938","0.0-8.0-0.0-0.21","1288","","f","","","","","","","","","","","","","key","f","17.391469230769033","614.4","341.44","j","false","img/S_ambi40.png","生人","prac",""
"","","","","","html-keyboard-response","118","238444","0.0-8.0-0.0-1.21","null","<span style='color:red; font-size: 70px;'>错误! </span>","null","","","","","","","","","","","","","","","","","","","","","","","feedback_test"
"","","","","","psychophysics","119","240534","0.0-8.0-0.0-0.22","1082","","f","","","","","","","","","","","","","key","f","16.620521367521327","614.4","341.44","f","true","img/C_ambi40.png","朋友","prac",""
"","","","","","html-keyboard-response","120","241048","0.0-8.0-0.0-1.22","null","<span style='color:GreenYellow; font-size: 70px;'>正确! </span>","null","","","","","","","","","","","","","","","","","","","","","","","feedback_test"
"","","","","","psychophysics","121","243008","0.0-8.0-0.0-0.23","943","","f","","","","","","","","","","","","","key","f","16.623267241379303","614.4","341.44","f","true","img/H_ambi40.png","自我","prac",""
"","","","","","html-keyboard-response","122","243514","0.0-8.0-0.0-1.23","null","<span style='color:GreenYellow; font-size: 70px;'>正确! </span>","null","","","","","","","","","","","","","","","","","","","","","","","feedback_test"
"","","","","","psychophysics","123","245465","0.0-8.0-0.0-0.24","941","","f","","","","","","","","","","","","","key","f","17.05656637168135","614.4","341.44","f","true","img/T_ambi40.png","をる","prac",""
"","","","","","html-keyboard-response","124","245968","0.0-8.0-0.0-1.24","null","<span style='color:GreenYellow; font-size: 70px;'>正确! </span>","null","","","","","","","","","","","","","","","","","","","","","","","feedback_test"
"","","","","","psychophysics","125","247906","0.0-8.0-0.0-0.25","933","","f","","","","","","","","","","","","","key","f","16.621017391304232","614.4","341.44","j","false","img/S_ambi40.png","生人","prac",""
"","","","","","html-keyboard-response","126","248408","0.0-8.0-0.0-1.25","null","<span style='color:red; font-size: 70px;'>错误! </span>","null","","","","","","","","","","","","","","","","","","","","","","","feedback_test"
"","","","","","psychophysics","127","250577","0.0-8.0-0.0-0.26","1167","","f","","","","","","","","","","","","","key","f","17.58076229508199","614.4","341.44","j","false","img/H_ambi40.png","朋友","prac",""
"","","","","","html-keyboard-response","128","251090","0.0-8.0-0.0-1.26","null","<span style='color:red; font-size: 70px;'>错误! </span>","null","","","","","","","","","","","","","","","","","","","","","","","feedback_test"
"","","","","","psychophysics","129","253595","0.0-8.0-0.0-0.27","null","","null","","","","","","","","","","","","","key","null","16.72877027027032","614.4","341.44","j","false","img/H_ambi40.png","朋友","prac",""
"","","","","","html-keyboard-response","130","254097","0.0-8.0-0.0-1.27","null","<span class='add_' style='color:yellow; font-size: 70px;'> 太慢! </span>","null","","","","","","","","","","","","","","","","","","","","","","","feedback_test"
"","","","","","psychophysics","131","255398","0.0-8.0-0.0-0.28","300","","j","","","","","","","","","","","","","key","j","16.62671428571407","614.4","341.44","f","false","img/S_ambi40.png","朋友","prac",""
"","","","","","html-keyboard-response","132","255902","0.0-8.0-0.0-1.28","null","<span style='color:red; font-size: 70px;'>错误! </span>","null","","","","","","","","","","","","","","","","","","","","","","","feedback_test"
"","","","","","psychophysics","133","258413","0.0-8.0-0.0-0.29","null","","null","","","","","","","","","","","","","key","null","16.96374149659853","614.4","341.44","f","false","img/C_ambi40.png","生人","prac",""
"","","","","","html-keyboard-response","134","258918","0.0-8.0-0.0-1.29","null","<span class='add_' style='color:yellow; font-size: 70px;'> 太慢! </span>","null","","","","","","","","","","","","","","","","","","","","","","","feedback_test"
"","","","","","psychophysics","135","260381","0.0-8.0-0.0-0.30","455","","f","","","","","","","","","","","","","key","f","16.814500000000237","614.4","341.44","f","true","img/T_ambi40.png","をる","prac",""
"","","","","","html-keyboard-response","136","260884","0.0-8.0-0.0-1.30","null","<span style='color:GreenYellow; font-size: 70px;'>正确! </span>","null","","","","","","","","","","","","","","","","","","","","","","","feedback_test"
"","","","","","psychophysics","137","262814","0.0-8.0-0.0-0.31","925","","f","","","","","","","","","","","","","key","f","18.74311764705892","614.4","341.44","j","false","img/C_ambi40.png","自我","prac",""
"","","","","","html-keyboard-response","138","263326","0.0-8.0-0.0-1.31","null","<span style='color:red; font-size: 70px;'>错误! </span>","null","","","","","","","","","","","","","","","","","","","","","","","feedback_test"
"","","","","","html-keyboard-response","139","274108","0.0-8.0-1.0-0.0","10780","<style>.context{color:white; font-size: 35px; line-height:40px}</style>                          <div><p class='context'>您正确回答了50% 的试次。</p ><p class='context'>您的平均反应时为731毫秒。</p >","enter","","","","","","","","","","","","","","","","","","","","","","",""
"","","","","","instructions","140","303315","0.0-8.0-1.0-1.0","29205","","","","","","","","","","","","","","[{""page_index"":0,""viewing_time"":2269},{""page_index"":1,""viewing_time"":24768},{""page_index"":2,""viewing_time"":2168}]","","","","","","","","","","",""
"","","","","","psychophysics","141","305002","0.0-8.1-0.1-0.32","676","","f","","","","","","","","","","","","","key","f","16.62048999999999","584.32","297.28","f","true","img/T_ambi40.png","をる","prac",""
"","","","","","html-keyboard-response","142","305509","0.0-8.1-0.1-1.32","null","<span style='color:GreenYellow; font-size: 70px;'>正确! </span>","null","","","","","","","","","","","","","","","","","","","","","","","feedback_test"
"","","","","","psychophysics","143","307687","0.0-8.1-0.1-0.33","1166","","f","","","","","","","","","","","","","key","f","16.621276923076948","584.32","297.28","j","false","img/H_ambi40.png","朋友","prac",""
"","","","","","html-keyboard-response","144","308193","0.0-8.1-0.1-1.33","null","<span style='color:red; font-size: 70px;'>错误! </span>","null","","","","","","","","","","","","","","","","","","","","","","","feedback_test"
"","","","","","psychophysics","145","309764","0.0-8.1-0.1-0.34","568","","j","","","","","","","","","","","","","key","j","16.62175531914901","584.32","297.28","f","false","img/S_ambi40.png","朋友","prac",""
"","","","","","html-keyboard-response","146","310277","0.0-8.1-0.1-1.34","null","<span style='color:red; font-size: 70px;'>错误! </span>","null","","","","","","","","","","","","","","","","","","","","","","","feedback_test"
"","","","","","psychophysics","147","311769","0.0-8.1-0.1-0.35","480","","f","","","","","","","","","","","","","key","f","16.621659090908494","584.32","297.28","f","true","img/C_ambi40.png","生人","prac",""
"","","","","","html-keyboard-response","148","312282","0.0-8.1-0.1-1.35","null","<span style='color:GreenYellow; font-size: 70px;'>正确! </span>","null","","","","","","","","","","","","","","","","","","","","","","","feedback_test"
"","","","","","psychophysics","149","314165","0.0-8.1-0.1-0.36","882","","f","","","","","","","","","","","","","key","f","17.899903846154093","584.32","297.28","j","false","img/S_ambi40.png","生人","prac",""
"","","","","","html-keyboard-response","150","314678","0.0-8.1-0.1-1.36","null","<span style='color:red; font-size: 70px;'>错误! </span>","null","","","","","","","","","","","","","","","","","","","","","","","feedback_test"
"","","","","","psychophysics","151","316147","0.0-8.1-0.1-0.37","467","","j","","","","","","","","","","","","","key","j","16.622204545454057","584.32","297.28","j","true","img/C_ambi40.png","自我","prac",""
"","","","","","html-keyboard-response","152","316667","0.0-8.1-0.1-1.37","null","<span style='color:GreenYellow; font-size: 70px;'>正确! </span>","null","","","","","","","","","","","","","","","","","","","","","","","feedback_test"
"","","","","","psychophysics","153","318625","0.0-8.1-0.1-0.38","951","","f","","","","","","","","","","","","","key","f","16.621358974358667","584.32","297.28","j","false","img/H_ambi40.png","朋友","prac",""
"","","","","","html-keyboard-response","154","319139","0.0-8.1-0.1-1.38","null","<span style='color:red; font-size: 70px;'>错误! </span>","null","","","","","","","","","","","","","","","","","","","","","","","feedback_test"
"","","","","","psychophysics","155","321298","0.0-8.1-0.1-0.39","1150","","f","","","","","","","","","","","","","key","f","16.621271317829233","584.32","297.28","f","true","img/S_ambi40.png","自我","prac",""
"","","","","","html-keyboard-response","156","321804","0.0-8.1-0.1-1.39","null","<span style='color:GreenYellow; font-size: 70px;'>正确! </span>","null","","","","","","","","","","","","","","","","","","","","","","","feedback_test"
"","","","","","psychophysics","157","323909","0.0-8.1-0.1-0.40","1099","","j","","","","","","","","","","","","","key","j","17.74758474576293","584.32","297.28","j","true","img/S_ambi40.png","生人","prac",""
"","","","","","html-keyboard-response","158","324416","0.0-8.1-0.1-1.40","null","<span style='color:GreenYellow; font-size: 70px;'>正确! </span>","null","","","","","","","","","","","","","","","","","","","","","","","feedback_test"
"","","","","","psychophysics","159","326476","0.0-8.1-0.1-0.41","1056","","f","","","","","","","","","","","","","key","f","16.621178861788845","584.32","297.28","f","true","img/T_ambi40.png","をる","prac",""
"","","","","","html-keyboard-response","160","326982","0.0-8.1-0.1-1.41","null","<span style='color:GreenYellow; font-size: 70px;'>正确! </span>","null","","","","","","","","","","","","","","","","","","","","","","","feedback_test"
"","","","","","psychophysics","161","329065","0.0-8.1-0.1-0.42","1074","","f","","","","","","","","","","","","","key","f","16.621733870967518","584.32","297.28","f","true","img/H_ambi40.png","自我","prac",""
"","","","","","html-keyboard-response","162","329580","0.0-8.1-0.1-1.42","null","<span style='color:GreenYellow; font-size: 70px;'>正确! </span>","null","","","","","","","","","","","","","","","","","","","","","","","feedback_test"
"","","","","","psychophysics","163","331808","0.0-8.1-0.1-0.43","1220","","f","","","","","","","","","","","","","key","f","16.621706766917114","584.32","297.28","f","true","img/C_ambi40.png","朋友","prac",""
"","","","","","html-keyboard-response","164","332324","0.0-8.1-0.1-1.43","null","<span style='color:GreenYellow; font-size: 70px;'>正确! </span>","null","","","","","","","","","","","","","","","","","","","","","","","feedback_test"
"","","","","","psychophysics","165","334365","0.0-8.1-0.1-0.44","1034","","f","","","","","","","","","","","","","key","f","17.63344347826104","584.32","297.28","f","true","img/H_ambi40.png","生人","prac",""
"","","","","","html-keyboard-response","166","334877","0.0-8.1-0.1-1.44","null","<span style='color:GreenYellow; font-size: 70px;'>正确! </span>","null","","","","","","","","","","","","","","","","","","","","","","","feedback_test"
"","","","","","psychophysics","167","336927","0.0-8.1-0.1-0.45","1037","","f","","","","","","","","","","","","","key","f","16.621434426229527","584.32","297.28","f","true","img/T_ambi40.png","をる","prac",""
"","","","","","html-keyboard-response","168","337429","0.0-8.1-0.1-1.45","null","<span style='color:GreenYellow; font-size: 70px;'>正确! </span>","null","","","","","","","","","","","","","","","","","","","","","","","feedback_test"
"","","","","","psychophysics","169","339245","0.0-8.1-0.1-0.46","812","","f","","","","","","","","","","","","","key","f","16.621638888889315","584.32","297.28","f","true","img/T_ambi40.png","をる","prac",""
"","","","","","html-keyboard-response","170","339760","0.0-8.1-0.1-1.46","null","<span style='color:GreenYellow; font-size: 70px;'>正确! </span>","null","","","","","","","","","","","","","","","","","","","","","","","feedback_test"
"","","","","","psychophysics","171","341850","0.0-8.1-0.1-0.47","1089","","f","","","","","","","","","","","","","key","f","16.62546399999969","584.32","297.28","j","false","img/C_ambi40.png","自我","prac",""
"","","","","","html-keyboard-response","172","342363","0.0-8.1-0.1-1.47","null","<span style='color:red; font-size: 70px;'>错误! </span>","null","","","","","","","","","","","","","","","","","","","","","","","feedback_test"
"","","","","","psychophysics","173","344587","0.0-8.1-0.1-0.48","1221","","j","","","","","","","","","","","","","key","j","17.830919354839057","584.32","297.28","j","true","img/H_ambi40.png","朋友","prac",""
"","","","","","html-keyboard-response","174","345094","0.0-8.1-0.1-1.48","null","<span style='color:GreenYellow; font-size: 70px;'>正确! </span>","null","","","","","","","","","","","","","","","","","","","","","","","feedback_test"
"","","","","","psychophysics","175","347135","0.0-8.1-0.1-0.49","1039","","f","","","","","","","","","","","","","key","f","16.62313114754096","584.32","297.28","f","true","img/H_ambi40.png","生人","prac",""
"","","","","","html-keyboard-response","176","347638","0.0-8.1-0.1-1.49","null","<span style='color:GreenYellow; font-size: 70px;'>正确! </span>","null","","","","","","","","","","","","","","","","","","","","","","","feedback_test"
"","","","","","psychophysics","177","349742","0.0-8.1-0.1-0.50","1102","","j","","","","","","","","","","","","","key","j","16.621944444444832","584.32","297.28","j","true","img/S_ambi40.png","生人","prac",""
"","","","","","html-keyboard-response","178","350248","0.0-8.1-0.1-1.50","null","<span style='color:GreenYellow; font-size: 70px;'>正确! </span>","null","","","","","","","","","","","","","","","","","","","","","","","feedback_test"
"","","","","","psychophysics","179","352490","0.0-8.1-0.1-0.51","1240","","f","","","","","","","","","","","","","key","f","16.621701492537454","584.32","297.28","f","true","img/H_ambi40.png","自我","prac",""
"","","","","","html-keyboard-response","180","352994","0.0-8.1-0.1-1.51","null","<span style='color:GreenYellow; font-size: 70px;'>正确! </span>","null","","","","","","","","","","","","","","","","","","","","","","","feedback_test"
"","","","","","psychophysics","181","355084","0.0-8.1-0.1-0.52","1076","","f","","","","","","","","","","","","","key","f","17.466889830508418","584.32","297.28","f","true","img/C_ambi40.png","朋友","prac",""
"","","","","","html-keyboard-response","182","355600","0.0-8.1-0.1-1.52","null","<span style='color:GreenYellow; font-size: 70px;'>正确! </span>","null","","","","","","","","","","","","","","","","","","","","","","","feedback_test"
"","","","","","psychophysics","183","357640","0.0-8.1-0.1-0.53","1039","","f","","","","","","","","","","","","","key","f","16.621434426229527","584.32","297.28","f","true","img/T_ambi40.png","をる","prac",""
"","","","","","html-keyboard-response","184","358146","0.0-8.1-0.1-1.53","null","<span style='color:GreenYellow; font-size: 70px;'>正确! </span>","null","","","","","","","","","","","","","","","","","","","","","","","feedback_test"
"","","","","","psychophysics","185","360237","0.0-8.1-0.1-0.54","1079","","f","","","","","","","","","","","","","key","f","16.621830645160966","584.32","297.28","f","true","img/C_ambi40.png","生人","prac",""
"","","","","","html-keyboard-response","186","360742","0.0-8.1-0.1-1.54","null","<span style='color:GreenYellow; font-size: 70px;'>正确! </span>","null","","","","","","","","","","","","","","","","","","","","","","","feedback_test"
"","","","","","psychophysics","187","362774","0.0-8.1-0.1-0.55","1022","","j","","","","","","","","","","","","","key","j","16.620876033057762","584.32","297.28","j","true","img/H_ambi40.png","朋友","prac",""
"","","","","","html-keyboard-response","188","363280","0.0-8.1-0.1-1.55","null","<span style='color:GreenYellow; font-size: 70px;'>正确! </span>","null","","","","","","","","","","","","","","","","","","","","","","","feedback_test"
"","","","","","psychophysics","189","365155","0.0-8.1-0.1-0.56","860","","f","","","","","","","","","","","","","key","f","17.444723809523776","584.32","297.28","f","true","img/T_ambi40.png","をる","prac",""
"","","","","","html-keyboard-response","190","365664","0.0-8.1-0.1-1.56","null","<span style='color:GreenYellow; font-size: 70px;'>正确! </span>","null","","","","","","","","","","","","","","","","","","","","","","","feedback_test"
"","","","","","psychophysics","191","367495","0.0-8.1-0.1-0.57","823","","f","","","","","","","","","","","","","key","f","16.621605504587198","584.32","297.28","f","true","img/T_ambi40.png","をる","prac",""
"","","","","","html-keyboard-response","192","368001","0.0-8.1-0.1-1.57","null","<span style='color:GreenYellow; font-size: 70px;'>正确! </span>","null","","","","","","","","","","","","","","","","","","","","","","","feedback_test"
"","","","","","psychophysics","193","370076","0.0-8.1-0.1-0.58","1067","","f","","","","","","","","","","","","","key","f","16.6213170731709","584.32","297.28","j","false","img/C_ambi40.png","自我","prac",""
"","","","","","html-keyboard-response","194","370582","0.0-8.1-0.1-1.58","null","<span style='color:red; font-size: 70px;'>错误! </span>","null","","","","","","","","","","","","","","","","","","","","","","","feedback_test"
"","","","","","psychophysics","195","372650","0.0-8.1-0.1-0.59","1064","","f","","","","","","","","","","","","","key","f","16.61670731707349","584.32","297.28","f","true","img/S_ambi40.png","朋友","prac",""
"","","","","","html-keyboard-response","196","373165","0.0-8.1-0.1-1.59","null","<span style='color:GreenYellow; font-size: 70px;'>正确! </span>","null","","","","","","","","","","","","","","","","","","","","","","","feedback_test"
"","","","","","psychophysics","197","375298","0.0-8.1-0.1-0.60","1129","","f","","","","","","","","","","","","","key","f","16.621500000000065","584.32","297.28","f","true","img/S_ambi40.png","自我","prac",""
"","","","","","html-keyboard-response","198","375811","0.0-8.1-0.1-1.60","null","<span style='color:GreenYellow; font-size: 70px;'>正确! </span>","null","","","","","","","","","","","","","","","","","","","","","","","feedback_test"
"","","","","","psychophysics","199","377809","0.0-8.1-0.1-0.61","997","","f","","","","","","","","","","","","","key","f","16.75992499999993","584.32","297.28","f","true","img/T_ambi40.png","をる","prac",""
"","","","","","html-keyboard-response","200","378325","0.0-8.1-0.1-1.61","null","<span style='color:GreenYellow; font-size: 70px;'>正确! </span>","null","","","","","","","","","","","","","","","","","","","","","","","feedback_test"
"","","","","","psychophysics","201","380292","0.0-8.1-0.1-0.62","965","","j","","","","","","","","","","","","","key","j","16.625914529914684","584.32","297.28","j","true","img/S_ambi40.png","生人","prac",""
"","","","","","html-keyboard-response","202","380796","0.0-8.1-0.1-1.62","null","<span style='color:GreenYellow; font-size: 70px;'>正确! </span>","null","","","","","","","","","","","","","","","","","","","","","","","feedback_test"
"","","","","","psychophysics","203","382716","0.0-8.1-0.1-0.63","917","","f","","","","","","","","","","","","","key","f","16.62400869565216","584.32","297.28","j","false","img/C_ambi40.png","自我","prac",""
"","","","","","html-keyboard-response","204","383225","0.0-8.1-0.1-1.63","null","<span style='color:red; font-size: 70px;'>错误! </span>","null","","","","","","","","","","","","","","","","","","","","","","","feedback_test"
"","","","","","html-keyboard-response","205","390842","0.0-9.0","7615","<style>.context{color:white; font-size: 35px; line-height:40px}</style>                          <div><p class='context'>您正确回答了78% 的试次。</p ><p class='context'>您的平均反应时为990毫秒。</p ><p class='context'>恭喜您完成练习。按任意键进入正式实验。</p ><p class='footer' style='font-size: 35px; line-height:40px;'>请在进入正式实验实验之前将您的<span style='color: lightgreen;'>食指</span>放在电脑键盘的相应键位上进行按键。</p >","enter","","","","","","","","","","","","","","","","","","","","","","",""
"","","","","","psychophysics","206","393350","0.0-10.0-0.0-0.0-0.0-0.0","null","","null","","","","","","","","","","","","","key","null","16.622221476510134","584.32","297.28","j","false","img/H_ambi40.png","朋友","same",""
"","","","","","html-keyboard-response","207","393853","0.0-10.0-0.0-0.0-0.0-1.0","null","<span class='add_' style='color:yellow; font-size: 70px;'> 太慢! </span>","null","","","","","","","","","","","","","","","","","","","","","","","feedback_test"
"","","","","","psychophysics","208","395890","0.0-10.0-0.0-0.0-0.0-0.1","1032","","f","","","","","","","","","","","","","key","f","16.626289256198007","584.32","297.28","f","true","img/H_ambi40.png","生人","same",""
"","","","","","html-keyboard-response","209","396400","0.0-10.0-0.0-0.0-0.0-1.1","null","<span style='color:GreenYellow; font-size: 70px;'>正确! </span>","null","","","","","","","","","","","","","","","","","","","","","","","feedback_test"
"","","","","","psychophysics","210","398139","0.0-10.0-0.0-0.0-0.0-0.2","734","","f","","","","","","","","","","","","","key","f","16.622538461538518","584.32","297.28","f","true","img/T_ambi40.png","をる","same",""
"","","","","","html-keyboard-response","211","398653","0.0-10.0-0.0-0.0-0.0-1.2","null","<span style='color:GreenYellow; font-size: 70px;'>正确! </span>","null","","","","","","","","","","","","","","","","","","","","","","","feedback_test"
"","","","","","psychophysics","212","400821","0.0-10.0-0.0-0.0-0.0-0.3","1157","","j","","","","","","","","","","","","","key","j","16.62135658914705","584.32","297.28","f","false","img/H_ambi40.png","自我","same",""
"","","","","","html-keyboard-response","213","401321","0.0-10.0-0.0-0.0-0.0-1.3","null","<span style='color:red; font-size: 70px;'>错误! </span>","null","","","","","","","","","","","","","","","","","","","","","","","feedback_test"
"","","","","","psychophysics","214","402927","0.0-10.0-0.0-0.0-0.0-0.4","594","","f","","","","","","","","","","","","","key","f","16.62847916666639","584.32","297.28","f","true","img/T_ambi40.png","をる","same",""
"","","","","","html-keyboard-response","215","403441","0.0-10.0-0.0-0.0-0.0-1.4","null","<span style='color:GreenYellow; font-size: 70px;'>正确! </span>","null","","","","","","","","","","","","","","","","","","","","","","","feedback_test"
"","","","","","psychophysics","216","405591","0.0-10.0-0.0-0.0-0.0-0.5","1147","","f","","","","","","","","","","","","","key","f","16.62326562499993","584.32","297.28","f","true","img/S_ambi40.png","自我","same",""
"","","","","","html-keyboard-response","217","406095","0.0-10.0-0.0-0.0-0.0-1.5","null","<span style='color:GreenYellow; font-size: 70px;'>正确! </span>","null","","","","","","","","","","","","","","","","","","","","","","","feedback_test"
"","","","","","psychophysics","218","408040","0.0-10.0-0.0-0.0-0.0-0.6","940","","j","","","","","","","","","","","","","key","j","17.53439090909087","584.32","297.28","j","true","img/H_ambi40.png","朋友","same",""
"","","","","","html-keyboard-response","219","408544","0.0-10.0-0.0-0.0-0.0-1.6","null","<span style='color:GreenYellow; font-size: 70px;'>正确! </span>","null","","","","","","","","","","","","","","","","","","","","","","","feedback_test"
"","","","","","psychophysics","220","410373","0.0-10.0-0.0-0.0-0.0-0.7","817","","f","","","","","","","","","","","","","key","f","16.621587155963542","584.32","297.28","f","true","img/T_ambi40.png","をる","same",""
"","","","","","html-keyboard-response","221","410879","0.0-10.0-0.0-0.0-0.0-1.7","null","<span style='color:GreenYellow; font-size: 70px;'>正确! </span>","null","","","","","","","","","","","","","","","","","","","","","","","feedback_test"
"","","","","","psychophysics","222","412807","0.0-10.0-0.0-0.0-0.0-0.8","924","","j","","","","","","","","","","","","","key","j","16.62375652173929","584.32","297.28","j","true","img/C_ambi40.png","自我","same",""
"","","","","","html-keyboard-response","223","413311","0.0-10.0-0.0-0.0-0.0-1.8","null","<span style='color:GreenYellow; font-size: 70px;'>正确! </span>","null","","","","","","","","","","","","","","","","","","","","","","","feedback_test"
"","","","","","psychophysics","224","415443","0.0-10.0-0.0-0.0-0.0-0.9","1119","","j","","","","","","","","","","","","","key","j","16.621141732283537","584.32","297.28","j","true","img/S_ambi40.png","生人","same",""
"","","","","","html-keyboard-response","225","415946","0.0-10.0-0.0-0.0-0.0-1.9","null","<span style='color:GreenYellow; font-size: 70px;'>正确! </span>","null","","","","","","","","","","","","","","","","","","","","","","","feedback_test"
"","","","","","psychophysics","226","418136","0.0-10.0-0.0-0.0-0.0-0.10","1189","","j","","","","","","","","","","","","","key","j","17.27970634920602","584.32","297.28","j","true","img/H_ambi40.png","朋友","same",""
"","","","","","html-keyboard-response","227","418641","0.0-10.0-0.0-0.0-0.0-1.10","null","<span style='color:GreenYellow; font-size: 70px;'>正确! </span>","null","","","","","","","","","","","","","","","","","","","","","","","feedback_test"
"","","","","","psychophysics","228","421044","0.0-10.0-0.0-0.0-0.0-0.11","1399","","j","","","","","","","","","","","","","key","j","16.624284722222203","584.32","297.28","j","true","img/S_ambi40.png","生人","same",""
"","","","","","html-keyboard-response","229","421559","0.0-10.0-0.0-0.0-0.0-1.11","null","<span style='color:GreenYellow; font-size: 70px;'>正确! </span>","null","","","","","","","","","","","","","","","","","","","","","","","feedback_test"
"","","","","","psychophysics","230","423545","0.0-10.0-0.0-0.0-0.0-0.12","969","","f","","","","","","","","","","","","","key","f","16.62218644067801","584.32","297.28","f","true","img/C_ambi40.png","生人","same",""
"","","","","","html-keyboard-response","231","424047","0.0-10.0-0.0-0.0-0.0-1.12","null","<span style='color:GreenYellow; font-size: 70px;'>正确! </span>","null","","","","","","","","","","","","","","","","","","","","","","","feedback_test"
"","","","","","psychophysics","232","426009","0.0-10.0-0.0-0.0-0.0-0.13","960","","j","","","","","","","","","","","","","key","j","16.617051282051342","584.32","297.28","j","true","img/S_ambi40.png","生人","same",""
"","","","","","html-keyboard-response","233","426512","0.0-10.0-0.0-0.0-0.0-1.13","null","<span style='color:GreenYellow; font-size: 70px;'>正确! </span>","null","","","","","","","","","","","","","","","","","","","","","","","feedback_test"
"","","","","","psychophysics","234","428692","0.0-10.0-0.0-0.0-0.0-0.14","1179","","f","","","","","","","","","","","","","key","f","17.28764000000013","584.32","297.28","f","true","img/S_ambi40.png","朋友","same",""
"","","","","","html-keyboard-response","235","429199","0.0-10.0-0.0-0.0-0.0-1.14","null","<span style='color:GreenYellow; font-size: 70px;'>正确! </span>","null","","","","","","","","","","","","","","","","","","","","","","","feedback_test"
"","","","","","psychophysics","236","431353","0.0-10.0-0.0-0.0-0.0-0.15","1147","","f","","","","","","","","","","","","","key","f","16.620364341085285","584.32","297.28","f","true","img/C_ambi40.png","朋友","same",""
"","","","","","html-keyboard-response","237","431857","0.0-10.0-0.0-0.0-0.0-1.15","null","<span style='color:GreenYellow; font-size: 70px;'>正确! </span>","null","","","","","","","","","","","","","","","","","","","","","","","feedback_test"
"","","","","","psychophysics","238","433842","0.0-10.0-0.0-0.0-0.0-0.16","977","","j","","","","","","","","","","","","","key","j","16.622872881356024","584.32","297.28","j","true","img/C_ambi40.png","自我","same",""
"","","","","","html-keyboard-response","239","434350","0.0-10.0-0.0-0.0-0.0-1.16","null","<span style='color:GreenYellow; font-size: 70px;'>正确! </span>","null","","","","","","","","","","","","","","","","","","","","","","","feedback_test"
"","","","","","psychophysics","240","436284","0.0-10.0-0.0-0.0-0.0-0.17","927","","j","","","","","","","","","","","","","key","j","16.62624347826071","584.32","297.28","j","true","img/C_ambi40.png","自我","same",""
"","","","","","html-keyboard-response","241","436795","0.0-10.0-0.0-0.0-0.0-1.17","null","<span style='color:GreenYellow; font-size: 70px;'>正确! </span>","null","","","","","","","","","","","","","","","","","","","","","","","feedback_test"
"","","","","","psychophysics","242","438568","0.0-10.0-0.0-0.0-0.0-0.18","766","","f","","","","","","","","","","","","","key","f","17.618429999999936","584.32","297.28","f","true","img/T_ambi40.png","をる","same",""
"","","","","","html-keyboard-response","243","439080","0.0-10.0-0.0-0.0-0.0-1.18","null","<span style='color:GreenYellow; font-size: 70px;'>正确! </span>","null","","","","","","","","","","","","","","","","","","","","","","","feedback_test"
"","","","","","psychophysics","244","441034","0.0-10.0-0.0-0.0-0.0-0.19","939","","f","","","","","","","","","","","","","key","f","16.625146551724075","584.32","297.28","f","true","img/T_ambi40.png","をる","same",""
"","","","","","html-keyboard-response","245","441547","0.0-10.0-0.0-0.0-0.0-1.19","null","<span style='color:GreenYellow; font-size: 70px;'>正确! </span>","null","","","","","","","","","","","","","","","","","","","","","","","feedback_test"
"","","","","","psychophysics","246","443511","0.0-10.0-0.0-0.0-0.0-0.20","956","","j","","","","","","","","","","","","","key","j","16.626717948717957","584.32","297.28","j","true","img/H_ambi40.png","朋友","same",""
"","","","","","html-keyboard-response","247","444016","0.0-10.0-0.0-0.0-0.0-1.20","null","<span style='color:GreenYellow; font-size: 70px;'>正确! </span>","null","","","","","","","","","","","","","","","","","","","","","","","feedback_test"
"","","","","","psychophysics","248","445956","0.0-10.0-0.0-0.0-0.0-0.21","935","","f","","","","","","","","","","","","","key","f","16.501495652174093","584.32","297.28","j","false","img/S_ambi40.png","生人","same",""
"","","","","","html-keyboard-response","249","446470","0.0-10.0-0.0-0.0-0.0-1.21","null","<span style='color:red; font-size: 70px;'>错误! </span>","null","","","","","","","","","","","","","","","","","","","","","","","feedback_test"
"","","","","","psychophysics","250","448490","0.0-10.0-0.0-0.0-0.0-0.22","1019","","j","","","","","","","","","","","","","key","j","17.801203539823202","584.32","297.28","j","true","img/C_ambi40.png","自我","same",""
"","","","","","html-keyboard-response","251","449006","0.0-10.0-0.0-0.0-0.0-1.22","null","<span style='color:GreenYellow; font-size: 70px;'>正确! </span>","null","","","","","","","","","","","","","","","","","","","","","","","feedback_test"
"","","","","","psychophysics","252","450996","0.0-10.0-0.0-0.0-0.0-0.23","977","","f","","","","","","","","","","","","","key","f","16.62522033898316","584.32","297.28","f","true","img/C_ambi40.png","生人","same",""
"","","","","","html-keyboard-response","253","451502","0.0-10.0-0.0-0.0-0.0-1.23","null","<span style='color:GreenYellow; font-size: 70px;'>正确! </span>","null","","","","","","","","","","","","","","","","","","","","","","","feedback_test"
"","","","","","psychophysics","254","453681","0.0-10.0-0.0-0.0-0.0-0.24","1171","","f","","","","","","","","","","","","","key","f","16.622299999999814","584.32","297.28","f","true","img/H_ambi40.png","生人","same",""
"","","","","","html-keyboard-response","255","454196","0.0-10.0-0.0-0.0-0.0-1.24","null","<span style='color:GreenYellow; font-size: 70px;'>正确! </span>","null","","","","","","","","","","","","","","","","","","","","","","","feedback_test"
"","","","","","psychophysics","256","456113","0.0-10.0-0.0-0.0-0.0-0.25","913","","j","","","","","","","","","","","","","key","j","16.621991228070232","584.32","297.28","j","true","img/C_ambi40.png","自我","same",""
"","","","","","html-keyboard-response","257","456625","0.0-10.0-0.0-0.0-0.0-1.25","null","<span style='color:GreenYellow; font-size: 70px;'>正确! </span>","null","","","","","","","","","","","","","","","","","","","","","","","feedback_test"
"","","","","","psychophysics","258","458654","0.0-10.0-0.0-0.0-0.0-0.26","1023","","j","","","","","","","","","","","","","key","j","17.641517543859408","584.32","297.28","j","true","img/S_ambi40.png","生人","same",""
"","","","","","html-keyboard-response","259","459161","0.0-10.0-0.0-0.0-0.0-1.26","null","<span style='color:GreenYellow; font-size: 70px;'>正确! </span>","null","","","","","","","","","","","","","","","","","","","","","","","feedback_test"
"","","","","","psychophysics","260","460965","0.0-10.0-0.0-0.0-0.0-0.27","791","","j","","","","","","","","","","","","","key","j","16.625392523364635","584.32","297.28","j","true","img/S_ambi40.png","生人","same",""
"","","","","","html-keyboard-response","261","461469","0.0-10.0-0.0-0.0-0.0-1.27","null","<span style='color:GreenYellow; font-size: 70px;'>正确! </span>","null","","","","","","","","","","","","","","","","","","","","","","","feedback_test"
"","","","","","psychophysics","262","463385","0.0-10.0-0.0-0.0-0.0-0.28","911","","f","","","","","","","","","","","","","key","f","16.49732456140357","584.32","297.28","f","true","img/S_ambi40.png","自我","same",""
"","","","","","html-keyboard-response","263","463900","0.0-10.0-0.0-0.0-0.0-1.28","null","<span style='color:GreenYellow; font-size: 70px;'>正确! </span>","null","","","","","","","","","","","","","","","","","","","","","","","feedback_test"
"","","","","","psychophysics","264","465880","0.0-10.0-0.0-0.0-0.0-0.29","968","","j","","","","","","","","","","","","","key","j","16.624347457627202","584.32","297.28","j","true","img/H_ambi40.png","朋友","same",""
"","","","","","html-keyboard-response","265","466399","0.0-10.0-0.0-0.0-0.0-1.29","null","<span style='color:GreenYellow; font-size: 70px;'>正确! </span>","null","","","","","","","","","","","","","","","","","","","","","","","feedback_test"
"","","","","","psychophysics","266","468271","0.0-10.0-0.0-0.0-0.0-0.30","867","","f","","","","","","","","","","","","","key","f","16.623866071428242","584.32","297.28","f","true","img/S_ambi40.png","朋友","same",""
"","","","","","html-keyboard-response","267","468772","0.0-10.0-0.0-0.0-0.0-1.30","null","<span style='color:GreenYellow; font-size: 70px;'>正确! </span>","null","","","","","","","","","","","","","","","","","","","","","","","feedback_test"
"","","","","","psychophysics","268","470879","0.0-10.0-0.0-0.0-0.0-0.31","1097","","j","","","","","","","","","","","","","key","j","16.622015873015496","584.32","297.28","j","true","img/H_ambi40.png","朋友","same",""
"","","","","","html-keyboard-response","269","471393","0.0-10.0-0.0-0.0-0.0-1.31","null","<span style='color:GreenYellow; font-size: 70px;'>正确! </span>","null","","","","","","","","","","","","","","","","","","","","","","","feedback_test"
"","","","","","psychophysics","270","473170","0.0-10.0-0.0-0.0-0.0-0.32","762","","f","","","","","","","","","","","","","key","f","16.62390476190485","584.32","297.28","f","true","img/T_ambi40.png","をる","same",""
"","","","","","html-keyboard-response","271","473679","0.0-10.0-0.0-0.0-0.0-1.32","null","<span style='color:GreenYellow; font-size: 70px;'>正确! </span>","null","","","","","","","","","","","","","","","","","","","","","","","feedback_test"
"","","","","","psychophysics","272","475530","0.0-10.0-0.0-0.0-0.0-0.33","846","","j","","","","","","","","","","","","","key","j","16.621981818181865","584.32","297.28","j","true","img/C_ambi40.png","自我","same",""
"","","","","","html-keyboard-response","273","476035","0.0-10.0-0.0-0.0-0.0-1.33","null","<span style='color:GreenYellow; font-size: 70px;'>正确! </span>","null","","","","","","","","","","","","","","","","","","","","","","","feedback_test"
"","","","","","psychophysics","274","477941","0.0-10.0-0.0-0.0-0.0-0.34","897","","f","","","","","","","","","","","","","key","f","16.61972566371664","584.32","297.28","f","true","img/C_ambi40.png","朋友","same",""
"","","","","","html-keyboard-response","275","478445","0.0-10.0-0.0-0.0-0.0-1.34","null","<span style='color:GreenYellow; font-size: 70px;'>正确! </span>","null","","","","","","","","","","","","","","","","","","","","","","","feedback_test"
"","","","","","psychophysics","276","480648","0.0-10.0-0.0-0.0-0.0-0.35","1200","","f","","","","","","","","","","","","","key","f","17.421623999999834","584.32","297.28","f","true","img/H_ambi40.png","自我","same",""
"","","","","","html-keyboard-response","277","481151","0.0-10.0-0.0-0.0-0.0-1.35","null","<span style='color:GreenYellow; font-size: 70px;'>正确! </span>","null","","","","","","","","","","","","","","","","","","","","","","","feedback_test"
"","","","","","psychophysics","278","482916","0.0-10.0-0.0-0.0-0.0-0.36","751","","f","","","","","","","","","","","","","key","f","16.62348076923081","584.32","297.28","f","true","img/T_ambi40.png","をる","same",""
"","","","","","html-keyboard-response","279","483428","0.0-10.0-0.0-0.0-0.0-1.36","null","<span style='color:GreenYellow; font-size: 70px;'>正确! </span>","null","","","","","","","","","","","","","","","","","","","","","","","feedback_test"
"","","","","","psychophysics","280","485361","0.0-10.0-0.0-0.0-0.0-0.37","925","","j","","","","","","","","","","","","","key","j","16.62476521739129","584.32","297.28","j","true","img/H_ambi40.png","朋友","same",""
"","","","","","html-keyboard-response","281","485870","0.0-10.0-0.0-0.0-0.0-1.37","null","<span style='color:GreenYellow; font-size: 70px;'>正确! </span>","null","","","","","","","","","","","","","","","","","","","","","","","feedback_test"
"","","","","","psychophysics","282","487746","0.0-10.0-0.0-0.0-0.0-0.38","867","","f","","","","","","","","","","","","","key","f","16.622758928571525","584.32","297.28","f","true","img/C_ambi40.png","朋友","same",""
"","","","","","html-keyboard-response","283","488251","0.0-10.0-0.0-0.0-0.0-1.38","null","<span style='color:GreenYellow; font-size: 70px;'>正确! </span>","null","","","","","","","","","","","","","","","","","","","","","","","feedback_test"
"","","","","","psychophysics","284","490279","0.0-10.0-0.0-0.0-0.0-0.39","1024","","f","","","","","","","","","","","","","key","f","17.339931034482515","584.32","297.28","f","true","img/S_ambi40.png","朋友","same",""
"","","","","","html-keyboard-response","285","490795","0.0-10.0-0.0-0.0-0.0-1.39","null","<span style='color:GreenYellow; font-size: 70px;'>正确! </span>","null","","","","","","","","","","","","","","","","","","","","","","","feedback_test"
"","","","","","psychophysics","286","492869","0.0-10.0-0.0-0.0-0.0-0.40","1070","","f","","","","","","","","","","","","","key","f","16.626983870967617","584.32","297.28","j","false","img/C_ambi40.png","自我","same",""
"","","","","","html-keyboard-response","287","493385","0.0-10.0-0.0-0.0-0.0-1.40","null","<span style='color:red; font-size: 70px;'>错误! </span>","null","","","","","","","","","","","","","","","","","","","","","","","feedback_test"
"","","","","","psychophysics","288","495278","0.0-10.0-0.0-0.0-0.0-0.41","886","","f","","","","","","","","","","","","","key","f","16.62474336283203","584.32","297.28","j","false","img/H_ambi40.png","朋友","same",""
"","","","","","html-keyboard-response","289","495790","0.0-10.0-0.0-0.0-0.0-1.41","null","<span style='color:red; font-size: 70px;'>错误! </span>","null","","","","","","","","","","","","","","","","","","","","","","","feedback_test"
"","","","","","psychophysics","290","497485","0.0-10.0-0.0-0.0-0.0-0.42","687","","f","","","","","","","","","","","","","key","f","16.621049504950157","584.32","297.28","f","true","img/T_ambi40.png","をる","same",""
"","","","","","html-keyboard-response","291","497987","0.0-10.0-0.0-0.0-0.0-1.42","null","<span style='color:GreenYellow; font-size: 70px;'>正确! </span>","null","","","","","","","","","","","","","","","","","","","","","","","feedback_test"
"","","","","","psychophysics","292","500059","0.0-10.0-0.0-0.0-0.0-0.43","1063","","f","","","","","","","","","","","","","key","f","17.471589743589554","584.32","297.28","f","true","img/H_ambi40.png","生人","same",""
"","","","","","html-keyboard-response","293","500561","0.0-10.0-0.0-0.0-0.0-1.43","null","<span style='color:GreenYellow; font-size: 70px;'>正确! </span>","null","","","","","","","","","","","","","","","","","","","","","","","feedback_test"
"","","","","","psychophysics","294","502534","0.0-10.0-0.0-0.0-0.0-0.44","965","","f","","","","","","","","","","","","","key","f","16.62063247863249","584.32","297.28","f","true","img/S_ambi40.png","自我","same",""
"","","","","","html-keyboard-response","295","503045","0.0-10.0-0.0-0.0-0.0-1.44","null","<span style='color:GreenYellow; font-size: 70px;'>正确! </span>","null","","","","","","","","","","","","","","","","","","","","","","","feedback_test"
"","","","","","psychophysics","296","505000","0.0-10.0-0.0-0.0-0.0-0.45","951","","f","","","","","","","","","","","","","key","f","16.621829059829192","584.32","297.28","f","true","img/T_ambi40.png","をる","same",""
"","","","","","html-keyboard-response","297","505511","0.0-10.0-0.0-0.0-0.0-1.45","null","<span style='color:GreenYellow; font-size: 70px;'>正确! </span>","null","","","","","","","","","","","","","","","","","","","","","","","feedback_test"
"","","","","","psychophysics","298","507542","0.0-10.0-0.0-0.0-0.0-0.46","1017","","j","","","","","","","","","","","","","key","j","16.625454545454488","584.32","297.28","j","true","img/S_ambi40.png","生人","same",""
"","","","","","html-keyboard-response","299","508051","0.0-10.0-0.0-0.0-0.0-1.46","null","<span style='color:GreenYellow; font-size: 70px;'>正确! </span>","null","","","","","","","","","","","","","","","","","","","","","","","feedback_test"
"","","","","","psychophysics","300","510152","0.0-10.0-0.0-0.0-0.0-0.47","1100","","j","","","","","","","","","","","","","key","j","17.355008403361214","584.32","297.28","j","true","img/H_ambi40.png","朋友","same",""
"","","","","","html-keyboard-response","301","510668","0.0-10.0-0.0-0.0-0.0-1.47","null","<span style='color:GreenYellow; font-size: 70px;'>正确! </span>","null","","","","","","","","","","","","","","","","","","","","","","","feedback_test"
"","","","","","psychophysics","302","512562","0.0-10.0-0.0-0.0-0.0-0.48","883","","f","","","","","","","","","","","","","key","f","16.62391150442459","584.32","297.28","f","true","img/H_ambi40.png","自我","same",""
"","","","","","html-keyboard-response","303","513077","0.0-10.0-0.0-0.0-0.0-1.48","null","<span style='color:GreenYellow; font-size: 70px;'>正确! </span>","null","","","","","","","","","","","","","","","","","","","","","","","feedback_test"
"","","","","","psychophysics","304","515338","0.0-10.0-0.0-0.0-0.0-0.49","1252","","j","","","","","","","","","","","","","key","j","16.621585185185108","584.32","297.28","j","true","img/S_ambi40.png","生人","same",""
"","","","","","html-keyboard-response","305","515846","0.0-10.0-0.0-0.0-0.0-1.49","null","<span style='color:GreenYellow; font-size: 70px;'>正确! </span>","null","","","","","","","","","","","","","","","","","","","","","","","feedback_test"
"","","","","","psychophysics","306","517859","0.0-10.0-0.0-0.0-0.0-0.50","1012","","f","","","","","","","","","","","","","key","f","16.621383333333263","584.32","297.28","f","true","img/C_ambi40.png","生人","same",""
"","","","","","html-keyboard-response","307","518365","0.0-10.0-0.0-0.0-0.0-1.50","null","<span style='color:GreenYellow; font-size: 70px;'>正确! </span>","null","","","","","","","","","","","","","","","","","","","","","","","feedback_test"
"","","","","","psychophysics","308","520435","0.0-10.0-0.0-0.0-0.0-0.51","1066","","j","","","","","","","","","","","","","key","j","17.47453846153853","584.32","297.28","j","true","img/C_ambi40.png","自我","same",""
"","","","","","html-keyboard-response","309","520949","0.0-10.0-0.0-0.0-0.0-1.51","null","<span style='color:GreenYellow; font-size: 70px;'>正确! </span>","null","","","","","","","","","","","","","","","","","","","","","","","feedback_test"
"","","","","","psychophysics","310","522666","0.0-10.0-0.0-0.0-0.0-0.52","716","","j","","","","","","","","","","","","","key","j","16.622038834951525","584.32","297.28","j","true","img/C_ambi40.png","自我","same",""
"","","","","","html-keyboard-response","311","523178","0.0-10.0-0.0-0.0-0.0-1.52","null","<span style='color:GreenYellow; font-size: 70px;'>正确! </span>","null","","","","","","","","","","","","","","","","","","","","","","","feedback_test"
"","","","","","psychophysics","312","525098","0.0-10.0-0.0-0.0-0.0-0.53","917","","f","","","","","","","","","","","","","key","f","16.501289473683677","584.32","297.28","j","false","img/S_ambi40.png","生人","same",""
"","","","","","html-keyboard-response","313","525612","0.0-10.0-0.0-0.0-0.0-1.53","null","<span style='color:red; font-size: 70px;'>错误! </span>","null","","","","","","","","","","","","","","","","","","","","","","","feedback_test"
"","","","","","psychophysics","314","527438","0.0-10.0-0.0-0.0-0.0-0.54","817","","j","","","","","","","","","","","","","key","j","16.621651376146875","584.32","297.28","j","true","img/H_ambi40.png","朋友","same",""
"","","","","","html-keyboard-response","315","527947","0.0-10.0-0.0-0.0-0.0-1.54","null","<span style='color:GreenYellow; font-size: 70px;'>正确! </span>","null","","","","","","","","","","","","","","","","","","","","","","","feedback_test"
"","","","","","psychophysics","316","530082","0.0-10.0-0.0-0.0-0.0-0.55","1134","","f","","","","","","","","","","","","","key","f","16.622960937500466","584.32","297.28","f","true","img/H_ambi40.png","生人","same",""
"","","","","","html-keyboard-response","317","530587","0.0-10.0-0.0-0.0-0.0-1.55","null","<span style='color:GreenYellow; font-size: 70px;'>正确! </span>","null","","","","","","","","","","","","","","","","","","","","","","","feedback_test"
"","","","","","psychophysics","318","532378","0.0-10.0-0.0-0.0-0.0-0.56","787","","j","","","","","","","","","","","","","key","j","16.625280373832037","584.32","297.28","j","true","img/C_ambi40.png","自我","same",""
"","","","","","html-keyboard-response","319","532889","0.0-10.0-0.0-0.0-0.0-1.56","null","<span style='color:GreenYellow; font-size: 70px;'>正确! </span>","null","","","","","","","","","","","","","","","","","","","","","","","feedback_test"
"","","","","","psychophysics","320","534656","0.0-10.0-0.0-0.0-0.0-0.57","754","","f","","","","","","","","","","","","","key","f","16.616380952381796","584.32","297.28","f","true","img/T_ambi40.png","をる","same",""
"","","","","","html-keyboard-response","321","535161","0.0-10.0-0.0-0.0-0.0-1.57","null","<span style='color:GreenYellow; font-size: 70px;'>正确! </span>","null","","","","","","","","","","","","","","","","","","","","","","","feedback_test"
"","","","","","psychophysics","322","536936","0.0-10.0-0.0-0.0-0.0-0.58","774","","j","","","","","","","","","","","","","key","j","16.623103773584898","584.32","297.28","j","true","img/H_ambi40.png","朋友","same",""
"","","","","","html-keyboard-response","323","537439","0.0-10.0-0.0-0.0-0.0-1.58","null","<span style='color:GreenYellow; font-size: 70px;'>正确! </span>","null","","","","","","","","","","","","","","","","","","","","","","","feedback_test"
"","","","","","psychophysics","324","539079","0.0-10.0-0.0-0.0-0.0-0.59","626","","f","","","","","","","","","","","","","key","f","16.489659793814162","584.32","297.28","f","true","img/T_ambi40.png","をる","same",""
"","","","","","html-keyboard-response","325","539588","0.0-10.0-0.0-0.0-0.0-1.59","null","<span style='color:GreenYellow; font-size: 70px;'>正确! </span>","null","","","","","","","","","","","","","","","","","","","","","","","feedback_test"
"","","","","","psychophysics","326","541753","0.0-10.0-0.0-0.0-0.0-0.60","1148","","f","","","","","","","","","","","","","key","f","16.623007812499964","584.32","297.28","f","true","img/C_ambi40.png","朋友","same",""
"","","","","","html-keyboard-response","327","542266","0.0-10.0-0.0-0.0-0.0-1.60","null","<span style='color:GreenYellow; font-size: 70px;'>正确! </span>","null","","","","","","","","","","","","","","","","","","","","","","","feedback_test"
"","","","","","psychophysics","328","544294","0.0-10.0-0.0-0.0-0.0-0.61","1024","","f","","","","","","","","","","","","","key","f","16.62539669421544","584.32","297.28","j","false","img/C_ambi40.png","自我","same",""
"","","","","","html-keyboard-response","329","544796","0.0-10.0-0.0-0.0-0.0-1.61","null","<span style='color:red; font-size: 70px;'>错误! </span>","null","","","","","","","","","","","","","","","","","","","","","","","feedback_test"
"","","","","","psychophysics","330","546687","0.0-10.0-0.0-0.0-0.0-0.62","890","","j","","","","","","","","","","","","","key","j","16.62398214285661","584.32","297.28","j","true","img/S_ambi40.png","生人","same",""
"","","","","","html-keyboard-response","331","547194","0.0-10.0-0.0-0.0-0.0-1.62","null","<span style='color:GreenYellow; font-size: 70px;'>正确! </span>","null","","","","","","","","","","","","","","","","","","","","","","","feedback_test"
"","","","","","psychophysics","332","548874","0.0-10.0-0.0-0.0-0.0-0.63","679","","f","","","","","","","","","","","","","key","f","16.622399999999907","584.32","297.28","f","true","img/T_ambi40.png","をる","same",""
"","","","","","html-keyboard-response","333","549382","0.0-10.0-0.0-0.0-0.0-1.63","null","<span style='color:GreenYellow; font-size: 70px;'>正确! </span>","null","","","","","","","","","","","","","","","","","","","","","","","feedback_test"
"","","","","","psychophysics","334","551428","0.0-10.0-0.0-0.0-0.0-0.64","1045","","f","","","","","","","","","","","","","key","f","18.10461607142809","584.32","297.28","f","true","img/C_ambi40.png","生人","same",""
"","","","","","html-keyboard-response","335","551929","0.0-10.0-0.0-0.0-0.0-1.64","null","<span style='color:GreenYellow; font-size: 70px;'>正确! </span>","null","","","","","","","","","","","","","","","","","","","","","","","feedback_test"
"","","","","","psychophysics","336","553735","0.0-10.0-0.0-0.0-0.0-0.65","805","","j","","","","","","","","","","","","","key","j","16.628327102804008","584.32","297.28","j","true","img/H_ambi40.png","朋友","same",""
"","","","","","html-keyboard-response","337","554237","0.0-10.0-0.0-0.0-0.0-1.65","null","<span style='color:GreenYellow; font-size: 70px;'>正确! </span>","null","","","","","","","","","","","","","","","","","","","","","","","feedback_test"
"","","","","","psychophysics","338","556290","0.0-10.0-0.0-0.0-0.0-0.66","1036","","j","","","","","","","","","","","","","key","j","16.50567213114786","584.32","297.28","j","true","img/C_ambi40.png","自我","same",""
"","","","","","html-keyboard-response","339","556799","0.0-10.0-0.0-0.0-0.0-1.66","null","<span style='color:GreenYellow; font-size: 70px;'>正确! </span>","null","","","","","","","","","","","","","","","","","","","","","","","feedback_test"
"","","","","","psychophysics","340","558719","0.0-10.0-0.0-0.0-0.0-0.67","918","","f","","","","","","","","","","","","","key","f","16.625140350877732","584.32","297.28","f","true","img/H_ambi40.png","自我","same",""
"","","","","","html-keyboard-response","341","559233","0.0-10.0-0.0-0.0-0.0-1.67","null","<span style='color:GreenYellow; font-size: 70px;'>正确! </span>","null","","","","","","","","","","","","","","","","","","","","","","","feedback_test"
"","","","","","psychophysics","342","561158","0.0-10.0-0.0-0.0-0.0-0.68","919","","j","","","","","","","","","","","","","key","j","16.62709565217323","584.32","297.28","f","false","img/S_ambi40.png","自我","same",""
"","","","","","html-keyboard-response","343","561659","0.0-10.0-0.0-0.0-0.0-1.68","null","<span style='color:red; font-size: 70px;'>错误! </span>","null","","","","","","","","","","","","","","","","","","","","","","","feedback_test"
"","","","","","psychophysics","344","563675","0.0-10.0-0.0-0.0-0.0-0.69","1008","","j","","","","","","","","","","","","","key","j","16.623025000000293","584.32","297.28","j","true","img/S_ambi40.png","生人","same",""
"","","","","","html-keyboard-response","345","564189","0.0-10.0-0.0-0.0-0.0-1.69","null","<span style='color:GreenYellow; font-size: 70px;'>正确! </span>","null","","","","","","","","","","","","","","","","","","","","","","","feedback_test"
"","","","","","psychophysics","346","566252","0.0-10.0-0.0-0.0-0.0-0.70","1060","","f","","","","","","","","","","","","","key","f","16.621065040650905","584.32","297.28","f","true","img/S_ambi40.png","朋友","same",""
"","","","","","html-keyboard-response","347","566764","0.0-10.0-0.0-0.0-0.0-1.70","null","<span style='color:GreenYellow; font-size: 70px;'>正确! </span>","null","","","","","","","","","","","","","","","","","","","","","","","feedback_test"
"","","","","","psychophysics","348","568720","0.0-10.0-0.0-0.0-0.0-0.71","951","","j","","","","","","","","","","","","","key","j","16.621393162392987","584.32","297.28","j","true","img/S_ambi40.png","生人","same",""
"","","","","","html-keyboard-response","349","569222","0.0-10.0-0.0-0.0-0.0-1.71","null","<span style='color:GreenYellow; font-size: 70px;'>正确! </span>","null","","","","","","","","","","","","","","","","","","","","","","","feedback_test"
"","","","","","psychophysics","350","571058","0.0-10.0-0.0-0.0-0.0-0.72","830","","f","","","","","","","","","","","","","key","f","17.254266666666428","584.32","297.28","f","true","img/C_ambi40.png","生人","same",""
"","","","","","html-keyboard-response","351","571575","0.0-10.0-0.0-0.0-0.0-1.72","null","<span style='color:GreenYellow; font-size: 70px;'>正确! </span>","null","","","","","","","","","","","","","","","","","","","","","","","feedback_test"
"","","","","","psychophysics","352","573695","0.0-10.0-0.0-0.0-0.0-0.73","1117","","j","","","","","","","","","","","","","key","j","18.699142857142892","584.32","297.28","j","true","img/S_ambi40.png","生人","same",""
"","","","","","html-keyboard-response","353","574208","0.0-10.0-0.0-0.0-0.0-1.73","null","<span style='color:GreenYellow; font-size: 70px;'>正确! </span>","null","","","","","","","","","","","","","","","","","","","","","","","feedback_test"
"","","","","","psychophysics","354","576278","0.0-10.0-0.0-0.0-0.0-0.74","1069","","f","","","","","","","","","","","","","key","f","17.036824999999954","584.32","297.28","f","true","img/H_ambi40.png","生人","same",""
"","","","","","html-keyboard-response","355","576792","0.0-10.0-0.0-0.0-0.0-1.74","null","<span style='color:GreenYellow; font-size: 70px;'>正确! </span>","null","","","","","","","","","","","","","","","","","","","","","","","feedback_test"
"","","","","","psychophysics","356","578593","0.0-10.0-0.0-0.0-0.0-0.75","789","","j","","","","","","","","","","","","","key","j","16.492598130840975","584.32","297.28","f","false","img/T_ambi40.png","をる","same",""
"","","","","","html-keyboard-response","357","579095","0.0-10.0-0.0-0.0-0.0-1.75","null","<span style='color:red; font-size: 70px;'>错误! </span>","null","","","","","","","","","","","","","","","","","","","","","","","feedback_test"
"","","","","","psychophysics","358","581167","0.0-10.0-0.0-0.0-0.0-0.76","1065","","f","","","","","","","","","","","","","key","f","16.621919354837907","584.32","297.28","f","true","img/S_ambi40.png","自我","same",""
"","","","","","html-keyboard-response","359","581674","0.0-10.0-0.0-0.0-0.0-1.76","null","<span style='color:GreenYellow; font-size: 70px;'>正确! </span>","null","","","","","","","","","","","","","","","","","","","","","","","feedback_test"
"","","","","","psychophysics","360","583707","0.0-10.0-0.0-0.0-0.0-0.77","1031","","j","","","","","","","","","","","","","key","j","17.48856521739078","584.32","297.28","j","true","img/S_ambi40.png","生人","same",""
"","","","","","html-keyboard-response","361","584210","0.0-10.0-0.0-0.0-0.0-1.77","null","<span style='color:GreenYellow; font-size: 70px;'>正确! </span>","null","","","","","","","","","","","","","","","","","","","","","","","feedback_test"
"","","","","","psychophysics","362","586326","0.0-10.0-0.0-0.0-0.0-0.78","1106","","f","","","","","","","","","","","","","key","f","16.621230158730345","584.32","297.28","f","true","img/C_ambi40.png","朋友","same",""
"","","","","","html-keyboard-response","363","586827","0.0-10.0-0.0-0.0-0.0-1.78","null","<span style='color:GreenYellow; font-size: 70px;'>正确! </span>","null","","","","","","","","","","","","","","","","","","","","","","","feedback_test"
"","","","","","psychophysics","364","588784","0.0-10.0-0.0-0.0-0.0-0.79","953","","j","","","","","","","","","","","","","key","j","16.6214102564099","584.32","297.28","j","true","img/H_ambi40.png","朋友","same",""
"","","","","","html-keyboard-response","365","589297","0.0-10.0-0.0-0.0-0.0-1.79","null","<span style='color:GreenYellow; font-size: 70px;'>正确! </span>","null","","","","","","","","","","","","","","","","","","","","","","","feedback_test"
"","","","","","psychophysics","366","590927","0.0-10.0-0.0-0.0-0.0-0.80","621","","f","","","","","","","","","","","","","key","f","16.621618556701243","584.32","297.28","f","true","img/T_ambi40.png","をる","same",""
"","","","","","html-keyboard-response","367","591442","0.0-10.0-0.0-0.0-0.0-1.80","null","<span style='color:GreenYellow; font-size: 70px;'>正确! </span>","null","","","","","","","","","","","","","","","","","","","","","","","feedback_test"
"","","","","","psychophysics","368","593466","0.0-10.0-0.0-0.0-0.0-0.81","1023","","f","","","","","","","","","","","","","key","f","17.496421052631106","584.32","297.28","f","true","img/S_ambi40.png","朋友","same",""
"","","","","","html-keyboard-response","369","593980","0.0-10.0-0.0-0.0-0.0-1.81","null","<span style='color:GreenYellow; font-size: 70px;'>正确! </span>","null","","","","","","","","","","","","","","","","","","","","","","","feedback_test"
"","","","","","psychophysics","370","596056","0.0-10.0-0.0-0.0-0.0-0.82","1064","","j","","","","","","","","","","","","","key","j","16.62145528455295","584.32","297.28","j","true","img/C_ambi40.png","自我","same",""
"","","","","","html-keyboard-response","371","596565","0.0-10.0-0.0-0.0-0.0-1.82","null","<span style='color:GreenYellow; font-size: 70px;'>正确! </span>","null","","","","","","","","","","","","","","","","","","","","","","","feedback_test"
"","","","","","psychophysics","372","598509","0.0-10.0-0.0-0.0-0.0-0.83","938","","j","","","","","","","","","","","","","key","j","16.621681034482677","584.32","297.28","j","true","img/H_ambi40.png","朋友","same",""
"","","","","","html-keyboard-response","373","599019","0.0-10.0-0.0-0.0-0.0-1.83","null","<span style='color:GreenYellow; font-size: 70px;'>正确! </span>","null","","","","","","","","","","","","","","","","","","","","","","","feedback_test"
"","","","","","psychophysics","374","601039","0.0-10.0-0.0-0.0-0.0-0.84","1009","","j","","","","","","","","","","","","","key","j","16.621350000000287","584.32","297.28","j","true","img/C_ambi40.png","自我","same",""
"","","","","","html-keyboard-response","375","601541","0.0-10.0-0.0-0.0-0.0-1.84","null","<span style='color:GreenYellow; font-size: 70px;'>正确! </span>","null","","","","","","","","","","","","","","","","","","","","","","","feedback_test"
"","","","","","psychophysics","376","603408","0.0-10.0-0.0-0.0-0.0-0.85","843","","j","","","","","","","","","","","","","key","j","17.571361904762064","584.32","297.28","j","true","img/S_ambi40.png","生人","same",""
"","","","","","html-keyboard-response","377","603921","0.0-10.0-0.0-0.0-0.0-1.85","null","<span style='color:GreenYellow; font-size: 70px;'>正确! </span>","null","","","","","","","","","","","","","","","","","","","","","","","feedback_test"
"","","","","","psychophysics","378","606080","0.0-10.0-0.0-0.0-0.0-0.86","1152","","f","","","","","","","","","","","","","key","f","16.621286821705038","584.32","297.28","j","false","img/C_ambi40.png","自我","same",""
"","","","","","html-keyboard-response","379","606582","0.0-10.0-0.0-0.0-0.0-1.86","null","<span style='color:red; font-size: 70px;'>错误! </span>","null","","","","","","","","","","","","","","","","","","","","","","","feedback_test"
"","","","","","psychophysics","380","608307","0.0-10.0-0.0-0.0-0.0-0.87","718","","f","","","","","","","","","","","","","key","f","16.62114563106799","584.32","297.28","f","true","img/T_ambi40.png","をる","same",""
"","","","","","html-keyboard-response","381","608820","0.0-10.0-0.0-0.0-0.0-1.87","null","<span style='color:GreenYellow; font-size: 70px;'>正确! </span>","null","","","","","","","","","","","","","","","","","","","","","","","feedback_test"
"","","","","","psychophysics","382","610855","0.0-10.0-0.0-0.0-0.0-0.88","1023","","f","","","","","","","","","","","","","key","f","16.62132231405001","584.32","297.28","f","true","img/H_ambi40.png","自我","same",""
"","","","","","html-keyboard-response","383","611363","0.0-10.0-0.0-0.0-0.0-1.88","null","<span style='color:GreenYellow; font-size: 70px;'>正确! </span>","null","","","","","","","","","","","","","","","","","","","","","","","feedback_test"
"","","","","","psychophysics","384","613598","0.0-10.0-0.0-0.0-0.0-0.89","1229","","j","","","","","","","","","","","","","key","j","17.406842519684997","584.32","297.28","j","true","img/H_ambi40.png","朋友","same",""
"","","","","","html-keyboard-response","385","614113","0.0-10.0-0.0-0.0-0.0-1.89","null","<span style='color:GreenYellow; font-size: 70px;'>正确! </span>","null","","","","","","","","","","","","","","","","","","","","","","","feedback_test"
"","","","","","psychophysics","386","615840","0.0-10.0-0.0-0.0-0.0-0.90","723","","j","","","","","","","","","","","","","key","j","16.621271844660566","584.32","297.28","j","true","img/H_ambi40.png","朋友","same",""
"","","","","","html-keyboard-response","387","616342","0.0-10.0-0.0-0.0-0.0-1.90","null","<span style='color:GreenYellow; font-size: 70px;'>正确! </span>","null","","","","","","","","","","","","","","","","","","","","","","","feedback_test"
"","","","","","psychophysics","388","618272","0.0-10.0-0.0-0.0-0.0-0.91","926","","j","","","","","","","","","","","","","key","j","16.62135652173918","584.32","297.28","j","true","img/C_ambi40.png","自我","same",""
"","","","","","html-keyboard-response","389","618780","0.0-10.0-0.0-0.0-0.0-1.91","null","<span style='color:GreenYellow; font-size: 70px;'>正确! </span>","null","","","","","","","","","","","","","","","","","","","","","","","feedback_test"
"","","","","","psychophysics","390","620617","0.0-10.0-0.0-0.0-0.0-0.92","829","","f","","","","","","","","","","","","","key","f","16.62129357798183","584.32","297.28","f","true","img/C_ambi40.png","朋友","same",""
"","","","","","html-keyboard-response","391","621129","0.0-10.0-0.0-0.0-0.0-1.92","null","<span style='color:GreenYellow; font-size: 70px;'>正确! </span>","null","","","","","","","","","","","","","","","","","","","","","","","feedback_test"
"","","","","","psychophysics","392","623234","0.0-10.0-0.0-0.0-0.0-0.93","1101","","j","","","","","","","","","","","","","key","j","16.62125396825436","584.32","297.28","j","true","img/C_ambi40.png","自我","same",""
"","","","","","html-keyboard-response","393","623745","0.0-10.0-0.0-0.0-0.0-1.93","null","<span style='color:GreenYellow; font-size: 70px;'>正确! </span>","null","","","","","","","","","","","","","","","","","","","","","","","feedback_test"
"","","","","","psychophysics","394","625827","0.0-10.0-0.0-0.0-0.0-0.94","1071","","j","","","","","","","","","","","","","key","j","16.621475806451336","584.32","297.28","j","true","img/H_ambi40.png","朋友","same",""
"","","","","","html-keyboard-response","395","626331","0.0-10.0-0.0-0.0-0.0-1.94","null","<span style='color:GreenYellow; font-size: 70px;'>正确! </span>","null","","","","","","","","","","","","","","","","","","","","","","","feedback_test"
"","","","","","psychophysics","396","628302","0.0-10.0-0.0-0.0-0.0-0.95","967","","f","","","","","","","","","","","","","key","f","16.621762711863564","584.32","297.28","f","true","img/S_ambi40.png","自我","same",""
"","","","","","html-keyboard-response","397","628817","0.0-10.0-0.0-0.0-0.0-1.95","null","<span style='color:GreenYellow; font-size: 70px;'>正确! </span>","null","","","","","","","","","","","","","","","","","","","","","","","feedback_test"
"","","","","","psychophysics","398","630629","0.0-10.0-0.0-0.0-0.0-0.96","802","","f","","","","","","","","","","","","","key","f","16.62152777777778","584.32","297.28","f","true","img/T_ambi40.png","をる","same",""
"","","","","","html-keyboard-response","399","631139","0.0-10.0-0.0-0.0-0.0-1.96","null","<span style='color:GreenYellow; font-size: 70px;'>正确! </span>","null","","","","","","","","","","","","","","","","","","","","","","","feedback_test"
"","","","","","psychophysics","400","632861","0.0-10.0-0.0-0.0-0.0-0.97","707","","f","","","","","","","","","","","","","key","f","16.622215686274657","584.32","297.28","f","true","img/T_ambi40.png","をる","same",""
"","","","","","html-keyboard-response","401","633366","0.0-10.0-0.0-0.0-0.0-1.97","null","<span style='color:GreenYellow; font-size: 70px;'>正确! </span>","null","","","","","","","","","","","","","","","","","","","","","","","feedback_test"
"","","","","","psychophysics","402","635583","0.0-10.0-0.0-0.0-0.0-0.98","1201","","j","","","","","","","","","","","","","key","j","17.302103174603655","584.32","297.28","j","true","img/S_ambi40.png","生人","same",""
"","","","","","html-keyboard-response","403","636087","0.0-10.0-0.0-0.0-0.0-1.98","null","<span style='color:GreenYellow; font-size: 70px;'>正确! </span>","null","","","","","","","","","","","","","","","","","","","","","","","feedback_test"
"","","","","","psychophysics","404","637854","0.0-10.0-0.0-0.0-0.0-0.99","763","","f","","","","","","","","","","","","","key","f","16.621047619047264","584.32","297.28","f","true","img/T_ambi40.png","をる","same",""
"","","","","","html-keyboard-response","405","638360","0.0-10.0-0.0-0.0-0.0-1.99","null","<span style='color:GreenYellow; font-size: 70px;'>正确! </span>","null","","","","","","","","","","","","","","","","","","","","","","","feedback_test"
"","","","","","psychophysics","406","640198","0.0-10.0-0.0-0.0-0.0-0.100","829","","f","","","","","","","","","","","","","key","f","16.621761467889883","584.32","297.28","f","true","img/C_ambi40.png","生人","same",""
"","","","","","html-keyboard-response","407","640707","0.0-10.0-0.0-0.0-0.0-1.100","null","<span style='color:GreenYellow; font-size: 70px;'>正确! </span>","null","","","","","","","","","","","","","","","","","","","","","","","feedback_test"
"","","","","","psychophysics","408","642300","0.0-10.0-0.0-0.0-0.0-0.101","588","","j","","","","","","","","","","","","","key","j","16.621905263157952","584.32","297.28","j","true","img/C_ambi40.png","自我","same",""
"","","","","","html-keyboard-response","409","642802","0.0-10.0-0.0-0.0-0.0-1.101","null","<span style='color:GreenYellow; font-size: 70px;'>正确! </span>","null","","","","","","","","","","","","","","","","","","","","","","","feedback_test"
"","","","","","psychophysics","410","644532","0.0-10.0-0.0-0.0-0.0-0.102","727","","f","","","","","","","","","","","","","key","f","18.62983516483455","584.32","297.28","f","true","img/H_ambi40.png","自我","same",""
"","","","","","html-keyboard-response","411","645038","0.0-10.0-0.0-0.0-0.0-1.102","null","<span style='color:GreenYellow; font-size: 70px;'>正确! </span>","null","","","","","","","","","","","","","","","","","","","","","","","feedback_test"
"","","","","","psychophysics","412","646901","0.0-10.0-0.0-0.0-0.0-0.103","853","","j","","","","","","","","","","","","","key","j","16.769109090908685","584.32","297.28","j","true","img/H_ambi40.png","朋友","same",""
"","","","","","html-keyboard-response","413","647416","0.0-10.0-0.0-0.0-0.0-1.103","null","<span style='color:GreenYellow; font-size: 70px;'>正确! </span>","null","","","","","","","","","","","","","","","","","","","","","","","feedback_test"
"","","","","","psychophysics","414","649479","0.0-10.0-0.0-0.0-0.0-0.104","1056","","f","","","","","","","","","","","","","key","f","16.755918032786482","584.32","297.28","f","true","img/H_ambi40.png","生人","same",""
"","","","","","html-keyboard-response","415","649992","0.0-10.0-0.0-0.0-0.0-1.104","null","<span style='color:GreenYellow; font-size: 70px;'>正确! </span>","null","","","","","","","","","","","","","","","","","","","","","","","feedback_test"
"","","","","","psychophysics","416","652458","0.0-10.0-0.0-0.0-0.0-0.105","1460","","j","","","","","","","","","","","","","key","j","16.62167346938735","584.32","297.28","f","false","img/S_ambi40.png","朋友","same",""
"","","","","","html-keyboard-response","417","652959","0.0-10.0-0.0-0.0-0.0-1.105","null","<span style='color:red; font-size: 70px;'>错误! </span>","null","","","","","","","","","","","","","","","","","","","","","","","feedback_test"
"","","","","","psychophysics","418","654734","0.0-10.0-0.0-0.0-0.0-0.106","772","","j","","","","","","","","","","","","","key","j","17.619030000000492","584.32","297.28","j","true","img/S_ambi40.png","生人","same",""
"","","","","","html-keyboard-response","419","655235","0.0-10.0-0.0-0.0-0.0-1.106","null","<span style='color:GreenYellow; font-size: 70px;'>正确! </span>","null","","","","","","","","","","","","","","","","","","","","","","","feedback_test"
"","","","","","psychophysics","420","656952","0.0-10.0-0.0-0.0-0.0-0.107","714","","j","","","","","","","","","","","","","key","j","16.621705882352842","584.32","297.28","j","true","img/S_ambi40.png","生人","same",""
"","","","","","html-keyboard-response","421","657462","0.0-10.0-0.0-0.0-0.0-1.107","null","<span style='color:GreenYellow; font-size: 70px;'>正确! </span>","null","","","","","","","","","","","","","","","","","","","","","","","feedback_test"
"","","","","","html-keyboard-response","422","662518","0.0-10.0-0.0-0.0-1.0","5042","<style>.context{color:white; font-size: 35px; line-height:40px}</style>                          <div><p class='context'>您正确回答了90% 的试次。</p><p class='context'>您的平均反应时为940毫秒。</p><p class='context'>请按任意键进入休息</p></div>","enter","","","","","","","","","","","","","","","","","","","","","","",""
"","","","","","html-button-response","423","674175","0.0-10.0-0.0-0.0-2.0","11654","
                    <p>您当前还剩余5组实验</p>
                    <p>现在是休息时间，当您结束休息后，您可以点击 结束休息 按钮 继续</p>
                    <p>建议休息时间还剩余<span id=""iii"">60</span>秒</p>","0","","","","","","","","","","","","","","","","","","","","","","",""
"","","","","","psychophysics","424","676678","0.0-10.0-0.0-0.0-0.1-0.108","null","","null","","","","","","","","","","","","","key","null","17.198534722222476","584.32","297.28","j","false","img/H_ambi40.png","朋友","same",""
"","","","","","html-keyboard-response","425","677196","0.0-10.0-0.0-0.0-0.1-1.108","null","<span class='add_' style='color:yellow; font-size: 70px;'> 太慢! </span>","null","","","","","","","","","","","","","","","","","","","","","","","feedback_test"
"","","","","","psychophysics","426","679644","0.0-10.0-0.0-0.0-0.1-0.109","1440","","j","","","","","","","","","","","","","key","j","16.62150000000041","584.32","297.28","j","true","img/H_ambi40.png","朋友","same",""
"","","","","","html-keyboard-response","427","680151","0.0-10.0-0.0-0.0-0.1-1.109","null","<span style='color:GreenYellow; font-size: 70px;'>正确! </span>","null","","","","","","","","","","","","","","","","","","","","","","","feedback_test"
"","","","","","psychophysics","428","682393","0.0-10.0-0.0-0.0-0.1-0.110","1230","","j","","","","","","","","","","","","","key","j","16.62197744360901","584.32","297.28","j","true","img/C_ambi40.png","自我","same",""
"","","","","","html-keyboard-response","429","682906","0.0-10.0-0.0-0.0-0.1-1.110","null","<span style='color:GreenYellow; font-size: 70px;'>正确! </span>","null","","","","","","","","","","","","","","","","","","","","","","","feedback_test"
"","","","","","psychophysics","430","684552","0.0-10.0-0.0-0.0-0.1-0.111","643","","f","","","","","","","","","","","","","key","f","16.621683673468674","584.32","297.28","f","true","img/T_ambi40.png","をる","same",""
"","","","","","html-keyboard-response","431","685058","0.0-10.0-0.0-0.0-0.1-1.111","null","<span style='color:GreenYellow; font-size: 70px;'>正确! </span>","null","","","","","","","","","","","","","","","","","","","","","","","feedback_test"
"","","","","","psychophysics","432","686929","0.0-10.0-0.0-0.0-0.1-0.112","869","","f","","","","","","","","","","","","","key","f","17.57104761904837","584.32","297.28","j","false","img/C_ambi40.png","自我","same",""
"","","","","","html-keyboard-response","433","687443","0.0-10.0-0.0-0.0-0.1-1.112","null","<span style='color:red; font-size: 70px;'>错误! </span>","null","","","","","","","","","","","","","","","","","","","","","","","feedback_test"
"","","","","","psychophysics","434","689207","0.0-10.0-0.0-0.0-0.1-0.113","761","","f","","","","","","","","","","","","","key","f","16.620723809523597","584.32","297.28","f","true","img/H_ambi40.png","自我","same",""
"","","","","","html-keyboard-response","435","689710","0.0-10.0-0.0-0.0-0.1-1.113","null","<span style='color:GreenYellow; font-size: 70px;'>正确! </span>","null","","","","","","","","","","","","","","","","","","","","","","","feedback_test"
"","","","","","psychophysics","436","691409","0.0-10.0-0.0-0.0-0.1-0.114","689","","f","","","","","","","","","","","","","key","f","16.621485148513884","584.32","297.28","f","true","img/T_ambi40.png","をる","same",""
"","","","","","html-keyboard-response","437","691922","0.0-10.0-0.0-0.0-0.1-1.114","null","<span style='color:GreenYellow; font-size: 70px;'>正确! </span>","null","","","","","","","","","","","","","","","","","","","","","","","feedback_test"
"","","","","","psychophysics","438","693792","0.0-10.0-0.0-0.0-0.1-0.115","858","","f","","","","","","","","","","","","","key","f","16.62166666666671","584.32","297.28","f","true","img/C_ambi40.png","生人","same",""
