"success","timeout","failed_images","failed_audio","failed_video","trial_type","trial_index","time_elapsed","internal_node_id","rt","stimulus","response","value","item_width_mm","item_height_mm","item_width_px","px2mm","view_dist_mm","item_width_deg","px2deg","scale_factor","win_width_deg","win_height_deg","view_history","response_type","key_press","avg_frame_time","center_x","center_y","correct_response","correct","Image","word","condition","screen_id"
"true","false","[]","[]","[]","preload","0","43698","0.0-0.0","","","","","","","","","","","","","","","","","","","","","","","","","",""
"","","","","","html-keyboard-response","1","52022","0.0-1.0","8324","
     <p>您好，欢迎参加本次实验。</p>
     <p>为充分保障您的权利，请确保您已经知晓并同意《参与实验同意书》以及《数据公开知情同意书》。</p>
     <p>如果您未见过上述内容，请咨询实验员。</p>
     <p>如果您选择继续实验，则表示您已经清楚两份知情同意书的内容并同意。</p>
     <p> <div style = ""color: green""><按任意键至下页></div> </p>
     ","enter","","","","","","","","","","","","","","","","","","","","","","",""
"","","","","","html-keyboard-response","2","53543","0.0-2.0","1520","
     <p>本实验首先需要您填写一些基本个人信息。</p>
     <p> <div style = ""color: green""><按任意键至下页></div></p>
     ","enter","","","","","","","","","","","","","","","","","","","","","","",""
"","","","","","call-function","3","53544","0.0-3.0-0.0","","","","","","","","","","","","","","","","","","","","","","","","","",""
"","","","","","survey-html-form","4","58751","0.0-3.0-1.0","5206","","{""Q0"":""15""}","","","","","","","","","","","","","","","","","","","","","","",""
"","","","","","html-button-response","5","59910","0.0-3.0-2.0","1158","<p style = 'color : white'>您的性别</p>","1","","","","","","","","","","","","","","","","","","","","","","",""
"","","","","","survey-html-form","6","64228","0.0-3.0-3.0","4317","","{""Q0"":""2002""}","","","","","","","","","","","","","","","","","","","","","","",""
"","","","","","survey-html-form","7","66979","0.0-3.0-4.0","2750","","{""Q0"":""5""}","","","","","","","","","","","","","","","","","","","","","","",""
"","","","","","virtual-chinrest","8","179496","0.0-4.0","112515","","","","85.6","53.98","406.70818128216064","4.754475922030893","601.94","8.134163625643213","50","1.0474340561751703","33","18.32","","","","","","","","","","","",""
"true","","","","","fullscreen","9","182800","0.0-5.0","","","","","","","","","","","","","","","","","","","","","","","","","",""
"","","","","","instructions","10","223850","0.0-6.0","41050","","","","","","","","","","","","","","[{""page_index"":0,""viewing_time"":3998},{""page_index"":1,""viewing_time"":30873},{""page_index"":2,""viewing_time"":3016},{""page_index"":3,""viewing_time"":3162}]","","","","","","","","","","",""
"","","","","","psychophysics","11","226363","0.0-7.0-0.0","null","","null","","","","","","","","","","","","","key","null","6.089520782396091","853.3333333333334","529.3333333333334","f","false","img/T_ambi40.png","をる","prac",""
"","","","","","html-keyboard-response","12","226865","0.0-7.0-1.0","null","<span class='add_' style='color:yellow; font-size: 70px;'> 太慢! </span>","null","","","","","","","","","","","","","","","","","","","","","","","feedback_test"
"","","","","","psychophysics","13","228669","0.0-7.0-0.1","798","","f","","","","","","","","","","","","","key","f","6.059969594594558","853.3333333333334","529.3333333333334","f","true","img/S_ambi40.png","朋友","prac",""
"","","","","","html-keyboard-response","14","229171","0.0-7.0-1.1","null","<span style='color:GreenYellow; font-size: 70px;'>正确! </span>","null","","","","","","","","","","","","","","","","","","","","","","","feedback_test"
"","","","","","psychophysics","15","230390","0.0-7.0-0.2","216","","j","","","","","","","","","","","","","key","j","6.05997000000003","853.3333333333334","529.3333333333334","f","false","img/C_ambi40.png","自我","prac",""
"","","","","","html-keyboard-response","16","230891","0.0-7.0-1.2","null","<span style='color:red; font-size: 70px;'>错误! </span>","null","","","","","","","","","","","","","","","","","","","","","","","feedback_test"
"","","","","","psychophysics","17","232446","0.0-7.0-0.3","550","","f","","","","","","","","","","","","","key","f","6.058364705882245","853.3333333333334","529.3333333333334","f","true","img/T_ambi40.png","をる","prac",""
"","","","","","html-keyboard-response","18","232959","0.0-7.0-1.3","null","<span style='color:GreenYellow; font-size: 70px;'>正确! </span>","null","","","","","","","","","","","","","","","","","","","","","","","feedback_test"
"","","","","","psychophysics","19","235220","0.0-7.0-0.4","1259","","f","","","","","","","","","","","","","key","f","6.059809139784975","853.3333333333334","529.3333333333334","f","true","img/C_ambi40.png","生人","prac",""
"","","","","","html-keyboard-response","20","235733","0.0-7.0-1.4","null","<span style='color:GreenYellow; font-size: 70px;'>正确! </span>","null","","","","","","","","","","","","","","","","","","","","","","","feedback_test"
"","","","","","psychophysics","21","237388","0.0-7.0-0.5","652","","j","","","","","","","","","","","","","key","j","6.060000000000025","853.3333333333334","529.3333333333334","j","true","img/H_ambi40.png","自我","prac",""
"","","","","","html-keyboard-response","22","237902","0.0-7.0-1.5","null","<span style='color:GreenYellow; font-size: 70px;'>正确! </span>","null","","","","","","","","","","","","","","","","","","","","","","","feedback_test"
"","","","","","psychophysics","23","240409","0.0-7.0-0.6","null","","null","","","","","","","","","","","","","key","null","6.059849514563238","853.3333333333334","529.3333333333334","j","false","img/S_ambi40.png","生人","prac",""
"","","","","","html-keyboard-response","24","240913","0.0-7.0-1.6","null","<span class='add_' style='color:yellow; font-size: 70px;'> 太慢! </span>","null","","","","","","","","","","","","","","","","","","","","","","","feedback_test"
"","","","","","psychophysics","25","242412","0.0-7.0-0.7","494","","j","","","","","","","","","","","","","key","j","6.056731707317096","853.3333333333334","529.3333333333334","f","false","img/H_ambi40.png","生人","prac",""
"","","","","","html-keyboard-response","26","242919","0.0-7.0-1.7","null","<span style='color:red; font-size: 70px;'>错误! </span>","null","","","","","","","","","","","","","","","","","","","","","","","feedback_test"
"","","","","","psychophysics","27","244893","0.0-7.0-0.8","970","","j","","","","","","","","","","","","","key","j","6.059567901234532","853.3333333333334","529.3333333333334","j","true","img/H_ambi40.png","自我","prac",""
"","","","","","html-keyboard-response","28","245409","0.0-7.0-1.8","null","<span style='color:GreenYellow; font-size: 70px;'>正确! </span>","null","","","","","","","","","","","","","","","","","","","","","","","feedback_test"
"","","","","","psychophysics","29","247621","0.0-7.0-0.9","1206","","j","","","","","","","","","","","","","key","j","6.0599010989011095","853.3333333333334","529.3333333333334","j","true","img/C_ambi40.png","朋友","prac",""
"","","","","","html-keyboard-response","30","248124","0.0-7.0-1.9","null","<span style='color:GreenYellow; font-size: 70px;'>正确! </span>","null","","","","","","","","","","","","","","","","","","","","","","","feedback_test"
"","","","","","psychophysics","31","250398","0.0-7.0-0.10","1268","","f","","","","","","","","","","","","","key","f","6.059967914438386","853.3333333333334","529.3333333333334","f","true","img/H_ambi40.png","朋友","prac",""
"","","","","","html-keyboard-response","32","250902","0.0-7.0-1.10","null","<span style='color:GreenYellow; font-size: 70px;'>正确! </span>","null","","","","","","","","","","","","","","","","","","","","","","","feedback_test"
"","","","","","psychophysics","33","252583","0.0-7.0-0.11","678","","f","","","","","","","","","","","","","key","f","6.056007246376754","853.3333333333334","529.3333333333334","f","true","img/T_ambi40.png","をる","prac",""
"","","","","","html-keyboard-response","34","253088","0.0-7.0-1.11","null","<span style='color:GreenYellow; font-size: 70px;'>正确! </span>","null","","","","","","","","","","","","","","","","","","","","","","","feedback_test"
"","","","","","psychophysics","35","254916","0.0-7.0-0.12","824","","j","","","","","","","","","","","","","key","j","6.05982333333348","853.3333333333334","529.3333333333334","j","true","img/S_ambi40.png","生人","prac",""
"","","","","","html-keyboard-response","36","255424","0.0-7.0-1.12","null","<span style='color:GreenYellow; font-size: 70px;'>正确! </span>","null","","","","","","","","","","","","","","","","","","","","","","","feedback_test"
"","","","","","psychophysics","37","257100","0.0-7.0-0.13","674","","f","","","","","","","","","","","","","key","f","6.059967391304267","853.3333333333334","529.3333333333334","f","true","img/T_ambi40.png","をる","prac",""
"","","","","","html-keyboard-response","38","257612","0.0-7.0-1.13","null","<span style='color:GreenYellow; font-size: 70px;'>正确! </span>","null","","","","","","","","","","","","","","","","","","","","","","","feedback_test"
"","","","","","psychophysics","39","259284","0.0-7.0-0.14","671","","j","","","","","","","","","","","","","key","j","6.053344322344409","853.3333333333334","529.3333333333334","j","true","img/C_ambi40.png","朋友","prac",""
"","","","","","html-keyboard-response","40","259797","0.0-7.0-1.14","null","<span style='color:GreenYellow; font-size: 70px;'>正确! </span>","null","","","","","","","","","","","","","","","","","","","","","","","feedback_test"
"","","","","","psychophysics","41","261805","0.0-7.0-0.15","1004","","f","","","","","","","","","","","","","key","f","6.059009090909262","853.3333333333334","529.3333333333334","f","true","img/S_ambi40.png","自我","prac",""
"","","","","","html-keyboard-response","42","262310","0.0-7.0-1.15","null","<span style='color:GreenYellow; font-size: 70px;'>正确! </span>","null","","","","","","","","","","","","","","","","","","","","","","","feedback_test"
"","","","","","psychophysics","43","264229","0.0-7.0-0.16","914","","f","","","","","","","","","","","","","key","f","6.05994920634927","853.3333333333334","529.3333333333334","f","true","img/H_ambi40.png","朋友","prac",""
"","","","","","html-keyboard-response","44","264741","0.0-7.0-1.16","null","<span style='color:GreenYellow; font-size: 70px;'>正确! </span>","null","","","","","","","","","","","","","","","","","","","","","","","feedback_test"
"","","","","","psychophysics","45","266286","0.0-7.0-0.17","540","","f","","","","","","","","","","","","","key","f","6.059925196850471","853.3333333333334","529.3333333333334","f","true","img/T_ambi40.png","をる","prac",""
"","","","","","html-keyboard-response","46","266791","0.0-7.0-1.17","null","<span style='color:GreenYellow; font-size: 70px;'>正确! </span>","null","","","","","","","","","","","","","","","","","","","","","","","feedback_test"
"","","","","","psychophysics","47","268556","0.0-7.0-0.18","762","","f","","","","","","","","","","","","","key","f","6.0574413793103306","853.3333333333334","529.3333333333334","f","true","img/S_ambi40.png","自我","prac",""
"","","","","","html-keyboard-response","48","269070","0.0-7.0-1.18","null","<span style='color:GreenYellow; font-size: 70px;'>正确! </span>","null","","","","","","","","","","","","","","","","","","","","","","","feedback_test"
"","","","","","psychophysics","49","270765","0.0-7.0-0.19","692","","j","","","","","","","","","","","","","key","j","6.0585806451612285","853.3333333333334","529.3333333333334","j","true","img/C_ambi40.png","朋友","prac",""
"","","","","","html-keyboard-response","50","271273","0.0-7.0-1.19","null","<span style='color:GreenYellow; font-size: 70px;'>正确! </span>","null","","","","","","","","","","","","","","","","","","","","","","","feedback_test"
"","","","","","psychophysics","51","272782","0.0-7.0-0.20","503","","f","","","","","","","","","","","","","key","f","6.0576923076923075","853.3333333333334","529.3333333333334","j","false","img/S_ambi40.png","生人","prac",""
"","","","","","html-keyboard-response","52","273298","0.0-7.0-1.20","null","<span style='color:red; font-size: 70px;'>错误! </span>","null","","","","","","","","","","","","","","","","","","","","","","","feedback_test"
"","","","","","psychophysics","53","274862","0.0-7.0-0.21","560","","f","","","","","","","","","","","","","key","f","6.059961089494291","853.3333333333334","529.3333333333334","f","true","img/T_ambi40.png","をる","prac",""
"","","","","","html-keyboard-response","54","275365","0.0-7.0-1.21","null","<span style='color:GreenYellow; font-size: 70px;'>正确! </span>","null","","","","","","","","","","","","","","","","","","","","","","","feedback_test"
"","","","","","psychophysics","55","276900","0.0-7.0-0.22","531","","j","","","","","","","","","","","","","key","j","6.060242063491994","853.3333333333334","529.3333333333334","j","true","img/H_ambi40.png","自我","prac",""
"","","","","","html-keyboard-response","56","277410","0.0-7.0-1.22","null","<span style='color:GreenYellow; font-size: 70px;'>正确! </span>","null","","","","","","","","","","","","","","","","","","","","","","","feedback_test"
"","","","","","psychophysics","57","278813","0.0-7.0-0.23","402","","f","","","","","","","","","","","","","key","f","6.059887445887583","853.3333333333334","529.3333333333334","f","true","img/T_ambi40.png","をる","prac",""
"","","","","","html-keyboard-response","58","279324","0.0-7.0-1.23","null","<span style='color:GreenYellow; font-size: 70px;'>正确! </span>","null","","","","","","","","","","","","","","","","","","","","","","","feedback_test"
"","","","","","psychophysics","59","280740","0.0-7.0-0.24","414","","j","","","","","","","","","","","","","key","j","6.058918454935634","853.3333333333334","529.3333333333334","f","false","img/C_ambi40.png","生人","prac",""
"","","","","","html-keyboard-response","60","281248","0.0-7.0-1.24","null","<span style='color:red; font-size: 70px;'>错误! </span>","null","","","","","","","","","","","","","","","","","","","","","","","feedback_test"
"","","","","","psychophysics","61","282869","0.0-7.0-0.25","619","","j","","","","","","","","","","","","","key","j","6.05975939849627","853.3333333333334","529.3333333333334","j","true","img/H_ambi40.png","自我","prac",""
"","","","","","html-keyboard-response","62","283373","0.0-7.0-1.25","null","<span style='color:GreenYellow; font-size: 70px;'>正确! </span>","null","","","","","","","","","","","","","","","","","","","","","","","feedback_test"
"","","","","","psychophysics","63","285134","0.0-7.0-0.26","759","","f","","","","","","","","","","","","","key","f","6.051684027777608","853.3333333333334","529.3333333333334","f","true","img/S_ambi40.png","朋友","prac",""
"","","","","","html-keyboard-response","64","285636","0.0-7.0-1.26","null","<span style='color:GreenYellow; font-size: 70px;'>正确! </span>","null","","","","","","","","","","","","","","","","","","","","","","","feedback_test"
"","","","","","psychophysics","65","287342","0.0-7.0-0.27","704","","f","","","","","","","","","","","","","key","f","6.059882142857116","853.3333333333334","529.3333333333334","f","true","img/H_ambi40.png","生人","prac",""
"","","","","","html-keyboard-response","66","287851","0.0-7.0-1.27","null","<span style='color:GreenYellow; font-size: 70px;'>正确! </span>","null","","","","","","","","","","","","","","","","","","","","","","","feedback_test"
"","","","","","psychophysics","67","289573","0.0-7.0-0.28","721","","j","","","","","","","","","","","","","key","j","6.047551236749099","853.3333333333334","529.3333333333334","j","true","img/C_ambi40.png","朋友","prac",""
"","","","","","html-keyboard-response","68","290077","0.0-7.0-1.28","null","<span style='color:GreenYellow; font-size: 70px;'>正确! </span>","null","","","","","","","","","","","","","","","","","","","","","","","feedback_test"
"","","","","","psychophysics","69","291564","0.0-7.0-0.29","484","","f","","","","","","","","","","","","","key","f","6.059737704918037","853.3333333333334","529.3333333333334","f","true","img/T_ambi40.png","をる","prac",""
"","","","","","html-keyboard-response","70","292072","0.0-7.0-1.29","null","<span style='color:GreenYellow; font-size: 70px;'>正确! </span>","null","","","","","","","","","","","","","","","","","","","","","","","feedback_test"
"","","","","","psychophysics","71","293733","0.0-7.0-0.30","656","","j","","","","","","","","","","","","","key","j","6.059058608058686","853.3333333333334","529.3333333333334","j","true","img/S_ambi40.png","生人","prac",""
"","","","","","html-keyboard-response","72","294239","0.0-7.0-1.30","null","<span style='color:GreenYellow; font-size: 70px;'>正确! </span>","null","","","","","","","","","","","","","","","","","","","","","","","feedback_test"
"","","","","","psychophysics","73","295958","0.0-7.0-0.31","718","","f","","","","","","","","","","","","","key","f","6.0599716312057135","853.3333333333334","529.3333333333334","f","true","img/C_ambi40.png","自我","prac",""
"","","","","","html-keyboard-response","74","296468","0.0-7.0-1.31","null","<span style='color:GreenYellow; font-size: 70px;'>正确! </span>","null","","","","","","","","","","","","","","","","","","","","","","","feedback_test"
"","","","","","psychophysics","75","298060","0.0-8.0-0.0-0.0","591","","j","","","","","","","","","","","","","key","j","6.053030769230771","853.3333333333334","529.3333333333334","f","false","img/C_ambi40.png","自我","prac",""
"","","","","","html-keyboard-response","76","298575","0.0-8.0-0.0-1.0","null","<span style='color:red; font-size: 70px;'>错误! </span>","null","","","","","","","","","","","","","","","","","","","","","","","feedback_test"
"","","","","","psychophysics","77","300204","0.0-8.0-0.0-0.1","626","","j","","","","","","","","","","","","","key","j","6.059731343283479","853.3333333333334","529.3333333333334","j","true","img/S_ambi40.png","生人","prac",""
"","","","","","html-keyboard-response","78","300714","0.0-8.0-0.0-1.1","null","<span style='color:GreenYellow; font-size: 70px;'>正确! </span>","null","","","","","","","","","","","","","","","","","","","","","","","feedback_test"
"","","","","","psychophysics","79","302492","0.0-8.0-0.0-0.2","775","","f","","","","","","","","","","","","","key","f","6.059530821917714","853.3333333333334","529.3333333333334","f","true","img/H_ambi40.png","朋友","prac",""
"","","","","","html-keyboard-response","80","302993","0.0-8.0-0.0-1.2","null","<span style='color:GreenYellow; font-size: 70px;'>正确! </span>","null","","","","","","","","","","","","","","","","","","","","","","","feedback_test"
"","","","","","psychophysics","81","304573","0.0-8.0-0.0-0.3","577","","j","","","","","","","","","","","","","key","j","6.059753846153707","853.3333333333334","529.3333333333334","j","true","img/C_ambi40.png","朋友","prac",""
"","","","","","html-keyboard-response","82","305083","0.0-8.0-0.0-1.3","null","<span style='color:GreenYellow; font-size: 70px;'>正确! </span>","null","","","","","","","","","","","","","","","","","","","","","","","feedback_test"
"","","","","","psychophysics","83","306805","0.0-8.0-0.0-0.4","718","","f","","","","","","","","","","","","","key","f","6.059805653710206","853.3333333333334","529.3333333333334","f","true","img/S_ambi40.png","自我","prac",""
"","","","","","html-keyboard-response","84","307307","0.0-8.0-0.0-1.4","null","<span style='color:GreenYellow; font-size: 70px;'>正确! </span>","null","","","","","","","","","","","","","","","","","","","","","","","feedback_test"
"","","","","","psychophysics","85","309244","0.0-8.0-0.0-0.5","934","","j","","","","","","","","","","","","","key","j","6.0597304075235225","853.3333333333334","529.3333333333334","f","false","img/H_ambi40.png","生人","prac",""
"","","","","","html-keyboard-response","86","309751","0.0-8.0-0.0-1.5","null","<span style='color:red; font-size: 70px;'>错误! </span>","null","","","","","","","","","","","","","","","","","","","","","","","feedback_test"
"","","","","","psychophysics","87","311301","0.0-8.0-0.0-0.6","548","","f","","","","","","","","","","","","","key","f","6.05720000000004","853.3333333333334","529.3333333333334","f","true","img/T_ambi40.png","をる","prac",""
"","","","","","html-keyboard-response","88","311814","0.0-8.0-0.0-1.6","null","<span style='color:GreenYellow; font-size: 70px;'>正确! </span>","null","","","","","","","","","","","","","","","","","","","","","","","feedback_test"
"","","","","","psychophysics","89","313364","0.0-8.0-0.0-0.7","544","","f","","","","","","","","","","","","","key","f","6.059881889763862","853.3333333333334","529.3333333333334","f","true","img/T_ambi40.png","をる","prac",""
"","","","","","html-keyboard-response","90","313876","0.0-8.0-0.0-1.7","null","<span style='color:GreenYellow; font-size: 70px;'>正确! </span>","null","","","","","","","","","","","","","","","","","","","","","","","feedback_test"
"","","","","","psychophysics","91","315797","0.0-8.0-0.0-0.8","917","","j","","","","","","","","","","","","","key","j","6.059794303797343","853.3333333333334","529.3333333333334","j","true","img/S_ambi40.png","生人","prac",""
"","","","","","html-keyboard-response","92","316303","0.0-8.0-0.0-1.8","null","<span style='color:GreenYellow; font-size: 70px;'>正确! </span>","null","","","","","","","","","","","","","","","","","","","","","","","feedback_test"
"","","","","","psychophysics","93","317758","0.0-8.0-0.0-0.9","453","","f","","","","","","","","","","","","","key","f","6.0599369747899745","853.3333333333334","529.3333333333334","f","true","img/T_ambi40.png","をる","prac",""
"","","","","","html-keyboard-response","94","318266","0.0-8.0-0.0-1.9","null","<span style='color:GreenYellow; font-size: 70px;'>正确! </span>","null","","","","","","","","","","","","","","","","","","","","","","","feedback_test"
"","","","","","psychophysics","95","320044","0.0-8.0-0.0-0.10","777","","f","","","","","","","","","","","","","key","f","6.05694539249146","853.3333333333334","529.3333333333334","f","true","img/C_ambi40.png","生人","prac",""
"","","","","","html-keyboard-response","96","320552","0.0-8.0-0.0-1.10","null","<span style='color:GreenYellow; font-size: 70px;'>正确! </span>","null","","","","","","","","","","","","","","","","","","","","","","","feedback_test"
"","","","","","psychophysics","97","322228","0.0-8.0-0.0-0.11","672","","f","","","","","","","","","","","","","key","f","6.059945454545404","853.3333333333334","529.3333333333334","f","true","img/S_ambi40.png","朋友","prac",""
"","","","","","html-keyboard-response","98","322735","0.0-8.0-0.0-1.11","null","<span style='color:GreenYellow; font-size: 70px;'>正确! </span>","null","","","","","","","","","","","","","","","","","","","","","","","feedback_test"
"","","","","","psychophysics","99","324204","0.0-8.0-0.0-0.12","465","","f","","","","","","","","","","","","","key","f","6.0577344398339825","853.3333333333334","529.3333333333334","f","true","img/T_ambi40.png","をる","prac",""
"","","","","","html-keyboard-response","100","324718","0.0-8.0-0.0-1.12","null","<span style='color:GreenYellow; font-size: 70px;'>正确! </span>","null","","","","","","","","","","","","","","","","","","","","","","","feedback_test"
"","","","","","psychophysics","101","326348","0.0-8.0-0.0-0.13","627","","f","","","","","","","","","","","","","key","f","6.059727611940236","853.3333333333334","529.3333333333334","j","false","img/H_ambi40.png","自我","prac",""
"","","","","","html-keyboard-response","102","326856","0.0-8.0-0.0-1.13","null","<span style='color:red; font-size: 70px;'>错误! </span>","null","","","","","","","","","","","","","","","","","","","","","","","feedback_test"
"","","","","","psychophysics","103","328661","0.0-8.0-0.0-0.14","801","","j","","","","","","","","","","","","","key","j","6.059835016834848","853.3333333333334","529.3333333333334","j","true","img/C_ambi40.png","朋友","prac",""
"","","","","","html-keyboard-response","104","329163","0.0-8.0-0.0-1.14","null","<span style='color:GreenYellow; font-size: 70px;'>正确! </span>","null","","","","","","","","","","","","","","","","","","","","","","","feedback_test"
"","","","","","psychophysics","105","330677","0.0-8.0-0.0-0.15","508","","j","","","","","","","","","","","","","key","j","6.059786290322541","853.3333333333334","529.3333333333334","j","true","img/H_ambi40.png","自我","prac",""
"","","","","","html-keyboard-response","106","331187","0.0-8.0-0.0-1.15","null","<span style='color:GreenYellow; font-size: 70px;'>正确! </span>","null","","","","","","","","","","","","","","","","","","","","","","","feedback_test"
"","","","","","psychophysics","107","332949","0.0-8.0-0.0-0.16","756","","f","","","","","","","","","","","","","key","f","6.0581840277777195","853.3333333333334","529.3333333333334","f","true","img/S_ambi40.png","朋友","prac",""
"","","","","","html-keyboard-response","108","333450","0.0-8.0-0.0-1.16","null","<span style='color:GreenYellow; font-size: 70px;'>正确! </span>","null","","","","","","","","","","","","","","","","","","","","","","","feedback_test"
"","","","","","psychophysics","109","335428","0.0-8.0-0.0-0.17","975","","f","","","","","","","","","","","","","key","f","6.053396923076899","853.3333333333334","529.3333333333334","f","true","img/C_ambi40.png","生人","prac",""
"","","","","","html-keyboard-response","110","335929","0.0-8.0-0.0-1.17","null","<span style='color:GreenYellow; font-size: 70px;'>正确! </span>","null","","","","","","","","","","","","","","","","","","","","","","","feedback_test"
"","","","","","psychophysics","111","337764","0.0-8.0-0.0-0.18","833","","j","","","","","","","","","","","","","key","j","6.059354304635723","853.3333333333334","529.3333333333334","j","true","img/S_ambi40.png","生人","prac",""
"","","","","","html-keyboard-response","112","338272","0.0-8.0-0.0-1.18","null","<span style='color:GreenYellow; font-size: 70px;'>正确! </span>","null","","","","","","","","","","","","","","","","","","","","","","","feedback_test"
"","","","","","psychophysics","113","339741","0.0-8.0-0.0-0.19","468","","f","","","","","","","","","","","","","key","f","6.059800829875565","853.3333333333334","529.3333333333334","f","true","img/T_ambi40.png","をる","prac",""
"","","","","","html-keyboard-response","114","340255","0.0-8.0-0.0-1.19","null","<span style='color:GreenYellow; font-size: 70px;'>正确! </span>","null","","","","","","","","","","","","","","","","","","","","","","","feedback_test"
"","","","","","psychophysics","115","342069","0.0-8.0-0.0-0.20","810","","j","","","","","","","","","","","","","key","j","6.059184563758349","853.3333333333334","529.3333333333334","j","true","img/C_ambi40.png","朋友","prac",""
"","","","","","html-keyboard-response","116","342576","0.0-8.0-0.0-1.20","null","<span style='color:GreenYellow; font-size: 70px;'>正确! </span>","null","","","","","","","","","","","","","","","","","","","","","","","feedback_test"
"","","","","","psychophysics","117","344044","0.0-8.0-0.0-0.21","464","","j","","","","","","","","","","","","","key","j","6.056647302904572","853.3333333333334","529.3333333333334","j","true","img/C_ambi40.png","朋友","prac",""
"","","","","","html-keyboard-response","118","344556","0.0-8.0-0.0-1.21","null","<span style='color:GreenYellow; font-size: 70px;'>正确! </span>","null","","","","","","","","","","","","","","","","","","","","","","","feedback_test"
"","","","","","psychophysics","119","345981","0.0-8.0-0.0-0.22","420","","f","","","","","","","","","","","","","key","f","6.059645299145526","853.3333333333334","529.3333333333334","f","true","img/T_ambi40.png","をる","prac",""
"","","","","","html-keyboard-response","120","346490","0.0-8.0-0.0-1.22","null","<span style='color:GreenYellow; font-size: 70px;'>正确! </span>","null","","","","","","","","","","","","","","","","","","","","","","","feedback_test"
"","","","","","psychophysics","121","347932","0.0-8.0-0.0-0.23","438","","j","","","","","","","","","","","","","key","j","6.059890295358724","853.3333333333334","529.3333333333334","f","false","img/C_ambi40.png","自我","prac",""
"","","","","","html-keyboard-response","122","348439","0.0-8.0-0.0-1.23","null","<span style='color:red; font-size: 70px;'>错误! </span>","null","","","","","","","","","","","","","","","","","","","","","","","feedback_test"
"","","","","","psychophysics","123","349997","0.0-8.0-0.0-0.24","557","","f","","","","","","","","","","","","","key","f","6.048740157480333","853.3333333333334","529.3333333333334","f","true","img/S_ambi40.png","自我","prac",""
"","","","","","html-keyboard-response","124","350504","0.0-8.0-0.0-1.24","null","<span style='color:GreenYellow; font-size: 70px;'>正确! </span>","null","","","","","","","","","","","","","","","","","","","","","","","feedback_test"
"","","","","","psychophysics","125","352245","0.0-8.0-0.0-0.25","738","","j","","","","","","","","","","","","","key","j","6.056241258741128","853.3333333333334","529.3333333333334","j","true","img/H_ambi40.png","自我","prac",""
"","","","","","html-keyboard-response","126","352757","0.0-8.0-0.0-1.25","null","<span style='color:GreenYellow; font-size: 70px;'>正确! </span>","null","","","","","","","","","","","","","","","","","","","","","","","feedback_test"
"","","","","","psychophysics","127","354388","0.0-8.0-0.0-0.26","628","","f","","","","","","","","","","","","","key","f","6.059757462686619","853.3333333333334","529.3333333333334","f","true","img/H_ambi40.png","生人","prac",""
"","","","","","html-keyboard-response","128","354890","0.0-8.0-0.0-1.26","null","<span style='color:GreenYellow; font-size: 70px;'>正确! </span>","null","","","","","","","","","","","","","","","","","","","","","","","feedback_test"
"","","","","","psychophysics","129","356404","0.0-8.0-0.0-0.27","511","","f","","","","","","","","","","","","","key","f","6.059823293172722","853.3333333333334","529.3333333333334","f","true","img/T_ambi40.png","をる","prac",""
"","","","","","html-keyboard-response","130","356915","0.0-8.0-0.0-1.27","null","<span style='color:GreenYellow; font-size: 70px;'>正确! </span>","null","","","","","","","","","","","","","","","","","","","","","","","feedback_test"
"","","","","","psychophysics","131","358501","0.0-8.0-0.0-0.28","584","","f","","","","","","","","","","","","","key","f","6.059908045977006","853.3333333333334","529.3333333333334","f","true","img/T_ambi40.png","をる","prac",""
"","","","","","html-keyboard-response","132","359005","0.0-8.0-0.0-1.28","null","<span style='color:GreenYellow; font-size: 70px;'>正确! </span>","null","","","","","","","","","","","","","","","","","","","","","","","feedback_test"
"","","","","","psychophysics","133","360925","0.0-8.0-0.0-0.29","919","","f","","","","","","","","","","","","","key","f","6.05862025316448","853.3333333333334","529.3333333333334","f","true","img/H_ambi40.png","朋友","prac",""
"","","","","","html-keyboard-response","134","361443","0.0-8.0-0.0-1.29","null","<span style='color:GreenYellow; font-size: 70px;'>正确! </span>","null","","","","","","","","","","","","","","","","","","","","","","","feedback_test"
"","","","","","psychophysics","135","363108","0.0-8.0-0.0-0.30","664","","j","","","","","","","","","","","","","key","j","6.058116788321165","853.3333333333334","529.3333333333334","j","true","img/H_ambi40.png","自我","prac",""
"","","","","","html-keyboard-response","136","363622","0.0-8.0-0.0-1.30","null","<span style='color:GreenYellow; font-size: 70px;'>正确! </span>","null","","","","","","","","","","","","","","","","","","","","","","","feedback_test"
"","","","","","psychophysics","137","365125","0.0-8.0-0.0-0.31","499","","f","","","","","","","","","","","","","key","f","6.058659919028345","853.3333333333334","529.3333333333334","j","false","img/S_ambi40.png","生人","prac",""
"","","","","","html-keyboard-response","138","365635","0.0-8.0-0.0-1.31","null","<span style='color:red; font-size: 70px;'>错误! </span>","null","","","","","","","","","","","","","","","","","","","","","","","feedback_test"
"","","","","","html-keyboard-response","139","374542","0.0-9.0","8905","<style>.context{color:white; font-size: 35px; line-height:40px}</style>                          <div><p class='context'>您正确回答了84% 的试次。</p ><p class='context'>您的平均反应时为656毫秒。</p ><p class='context'>恭喜您完成练习。按任意键进入正式实验。</p ><p class='footer' style='font-size: 35px; line-height:40px;'>请在进入正式实验实验之前将您的<span style='color: lightgreen;'>食指</span>放在电脑键盘的相应键位上进行按键。</p >","j","","","","","","","","","","","","","","","","","","","","","","",""
"","","","","","psychophysics","140","376117","0.0-10.0-0.0-0.0-0.0-0.0","567","","f","","","","","","","","","","","","","key","f","6.05984555984556","853.3333333333334","529.3333333333334","f","true","img/T_ambi40.png","をる","same",""
"","","","","","html-keyboard-response","141","376625","0.0-10.0-0.0-0.0-0.0-1.0","null","<span style='color:GreenYellow; font-size: 70px;'>正确! </span>","null","","","","","","","","","","","","","","","","","","","","","","","feedback_test"
"","","","","","psychophysics","142","378134","0.0-10.0-0.0-0.0-0.0-0.1","503","","j","","","","","","","","","","","","","key","j","6.059623481781431","853.3333333333334","529.3333333333334","j","true","img/H_ambi40.png","自我","same",""
"","","","","","html-keyboard-response","143","378636","0.0-10.0-0.0-0.0-0.0-1.1","null","<span style='color:GreenYellow; font-size: 70px;'>正确! </span>","null","","","","","","","","","","","","","","","","","","","","","","","feedback_test"
"","","","","","psychophysics","144","380340","0.0-10.0-0.0-0.0-0.0-0.2","704","","j","","","","","","","","","","","","","key","j","6.0513620071685175","853.3333333333334","529.3333333333334","f","false","img/C_ambi40.png","生人","same",""
"","","","","","html-keyboard-response","145","380853","0.0-10.0-0.0-0.0-0.0-1.2","null","<span style='color:red; font-size: 70px;'>错误! </span>","null","","","","","","","","","","","","","","","","","","","","","","","feedback_test"
"","","","","","psychophysics","146","382548","0.0-10.0-0.0-0.0-0.0-0.3","693","","f","","","","","","","","","","","","","key","f","6.058315412186447","853.3333333333334","529.3333333333334","f","true","img/H_ambi40.png","生人","same",""
"","","","","","html-keyboard-response","147","383051","0.0-10.0-0.0-0.0-0.0-1.3","null","<span style='color:GreenYellow; font-size: 70px;'>正确! </span>","null","","","","","","","","","","","","","","","","","","","","","","","feedback_test"
"","","","","","psychophysics","148","384757","0.0-10.0-0.0-0.0-0.0-0.4","702","","j","","","","","","","","","","","","","key","j","6.054953571428528","853.3333333333334","529.3333333333334","j","true","img/C_ambi40.png","朋友","same",""
"","","","","","html-keyboard-response","149","385264","0.0-10.0-0.0-0.0-0.0-1.4","null","<span style='color:GreenYellow; font-size: 70px;'>正确! </span>","null","","","","","","","","","","","","","","","","","","","","","","","feedback_test"
"","","","","","psychophysics","150","386900","0.0-10.0-0.0-0.0-0.0-0.5","634","","j","","","","","","","","","","","","","key","j","6.059728624535245","853.3333333333334","529.3333333333334","j","true","img/H_ambi40.png","自我","same",""
"","","","","","html-keyboard-response","151","387415","0.0-10.0-0.0-0.0-0.0-1.5","null","<span style='color:GreenYellow; font-size: 70px;'>正确! </span>","null","","","","","","","","","","","","","","","","","","","","","","","feedback_test"
"","","","","","psychophysics","152","389061","0.0-10.0-0.0-0.0-0.0-0.6","643","","j","","","","","","","","","","","","","key","j","6.0597490774909195","853.3333333333334","529.3333333333334","j","true","img/S_ambi40.png","生人","same",""
"","","","","","html-keyboard-response","153","389565","0.0-10.0-0.0-0.0-0.0-1.6","null","<span style='color:GreenYellow; font-size: 70px;'>正确! </span>","null","","","","","","","","","","","","","","","","","","","","","","","feedback_test"
"","","","","","psychophysics","154","391268","0.0-10.0-0.0-0.0-0.0-0.7","702","","f","","","","","","","","","","","","","key","f","6.059907142857057","853.3333333333334","529.3333333333334","f","true","img/S_ambi40.png","自我","same",""
"","","","","","html-keyboard-response","155","391769","0.0-10.0-0.0-0.0-0.0-1.7","null","<span style='color:GreenYellow; font-size: 70px;'>正确! </span>","null","","","","","","","","","","","","","","","","","","","","","","","feedback_test"
"","","","","","psychophysics","156","393477","0.0-10.0-0.0-0.0-0.0-0.8","702","","f","","","","","","","","","","","","","key","f","6.0598642857144505","853.3333333333334","529.3333333333334","f","true","img/H_ambi40.png","朋友","same",""
"","","","","","html-keyboard-response","157","393979","0.0-10.0-0.0-0.0-0.0-1.8","null","<span style='color:GreenYellow; font-size: 70px;'>正确! </span>","null","","","","","","","","","","","","","","","","","","","","","","","feedback_test"
"","","","","","psychophysics","158","395493","0.0-10.0-0.0-0.0-0.0-0.9","512","","f","","","","","","","","","","","","","key","f","6.083830645161441","853.3333333333334","529.3333333333334","f","true","img/T_ambi40.png","をる","same",""
"","","","","","html-keyboard-response","159","396004","0.0-10.0-0.0-0.0-0.0-1.9","null","<span style='color:GreenYellow; font-size: 70px;'>正确! </span>","null","","","","","","","","","","","","","","","","","","","","","","","feedback_test"
"","","","","","psychophysics","160","397637","0.0-10.0-0.0-0.0-0.0-0.10","632","","j","","","","","","","","","","","","","key","j","6.059921641791076","853.3333333333334","529.3333333333334","j","true","img/H_ambi40.png","自我","same",""
"","","","","","html-keyboard-response","161","398142","0.0-10.0-0.0-0.0-0.0-1.10","null","<span style='color:GreenYellow; font-size: 70px;'>正确! </span>","null","","","","","","","","","","","","","","","","","","","","","","","feedback_test"
"","","","","","psychophysics","162","399740","0.0-10.0-0.0-0.0-0.0-0.11","596","","f","","","","","","","","","","","","","key","f","6.059874524714951","853.3333333333334","529.3333333333334","f","true","img/S_ambi40.png","朋友","same",""
"","","","","","html-keyboard-response","163","400249","0.0-10.0-0.0-0.0-0.0-1.11","null","<span style='color:GreenYellow; font-size: 70px;'>正确! </span>","null","","","","","","","","","","","","","","","","","","","","","","","feedback_test"
"","","","","","psychophysics","164","401652","0.0-10.0-0.0-0.0-0.0-0.12","400","","j","","","","","","","","","","","","","key","j","6.059717391304287","853.3333333333334","529.3333333333334","j","true","img/S_ambi40.png","生人","same",""
"","","","","","html-keyboard-response","165","402156","0.0-10.0-0.0-0.0-0.0-1.12","null","<span style='color:GreenYellow; font-size: 70px;'>正确! </span>","null","","","","","","","","","","","","","","","","","","","","","","","feedback_test"
"","","","","","psychophysics","166","403732","0.0-10.0-0.0-0.0-0.0-0.13","574","","f","","","","","","","","","","","","","key","f","6.0598108108109585","853.3333333333334","529.3333333333334","j","false","img/C_ambi40.png","朋友","same",""
"","","","","","html-keyboard-response","167","404240","0.0-10.0-0.0-0.0-0.0-1.13","null","<span style='color:red; font-size: 70px;'>错误! </span>","null","","","","","","","","","","","","","","","","","","","","","","","feedback_test"
"","","","","","psychophysics","168","405726","0.0-10.0-0.0-0.0-0.0-0.14","486","","j","","","","","","","","","","","","","key","j","6.059934156378654","853.3333333333334","529.3333333333334","j","true","img/C_ambi40.png","朋友","same",""
"","","","","","html-keyboard-response","169","406229","0.0-10.0-0.0-0.0-0.0-1.14","null","<span style='color:GreenYellow; font-size: 70px;'>正确! </span>","null","","","","","","","","","","","","","","","","","","","","","","","feedback_test"
"","","","","","psychophysics","170","407725","0.0-10.0-0.0-0.0-0.0-0.15","491","","f","","","","","","","","","","","","","key","f","6.058922448979539","853.3333333333334","529.3333333333334","f","true","img/T_ambi40.png","をる","same",""
"","","","","","html-keyboard-response","171","408239","0.0-10.0-0.0-0.0-0.0-1.15","null","<span style='color:GreenYellow; font-size: 70px;'>正确! </span>","null","","","","","","","","","","","","","","","","","","","","","","","feedback_test"
"","","","","","psychophysics","172","409972","0.0-10.0-0.0-0.0-0.0-0.16","733","","j","","","","","","","","","","","","","key","j","6.051272084805687","853.3333333333334","529.3333333333334","j","true","img/S_ambi40.png","生人","same",""
"","","","","","html-keyboard-response","173","410483","0.0-10.0-0.0-0.0-0.0-1.16","null","<span style='color:GreenYellow; font-size: 70px;'>正确! </span>","null","","","","","","","","","","","","","","","","","","","","","","","feedback_test"
"","","","","","psychophysics","174","411974","0.0-10.0-0.0-0.0-0.0-0.17","486","","j","","","","","","","","","","","","","key","j","6.059853061224685","853.3333333333334","529.3333333333334","f","false","img/C_ambi40.png","自我","same",""
"","","","","","html-keyboard-response","175","412491","0.0-10.0-0.0-0.0-0.0-1.17","null","<span style='color:red; font-size: 70px;'>错误! </span>","null","","","","","","","","","","","","","","","","","","","","","","","feedback_test"
"","","","","","psychophysics","176","414133","0.0-10.0-0.0-0.0-0.0-0.18","639","","j","","","","","","","","","","","","","key","j","6.0589518518516945","853.3333333333334","529.3333333333334","j","true","img/H_ambi40.png","自我","same",""
"","","","","","html-keyboard-response","177","414639","0.0-10.0-0.0-0.0-0.0-1.18","null","<span style='color:GreenYellow; font-size: 70px;'>正确! </span>","null","","","","","","","","","","","","","","","","","","","","","","","feedback_test"
"","","","","","psychophysics","178","416213","0.0-10.0-0.0-0.0-0.0-0.19","568","","f","","","","","","","","","","","","","key","f","6.059631782945773","853.3333333333334","529.3333333333334","j","false","img/S_ambi40.png","生人","same",""
"","","","","","html-keyboard-response","179","416727","0.0-10.0-0.0-0.0-0.0-1.19","null","<span style='color:red; font-size: 70px;'>错误! </span>","null","","","","","","","","","","","","","","","","","","","","","","","feedback_test"
"","","","","","psychophysics","180","418484","0.0-10.0-0.0-0.0-0.0-0.20","755","","j","","","","","","","","","","","","","key","j","6.05987889273354","853.3333333333334","529.3333333333334","j","true","img/C_ambi40.png","朋友","same",""
"","","","","","html-keyboard-response","181","418990","0.0-10.0-0.0-0.0-0.0-1.20","null","<span style='color:GreenYellow; font-size: 70px;'>正确! </span>","null","","","","","","","","","","","","","","","","","","","","","","","feedback_test"
"","","","","","psychophysics","182","420501","0.0-10.0-0.0-0.0-0.0-0.21","509","","f","","","","","","","","","","","","","key","f","6.059108870967682","853.3333333333334","529.3333333333334","f","true","img/T_ambi40.png","をる","same",""
"","","","","","html-keyboard-response","183","421016","0.0-10.0-0.0-0.0-0.0-1.21","null","<span style='color:GreenYellow; font-size: 70px;'>正确! </span>","null","","","","","","","","","","","","","","","","","","","","","","","feedback_test"
"","","","","","psychophysics","184","422684","0.0-10.0-0.0-0.0-0.0-0.22","664","","f","","","","","","","","","","","","","key","f","6.05931751824827","853.3333333333334","529.3333333333334","f","true","img/S_ambi40.png","朋友","same",""
"","","","","","html-keyboard-response","185","423199","0.0-10.0-0.0-0.0-0.0-1.22","null","<span style='color:GreenYellow; font-size: 70px;'>正确! </span>","null","","","","","","","","","","","","","","","","","","","","","","","feedback_test"
"","","","","","psychophysics","186","424685","0.0-10.0-0.0-0.0-0.0-0.23","482","","j","","","","","","","","","","","","","key","j","6.054377049180253","853.3333333333334","529.3333333333334","f","false","img/S_ambi40.png","自我","same",""
"","","","","","html-keyboard-response","187","425192","0.0-10.0-0.0-0.0-0.0-1.23","null","<span style='color:red; font-size: 70px;'>错误! </span>","null","","","","","","","","","","","","","","","","","","","","","","","feedback_test"
"","","","","","psychophysics","188","427294","0.0-10.0-0.0-0.0-0.0-0.24","1099","","j","","","","","","","","","","","","","key","j","6.058780346820777","853.3333333333334","529.3333333333334","j","true","img/S_ambi40.png","生人","same",""
"","","","","","html-keyboard-response","189","427807","0.0-10.0-0.0-0.0-0.0-1.24","null","<span style='color:GreenYellow; font-size: 70px;'>正确! </span>","null","","","","","","","","","","","","","","","","","","","","","","","feedback_test"
"","","","","","psychophysics","190","429372","0.0-10.0-0.0-0.0-0.0-0.25","565","","j","","","","","","","","","","","","","key","j","6.049019531249996","853.3333333333334","529.3333333333334","j","true","img/C_ambi40.png","朋友","same",""
"","","","","","html-keyboard-response","191","429878","0.0-10.0-0.0-0.0-0.0-1.25","null","<span style='color:GreenYellow; font-size: 70px;'>正确! </span>","null","","","","","","","","","","","","","","","","","","","","","","","feedback_test"
"","","","","","psychophysics","192","431684","0.0-10.0-0.0-0.0-0.0-0.26","804","","f","","","","","","","","","","","","","key","f","6.059821548821524","853.3333333333334","529.3333333333334","f","true","img/H_ambi40.png","生人","same",""
"","","","","","html-keyboard-response","193","432195","0.0-10.0-0.0-0.0-0.0-1.26","null","<span style='color:GreenYellow; font-size: 70px;'>正确! </span>","null","","","","","","","","","","","","","","","","","","","","","","","feedback_test"
"","","","","","psychophysics","194","433869","0.0-10.0-0.0-0.0-0.0-0.27","673","","j","","","","","","","","","","","","","key","j","6.060101818181998","853.3333333333334","529.3333333333334","j","true","img/C_ambi40.png","朋友","same",""
"","","","","","html-keyboard-response","195","434370","0.0-10.0-0.0-0.0-0.0-1.27","null","<span style='color:GreenYellow; font-size: 70px;'>正确! </span>","null","","","","","","","","","","","","","","","","","","","","","","","feedback_test"
"","","","","","psychophysics","196","436221","0.0-10.0-0.0-0.0-0.0-0.28","851","","j","","","","","","","","","","","","","key","j","6.054132013201326","853.3333333333334","529.3333333333334","j","true","img/H_ambi40.png","自我","same",""
"","","","","","html-keyboard-response","197","436731","0.0-10.0-0.0-0.0-0.0-1.28","null","<span style='color:GreenYellow; font-size: 70px;'>正确! </span>","null","","","","","","","","","","","","","","","","","","","","","","","feedback_test"
"","","","","","psychophysics","198","438366","0.0-10.0-0.0-0.0-0.0-0.29","632","","f","","","","","","","","","","","","","key","f","6.059877323419926","853.3333333333334","529.3333333333334","f","true","img/H_ambi40.png","朋友","same",""
"","","","","","html-keyboard-response","199","438882","0.0-10.0-0.0-0.0-0.0-1.29","null","<span style='color:GreenYellow; font-size: 70px;'>正确! </span>","null","","","","","","","","","","","","","","","","","","","","","","","feedback_test"
"","","","","","psychophysics","200","440469","0.0-10.0-0.0-0.0-0.0-0.30","584","","j","","","","","","","","","","","","","key","j","6.059892720306449","853.3333333333334","529.3333333333334","j","true","img/S_ambi40.png","生人","same",""
"","","","","","html-keyboard-response","201","440984","0.0-10.0-0.0-0.0-0.0-1.30","null","<span style='color:GreenYellow; font-size: 70px;'>正确! </span>","null","","","","","","","","","","","","","","","","","","","","","","","feedback_test"
"","","","","","psychophysics","202","442741","0.0-10.0-0.0-0.0-0.0-0.31","753","","f","","","","","","","","","","","","","key","f","6.059643598615996","853.3333333333334","529.3333333333334","f","true","img/C_ambi40.png","生人","same",""
"","","","","","html-keyboard-response","203","443256","0.0-10.0-0.0-0.0-0.0-1.31","null","<span style='color:GreenYellow; font-size: 70px;'>正确! </span>","null","","","","","","","","","","","","","","","","","","","","","","","feedback_test"
"","","","","","psychophysics","204","444861","0.0-10.0-0.0-0.0-0.0-0.32","603","","j","","","","","","","","","","","","","key","j","6.059946768060628","853.3333333333334","529.3333333333334","f","false","img/C_ambi40.png","自我","same",""
"","","","","","html-keyboard-response","205","445362","0.0-10.0-0.0-0.0-0.0-1.32","null","<span style='color:red; font-size: 70px;'>错误! </span>","null","","","","","","","","","","","","","","","","","","","","","","","feedback_test"
"","","","","","psychophysics","206","446877","0.0-10.0-0.0-0.0-0.0-0.33","514","","f","","","","","","","","","","","","","key","f","6.058236947791122","853.3333333333334","529.3333333333334","f","true","img/T_ambi40.png","をる","same",""
"","","","","","html-keyboard-response","207","447388","0.0-10.0-0.0-0.0-0.0-1.33","null","<span style='color:GreenYellow; font-size: 70px;'>正确! </span>","null","","","","","","","","","","","","","","","","","","","","","","","feedback_test"
"","","","","","psychophysics","208","448855","0.0-10.0-0.0-0.0-0.0-0.34","464","","f","","","","","","","","","","","","","key","f","6.059741666666863","853.3333333333334","529.3333333333334","f","true","img/T_ambi40.png","をる","same",""
"","","","","","html-keyboard-response","209","449361","0.0-10.0-0.0-0.0-0.0-1.34","null","<span style='color:GreenYellow; font-size: 70px;'>正确! </span>","null","","","","","","","","","","","","","","","","","","","","","","","feedback_test"
"","","","","","psychophysics","210","450892","0.0-10.0-0.0-0.0-0.0-0.35","529","","j","","","","","","","","","","","","","key","j","6.057313492063605","853.3333333333334","529.3333333333334","j","true","img/H_ambi40.png","自我","same",""
"","","","","","html-keyboard-response","211","451401","0.0-10.0-0.0-0.0-0.0-1.35","null","<span style='color:GreenYellow; font-size: 70px;'>正确! </span>","null","","","","","","","","","","","","","","","","","","","","","","","feedback_test"
"","","","","","psychophysics","212","452910","0.0-10.0-0.0-0.0-0.0-0.36","505","","f","","","","","","","","","","","","","key","f","6.0585927419353185","853.3333333333334","529.3333333333334","f","true","img/T_ambi40.png","をる","same",""
"","","","","","html-keyboard-response","213","453420","0.0-10.0-0.0-0.0-0.0-1.36","null","<span style='color:GreenYellow; font-size: 70px;'>正确! </span>","null","","","","","","","","","","","","","","","","","","","","","","","feedback_test"
"","","","","","psychophysics","214","454926","0.0-10.0-0.0-0.0-0.0-0.37","503","","f","","","","","","","","","","","","","key","f","6.057595141700268","853.3333333333334","529.3333333333334","f","true","img/T_ambi40.png","をる","same",""
"","","","","","html-keyboard-response","215","455439","0.0-10.0-0.0-0.0-0.0-1.37","null","<span style='color:GreenYellow; font-size: 70px;'>正确! </span>","null","","","","","","","","","","","","","","","","","","","","","","","feedback_test"
"","","","","","psychophysics","216","457030","0.0-10.0-0.0-0.0-0.0-0.38","587","","j","","","","","","","","","","","","","key","j","6.05998091603041","853.3333333333334","529.3333333333334","j","true","img/S_ambi40.png","生人","same",""
"","","","","","html-keyboard-response","217","457544","0.0-10.0-0.0-0.0-0.0-1.38","null","<span style='color:GreenYellow; font-size: 70px;'>正确! </span>","null","","","","","","","","","","","","","","","","","","","","","","","feedback_test"
"","","","","","psychophysics","218","459070","0.0-10.0-0.0-0.0-0.0-0.39","520","","j","","","","","","","","","","","","","key","j","6.059943999999901","853.3333333333334","529.3333333333334","j","true","img/H_ambi40.png","自我","same",""
"","","","","","html-keyboard-response","219","459578","0.0-10.0-0.0-0.0-0.0-1.39","null","<span style='color:GreenYellow; font-size: 70px;'>正确! </span>","null","","","","","","","","","","","","","","","","","","","","","","","feedback_test"
"","","","","","psychophysics","220","461252","0.0-10.0-0.0-0.0-0.0-0.40","672","","j","","","","","","","","","","","","","key","j","6.057883636363655","853.3333333333334","529.3333333333334","j","true","img/S_ambi40.png","生人","same",""
"","","","","","html-keyboard-response","221","461763","0.0-10.0-0.0-0.0-0.0-1.40","null","<span style='color:GreenYellow; font-size: 70px;'>正确! </span>","null","","","","","","","","","","","","","","","","","","","","","","","feedback_test"
"","","","","","psychophysics","222","463502","0.0-10.0-0.0-0.0-0.0-0.41","735","","f","","","","","","","","","","","","","key","f","6.060020979020869","853.3333333333334","529.3333333333334","f","true","img/S_ambi40.png","自我","same",""
"","","","","","html-keyboard-response","223","464009","0.0-10.0-0.0-0.0-0.0-1.41","null","<span style='color:GreenYellow; font-size: 70px;'>正确! </span>","null","","","","","","","","","","","","","","","","","","","","","","","feedback_test"
"","","","","","psychophysics","224","465501","0.0-10.0-0.0-0.0-0.0-0.42","491","","j","","","","","","","","","","","","","key","j","6.047296296296126","853.3333333333334","529.3333333333334","j","true","img/C_ambi40.png","朋友","same",""
"","","","","","html-keyboard-response","225","466009","0.0-10.0-0.0-0.0-0.0-1.42","null","<span style='color:GreenYellow; font-size: 70px;'>正确! </span>","null","","","","","","","","","","","","","","","","","","","","","","","feedback_test"
"","","","","","psychophysics","226","467622","0.0-10.0-0.0-0.0-0.0-0.43","606","","f","","","","","","","","","","","","","key","f","6.051152091254675","853.3333333333334","529.3333333333334","f","true","img/C_ambi40.png","生人","same",""
"","","","","","html-keyboard-response","227","468128","0.0-10.0-0.0-0.0-0.0-1.43","null","<span style='color:GreenYellow; font-size: 70px;'>正确! </span>","null","","","","","","","","","","","","","","","","","","","","","","","feedback_test"
"","","","","","psychophysics","228","469790","0.0-10.0-0.0-0.0-0.0-0.44","659","","j","","","","","","","","","","","","","key","j","6.059989010988932","853.3333333333334","529.3333333333334","j","true","img/C_ambi40.png","朋友","same",""
"","","","","","html-keyboard-response","229","470293","0.0-10.0-0.0-0.0-0.0-1.44","null","<span style='color:GreenYellow; font-size: 70px;'>正确! </span>","null","","","","","","","","","","","","","","","","","","","","","","","feedback_test"
"","","","","","psychophysics","230","471845","0.0-10.0-0.0-0.0-0.0-0.45","551","","j","","","","","","","","","","","","","key","j","6.049671936758818","853.3333333333334","529.3333333333334","j","true","img/H_ambi40.png","自我","same",""
"","","","","","html-keyboard-response","231","472361","0.0-10.0-0.0-0.0-0.0-1.45","null","<span style='color:GreenYellow; font-size: 70px;'>正确! </span>","null","","","","","","","","","","","","","","","","","","","","","","","feedback_test"
"","","","","","psychophysics","232","474013","0.0-10.0-0.0-0.0-0.0-0.46","647","","f","","","","","","","","","","","","","key","f","6.059741697416983","853.3333333333334","529.3333333333334","f","true","img/S_ambi40.png","朋友","same",""
"","","","","","html-keyboard-response","233","474525","0.0-10.0-0.0-0.0-0.0-1.46","null","<span style='color:GreenYellow; font-size: 70px;'>正确! </span>","null","","","","","","","","","","","","","","","","","","","","","","","feedback_test"
"","","","","","psychophysics","234","476382","0.0-10.0-0.0-0.0-0.0-0.47","851","","j","","","","","","","","","","","","","key","j","6.059872131147727","853.3333333333334","529.3333333333334","j","true","img/S_ambi40.png","生人","same",""
"","","","","","html-keyboard-response","235","476891","0.0-10.0-0.0-0.0-0.0-1.47","null","<span style='color:GreenYellow; font-size: 70px;'>正确! </span>","null","","","","","","","","","","","","","","","","","","","","","","","feedback_test"
"","","","","","psychophysics","236","478548","0.0-10.0-0.0-0.0-0.0-0.48","655","","j","","","","","","","","","","","","","key","j","6.059989010988932","853.3333333333334","529.3333333333334","j","true","img/H_ambi40.png","自我","same",""
"","","","","","html-keyboard-response","237","479060","0.0-10.0-0.0-0.0-0.0-1.48","null","<span style='color:GreenYellow; font-size: 70px;'>正确! </span>","null","","","","","","","","","","","","","","","","","","","","","","","feedback_test"
"","","","","","psychophysics","238","480629","0.0-10.0-0.0-0.0-0.0-0.49","566","","f","","","","","","","","","","","","","key","f","6.056069767441692","853.3333333333334","529.3333333333334","f","true","img/H_ambi40.png","朋友","same",""
"","","","","","html-keyboard-response","239","481136","0.0-10.0-0.0-0.0-0.0-1.49","null","<span style='color:GreenYellow; font-size: 70px;'>正确! </span>","null","","","","","","","","","","","","","","","","","","","","","","","feedback_test"
"","","","","","psychophysics","240","482709","0.0-10.0-0.0-0.0-0.0-0.50","567","","f","","","","","","","","","","","","","key","f","6.059120155038635","853.3333333333334","529.3333333333334","f","true","img/H_ambi40.png","生人","same",""
"","","","","","html-keyboard-response","241","483221","0.0-10.0-0.0-0.0-0.0-1.50","null","<span style='color:GreenYellow; font-size: 70px;'>正确! </span>","null","","","","","","","","","","","","","","","","","","","","","","","feedback_test"
"","","","","","psychophysics","242","484893","0.0-10.0-0.0-0.0-0.0-0.51","667","","j","","","","","","","","","","","","","key","j","6.059654545454647","853.3333333333334","529.3333333333334","j","true","img/C_ambi40.png","朋友","same",""
"","","","","","html-keyboard-response","243","485409","0.0-10.0-0.0-0.0-0.0-1.51","null","<span style='color:GreenYellow; font-size: 70px;'>正确! </span>","null","","","","","","","","","","","","","","","","","","","","","","","feedback_test"
"","","","","","psychophysics","244","486869","0.0-10.0-0.0-0.0-0.0-0.52","455","","f","","","","","","","","","","","","","key","f","6.058812499999961","853.3333333333334","529.3333333333334","f","true","img/T_ambi40.png","をる","same",""
"","","","","","html-keyboard-response","245","487377","0.0-10.0-0.0-0.0-0.0-1.52","null","<span style='color:GreenYellow; font-size: 70px;'>正确! </span>","null","","","","","","","","","","","","","","","","","","","","","","","feedback_test"
"","","","","","psychophysics","246","488869","0.0-10.0-0.0-0.0-0.0-0.53","491","","j","","","","","","","","","","","","","key","j","6.047155737704893","853.3333333333334","529.3333333333334","f","false","img/C_ambi40.png","自我","same",""
"","","","","","html-keyboard-response","247","489376","0.0-10.0-0.0-0.0-0.0-1.53","null","<span style='color:red; font-size: 70px;'>错误! </span>","null","","","","","","","","","","","","","","","","","","","","","","","feedback_test"
"","","","","","psychophysics","248","490990","0.0-10.0-0.0-0.0-0.0-0.54","607","","f","","","","","","","","","","","","","key","f","6.04863636363624","853.3333333333334","529.3333333333334","f","true","img/C_ambi40.png","生人","same",""
"","","","","","html-keyboard-response","249","491504","0.0-10.0-0.0-0.0-0.0-1.54","null","<span style='color:GreenYellow; font-size: 70px;'>正确! </span>","null","","","","","","","","","","","","","","","","","","","","","","","feedback_test"
"","","","","","psychophysics","250","493029","0.0-10.0-0.0-0.0-0.0-0.55","519","","f","","","","","","","","","","","","","key","f","6.059979999999982","853.3333333333334","529.3333333333334","f","true","img/T_ambi40.png","をる","same",""
"","","","","","html-keyboard-response","251","493532","0.0-10.0-0.0-0.0-0.0-1.55","null","<span style='color:GreenYellow; font-size: 70px;'>正确! </span>","null","","","","","","","","","","","","","","","","","","","","","","","feedback_test"
"","","","","","psychophysics","252","495093","0.0-10.0-0.0-0.0-0.0-0.56","560","","j","","","","","","","","","","","","","key","j","6.059385214007735","853.3333333333334","529.3333333333334","j","true","img/H_ambi40.png","自我","same",""
"","","","","","html-keyboard-response","253","495596","0.0-10.0-0.0-0.0-0.0-1.56","null","<span style='color:GreenYellow; font-size: 70px;'>正确! </span>","null","","","","","","","","","","","","","","","","","","","","","","","feedback_test"
"","","","","","psychophysics","254","497149","0.0-10.0-0.0-0.0-0.0-0.57","549","","j","","","","","","","","","","","","","key","j","6.059886274509607","853.3333333333334","529.3333333333334","j","true","img/S_ambi40.png","生人","same",""
"","","","","","html-keyboard-response","255","497663","0.0-10.0-0.0-0.0-0.0-1.57","null","<span style='color:GreenYellow; font-size: 70px;'>正确! </span>","null","","","","","","","","","","","","","","","","","","","","","","","feedback_test"
"","","","","","psychophysics","256","499205","0.0-10.0-0.0-0.0-0.0-0.58","539","","j","","","","","","","","","","","","","key","j","6.057462450593118","853.3333333333334","529.3333333333334","j","true","img/C_ambi40.png","朋友","same",""
"","","","","","html-keyboard-response","257","499707","0.0-10.0-0.0-0.0-0.0-1.58","null","<span style='color:GreenYellow; font-size: 70px;'>正确! </span>","null","","","","","","","","","","","","","","","","","","","","","","","feedback_test"
"","","","","","psychophysics","258","501269","0.0-10.0-0.0-0.0-0.0-0.59","560","","j","","","","","","","","","","","","","key","j","6.059571984436015","853.3333333333334","529.3333333333334","j","true","img/C_ambi40.png","朋友","same",""
"","","","","","html-keyboard-response","259","501773","0.0-10.0-0.0-0.0-0.0-1.59","null","<span style='color:GreenYellow; font-size: 70px;'>正确! </span>","null","","","","","","","","","","","","","","","","","","","","","","","feedback_test"
"","","","","","psychophysics","260","503261","0.0-10.0-0.0-0.0-0.0-0.60","485","","f","","","","","","","","","","","","","key","f","6.058424489795971","853.3333333333334","529.3333333333334","f","true","img/S_ambi40.png","朋友","same",""
"","","","","","html-keyboard-response","261","503765","0.0-10.0-0.0-0.0-0.0-1.60","null","<span style='color:GreenYellow; font-size: 70px;'>正确! </span>","null","","","","","","","","","","","","","","","","","","","","","","","feedback_test"
"","","","","","psychophysics","262","505220","0.0-10.0-0.0-0.0-0.0-0.61","451","","j","","","","","","","","","","","","","key","j","6.059774058577741","853.3333333333334","529.3333333333334","f","false","img/S_ambi40.png","自我","same",""
"","","","","","html-keyboard-response","263","505725","0.0-10.0-0.0-0.0-0.0-1.61","null","<span style='color:red; font-size: 70px;'>错误! </span>","null","","","","","","","","","","","","","","","","","","","","","","","feedback_test"
"","","","","","psychophysics","264","507365","0.0-10.0-0.0-0.0-0.0-0.62","639","","j","","","","","","","","","","","","","key","j","6.052645522388265","853.3333333333334","529.3333333333334","j","true","img/C_ambi40.png","朋友","same",""
"","","","","","html-keyboard-response","265","507876","0.0-10.0-0.0-0.0-0.0-1.62","null","<span style='color:GreenYellow; font-size: 70px;'>正确! </span>","null","","","","","","","","","","","","","","","","","","","","","","","feedback_test"
"","","","","","psychophysics","266","509382","0.0-10.0-0.0-0.0-0.0-0.63","505","","j","","","","","","","","","","","","","key","j","6.0598870967740135","853.3333333333334","529.3333333333334","j","true","img/H_ambi40.png","自我","same",""
"","","","","","html-keyboard-response","267","509885","0.0-10.0-0.0-0.0-0.0-1.63","null","<span style='color:GreenYellow; font-size: 70px;'>正确! </span>","null","","","","","","","","","","","","","","","","","","","","","","","feedback_test"
"","","","","","psychophysics","268","511462","0.0-10.0-0.0-0.0-0.0-0.64","572","","f","","","","","","","","","","","","","key","f","6.060081081081031","853.3333333333334","529.3333333333334","f","true","img/H_ambi40.png","朋友","same",""
"","","","","","html-keyboard-response","269","511974","0.0-10.0-0.0-0.0-0.0-1.64","null","<span style='color:GreenYellow; font-size: 70px;'>正确! </span>","null","","","","","","","","","","","","","","","","","","","","","","","feedback_test"
"","","","","","psychophysics","270","513500","0.0-10.0-0.0-0.0-0.0-0.65","525","","j","","","","","","","","","","","","","key","j","6.049377510039862","853.3333333333334","529.3333333333334","f","false","img/T_ambi40.png","をる","same",""
"","","","","","html-keyboard-response","271","514013","0.0-10.0-0.0-0.0-0.0-1.65","null","<span style='color:red; font-size: 70px;'>错误! </span>","null","","","","","","","","","","","","","","","","","","","","","","","feedback_test"
"","","","","","psychophysics","272","515644","0.0-10.0-0.0-0.0-0.0-0.66","628","","j","","","","","","","","","","","","","key","j","6.056910447761548","853.3333333333334","529.3333333333334","j","true","img/S_ambi40.png","生人","same",""
"","","","","","html-keyboard-response","273","516151","0.0-10.0-0.0-0.0-0.0-1.66","null","<span style='color:GreenYellow; font-size: 70px;'>正确! </span>","null","","","","","","","","","","","","","","","","","","","","","","","feedback_test"
"","","","","","psychophysics","274","517765","0.0-10.0-0.0-0.0-0.0-0.67","609","","j","","","","","","","","","","","","","key","j","6.055649056604114","853.3333333333334","529.3333333333334","j","true","img/H_ambi40.png","自我","same",""
"","","","","","html-keyboard-response","275","518266","0.0-10.0-0.0-0.0-0.0-1.67","null","<span style='color:GreenYellow; font-size: 70px;'>正确! </span>","null","","","","","","","","","","","","","","","","","","","","","","","feedback_test"
"","","","","","psychophysics","276","519804","0.0-10.0-0.0-0.0-0.0-0.68","534","","j","","","","","","","","","","","","","key","j","6.059758893280886","853.3333333333334","529.3333333333334","j","true","img/S_ambi40.png","生人","same",""
"","","","","","html-keyboard-response","277","520311","0.0-10.0-0.0-0.0-0.0-1.68","null","<span style='color:GreenYellow; font-size: 70px;'>正确! </span>","null","","","","","","","","","","","","","","","","","","","","","","","feedback_test"
"","","","","","psychophysics","278","521782","0.0-10.0-0.0-0.0-0.0-0.69","469","","f","","","","","","","","","","","","","key","f","6.059269709543507","853.3333333333334","529.3333333333334","f","true","img/T_ambi40.png","をる","same",""
"","","","","","html-keyboard-response","279","522292","0.0-10.0-0.0-0.0-0.0-1.69","null","<span style='color:GreenYellow; font-size: 70px;'>正确! </span>","null","","","","","","","","","","","","","","","","","","","","","","","feedback_test"
"","","","","","psychophysics","280","524092","0.0-10.0-0.0-0.0-0.0-0.70","798","","f","","","","","","","","","","","","","key","f","6.05173648648653","853.3333333333334","529.3333333333334","f","true","img/H_ambi40.png","生人","same",""
"","","","","","html-keyboard-response","281","524599","0.0-10.0-0.0-0.0-0.0-1.70","null","<span style='color:GreenYellow; font-size: 70px;'>正确! </span>","null","","","","","","","","","","","","","","","","","","","","","","","feedback_test"
"","","","","","psychophysics","282","526068","0.0-10.0-0.0-0.0-0.0-0.71","466","","j","","","","","","","","","","","","","key","j","6.053464730290495","853.3333333333334","529.3333333333334","f","false","img/C_ambi40.png","自我","same",""
"","","","","","html-keyboard-response","283","526582","0.0-10.0-0.0-0.0-0.0-1.71","null","<span style='color:red; font-size: 70px;'>错误! </span>","null","","","","","","","","","","","","","","","","","","","","","","","feedback_test"
"","","","","","psychophysics","284","528316","0.0-10.0-0.0-0.0-0.0-0.72","731","","f","","","","","","","","","","","","","key","f","6.056375438596628","853.3333333333334","529.3333333333334","f","true","img/H_ambi40.png","朋友","same",""
"","","","","","html-keyboard-response","285","528828","0.0-10.0-0.0-0.0-0.0-1.72","null","<span style='color:GreenYellow; font-size: 70px;'>正确! </span>","null","","","","","","","","","","","","","","","","","","","","","","","feedback_test"
"","","","","","psychophysics","286","530309","0.0-10.0-0.0-0.0-0.0-0.73","478","","f","","","","","","","","","","","","","key","f","6.05791358024681","853.3333333333334","529.3333333333334","f","true","img/T_ambi40.png","をる","same",""
"","","","","","html-keyboard-response","287","530815","0.0-10.0-0.0-0.0-0.0-1.73","null","<span style='color:GreenYellow; font-size: 70px;'>正确! </span>","null","","","","","","","","","","","","","","","","","","","","","","","feedback_test"
"","","","","","psychophysics","288","532397","0.0-10.0-0.0-0.0-0.0-0.74","576","","j","","","","","","","","","","","","","key","j","6.059961538461413","853.3333333333334","529.3333333333334","j","true","img/S_ambi40.png","生人","same",""
"","","","","","html-keyboard-response","289","532909","0.0-10.0-0.0-0.0-0.0-1.74","null","<span style='color:GreenYellow; font-size: 70px;'>正确! </span>","null","","","","","","","","","","","","","","","","","","","","","","","feedback_test"
"","","","","","psychophysics","290","534533","0.0-10.0-0.0-0.0-0.0-0.75","622","","j","","","","","","","","","","","","","key","j","6.059838345864721","853.3333333333334","529.3333333333334","j","true","img/C_ambi40.png","朋友","same",""
"","","","","","html-keyboard-response","291","535047","0.0-10.0-0.0-0.0-0.0-1.75","null","<span style='color:GreenYellow; font-size: 70px;'>正确! </span>","null","","","","","","","","","","","","","","","","","","","","","","","feedback_test"
"","","","","","psychophysics","292","536677","0.0-10.0-0.0-0.0-0.0-0.76","628","","j","","","","","","","","","","","","","key","j","6.059805970149438","853.3333333333334","529.3333333333334","j","true","img/H_ambi40.png","自我","same",""
"","","","","","html-keyboard-response","293","537187","0.0-10.0-0.0-0.0-0.0-1.76","null","<span style='color:GreenYellow; font-size: 70px;'>正确! </span>","null","","","","","","","","","","","","","","","","","","","","","","","feedback_test"
"","","","","","psychophysics","294","538597","0.0-10.0-0.0-0.0-0.0-0.77","407","","j","","","","","","","","","","","","","key","j","6.057267241379655","853.3333333333334","529.3333333333334","j","true","img/H_ambi40.png","自我","same",""
"","","","","","html-keyboard-response","295","539100","0.0-10.0-0.0-0.0-0.0-1.77","null","<span style='color:GreenYellow; font-size: 70px;'>正确! </span>","null","","","","","","","","","","","","","","","","","","","","","","","feedback_test"
"","","","","","psychophysics","296","540780","0.0-10.0-0.0-0.0-0.0-0.78","675","","j","","","","","","","","","","","","","key","j","6.059894927536505","853.3333333333334","529.3333333333334","j","true","img/H_ambi40.png","自我","same",""
"","","","","","html-keyboard-response","297","541288","0.0-10.0-0.0-0.0-0.0-1.78","null","<span style='color:GreenYellow; font-size: 70px;'>正确! </span>","null","","","","","","","","","","","","","","","","","","","","","","","feedback_test"
"","","","","","psychophysics","298","542693","0.0-10.0-0.0-0.0-0.0-0.79","400","","j","","","","","","","","","","","","","key","j","6.0599307359304095","853.3333333333334","529.3333333333334","f","false","img/H_ambi40.png","生人","same",""
"","","","","","html-keyboard-response","299","543206","0.0-10.0-0.0-0.0-0.0-1.79","null","<span style='color:red; font-size: 70px;'>错误! </span>","null","","","","","","","","","","","","","","","","","","","","","","","feedback_test"
"","","","","","psychophysics","300","544732","0.0-10.0-0.0-0.0-0.0-0.80","525","","j","","","","","","","","","","","","","key","j","6.05768127490041","853.3333333333334","529.3333333333334","j","true","img/C_ambi40.png","朋友","same",""
"","","","","","html-keyboard-response","301","545234","0.0-10.0-0.0-0.0-0.0-1.80","null","<span style='color:GreenYellow; font-size: 70px;'>正确! </span>","null","","","","","","","","","","","","","","","","","","","","","","","feedback_test"
"","","","","","psychophysics","302","546852","0.0-10.0-0.0-0.0-0.0-0.81","615","","j","","","","","","","","","","","","","key","j","6.058736842105522","853.3333333333334","529.3333333333334","j","true","img/S_ambi40.png","生人","same",""
"","","","","","html-keyboard-response","303","547356","0.0-10.0-0.0-0.0-0.0-1.81","null","<span style='color:GreenYellow; font-size: 70px;'>正确! </span>","null","","","","","","","","","","","","","","","","","","","","","","","feedback_test"
"","","","","","psychophysics","304","548957","0.0-10.0-0.0-0.0-0.0-0.82","599","","j","","","","","","","","","","","","","key","j","6.058608365018973","853.3333333333334","529.3333333333334","f","false","img/C_ambi40.png","生人","same",""
"","","","","","html-keyboard-response","305","549462","0.0-10.0-0.0-0.0-0.0-1.82","null","<span style='color:red; font-size: 70px;'>错误! </span>","null","","","","","","","","","","","","","","","","","","","","","","","feedback_test"
"","","","","","psychophysics","306","551140","0.0-10.0-0.0-0.0-0.0-0.83","673","","f","","","","","","","","","","","","","key","f","6.058576086956579","853.3333333333334","529.3333333333334","f","true","img/S_ambi40.png","朋友","same",""
"","","","","","html-keyboard-response","307","551642","0.0-10.0-0.0-0.0-0.0-1.83","null","<span style='color:GreenYellow; font-size: 70px;'>正确! </span>","null","","","","","","","","","","","","","","","","","","","","","","","feedback_test"
"","","","","","psychophysics","308","553325","0.0-10.0-0.0-0.0-0.0-0.84","683","","f","","","","","","","","","","","","","key","f","6.049534545454451","853.3333333333334","529.3333333333334","f","true","img/S_ambi40.png","自我","same",""
"","","","","","html-keyboard-response","309","553831","0.0-10.0-0.0-0.0-0.0-1.84","null","<span style='color:GreenYellow; font-size: 70px;'>正确! </span>","null","","","","","","","","","","","","","","","","","","","","","","","feedback_test"
"","","","","","psychophysics","310","555381","0.0-10.0-0.0-0.0-0.0-0.85","549","","f","","","","","","","","","","","","","key","f","6.055287401574594","853.3333333333334","529.3333333333334","f","true","img/T_ambi40.png","をる","same",""
"","","","","","html-keyboard-response","311","555893","0.0-10.0-0.0-0.0-0.0-1.85","null","<span style='color:GreenYellow; font-size: 70px;'>正确! </span>","null","","","","","","","","","","","","","","","","","","","","","","","feedback_test"
"","","","","","psychophysics","312","557445","0.0-10.0-0.0-0.0-0.0-0.86","548","","f","","","","","","","","","","","","","key","f","6.06003529411768","853.3333333333334","529.3333333333334","f","true","img/T_ambi40.png","をる","same",""
"","","","","","html-keyboard-response","313","557953","0.0-10.0-0.0-0.0-0.0-1.86","null","<span style='color:GreenYellow; font-size: 70px;'>正确! </span>","null","","","","","","","","","","","","","","","","","","","","","","","feedback_test"
"","","","","","psychophysics","314","559692","0.0-10.0-0.0-0.0-0.0-0.87","735","","j","","","","","","","","","","","","","key","j","6.058723776223515","853.3333333333334","529.3333333333334","j","true","img/S_ambi40.png","生人","same",""
"","","","","","html-keyboard-response","315","560195","0.0-10.0-0.0-0.0-0.0-1.87","null","<span style='color:GreenYellow; font-size: 70px;'>正确! </span>","null","","","","","","","","","","","","","","","","","","","","","","","feedback_test"
"","","","","","psychophysics","316","561772","0.0-10.0-0.0-0.0-0.0-0.88","575","","j","","","","","","","","","","","","","key","j","6.059942084941725","853.3333333333334","529.3333333333334","j","true","img/C_ambi40.png","朋友","same",""
"","","","","","html-keyboard-response","317","562274","0.0-10.0-0.0-0.0-0.0-1.88","null","<span style='color:GreenYellow; font-size: 70px;'>正确! </span>","null","","","","","","","","","","","","","","","","","","","","","","","feedback_test"
"","","","","","psychophysics","318","563981","0.0-10.0-0.0-0.0-0.0-0.89","703","","f","","","","","","","","","","","","","key","f","6.058549999999897","853.3333333333334","529.3333333333334","f","true","img/C_ambi40.png","自我","same",""
"","","","","","html-keyboard-response","319","564482","0.0-10.0-0.0-0.0-0.0-1.89","null","<span style='color:GreenYellow; font-size: 70px;'>正确! </span>","null","","","","","","","","","","","","","","","","","","","","","","","feedback_test"
"","","","","","psychophysics","320","566164","0.0-10.0-0.0-0.0-0.0-0.90","680","","f","","","","","","","","","","","","","key","f","6.052203636363318","853.3333333333334","529.3333333333334","f","true","img/C_ambi40.png","自我","same",""
"","","","","","html-keyboard-response","321","566666","0.0-10.0-0.0-0.0-0.0-1.90","null","<span style='color:GreenYellow; font-size: 70px;'>正确! </span>","null","","","","","","","","","","","","","","","","","","","","","","","feedback_test"
"","","","","","psychophysics","322","568140","0.0-10.0-0.0-0.0-0.0-0.91","468","","f","","","","","","","","","","","","","key","f","6.059537190082867","853.3333333333334","529.3333333333334","j","false","img/C_ambi40.png","朋友","same",""
"","","","","","html-keyboard-response","323","568644","0.0-10.0-0.0-0.0-0.0-1.91","null","<span style='color:red; font-size: 70px;'>错误! </span>","null","","","","","","","","","","","","","","","","","","","","","","","feedback_test"
"","","","","","psychophysics","324","570204","0.0-10.0-0.0-0.0-0.0-0.92","557","","j","","","","","","","","","","","","","key","j","6.059945312500076","853.3333333333334","529.3333333333334","j","true","img/H_ambi40.png","自我","same",""
"","","","","","html-keyboard-response","325","570717","0.0-10.0-0.0-0.0-0.0-1.92","null","<span style='color:GreenYellow; font-size: 70px;'>正确! </span>","null","","","","","","","","","","","","","","","","","","","","","","","feedback_test"
"","","","","","psychophysics","326","572365","0.0-10.0-0.0-0.0-0.0-0.93","646","","j","","","","","","","","","","","","","key","j","6.05633210332126","853.3333333333334","529.3333333333334","j","true","img/S_ambi40.png","生人","same",""
"","","","","","html-keyboard-response","327","572866","0.0-10.0-0.0-0.0-0.0-1.93","null","<span style='color:GreenYellow; font-size: 70px;'>正确! </span>","null","","","","","","","","","","","","","","","","","","","","","","","feedback_test"
"","","","","","psychophysics","328","574654","0.0-10.0-0.0-0.0-0.0-0.94","784","","f","","","","","","","","","","","","","key","f","6.059911564626053","853.3333333333334","529.3333333333334","f","true","img/H_ambi40.png","朋友","same",""
"","","","","","html-keyboard-response","329","575162","0.0-10.0-0.0-0.0-0.0-1.94","null","<span style='color:GreenYellow; font-size: 70px;'>正确! </span>","null","","","","","","","","","","","","","","","","","","","","","","","feedback_test"
"","","","","","psychophysics","330","576820","0.0-10.0-0.0-0.0-0.0-0.95","652","","j","","","","","","","","","","","","","key","j","6.059915441176546","853.3333333333334","529.3333333333334","j","true","img/H_ambi40.png","自我","same",""
"","","","","","html-keyboard-response","331","577332","0.0-10.0-0.0-0.0-0.0-1.95","null","<span style='color:GreenYellow; font-size: 70px;'>正确! </span>","null","","","","","","","","","","","","","","","","","","","","","","","feedback_test"
"","","","","","psychophysics","332","578837","0.0-10.0-0.0-0.0-0.0-0.96","500","","f","","","","","","","","","","","","","key","f","6.058542510121778","853.3333333333334","529.3333333333334","f","true","img/S_ambi40.png","朋友","same",""
"","","","","","html-keyboard-response","333","579340","0.0-10.0-0.0-0.0-0.0-1.96","null","<span style='color:GreenYellow; font-size: 70px;'>正确! </span>","null","","","","","","","","","","","","","","","","","","","","","","","feedback_test"
"","","","","","psychophysics","334","580877","0.0-10.0-0.0-0.0-0.0-0.97","534","","j","","","","","","","","","","","","","key","j","6.083293650793614","853.3333333333334","529.3333333333334","j","true","img/S_ambi40.png","生人","same",""
"","","","","","html-keyboard-response","335","581383","0.0-10.0-0.0-0.0-0.0-1.97","null","<span style='color:GreenYellow; font-size: 70px;'>正确! </span>","null","","","","","","","","","","","","","","","","","","","","","","","feedback_test"
"","","","","","psychophysics","336","582997","0.0-10.0-0.0-0.0-0.0-0.98","612","","f","","","","","","","","","","","","","key","f","6.0504068441064005","853.3333333333334","529.3333333333334","f","true","img/H_ambi40.png","生人","same",""
"","","","","","html-keyboard-response","337","583506","0.0-10.0-0.0-0.0-0.0-1.98","null","<span style='color:GreenYellow; font-size: 70px;'>正确! </span>","null","","","","","","","","","","","","","","","","","","","","","","","feedback_test"
"","","","","","psychophysics","338","585036","0.0-10.0-0.0-0.0-0.0-0.99","525","","j","","","","","","","","","","","","","key","j","6.0598565737050825","853.3333333333334","529.3333333333334","j","true","img/C_ambi40.png","朋友","same",""
"","","","","","html-keyboard-response","339","585539","0.0-10.0-0.0-0.0-0.0-1.99","null","<span style='color:GreenYellow; font-size: 70px;'>正确! </span>","null","","","","","","","","","","","","","","","","","","","","","","","feedback_test"
"","","","","","psychophysics","340","587244","0.0-10.0-0.0-0.0-0.0-0.100","701","","j","","","","","","","","","","","","","key","j","6.059864285714243","853.3333333333334","529.3333333333334","j","true","img/S_ambi40.png","生人","same",""
"","","","","","html-keyboard-response","341","587758","0.0-10.0-0.0-0.0-0.0-1.100","null","<span style='color:GreenYellow; font-size: 70px;'>正确! </span>","null","","","","","","","","","","","","","","","","","","","","","","","feedback_test"
"","","","","","psychophysics","342","589261","0.0-10.0-0.0-0.0-0.0-0.101","501","","f","","","","","","","","","","","","","key","f","6.052232653060833","853.3333333333334","529.3333333333334","f","true","img/T_ambi40.png","をる","same",""
"","","","","","html-keyboard-response","343","589766","0.0-10.0-0.0-0.0-0.0-1.101","null","<span style='color:GreenYellow; font-size: 70px;'>正确! </span>","null","","","","","","","","","","","","","","","","","","","","","","","feedback_test"
"","","","","","psychophysics","344","591340","0.0-10.0-0.0-0.0-0.0-0.102","573","","j","","","","","","","","","","","","","key","j","6.059713178294415","853.3333333333334","529.3333333333334","j","true","img/H_ambi40.png","自我","same",""
"","","","","","html-keyboard-response","345","591853","0.0-10.0-0.0-0.0-0.0-1.102","null","<span style='color:GreenYellow; font-size: 70px;'>正确! </span>","null","","","","","","","","","","","","","","","","","","","","","","","feedback_test"
"","","","","","psychophysics","346","593444","0.0-10.0-0.0-0.0-0.0-0.103","587","","f","","","","","","","","","","","","","key","f","6.059651340996236","853.3333333333334","529.3333333333334","f","true","img/C_ambi40.png","生人","same",""
"","","","","","html-keyboard-response","347","593951","0.0-10.0-0.0-0.0-0.0-1.103","null","<span style='color:GreenYellow; font-size: 70px;'>正确! </span>","null","","","","","","","","","","","","","","","","","","","","","","","feedback_test"
"","","","","","psychophysics","348","595485","0.0-10.0-0.0-0.0-0.0-0.104","532","","f","","","","","","","","","","","","","key","f","6.059678571428531","853.3333333333334","529.3333333333334","f","true","img/T_ambi40.png","をる","same",""
"","","","","","html-keyboard-response","349","595987","0.0-10.0-0.0-0.0-0.0-1.104","null","<span style='color:GreenYellow; font-size: 70px;'>正确! </span>","null","","","","","","","","","","","","","","","","","","","","","","","feedback_test"
"","","","","","psychophysics","350","597477","0.0-10.0-0.0-0.0-0.0-0.105","489","","j","","","","","","","","","","","","","key","j","6.059669387754889","853.3333333333334","529.3333333333334","j","true","img/C_ambi40.png","朋友","same",""
"","","","","","html-keyboard-response","351","597989","0.0-10.0-0.0-0.0-0.0-1.105","null","<span style='color:GreenYellow; font-size: 70px;'>正确! </span>","null","","","","","","","","","","","","","","","","","","","","","","","feedback_test"
"","","","","","psychophysics","352","599477","0.0-10.0-0.0-0.0-0.0-0.106","481","","j","","","","","","","","","","","","","key","j","6.05766803278687","853.3333333333334","529.3333333333334","f","false","img/S_ambi40.png","自我","same",""
"","","","","","html-keyboard-response","353","599988","0.0-10.0-0.0-0.0-0.0-1.106","null","<span style='color:red; font-size: 70px;'>错误! </span>","null","","","","","","","","","","","","","","","","","","","","","","","feedback_test"
"","","","","","psychophysics","354","601452","0.0-10.0-0.0-0.0-0.0-0.107","463","","f","","","","","","","","","","","","","key","f","6.059788381742677","853.3333333333334","529.3333333333334","f","true","img/T_ambi40.png","をる","same",""
"","","","","","html-keyboard-response","355","601965","0.0-10.0-0.0-0.0-0.0-1.107","null","<span style='color:GreenYellow; font-size: 70px;'>正确! </span>","null","","","","","","","","","","","","","","","","","","","","","","","feedback_test"
"","","","","","html-keyboard-response","356","606853","0.0-10.0-0.0-0.0-1.0","4886","<style>.context{color:white; font-size: 35px; line-height:40px}</style>                          <div><p class='context'>您正确回答了87% 的试次。</p><p class='context'>您的平均反应时为605毫秒。</p><p class='context'>请按任意键进入休息</p></div>","j","","","","","","","","","","","","","","","","","","","","","","",""
"","","","","","html-button-response","357","666955","0.0-10.0-0.0-0.0-2.0","60099","
                    <p>您当前还剩余5组实验</p>
                    <p>现在是休息时间，当您结束休息后，您可以点击 结束休息 按钮 继续</p>
                    <p>建议休息时间还剩余<span id=""iii"">60</span>秒</p>","0","","","","","","","","","","","","","","","","","","","","","","",""
"","","","","","psychophysics","358","669461","0.0-10.0-0.0-0.0-0.1-0.108","null","","null","","","","","","","","","","","","","key","null","6.060026699029196","853.3333333333334","529.3333333333334","f","false","img/C_ambi40.png","生人","same",""
"","","","","","html-keyboard-response","359","669974","0.0-10.0-0.0-0.0-0.1-1.108","null","<span class='add_' style='color:yellow; font-size: 70px;'> 太慢! </span>","null","","","","","","","","","","","","","","","","","","","","","","","feedback_test"
"","","","","","psychophysics","360","671501","0.0-10.0-0.0-0.0-0.1-0.109","524","","j","","","","","","","","","","","","","key","j","6.058426294820865","853.3333333333334","529.3333333333334","j","true","img/S_ambi40.png","生人","same",""
"","","","","","html-keyboard-response","361","672003","0.0-10.0-0.0-0.0-0.1-1.109","null","<span style='color:GreenYellow; font-size: 70px;'>正确! </span>","null","","","","","","","","","","","","","","","","","","","","","","","feedback_test"
"","","","","","psychophysics","362","673540","0.0-10.0-0.0-0.0-0.1-0.110","534","","j","","","","","","","","","","","","","key","j","6.0598814229245335","853.3333333333334","529.3333333333334","f","false","img/S_ambi40.png","自我","same",""
"","","","","","html-keyboard-response","363","674045","0.0-10.0-0.0-0.0-0.1-1.110","null","<span style='color:red; font-size: 70px;'>错误! </span>","null","","","","","","","","","","","","","","","","","","","","","","","feedback_test"
"","","","","","psychophysics","364","675492","0.0-10.0-0.0-0.0-0.1-0.111","444","","f","","","","","","","","","","","","","key","f","6.058457983193034","853.3333333333334","529.3333333333334","f","true","img/T_ambi40.png","をる","same",""
"","","","","","html-keyboard-response","365","676002","0.0-10.0-0.0-0.0-0.1-1.111","null","<span style='color:GreenYellow; font-size: 70px;'>正确! </span>","null","","","","","","","","","","","","","","","","","","","","","","","feedback_test"
"","","","","","psychophysics","366","677493","0.0-10.0-0.0-0.0-0.1-0.112","488","","j","","","","","","","","","","","","","key","j","6.058073469387766","853.3333333333334","529.3333333333334","j","true","img/H_ambi40.png","自我","same",""
"","","","","","html-keyboard-response","367","677997","0.0-10.0-0.0-0.0-0.1-1.112","null","<span style='color:GreenYellow; font-size: 70px;'>正确! </span>","null","","","","","","","","","","","","","","","","","","","","","","","feedback_test"
"","","","","","psychophysics","368","679573","0.0-10.0-0.0-0.0-0.1-0.113","574","","j","","","","","","","","","","","","","key","j","6.0597297297296215","853.3333333333334","529.3333333333334","j","true","img/S_ambi40.png","生人","same",""
"","","","","","html-keyboard-response","369","680085","0.0-10.0-0.0-0.0-0.1-1.113","null","<span style='color:GreenYellow; font-size: 70px;'>正确! </span>","null","","","","","","","","","","","","","","","","","","","","","","","feedback_test"
"","","","","","psychophysics","370","681605","0.0-10.0-0.0-0.0-0.1-0.114","515","","j","","","","","","","","","","","","","key","j","6.059670682730953","853.3333333333334","529.3333333333334","j","true","img/H_ambi40.png","自我","same",""
"","","","","","html-keyboard-response","371","682112","0.0-10.0-0.0-0.0-0.1-1.114","null","<span style='color:GreenYellow; font-size: 70px;'>正确! </span>","null","","","","","","","","","","","","","","","","","","","","","","","feedback_test"
"","","","","","psychophysics","372","683604","0.0-10.0-0.0-0.0-0.1-0.115","489","","j","","","","","","","","","","","","","key","j","6.057375510204203","853.3333333333334","529.3333333333334","f","false","img/H_ambi40.png","生人","same",""
"","","","","","html-keyboard-response","373","684113","0.0-10.0-0.0-0.0-0.1-1.115","null","<span style='color:red; font-size: 70px;'>错误! </span>","null","","","","","","","","","","","","","","","","","","","","","","","feedback_test"
"","","","","","psychophysics","374","685772","0.0-10.0-0.0-0.0-0.1-0.116","658","","f","","","","","","","","","","","","","key","f","6.055322344322355","853.3333333333334","529.3333333333334","f","true","img/S_ambi40.png","朋友","same",""
"","","","","","html-keyboard-response","375","686287","0.0-10.0-0.0-0.0-0.1-1.116","null","<span style='color:GreenYellow; font-size: 70px;'>正确! </span>","null","","","","","","","","","","","","","","","","","","","","","","","feedback_test"
"","","","","","psychophysics","376","687790","0.0-10.0-0.0-0.0-0.1-0.117","501","","f","","","","","","","","","","","","","key","f","6.05926315789488","853.3333333333334","529.3333333333334","f","true","img/T_ambi40.png","をる","same",""
"","","","","","html-keyboard-response","377","688296","0.0-10.0-0.0-0.0-0.1-1.117","null","<span style='color:GreenYellow; font-size: 70px;'>正确! </span>","null","","","","","","","","","","","","","","","","","","","","","","","feedback_test"
"","","","","","psychophysics","378","689909","0.0-10.0-0.0-0.0-0.1-0.118","610","","j","","","","","","","","","","","","","key","j","6.05994339622645","853.3333333333334","529.3333333333334","j","true","img/C_ambi40.png","朋友","same",""
"","","","","","html-keyboard-response","379","690419","0.0-10.0-0.0-0.0-0.1-1.118","null","<span style='color:GreenYellow; font-size: 70px;'>正确! </span>","null","","","","","","","","","","","","","","","","","","","","","","","feedback_test"
"","","","","","psychophysics","380","692012","0.0-10.0-0.0-0.0-0.1-0.119","589","","j","","","","","","","","","","","","","key","j","6.055270992366522","853.3333333333334","529.3333333333334","j","true","img/C_ambi40.png","朋友","same",""
"","","","","","html-keyboard-response","381","692522","0.0-10.0-0.0-0.0-0.1-1.119","null","<span style='color:GreenYellow; font-size: 70px;'>正确! </span>","null","","","","","","","","","","","","","","","","","","","","","","","feedback_test"
"","","","","","psychophysics","382","694068","0.0-10.0-0.0-0.0-0.1-0.120","543","","f","","","","","","","","","","","","","key","f","6.058877952755741","853.3333333333334","529.3333333333334","f","true","img/T_ambi40.png","をる","same",""
"","","","","","html-keyboard-response","383","694583","0.0-10.0-0.0-0.0-0.1-1.120","null","<span style='color:GreenYellow; font-size: 70px;'>正确! </span>","null","","","","","","","","","","","","","","","","","","","","","","","feedback_test"
"","","","","","psychophysics","384","696108","0.0-10.0-0.0-0.0-0.1-0.121","523","","j","","","","","","","","","","","","","key","j","6.055525896414016","853.3333333333334","529.3333333333334","j","true","img/C_ambi40.png","朋友","same",""
"","","","","","html-keyboard-response","385","696624","0.0-10.0-0.0-0.0-0.1-1.121","null","<span style='color:GreenYellow; font-size: 70px;'>正确! </span>","null","","","","","","","","","","","","","","","","","","","","","","","feedback_test"
"","","","","","psychophysics","386","698317","0.0-10.0-0.0-0.0-0.1-0.122","689","","f","","","","","","","","","","","","","key","f","6.056830935251795","853.3333333333334","529.3333333333334","j","false","img/H_ambi40.png","自我","same",""
"","","","","","html-keyboard-response","387","698823","0.0-10.0-0.0-0.0-0.1-1.122","null","<span style='color:red; font-size: 70px;'>错误! </span>","null","","","","","","","","","","","","","","","","","","","","","","","feedback_test"
"","","","","","psychophysics","388","700589","0.0-10.0-0.0-0.0-0.1-0.123","762","","f","","","","","","","","","","","","","key","f","6.059979310344728","853.3333333333334","529.3333333333334","f","true","img/C_ambi40.png","自我","same",""
"","","","","","html-keyboard-response","389","701097","0.0-10.0-0.0-0.0-0.1-1.123","null","<span style='color:GreenYellow; font-size: 70px;'>正确! </span>","null","","","","","","","","","","","","","","","","","","","","","","","feedback_test"
"","","","","","psychophysics","390","702668","0.0-10.0-0.0-0.0-0.1-0.124","568","","j","","","","","","","","","","","","","key","j","6.058616279069851","853.3333333333334","529.3333333333334","j","true","img/S_ambi40.png","生人","same",""
"","","","","","html-keyboard-response","391","703172","0.0-10.0-0.0-0.0-0.1-1.124","null","<span style='color:GreenYellow; font-size: 70px;'>正确! </span>","null","","","","","","","","","","","","","","","","","","","","","","","feedback_test"
"","","","","","psychophysics","392","704748","0.0-10.0-0.0-0.0-0.1-0.125","576","","f","","","","","","","","","","","","","key","f","6.060011627907006","853.3333333333334","529.3333333333334","f","true","img/H_ambi40.png","朋友","same",""
"","","","","","html-keyboard-response","393","705252","0.0-10.0-0.0-0.0-0.1-1.125","null","<span style='color:GreenYellow; font-size: 70px;'>正确! </span>","null","","","","","","","","","","","","","","","","","","","","","","","feedback_test"
"","","","","","psychophysics","394","706724","0.0-10.0-0.0-0.0-0.1-0.126","467","","j","","","","","","","","","","","","","key","j","6.05945041322309","853.3333333333334","529.3333333333334","j","true","img/S_ambi40.png","生人","same",""
"","","","","","html-keyboard-response","395","707234","0.0-10.0-0.0-0.0-0.1-1.126","null","<span style='color:GreenYellow; font-size: 70px;'>正确! </span>","null","","","","","","","","","","","","","","","","","","","","","","","feedback_test"
"","","","","","psychophysics","396","708845","0.0-10.0-0.0-0.0-0.1-0.127","607","","j","","","","","","","","","","","","","key","j","6.05989393939407","853.3333333333334","529.3333333333334","f","false","img/H_ambi40.png","朋友","same",""
"","","","","","html-keyboard-response","397","709357","0.0-10.0-0.0-0.0-0.1-1.127","null","<span style='color:red; font-size: 70px;'>错误! </span>","null","","","","","","","","","","","","","","","","","","","","","","","feedback_test"
"","","","","","psychophysics","398","710861","0.0-10.0-0.0-0.0-0.1-0.128","502","","f","","","","","","","","","","","","","key","f","6.059927125505704","853.3333333333334","529.3333333333334","f","true","img/T_ambi40.png","をる","same",""
"","","","","","html-keyboard-response","399","711369","0.0-10.0-0.0-0.0-0.1-1.128","null","<span style='color:GreenYellow; font-size: 70px;'>正确! </span>","null","","","","","","","","","","","","","","","","","","","","","","","feedback_test"
"","","","","","psychophysics","400","713052","0.0-10.0-0.0-0.0-0.1-0.129","680","","f","","","","","","","","","","","","","key","f","6.056393501804789","853.3333333333334","529.3333333333334","f","true","img/C_ambi40.png","生人","same",""
"","","","","","html-keyboard-response","401","713554","0.0-10.0-0.0-0.0-0.1-1.129","null","<span style='color:GreenYellow; font-size: 70px;'>正确! </span>","null","","","","","","","","","","","","","","","","","","","","","","","feedback_test"
"","","","","","psychophysics","402","715068","0.0-10.0-0.0-0.0-0.1-0.130","509","","j","","","","","","","","","","","","","key","j","6.059975806451891","853.3333333333334","529.3333333333334","j","true","img/H_ambi40.png","自我","same",""
"","","","","","html-keyboard-response","403","715572","0.0-10.0-0.0-0.0-0.1-1.130","null","<span style='color:GreenYellow; font-size: 70px;'>正确! </span>","null","","","","","","","","","","","","","","","","","","","","","","","feedback_test"
"","","","","","psychophysics","404","717124","0.0-10.0-0.0-0.0-0.1-0.131","547","","f","","","","","","","","","","","","","key","f","6.059690196078508","853.3333333333334","529.3333333333334","f","true","img/H_ambi40.png","生人","same",""
"","","","","","html-keyboard-response","405","717634","0.0-10.0-0.0-0.0-0.1-1.131","null","<span style='color:GreenYellow; font-size: 70px;'>正确! </span>","null","","","","","","","","","","","","","","","","","","","","","","","feedback_test"
"","","","","","psychophysics","406","719269","0.0-10.0-0.0-0.0-0.1-0.132","632","","f","","","","","","","","","","","","","key","f","6.059884758364084","853.3333333333334","529.3333333333334","f","true","img/S_ambi40.png","朋友","same",""
"","","","","","html-keyboard-response","407","719773","0.0-10.0-0.0-0.0-0.1-1.132","null","<span style='color:GreenYellow; font-size: 70px;'>正确! </span>","null","","","","","","","","","","","","","","","","","","","","","","","feedback_test"
"","","","","","psychophysics","408","721452","0.0-10.0-0.0-0.0-0.1-0.133","675","","j","","","","","","","","","","","","","key","j","6.057485507246515","853.3333333333334","529.3333333333334","j","true","img/S_ambi40.png","生人","same",""
"","","","","","html-keyboard-response","409","721957","0.0-10.0-0.0-0.0-0.1-1.133","null","<span style='color:GreenYellow; font-size: 70px;'>正确! </span>","null","","","","","","","","","","","","","","","","","","","","","","","feedback_test"
"","","","","","psychophysics","410","723645","0.0-10.0-0.0-0.0-0.1-0.134","687","","j","","","","","","","","","","","","","key","j","6.078436823104532","853.3333333333334","529.3333333333334","j","true","img/C_ambi40.png","朋友","same",""
"","","","","","html-keyboard-response","411","724155","0.0-10.0-0.0-0.0-0.1-1.134","null","<span style='color:GreenYellow; font-size: 70px;'>正确! </span>","null","","","","","","","","","","","","","","","","","","","","","","","feedback_test"
"","","","","","psychophysics","412","725700","0.0-10.0-0.0-0.0-0.1-0.135","541","","f","","","","","","","","","","","","","key","f","6.0590157480314595","853.3333333333334","529.3333333333334","f","true","img/S_ambi40.png","自我","same",""
"","","","","","html-keyboard-response","413","726206","0.0-10.0-0.0-0.0-0.1-1.135","null","<span style='color:GreenYellow; font-size: 70px;'>正确! </span>","null","","","","","","","","","","","","","","","","","","","","","","","feedback_test"
"","","","","","psychophysics","414","727596","0.0-10.0-0.0-0.0-0.1-0.136","384","","j","","","","","","","","","","","","","key","j","6.059890350877316","853.3333333333334","529.3333333333334","j","true","img/H_ambi40.png","自我","same",""
"","","","","","html-keyboard-response","415","728108","0.0-10.0-0.0-0.0-0.1-1.136","null","<span style='color:GreenYellow; font-size: 70px;'>正确! </span>","null","","","","","","","","","","","","","","","","","","","","","","","feedback_test"
"","","","","","psychophysics","416","729589","0.0-10.0-0.0-0.0-0.1-0.137","480","","f","","","","","","","","","","","","","key","f","6.049541322314296","853.3333333333334","529.3333333333334","f","true","img/T_ambi40.png","をる","same",""
"","","","","","html-keyboard-response","417","730103","0.0-10.0-0.0-0.0-0.1-1.137","null","<span style='color:GreenYellow; font-size: 70px;'>正确! </span>","null","","","","","","","","","","","","","","","","","","","","","","","feedback_test"
"","","","","","psychophysics","418","731757","0.0-10.0-0.0-0.0-0.1-0.138","654","","f","","","","","","","","","","","","","key","f","6.059959409593921","853.3333333333334","529.3333333333334","f","true","img/C_ambi40.png","自我","same",""
"","","","","","html-keyboard-response","419","732259","0.0-10.0-0.0-0.0-0.1-1.138","null","<span style='color:GreenYellow; font-size: 70px;'>正确! </span>","null","","","","","","","","","","","","","","","","","","","","","","","feedback_test"
