"success","timeout","failed_images","failed_audio","failed_video","trial_type","trial_index","time_elapsed","internal_node_id","rt","stimulus","response","value","item_width_mm","item_height_mm","item_width_px","px2mm","view_dist_mm","item_width_deg","px2deg","scale_factor","win_width_deg","win_height_deg","view_history","response_type","key_press","avg_frame_time","center_x","center_y","correct_response","correct","Image","word","condition","screen_id"
"true","false","[]","[]","[]","preload","0","8","0.0-0.0","","","","","","","","","","","","","","","","","","","","","","","","","",""
"","","","","","html-keyboard-response","1","6323","0.0-1.0","6314","
     <p>您好，欢迎参加本次实验。</p>
     <p>为充分保障您的权利，请确保您已经知晓并同意《参与实验同意书》以及《数据公开知情同意书》。</p>
     <p>如果您未见过上述内容，请咨询实验员。</p>
     <p>如果您选择继续实验，则表示您已经清楚两份知情同意书的内容并同意。</p>
     <p> <div style = ""color: green""><按任意键至下页></div> </p>
     ","arrowright","","","","","","","","","","","","","","","","","","","","","","",""
"","","","","","html-keyboard-response","2","7112","0.0-2.0","789","
     <p>本实验首先需要您填写一些基本个人信息。</p>
     <p> <div style = ""color: green""><按任意键至下页></div></p>
     ","arrowright","","","","","","","","","","","","","","","","","","","","","","",""
"","","","","","call-function","3","7112","0.0-3.0-0.0","","","","","","","","","","","","","","","","","","","","","","","","","",""
"","","","","","survey-html-form","4","11503","0.0-3.0-1.0","4388","","{""Q0"":""011""}","","","","","","","","","","","","","","","","","","","","","","",""
"","","","","","html-button-response","5","12959","0.0-3.0-2.0","1455","<p style = 'color : white'>您的性别</p>","1","","","","","","","","","","","","","","","","","","","","","","",""
"","","","","","survey-html-form","6","17253","0.0-3.0-3.0","4293","","{""Q0"":""2004""}","","","","","","","","","","","","","","","","","","","","","","",""
"","","","","","survey-html-form","7","22903","0.0-3.0-4.0","5650","","{""Q0"":""""}","","","","","","","","","","","","","","","","","","","","","","",""
"","","","","","virtual-chinrest","8","109432","0.0-4.0","86528","","","","85.6","53.98","710.5913922259584","8.301301311050917","343.33","14.211827844519169","50","1.5057880122192002","76.8","43.2","","","","","","","","","","","",""
"true","","","","","fullscreen","9","111620","0.0-5.0","","","","","","","","","","","","","","","","","","","","","","","","","",""
"","","","","","instructions","10","163037","0.0-6.0","51417","","","","","","","","","","","","","","[{""page_index"":0,""viewing_time"":1691},{""page_index"":1,""viewing_time"":42880},{""page_index"":2,""viewing_time"":2316},{""page_index"":3,""viewing_time"":4531}]","","","","","","","","","","",""
"","","","","","psychophysics","11","165560","0.0-7.0-0.0","null","","null","","","","","","","","","","","","","key","null","16.66544966442954","1920","1076","f","false","img/C_ambi40.png","朋友","prac",""
"","","","","","html-keyboard-response","12","166071","0.0-7.0-1.0","null","<span class='add_' style='color:yellow; font-size: 70px;'> 太慢! </span>","null","","","","","","","","","","","","","","","","","","","","","","","feedback_test"
"","","","","","psychophysics","13","167817","0.0-7.0-0.1","741","","f","","","","","","","","","","","","","key","f","16.66613461538453","1920","1076","f","true","img/S_ambi40.png","生人","prac",""
"","","","","","html-keyboard-response","14","168329","0.0-7.0-1.1","null","<span style='color:GreenYellow; font-size: 70px;'>正确! </span>","null","","","","","","","","","","","","","","","","","","","","","","","feedback_test"
"","","","","","psychophysics","15","169776","0.0-7.0-0.2","436","","f","","","","","","","","","","","","","key","f","16.667105882352917","1920","1076","j","false","img/T_ambi40.png","をる","prac",""
"","","","","","html-keyboard-response","16","170291","0.0-7.0-1.2","null","<span style='color:red; font-size: 70px;'>错误! </span>","null","","","","","","","","","","","","","","","","","","","","","","","feedback_test"
"","","","","","psychophysics","17","171709","0.0-7.0-0.3","416","","j","","","","","","","","","","","","","key","j","16.509879518072374","1920","1076","j","true","img/C_ambi40.png","生人","prac",""
"","","","","","html-keyboard-response","18","172218","0.0-7.0-1.3","null","<span style='color:GreenYellow; font-size: 70px;'>正确! </span>","null","","","","","","","","","","","","","","","","","","","","","","","feedback_test"
"","","","","","psychophysics","19","173652","0.0-7.0-0.4","409","","f","","","","","","","","","","","","","key","f","16.665929411764612","1920","1076","f","true","img/H_ambi40.png","朋友","prac",""
"","","","","","html-keyboard-response","20","174159","0.0-7.0-1.4","null","<span style='color:GreenYellow; font-size: 70px;'>正确! </span>","null","","","","","","","","","","","","","","","","","","","","","","","feedback_test"
"","","","","","psychophysics","21","175560","0.0-7.0-0.5","400","","f","","","","","","","","","","","","","key","f","16.666903614457866","1920","1076","j","false","img/S_ambi40.png","朋友","prac",""
"","","","","","html-keyboard-response","22","176071","0.0-7.0-1.5","null","<span style='color:red; font-size: 70px;'>错误! </span>","null","","","","","","","","","","","","","","","","","","","","","","","feedback_test"
"","","","","","psychophysics","23","177290","0.0-7.0-0.6","214","","j","","","","","","","","","","","","","key","j","16.6671111111112","1920","1076","j","true","img/S_ambi40.png","朋友","prac",""
"","","","","","html-keyboard-response","24","177796","0.0-7.0-1.6","null","<span style='color:GreenYellow; font-size: 70px;'>正确! </span>","null","","","","","","","","","","","","","","","","","","","","","","","feedback_test"
"","","","","","psychophysics","25","179187","0.0-7.0-0.7","364","","j","","","","","","","","","","","","","key","j","16.666756097560963","1920","1076","j","true","img/H_ambi40.png","自我","prac",""
"","","","","","html-keyboard-response","26","179694","0.0-7.0-1.7","null","<span style='color:GreenYellow; font-size: 70px;'>正确! </span>","null","","","","","","","","","","","","","","","","","","","","","","","feedback_test"
"","","","","","psychophysics","27","181125","0.0-7.0-0.8","418","","j","","","","","","","","","","","","","key","j","16.66619047619038","1920","1076","j","true","img/H_ambi40.png","自我","prac",""
"","","","","","html-keyboard-response","28","181627","0.0-7.0-1.8","null","<span style='color:GreenYellow; font-size: 70px;'>正确! </span>","null","","","","","","","","","","","","","","","","","","","","","","","feedback_test"
"","","","","","psychophysics","29","183001","0.0-7.0-0.9","360","","f","","","","","","","","","","","","","key","f","16.66643209876543","1920","1076","j","false","img/T_ambi40.png","をる","prac",""
"","","","","","html-keyboard-response","30","183516","0.0-7.0-1.9","null","<span style='color:red; font-size: 70px;'>错误! </span>","null","","","","","","","","","","","","","","","","","","","","","","","feedback_test"
"","","","","","psychophysics","31","184782","0.0-7.0-0.10","255","","j","","","","","","","","","","","","","key","j","16.66583999999993","1920","1076","j","true","img/T_ambi40.png","をる","prac",""
"","","","","","html-keyboard-response","32","185291","0.0-7.0-1.10","null","<span style='color:GreenYellow; font-size: 70px;'>正确! </span>","null","","","","","","","","","","","","","","","","","","","","","","","feedback_test"
"","","","","","psychophysics","33","186613","0.0-7.0-0.11","320","","j","","","","","","","","","","","","","key","j","16.66638461538465","1920","1076","j","true","img/T_ambi40.png","をる","prac",""
"","","","","","html-keyboard-response","34","187131","0.0-7.0-1.11","null","<span style='color:GreenYellow; font-size: 70px;'>正确! </span>","null","","","","","","","","","","","","","","","","","","","","","","","feedback_test"
"","","","","","psychophysics","35","188439","0.0-7.0-0.12","297","","j","","","","","","","","","","","","","key","j","16.666181818181844","1920","1076","f","false","img/H_ambi40.png","生人","prac",""
"","","","","","html-keyboard-response","36","188944","0.0-7.0-1.12","null","<span style='color:red; font-size: 70px;'>错误! </span>","null","","","","","","","","","","","","","","","","","","","","","","","feedback_test"
"","","","","","psychophysics","37","190438","0.0-7.0-0.13","483","","j","","","","","","","","","","","","","key","j","16.666795454545618","1920","1076","f","false","img/S_ambi40.png","自我","prac",""
"","","","","","html-keyboard-response","38","190952","0.0-7.0-1.13","null","<span style='color:red; font-size: 70px;'>错误! </span>","null","","","","","","","","","","","","","","","","","","","","","","","feedback_test"
"","","","","","psychophysics","39","192452","0.0-7.0-0.14","494","","f","","","","","","","","","","","","","key","f","16.665932584269786","1920","1076","f","true","img/C_ambi40.png","自我","prac",""
"","","","","","html-keyboard-response","40","192963","0.0-7.0-1.14","null","<span style='color:GreenYellow; font-size: 70px;'>正确! </span>","null","","","","","","","","","","","","","","","","","","","","","","","feedback_test"
"","","","","","psychophysics","41","194425","0.0-7.0-0.15","449","","j","","","","","","","","","","","","","key","j","16.666988372093076","1920","1076","j","true","img/C_ambi40.png","生人","prac",""
"","","","","","html-keyboard-response","42","194926","0.0-7.0-1.15","null","<span style='color:GreenYellow; font-size: 70px;'>正确! </span>","null","","","","","","","","","","","","","","","","","","","","","","","feedback_test"
"","","","","","psychophysics","43","196356","0.0-7.0-0.16","398","","f","","","","","","","","","","","","","key","f","16.6661547619047","1920","1076","j","false","img/C_ambi40.png","生人","prac",""
"","","","","","html-keyboard-response","44","196857","0.0-7.0-1.16","null","<span style='color:red; font-size: 70px;'>错误! </span>","null","","","","","","","","","","","","","","","","","","","","","","","feedback_test"
"","","","","","psychophysics","45","198221","0.0-7.0-0.17","362","","j","","","","","","","","","","","","","key","j","16.4989749999997","1920","1076","f","false","img/C_ambi40.png","朋友","prac",""
"","","","","","html-keyboard-response","46","198736","0.0-7.0-1.17","null","<span style='color:red; font-size: 70px;'>错误! </span>","null","","","","","","","","","","","","","","","","","","","","","","","feedback_test"
"","","","","","psychophysics","47","200105","0.0-7.0-0.18","362","","f","","","","","","","","","","","","","key","f","16.665679012345837","1920","1076","f","true","img/H_ambi40.png","朋友","prac",""
"","","","","","html-keyboard-response","48","200609","0.0-7.0-1.18","null","<span style='color:GreenYellow; font-size: 70px;'>正确! </span>","null","","","","","","","","","","","","","","","","","","","","","","","feedback_test"
"","","","","","psychophysics","49","202007","0.0-7.0-0.19","385","","j","","","","","","","","","","","","","key","j","16.667121951219485","1920","1076","f","false","img/C_ambi40.png","自我","prac",""
"","","","","","html-keyboard-response","50","202511","0.0-7.0-1.19","null","<span style='color:red; font-size: 70px;'>错误! </span>","null","","","","","","","","","","","","","","","","","","","","","","","feedback_test"
"","","","","","psychophysics","51","203805","0.0-7.0-0.20","283","","f","","","","","","","","","","","","","key","f","16.667597402597387","1920","1076","j","false","img/T_ambi40.png","をる","prac",""
"","","","","","html-keyboard-response","52","204318","0.0-7.0-1.20","null","<span style='color:red; font-size: 70px;'>错误! </span>","null","","","","","","","","","","","","","","","","","","","","","","","feedback_test"
"","","","","","psychophysics","53","205630","0.0-7.0-0.21","304","","f","","","","","","","","","","","","","key","f","16.666833333333415","1920","1076","j","false","img/S_ambi40.png","朋友","prac",""
"","","","","","html-keyboard-response","54","206139","0.0-7.0-1.21","null","<span style='color:red; font-size: 70px;'>错误! </span>","null","","","","","","","","","","","","","","","","","","","","","","","feedback_test"
"","","","","","psychophysics","55","207404","0.0-7.0-0.22","262","","j","","","","","","","","","","","","","key","j","16.666920000000005","1920","1076","f","false","img/H_ambi40.png","生人","prac",""
"","","","","","html-keyboard-response","56","207912","0.0-7.0-1.22","null","<span style='color:red; font-size: 70px;'>错误! </span>","null","","","","","","","","","","","","","","","","","","","","","","","feedback_test"
"","","","","","psychophysics","57","209897","0.0-7.0-0.23","975","","f","","","","","","","","","","","","","key","f","16.66686440677968","1920","1076","j","false","img/T_ambi40.png","をる","prac",""
"","","","","","html-keyboard-response","58","210402","0.0-7.0-1.23","null","<span style='color:red; font-size: 70px;'>错误! </span>","null","","","","","","","","","","","","","","","","","","","","","","","feedback_test"
"","","","","","psychophysics","59","211661","0.0-7.0-0.24","253","","j","","","","","","","","","","","","","key","j","16.667373333333526","1920","1076","j","true","img/S_ambi40.png","朋友","prac",""
"","","","","","html-keyboard-response","60","212178","0.0-7.0-1.24","null","<span style='color:GreenYellow; font-size: 70px;'>正确! </span>","null","","","","","","","","","","","","","","","","","","","","","","","feedback_test"
"","","","","","psychophysics","61","213505","0.0-7.0-0.25","303","","j","","","","","","","","","","","","","key","j","16.666807692307675","1920","1076","j","true","img/H_ambi40.png","自我","prac",""
"","","","","","html-keyboard-response","62","214008","0.0-7.0-1.25","null","<span style='color:GreenYellow; font-size: 70px;'>正确! </span>","null","","","","","","","","","","","","","","","","","","","","","","","feedback_test"
"","","","","","psychophysics","63","215272","0.0-7.0-0.26","263","","j","","","","","","","","","","","","","key","j","16.66776000000032","1920","1076","j","true","img/H_ambi40.png","自我","prac",""
"","","","","","html-keyboard-response","64","215783","0.0-7.0-1.26","null","<span style='color:GreenYellow; font-size: 70px;'>正确! </span>","null","","","","","","","","","","","","","","","","","","","","","","","feedback_test"
"","","","","","psychophysics","65","217181","0.0-7.0-0.27","389","","j","","","","","","","","","","","","","key","j","16.666277108433817","1920","1076","j","true","img/C_ambi40.png","生人","prac",""
"","","","","","html-keyboard-response","66","217687","0.0-7.0-1.27","null","<span style='color:GreenYellow; font-size: 70px;'>正确! </span>","null","","","","","","","","","","","","","","","","","","","","","","","feedback_test"
"","","","","","psychophysics","67","219090","0.0-7.0-0.28","398","","j","","","","","","","","","","","","","key","j","16.667530120481914","1920","1076","f","false","img/S_ambi40.png","自我","prac",""
"","","","","","html-keyboard-response","68","219600","0.0-7.0-1.28","null","<span style='color:red; font-size: 70px;'>错误! </span>","null","","","","","","","","","","","","","","","","","","","","","","","feedback_test"
"","","","","","psychophysics","69","220911","0.0-7.0-0.29","302","","f","","","","","","","","","","","","","key","f","16.666012820513107","1920","1076","f","true","img/S_ambi40.png","生人","prac",""
"","","","","","html-keyboard-response","70","221421","0.0-7.0-1.29","null","<span style='color:GreenYellow; font-size: 70px;'>正确! </span>","null","","","","","","","","","","","","","","","","","","","","","","","feedback_test"
"","","","","","psychophysics","71","223153","0.0-7.0-0.30","728","","j","","","","","","","","","","","","","key","j","16.666284313725306","1920","1076","j","true","img/T_ambi40.png","をる","prac",""
"","","","","","html-keyboard-response","72","223664","0.0-7.0-1.30","null","<span style='color:GreenYellow; font-size: 70px;'>正确! </span>","null","","","","","","","","","","","","","","","","","","","","","","","feedback_test"
"","","","","","psychophysics","73","225092","0.0-7.0-0.31","400","","j","","","","","","","","","","","","","key","j","16.666023809523764","1920","1076","j","true","img/T_ambi40.png","をる","prac",""
"","","","","","html-keyboard-response","74","225601","0.0-7.0-1.31","null","<span style='color:GreenYellow; font-size: 70px;'>正确! </span>","null","","","","","","","","","","","","","","","","","","","","","","","feedback_test"
"","","","","","psychophysics","75","226934","0.0-8.0-0.0-0.0","326","","j","","","","","","","","","","","","","key","j","16.667012658227705","1920","1076","f","false","img/C_ambi40.png","自我","prac",""
"","","","","","html-keyboard-response","76","227439","0.0-8.0-0.0-1.0","null","<span style='color:red; font-size: 70px;'>错误! </span>","null","","","","","","","","","","","","","","","","","","","","","","","feedback_test"
"","","","","","psychophysics","77","228835","0.0-8.0-0.0-0.1","393","","f","","","","","","","","","","","","","key","f","16.667216867470064","1920","1076","f","true","img/H_ambi40.png","生人","prac",""
"","","","","","html-keyboard-response","78","229343","0.0-8.0-0.0-1.1","null","<span style='color:GreenYellow; font-size: 70px;'>正确! </span>","null","","","","","","","","","","","","","","","","","","","","","","","feedback_test"
"","","","","","psychophysics","79","230643","0.0-8.0-0.0-0.2","282","","j","","","","","","","","","","","","","key","j","16.665896103896166","1920","1076","j","true","img/C_ambi40.png","生人","prac",""
"","","","","","html-keyboard-response","80","231155","0.0-8.0-0.0-1.2","null","<span style='color:GreenYellow; font-size: 70px;'>正确! </span>","null","","","","","","","","","","","","","","","","","","","","","","","feedback_test"
"","","","","","psychophysics","81","232545","0.0-8.0-0.0-0.3","387","","f","","","","","","","","","","","","","key","f","16.675809523809654","1920","1076","j","false","img/T_ambi40.png","をる","prac",""
"","","","","","html-keyboard-response","82","233053","0.0-8.0-0.0-1.3","null","<span style='color:red; font-size: 70px;'>错误! </span>","null","","","","","","","","","","","","","","","","","","","","","","","feedback_test"
"","","","","","psychophysics","83","234450","0.0-8.0-0.0-0.4","392","","j","","","","","","","","","","","","","key","j","16.666433734939567","1920","1076","f","false","img/S_ambi40.png","生人","prac",""
"","","","","","html-keyboard-response","84","234954","0.0-8.0-0.0-1.4","null","<span style='color:red; font-size: 70px;'>错误! </span>","null","","","","","","","","","","","","","","","","","","","","","","","feedback_test"
"","","","","","psychophysics","85","236357","0.0-8.0-0.0-0.5","382","","f","","","","","","","","","","","","","key","f","16.667060240963615","1920","1076","j","false","img/H_ambi40.png","自我","prac",""
"","","","","","html-keyboard-response","86","236868","0.0-8.0-0.0-1.5","null","<span style='color:red; font-size: 70px;'>错误! </span>","null","","","","","","","","","","","","","","","","","","","","","","","feedback_test"
"","","","","","psychophysics","87","238320","0.0-8.0-0.0-0.6","446","","j","","","","","","","","","","","","","key","j","16.666103448275873","1920","1076","j","true","img/S_ambi40.png","朋友","prac",""
"","","","","","html-keyboard-response","88","238827","0.0-8.0-0.0-1.6","null","<span style='color:GreenYellow; font-size: 70px;'>正确! </span>","null","","","","","","","","","","","","","","","","","","","","","","","feedback_test"
"","","","","","psychophysics","89","240134","0.0-8.0-0.0-0.7","293","","j","","","","","","","","","","","","","key","j","16.665571428571567","1920","1076","j","true","img/T_ambi40.png","をる","prac",""
"","","","","","html-keyboard-response","90","240639","0.0-8.0-0.0-1.7","null","<span style='color:GreenYellow; font-size: 70px;'>正确! </span>","null","","","","","","","","","","","","","","","","","","","","","","","feedback_test"
"","","","","","psychophysics","91","242033","0.0-8.0-0.0-0.8","358","","j","","","","","","","","","","","","","key","j","16.666361445783362","1920","1076","j","true","img/C_ambi40.png","生人","prac",""
"","","","","","html-keyboard-response","92","242538","0.0-8.0-0.0-1.8","null","<span style='color:GreenYellow; font-size: 70px;'>正确! </span>","null","","","","","","","","","","","","","","","","","","","","","","","feedback_test"
"","","","","","psychophysics","93","243899","0.0-8.0-0.0-0.9","358","","f","","","","","","","","","","","","","key","f","16.89527160493818","1920","1076","j","false","img/T_ambi40.png","をる","prac",""
"","","","","","html-keyboard-response","94","244407","0.0-8.0-0.0-1.9","null","<span style='color:red; font-size: 70px;'>错误! </span>","null","","","","","","","","","","","","","","","","","","","","","","","feedback_test"
"","","","","","psychophysics","95","245758","0.0-8.0-0.0-0.10","349","","f","","","","","","","","","","","","","key","f","16.666000000000018","1920","1076","f","true","img/C_ambi40.png","朋友","prac",""
"","","","","","html-keyboard-response","96","246265","0.0-8.0-0.0-1.10","null","<span style='color:GreenYellow; font-size: 70px;'>正确! </span>","null","","","","","","","","","","","","","","","","","","","","","","","feedback_test"
"","","","","","psychophysics","97","247757","0.0-8.0-0.0-0.11","467","","f","","","","","","","","","","","","","key","f","16.666363636363464","1920","1076","j","false","img/T_ambi40.png","をる","prac",""
"","","","","","html-keyboard-response","98","248258","0.0-8.0-0.0-1.11","null","<span style='color:red; font-size: 70px;'>错误! </span>","null","","","","","","","","","","","","","","","","","","","","","","","feedback_test"
"","","","","","psychophysics","99","249647","0.0-8.0-0.0-0.12","389","","f","","","","","","","","","","","","","key","f","16.666646341463515","1920","1076","f","true","img/H_ambi40.png","朋友","prac",""
"","","","","","html-keyboard-response","100","250157","0.0-8.0-0.0-1.12","null","<span style='color:GreenYellow; font-size: 70px;'>正确! </span>","null","","","","","","","","","","","","","","","","","","","","","","","feedback_test"
"","","","","","psychophysics","101","251606","0.0-8.0-0.0-0.13","448","","f","","","","","","","","","","","","","key","f","16.79554651162775","1920","1076","j","false","img/S_ambi40.png","朋友","prac",""
"","","","","","html-keyboard-response","102","252119","0.0-8.0-0.0-1.13","null","<span style='color:red; font-size: 70px;'>错误! </span>","null","","","","","","","","","","","","","","","","","","","","","","","feedback_test"
"","","","","","psychophysics","103","253456","0.0-8.0-0.0-0.14","326","","j","","","","","","","","","","","","","key","j","16.66458227848111","1920","1076","j","true","img/H_ambi40.png","自我","prac",""
"","","","","","html-keyboard-response","104","253957","0.0-8.0-0.0-1.14","null","<span style='color:GreenYellow; font-size: 70px;'>正确! </span>","null","","","","","","","","","","","","","","","","","","","","","","","feedback_test"
"","","","","","psychophysics","105","255364","0.0-8.0-0.0-0.15","393","","j","","","","","","","","","","","","","key","j","16.667542168674554","1920","1076","f","false","img/S_ambi40.png","自我","prac",""
"","","","","","html-keyboard-response","106","255875","0.0-8.0-0.0-1.15","null","<span style='color:red; font-size: 70px;'>错误! </span>","null","","","","","","","","","","","","","","","","","","","","","","","feedback_test"
"","","","","","psychophysics","107","257304","0.0-8.0-0.0-0.16","416","","f","","","","","","","","","","","","","key","f","16.7433647058822","1920","1076","f","true","img/H_ambi40.png","朋友","prac",""
"","","","","","html-keyboard-response","108","257820","0.0-8.0-0.0-1.16","null","<span style='color:GreenYellow; font-size: 70px;'>正确! </span>","null","","","","","","","","","","","","","","","","","","","","","","","feedback_test"
"","","","","","psychophysics","109","259339","0.0-8.0-0.0-0.17","505","","f","","","","","","","","","","","","","key","f","16.667577777778043","1920","1076","f","true","img/C_ambi40.png","朋友","prac",""
"","","","","","html-keyboard-response","110","259846","0.0-8.0-0.0-1.17","null","<span style='color:GreenYellow; font-size: 70px;'>正确! </span>","null","","","","","","","","","","","","","","","","","","","","","","","feedback_test"
"","","","","","psychophysics","111","261232","0.0-8.0-0.0-0.18","375","","f","","","","","","","","","","","","","key","f","16.66603658536574","1920","1076","j","false","img/T_ambi40.png","をる","prac",""
"","","","","","html-keyboard-response","112","261746","0.0-8.0-0.0-1.18","null","<span style='color:red; font-size: 70px;'>错误! </span>","null","","","","","","","","","","","","","","","","","","","","","","","feedback_test"
"","","","","","psychophysics","113","263019","0.0-8.0-0.0-0.19","262","","j","","","","","","","","","","","","","key","j","16.666800000000123","1920","1076","j","true","img/S_ambi40.png","朋友","prac",""
"","","","","","html-keyboard-response","114","263534","0.0-8.0-0.0-1.19","null","<span style='color:GreenYellow; font-size: 70px;'>正确! </span>","null","","","","","","","","","","","","","","","","","","","","","","","feedback_test"
"","","","","","psychophysics","115","264836","0.0-8.0-0.0-0.20","270","","j","","","","","","","","","","","","","key","j","16.664298701298865","1920","1076","j","true","img/T_ambi40.png","をる","prac",""
"","","","","","html-keyboard-response","116","265346","0.0-8.0-0.0-1.20","null","<span style='color:GreenYellow; font-size: 70px;'>正确! </span>","null","","","","","","","","","","","","","","","","","","","","","","","feedback_test"
"","","","","","psychophysics","117","266810","0.0-8.0-0.0-0.21","453","","f","","","","","","","","","","","","","key","f","16.66627586206914","1920","1076","j","false","img/T_ambi40.png","をる","prac",""
"","","","","","html-keyboard-response","118","267317","0.0-8.0-0.0-1.21","null","<span style='color:red; font-size: 70px;'>错误! </span>","null","","","","","","","","","","","","","","","","","","","","","","","feedback_test"
"","","","","","psychophysics","119","268688","0.0-8.0-0.0-0.22","365","","j","","","","","","","","","","","","","key","j","16.666148148147954","1920","1076","j","true","img/C_ambi40.png","生人","prac",""
"","","","","","html-keyboard-response","120","269192","0.0-8.0-0.0-1.22","null","<span style='color:GreenYellow; font-size: 70px;'>正确! </span>","null","","","","","","","","","","","","","","","","","","","","","","","feedback_test"
"","","","","","psychophysics","121","270536","0.0-8.0-0.0-0.23","329","","j","","","","","","","","","","","","","key","j","16.665987341772304","1920","1076","f","false","img/H_ambi40.png","生人","prac",""
"","","","","","html-keyboard-response","122","271048","0.0-8.0-0.0-1.23","null","<span style='color:red; font-size: 70px;'>错误! </span>","null","","","","","","","","","","","","","","","","","","","","","","","feedback_test"
"","","","","","psychophysics","123","272527","0.0-8.0-0.0-0.24","471","","f","","","","","","","","","","","","","key","f","16.667272727272408","1920","1076","j","false","img/S_ambi40.png","朋友","prac",""
"","","","","","html-keyboard-response","124","273041","0.0-8.0-0.0-1.24","null","<span style='color:red; font-size: 70px;'>错误! </span>","null","","","","","","","","","","","","","","","","","","","","","","","feedback_test"
"","","","","","psychophysics","125","274416","0.0-8.0-0.0-0.25","363","","j","","","","","","","","","","","","","key","j","16.666555555556027","1920","1076","f","false","img/C_ambi40.png","自我","prac",""
"","","","","","html-keyboard-response","126","274924","0.0-8.0-0.0-1.25","null","<span style='color:red; font-size: 70px;'>错误! </span>","null","","","","","","","","","","","","","","","","","","","","","","","feedback_test"
"","","","","","psychophysics","127","276366","0.0-8.0-0.0-0.26","428","","f","","","","","","","","","","","","","key","f","16.666329411764437","1920","1076","f","true","img/S_ambi40.png","生人","prac",""
"","","","","","html-keyboard-response","128","276873","0.0-8.0-0.0-1.26","null","<span style='color:GreenYellow; font-size: 70px;'>正确! </span>","null","","","","","","","","","","","","","","","","","","","","","","","feedback_test"
"","","","","","psychophysics","129","278309","0.0-8.0-0.0-0.27","423","","f","","","","","","","","","","","","","key","f","16.666070588235744","1920","1076","j","false","img/C_ambi40.png","生人","prac",""
"","","","","","html-keyboard-response","130","278824","0.0-8.0-0.0-1.27","null","<span style='color:red; font-size: 70px;'>错误! </span>","null","","","","","","","","","","","","","","","","","","","","","","","feedback_test"
"","","","","","psychophysics","131","280297","0.0-8.0-0.0-0.28","463","","j","","","","","","","","","","","","","key","j","16.666310344827387","1920","1076","j","true","img/H_ambi40.png","自我","prac",""
"","","","","","html-keyboard-response","132","280800","0.0-8.0-0.0-1.28","null","<span style='color:GreenYellow; font-size: 70px;'>正确! </span>","null","","","","","","","","","","","","","","","","","","","","","","","feedback_test"
"","","","","","psychophysics","133","282169","0.0-8.0-0.0-0.29","346","","f","","","","","","","","","","","","","key","f","16.66625925925931","1920","1076","f","true","img/S_ambi40.png","自我","prac",""
"","","","","","html-keyboard-response","134","282684","0.0-8.0-0.0-1.29","null","<span style='color:GreenYellow; font-size: 70px;'>正确! </span>","null","","","","","","","","","","","","","","","","","","","","","","","feedback_test"
"","","","","","psychophysics","135","284122","0.0-8.0-0.0-0.30","432","","f","","","","","","","","","","","","","key","f","16.659313953488383","1920","1076","j","false","img/T_ambi40.png","をる","prac",""
"","","","","","html-keyboard-response","136","284635","0.0-8.0-0.0-1.30","null","<span style='color:red; font-size: 70px;'>错误! </span>","null","","","","","","","","","","","","","","","","","","","","","","","feedback_test"
"","","","","","psychophysics","137","286095","0.0-8.0-0.0-0.31","455","","j","","","","","","","","","","","","","key","j","16.666172413793046","1920","1076","j","true","img/H_ambi40.png","自我","prac",""
"","","","","","html-keyboard-response","138","286610","0.0-8.0-0.0-1.31","null","<span style='color:GreenYellow; font-size: 70px;'>正确! </span>","null","","","","","","","","","","","","","","","","","","","","","","","feedback_test"
"","","","","","html-keyboard-response","139","295423","0.0-8.0-1.0-0.0","8811","<style>.context{color:white; font-size: 35px; line-height:40px}</style>                          <div><p class='context'>您正确回答了53% 的试次。</p ><p class='context'>您的平均反应时为373毫秒。</p >"," ","","","","","","","","","","","","","","","","","","","","","","",""
"","","","","","instructions","140","303919","0.0-8.0-1.0-1.0","8495","","","","","","","","","","","","","","[{""page_index"":0,""viewing_time"":4471},{""page_index"":1,""viewing_time"":1919},{""page_index"":2,""viewing_time"":2105}]","","","","","","","","","","",""
"","","","","","psychophysics","141","305658","0.0-8.1-0.1-0.32","719","","f","","","","","","","","","","","","","key","f","16.666990384615648","1920","1076","j","false","img/T_ambi40.png","をる","prac",""
"","","","","","html-keyboard-response","142","306161","0.0-8.1-0.1-1.32","null","<span style='color:red; font-size: 70px;'>错误! </span>","null","","","","","","","","","","","","","","","","","","","","","","","feedback_test"
"","","","","","psychophysics","143","307666","0.0-8.1-0.1-0.33","496","","j","","","","","","","","","","","","","key","j","16.66721348314588","1920","1076","f","false","img/S_ambi40.png","生人","prac",""
"","","","","","html-keyboard-response","144","308176","0.0-8.1-0.1-1.33","null","<span style='color:red; font-size: 70px;'>错误! </span>","null","","","","","","","","","","","","","","","","","","","","","","","feedback_test"
"","","","","","psychophysics","145","309600","0.0-8.1-0.1-0.34","409","","f","","","","","","","","","","","","","key","f","16.666404761904793","1920","1076","j","false","img/H_ambi40.png","自我","prac",""
"","","","","","html-keyboard-response","146","310107","0.0-8.1-0.1-1.34","null","<span style='color:red; font-size: 70px;'>错误! </span>","null","","","","","","","","","","","","","","","","","","","","","","","feedback_test"
"","","","","","psychophysics","147","311526","0.0-8.1-0.1-0.35","402","","j","","","","","","","","","","","","","key","j","16.666250000000304","1920","1076","j","true","img/T_ambi40.png","をる","prac",""
"","","","","","html-keyboard-response","148","312036","0.0-8.1-0.1-1.35","null","<span style='color:GreenYellow; font-size: 70px;'>正确! </span>","null","","","","","","","","","","","","","","","","","","","","","","","feedback_test"
"","","","","","psychophysics","149","313834","0.0-8.1-0.1-0.36","794","","f","","","","","","","","","","","","","key","f","16.665420560747773","1920","1076","f","true","img/C_ambi40.png","朋友","prac",""
"","","","","","html-keyboard-response","150","314347","0.0-8.1-0.1-1.36","null","<span style='color:GreenYellow; font-size: 70px;'>正确! </span>","null","","","","","","","","","","","","","","","","","","","","","","","feedback_test"
"","","","","","psychophysics","151","315796","0.0-8.1-0.1-0.37","440","","f","","","","","","","","","","","","","key","f","16.66688372093039","1920","1076","j","false","img/T_ambi40.png","をる","prac",""
"","","","","","html-keyboard-response","152","316297","0.0-8.1-0.1-1.37","null","<span style='color:red; font-size: 70px;'>错误! </span>","null","","","","","","","","","","","","","","","","","","","","","","","feedback_test"
"","","","","","psychophysics","153","317658","0.0-8.1-0.1-0.38","356","","j","","","","","","","","","","","","","key","j","16.666530864197547","1920","1076","f","false","img/C_ambi40.png","自我","prac",""
"","","","","","html-keyboard-response","154","318163","0.0-8.1-0.1-1.38","null","<span style='color:red; font-size: 70px;'>错误! </span>","null","","","","","","","","","","","","","","","","","","","","","","","feedback_test"
"","","","","","psychophysics","155","319609","0.0-8.1-0.1-0.39","435","","f","","","","","","","","","","","","","key","f","16.66522093023225","1920","1076","f","true","img/H_ambi40.png","朋友","prac",""
"","","","","","html-keyboard-response","156","320123","0.0-8.1-0.1-1.39","null","<span style='color:GreenYellow; font-size: 70px;'>正确! </span>","null","","","","","","","","","","","","","","","","","","","","","","","feedback_test"
"","","","","","psychophysics","157","322447","0.0-8.1-0.1-0.40","1323","","j","","","","","","","","","","","","","key","j","16.666079710145308","1920","1076","j","true","img/S_ambi40.png","朋友","prac",""
"","","","","","html-keyboard-response","158","322973","0.0-8.1-0.1-1.40","null","<span style='color:GreenYellow; font-size: 70px;'>正确! </span>","null","","","","","","","","","","","","","","","","","","","","","","","feedback_test"
"","","","","","psychophysics","159","324911","0.0-8.1-0.1-0.41","921","","f","","","","","","","","","","","","","key","f","16.66635652173908","1920","1076","f","true","img/S_ambi40.png","自我","prac",""
"","","","","","html-keyboard-response","160","325421","0.0-8.1-0.1-1.41","null","<span style='color:GreenYellow; font-size: 70px;'>正确! </span>","null","","","","","","","","","","","","","","","","","","","","","","","feedback_test"
"","","","","","psychophysics","161","327164","0.0-8.1-0.1-0.42","740","","j","","","","","","","","","","","","","key","j","16.547310679611293","1920","1076","f","false","img/H_ambi40.png","生人","prac",""
"","","","","","html-keyboard-response","162","327667","0.0-8.1-0.1-1.42","null","<span style='color:red; font-size: 70px;'>错误! </span>","null","","","","","","","","","","","","","","","","","","","","","","","feedback_test"
"","","","","","psychophysics","163","330173","0.0-8.1-0.1-0.43","null","","null","","","","","","","","","","","","","key","null","16.666778523489775","1920","1076","j","false","img/H_ambi40.png","自我","prac",""
"","","","","","html-keyboard-response","164","330688","0.0-8.1-0.1-1.43","null","<span class='add_' style='color:yellow; font-size: 70px;'> 太慢! </span>","null","","","","","","","","","","","","","","","","","","","","","","","feedback_test"
"","","","","","psychophysics","165","333190","0.0-8.1-0.1-0.44","null","","null","","","","","","","","","","","","","key","null","16.666348993288736","1920","1076","j","false","img/S_ambi40.png","朋友","prac",""
"","","","","","html-keyboard-response","166","333697","0.0-8.1-0.1-1.44","null","<span class='add_' style='color:yellow; font-size: 70px;'> 太慢! </span>","null","","","","","","","","","","","","","","","","","","","","","","","feedback_test"
"","","","","","psychophysics","167","335680","0.0-8.1-0.1-0.45","974","","j","","","","","","","","","","","","","key","j","16.666415254237187","1920","1076","j","true","img/C_ambi40.png","生人","prac",""
"","","","","","html-keyboard-response","168","336186","0.0-8.1-0.1-1.45","null","<span style='color:GreenYellow; font-size: 70px;'>正确! </span>","null","","","","","","","","","","","","","","","","","","","","","","","feedback_test"
"","","","","","psychophysics","169","337915","0.0-8.1-0.1-0.46","725","","j","","","","","","","","","","","","","key","j","16.667368932038848","1920","1076","j","true","img/C_ambi40.png","生人","prac",""
"","","","","","html-keyboard-response","170","338427","0.0-8.1-0.1-1.46","null","<span style='color:GreenYellow; font-size: 70px;'>正确! </span>","null","","","","","","","","","","","","","","","","","","","","","","","feedback_test"
"","","","","","psychophysics","171","340355","0.0-8.1-0.1-0.47","921","","f","","","","","","","","","","","","","key","f","16.666868421052513","1920","1076","j","false","img/T_ambi40.png","をる","prac",""
"","","","","","html-keyboard-response","172","340884","0.0-8.1-0.1-1.47","null","<span style='color:red; font-size: 70px;'>错误! </span>","null","","","","","","","","","","","","","","","","","","","","","","","feedback_test"
"","","","","","psychophysics","173","342709","0.0-8.1-0.1-0.48","808","","j","","","","","","","","","","","","","key","j","16.665660550458988","1920","1076","f","false","img/C_ambi40.png","自我","prac",""
"","","","","","html-keyboard-response","174","343211","0.0-8.1-0.1-1.48","null","<span style='color:red; font-size: 70px;'>错误! </span>","null","","","","","","","","","","","","","","","","","","","","","","","feedback_test"
"","","","","","psychophysics","175","344976","0.0-8.1-0.1-0.49","753","","f","","","","","","","","","","","","","key","f","16.666371428571264","1920","1076","j","false","img/S_ambi40.png","朋友","prac",""
"","","","","","html-keyboard-response","176","345488","0.0-8.1-0.1-1.49","null","<span style='color:red; font-size: 70px;'>错误! </span>","null","","","","","","","","","","","","","","","","","","","","","","","feedback_test"
"","","","","","psychophysics","177","347350","0.0-8.1-0.1-0.50","860","","j","","","","","","","","","","","","","key","j","16.537490909091005","1920","1076","j","true","img/H_ambi40.png","自我","prac",""
"","","","","","html-keyboard-response","178","347872","0.0-8.1-0.1-1.50","null","<span style='color:GreenYellow; font-size: 70px;'>正确! </span>","null","","","","","","","","","","","","","","","","","","","","","","","feedback_test"
"","","","","","psychophysics","179","349918","0.0-8.1-0.1-0.51","1028","","f","","","","","","","","","","","","","key","f","16.667099173553577","1920","1076","f","true","img/H_ambi40.png","生人","prac",""
"","","","","","html-keyboard-response","180","350433","0.0-8.1-0.1-1.51","null","<span style='color:GreenYellow; font-size: 70px;'>正确! </span>","null","","","","","","","","","","","","","","","","","","","","","","","feedback_test"
"","","","","","psychophysics","181","352938","0.0-8.1-0.1-0.52","null","","null","","","","","","","","","","","","","key","null","16.666597315436462","1920","1076","j","false","img/T_ambi40.png","をる","prac",""
"","","","","","html-keyboard-response","182","353452","0.0-8.1-0.1-1.52","null","<span class='add_' style='color:yellow; font-size: 70px;'> 太慢! </span>","null","","","","","","","","","","","","","","","","","","","","","","","feedback_test"
"","","","","","psychophysics","183","355501","0.0-8.1-0.1-0.53","1044","","f","","","","","","","","","","","","","key","f","16.666967213114717","1920","1076","j","false","img/T_ambi40.png","をる","prac",""
"","","","","","html-keyboard-response","184","356013","0.0-8.1-0.1-1.53","null","<span style='color:red; font-size: 70px;'>错误! </span>","null","","","","","","","","","","","","","","","","","","","","","","","feedback_test"
"","","","","","psychophysics","185","358019","0.0-8.1-0.1-0.54","1004","","j","","","","","","","","","","","","","key","j","16.6670336134452","1920","1076","j","true","img/C_ambi40.png","生人","prac",""
"","","","","","html-keyboard-response","186","358526","0.0-8.1-0.1-1.54","null","<span style='color:GreenYellow; font-size: 70px;'>正确! </span>","null","","","","","","","","","","","","","","","","","","","","","","","feedback_test"
"","","","","","psychophysics","187","361040","0.0-8.1-0.1-0.55","null","","null","","","","","","","","","","","","","key","null","16.666353333333586","1920","1076","j","false","img/T_ambi40.png","をる","prac",""
"","","","","","html-keyboard-response","188","361552","0.0-8.1-0.1-1.55","null","<span class='add_' style='color:yellow; font-size: 70px;'> 太慢! </span>","null","","","","","","","","","","","","","","","","","","","","","","","feedback_test"
"","","","","","psychophysics","189","364056","0.0-8.1-0.1-0.56","null","","null","","","","","","","","","","","","","key","null","16.66683221476515","1920","1076","j","false","img/C_ambi40.png","生人","prac",""
"","","","","","html-keyboard-response","190","364571","0.0-8.1-0.1-1.56","null","<span class='add_' style='color:yellow; font-size: 70px;'> 太慢! </span>","null","","","","","","","","","","","","","","","","","","","","","","","feedback_test"
"","","","","","psychophysics","191","366421","0.0-8.1-0.1-0.57","849","","f","","","","","","","","","","","","","key","f","16.666825688072937","1920","1076","f","true","img/H_ambi40.png","朋友","prac",""
"","","","","","html-keyboard-response","192","366923","0.0-8.1-0.1-1.57","null","<span style='color:GreenYellow; font-size: 70px;'>正确! </span>","null","","","","","","","","","","","","","","","","","","","","","","","feedback_test"
"","","","","","psychophysics","193","368984","0.0-8.1-0.1-0.58","1060","","j","","","","","","","","","","","","","key","j","16.66676422764218","1920","1076","j","true","img/H_ambi40.png","自我","prac",""
"","","","","","html-keyboard-response","194","369493","0.0-8.1-0.1-1.58","null","<span style='color:GreenYellow; font-size: 70px;'>正确! </span>","null","","","","","","","","","","","","","","","","","","","","","","","feedback_test"
"","","","","","psychophysics","195","371587","0.0-8.1-0.1-0.59","1087","","f","","","","","","","","","","","","","key","f","16.66655645161283","1920","1076","f","true","img/S_ambi40.png","生人","prac",""
"","","","","","html-keyboard-response","196","372093","0.0-8.1-0.1-1.59","null","<span style='color:GreenYellow; font-size: 70px;'>正确! </span>","null","","","","","","","","","","","","","","","","","","","","","","","feedback_test"
"","","","","","psychophysics","197","374228","0.0-8.1-0.1-0.60","1124","","j","","","","","","","","","","","","","key","j","16.66644094488217","1920","1076","j","true","img/S_ambi40.png","朋友","prac",""
"","","","","","html-keyboard-response","198","374742","0.0-8.1-0.1-1.60","null","<span style='color:GreenYellow; font-size: 70px;'>正确! </span>","null","","","","","","","","","","","","","","","","","","","","","","","feedback_test"
"","","","","","psychophysics","199","376797","0.0-8.1-0.1-0.61","1051","","j","","","","","","","","","","","","","key","j","16.666737704918066","1920","1076","f","false","img/C_ambi40.png","朋友","prac",""
"","","","","","html-keyboard-response","200","377313","0.0-8.1-0.1-1.61","null","<span style='color:red; font-size: 70px;'>错误! </span>","null","","","","","","","","","","","","","","","","","","","","","","","feedback_test"
"","","","","","psychophysics","201","379566","0.0-8.1-0.1-0.62","1243","","f","","","","","","","","","","","","","key","f","16.666126865671632","1920","1076","f","true","img/S_ambi40.png","自我","prac",""
"","","","","","html-keyboard-response","202","380073","0.0-8.1-0.1-1.62","null","<span style='color:GreenYellow; font-size: 70px;'>正确! </span>","null","","","","","","","","","","","","","","","","","","","","","","","feedback_test"
"","","","","","psychophysics","203","382484","0.0-8.1-0.1-0.63","1407","","j","","","","","","","","","","","","","key","j","16.66627272727274","1920","1076","j","true","img/T_ambi40.png","をる","prac",""
"","","","","","html-keyboard-response","204","382995","0.0-8.1-0.1-1.63","null","<span style='color:GreenYellow; font-size: 70px;'>正确! </span>","null","","","","","","","","","","","","","","","","","","","","","","","feedback_test"
"","","","","","html-keyboard-response","205","394734","0.0-8.1-1.1-0.1","11738","<style>.context{color:white; font-size: 35px; line-height:40px}</style>                          <div><p class='context'>您正确回答了50% 的试次。</p ><p class='context'>您的平均反应时为952毫秒。</p >"," ","","","","","","","","","","","","","","","","","","","","","","",""
"","","","","","instructions","206","399029","0.0-8.1-1.1-1.1","4293","","","","","","","","","","","","","","[{""page_index"":0,""viewing_time"":1741},{""page_index"":1,""viewing_time"":1524},{""page_index"":2,""viewing_time"":1028}]","","","","","","","","","","",""
"","","","","","psychophysics","207","400995","0.0-8.2-0.2-0.64","956","","f","","","","","","","","","","","","","key","f","16.666367521367242","1920","1076","f","true","img/S_ambi40.png","自我","prac",""
"","","","","","html-keyboard-response","208","401508","0.0-8.2-0.2-1.64","null","<span style='color:GreenYellow; font-size: 70px;'>正确! </span>","null","","","","","","","","","","","","","","","","","","","","","","","feedback_test"
"","","","","","psychophysics","209","403505","0.0-8.2-0.2-0.65","987","","j","","","","","","","","","","","","","key","j","16.665932773109603","1920","1076","j","true","img/H_ambi40.png","自我","prac",""
"","","","","","html-keyboard-response","210","404033","0.0-8.2-0.2-1.65","null","<span style='color:GreenYellow; font-size: 70px;'>正确! </span>","null","","","","","","","","","","","","","","","","","","","","","","","feedback_test"
"","","","","","psychophysics","211","405960","0.0-8.2-0.2-0.66","905","","j","","","","","","","","","","","","","key","j","16.665382608695403","1920","1076","j","true","img/H_ambi40.png","自我","prac",""
"","","","","","html-keyboard-response","212","406461","0.0-8.2-0.2-1.66","null","<span style='color:GreenYellow; font-size: 70px;'>正确! </span>","null","","","","","","","","","","","","","","","","","","","","","","","feedback_test"
"","","","","","psychophysics","213","408691","0.0-8.2-0.2-0.67","1222","","f","","","","","","","","","","","","","key","f","16.66675187969936","1920","1076","j","false","img/C_ambi40.png","生人","prac",""
"","","","","","html-keyboard-response","214","409205","0.0-8.2-0.2-1.67","null","<span style='color:red; font-size: 70px;'>错误! </span>","null","","","","","","","","","","","","","","","","","","","","","","","feedback_test"
"","","","","","psychophysics","215","411716","0.0-8.2-0.2-0.68","null","","null","","","","","","","","","","","","","key","null","16.666382550335747","1920","1076","j","false","img/T_ambi40.png","をる","prac",""
"","","","","","html-keyboard-response","216","412232","0.0-8.2-0.2-1.68","null","<span class='add_' style='color:yellow; font-size: 70px;'> 太慢! </span>","null","","","","","","","","","","","","","","","","","","","","","","","feedback_test"
"","","","","","psychophysics","217","414412","0.0-8.2-0.2-0.69","1174","","f","","","","","","","","","","","","","key","f","16.66688461538422","1920","1076","j","false","img/S_ambi40.png","朋友","prac",""
"","","","","","html-keyboard-response","218","414923","0.0-8.2-0.2-1.69","null","<span style='color:red; font-size: 70px;'>错误! </span>","null","","","","","","","","","","","","","","","","","","","","","","","feedback_test"
"","","","","","psychophysics","219","417211","0.0-8.2-0.2-0.70","1273","","f","","","","","","","","","","","","","key","f","16.666080882352936","1920","1076","f","true","img/C_ambi40.png","朋友","prac",""
"","","","","","html-keyboard-response","220","417726","0.0-8.2-0.2-1.70","null","<span style='color:GreenYellow; font-size: 70px;'>正确! </span>","null","","","","","","","","","","","","","","","","","","","","","","","feedback_test"
"","","","","","psychophysics","221","419854","0.0-8.2-0.2-0.71","1116","","j","","","","","","","","","","","","","key","j","16.666920634920686","1920","1076","j","true","img/T_ambi40.png","をる","prac",""
"","","","","","html-keyboard-response","222","420358","0.0-8.2-0.2-1.71","null","<span style='color:GreenYellow; font-size: 70px;'>正确! </span>","null","","","","","","","","","","","","","","","","","","","","","","","feedback_test"
"","","","","","psychophysics","223","422871","0.0-8.2-0.2-0.72","null","","null","","","","","","","","","","","","","key","null","16.666220000000127","1920","1076","f","false","img/H_ambi40.png","朋友","prac",""
"","","","","","html-keyboard-response","224","423385","0.0-8.2-0.2-1.72","null","<span class='add_' style='color:yellow; font-size: 70px;'> 太慢! </span>","null","","","","","","","","","","","","","","","","","","","","","","","feedback_test"
"","","","","","psychophysics","225","425193","0.0-8.2-0.2-0.73","792","","f","","","","","","","","","","","","","key","f","16.666861111111185","1920","1076","j","false","img/T_ambi40.png","をる","prac",""
"","","","","","html-keyboard-response","226","425704","0.0-8.2-0.2-1.73","null","<span style='color:red; font-size: 70px;'>错误! </span>","null","","","","","","","","","","","","","","","","","","","","","","","feedback_test"
"","","","","","psychophysics","227","427802","0.0-8.2-0.2-0.74","1098","","j","","","","","","","","","","","","","key","j","16.66642741935474","1920","1076","j","true","img/S_ambi40.png","朋友","prac",""
"","","","","","html-keyboard-response","228","428307","0.0-8.2-0.2-1.74","null","<span style='color:GreenYellow; font-size: 70px;'>正确! </span>","null","","","","","","","","","","","","","","","","","","","","","","","feedback_test"
"","","","","","psychophysics","229","430195","0.0-8.2-0.2-0.75","878","","f","","","","","","","","","","","","","key","f","16.667142857142608","1920","1076","j","false","img/T_ambi40.png","をる","prac",""
"","","","","","html-keyboard-response","230","430707","0.0-8.2-0.2-1.75","null","<span style='color:red; font-size: 70px;'>错误! </span>","null","","","","","","","","","","","","","","","","","","","","","","","feedback_test"
"","","","","","psychophysics","231","432788","0.0-8.2-0.2-0.76","1069","","f","","","","","","","","","","","","","key","f","16.666235772357606","1920","1076","f","true","img/C_ambi40.png","自我","prac",""
"","","","","","html-keyboard-response","232","433288","0.0-8.2-0.2-1.76","null","<span style='color:GreenYellow; font-size: 70px;'>正确! </span>","null","","","","","","","","","","","","","","","","","","","","","","","feedback_test"
"","","","","","psychophysics","233","435200","0.0-8.2-0.2-0.77","897","","j","","","","","","","","","","","","","key","j","16.666522123893635","1920","1076","f","false","img/S_ambi40.png","生人","prac",""
"","","","","","html-keyboard-response","234","435704","0.0-8.2-0.2-1.77","null","<span style='color:red; font-size: 70px;'>错误! </span>","null","","","","","","","","","","","","","","","","","","","","","","","feedback_test"
"","","","","","psychophysics","235","438050","0.0-8.2-0.2-0.78","1345","","f","","","","","","","","","","","","","key","f","16.666352517985764","1920","1076","j","false","img/C_ambi40.png","生人","prac",""
"","","","","","html-keyboard-response","236","438557","0.0-8.2-0.2-1.78","null","<span style='color:red; font-size: 70px;'>错误! </span>","null","","","","","","","","","","","","","","","","","","","","","","","feedback_test"
"","","","","","psychophysics","237","440929","0.0-8.2-0.2-0.79","1364","","j","","","","","","","","","","","","","key","j","16.665914893616815","1920","1076","f","false","img/H_ambi40.png","生人","prac",""
"","","","","","html-keyboard-response","238","441431","0.0-8.2-0.2-1.79","null","<span style='color:red; font-size: 70px;'>错误! </span>","null","","","","","","","","","","","","","","","","","","","","","","","feedback_test"
"","","","","","psychophysics","239","443595","0.0-8.2-0.2-0.80","1157","","f","","","","","","","","","","","","","key","f","16.66517054263544","1920","1076","f","true","img/S_ambi40.png","自我","prac",""
"","","","","","html-keyboard-response","240","444108","0.0-8.2-0.2-1.80","null","<span style='color:GreenYellow; font-size: 70px;'>正确! </span>","null","","","","","","","","","","","","","","","","","","","","","","","feedback_test"
"","","","","","psychophysics","241","446444","0.0-8.2-0.2-0.81","1324","","f","","","","","","","","","","","","","key","f","16.667000000000034","1920","1076","f","true","img/S_ambi40.png","生人","prac",""
"","","","","","html-keyboard-response","242","446955","0.0-8.2-0.2-1.81","null","<span style='color:GreenYellow; font-size: 70px;'>正确! </span>","null","","","","","","","","","","","","","","","","","","","","","","","feedback_test"
"","","","","","psychophysics","243","449411","0.0-8.2-0.2-0.82","1444","","j","","","","","","","","","","","","","key","j","16.66623287671206","1920","1076","j","true","img/S_ambi40.png","朋友","prac",""
"","","","","","html-keyboard-response","244","449916","0.0-8.2-0.2-1.82","null","<span style='color:GreenYellow; font-size: 70px;'>正确! </span>","null","","","","","","","","","","","","","","","","","","","","","","","feedback_test"
"","","","","","psychophysics","245","452007","0.0-8.2-0.2-0.83","1085","","f","","","","","","","","","","","","","key","f","16.666256000000054","1920","1076","j","false","img/T_ambi40.png","をる","prac",""
"","","","","","html-keyboard-response","246","452515","0.0-8.2-0.2-1.83","null","<span style='color:red; font-size: 70px;'>错误! </span>","null","","","","","","","","","","","","","","","","","","","","","","","feedback_test"
"","","","","","psychophysics","247","454959","0.0-8.2-0.2-0.84","1438","","f","","","","","","","","","","","","","key","f","16.666609589040778","1920","1076","j","false","img/S_ambi40.png","朋友","prac",""
"","","","","","html-keyboard-response","248","455466","0.0-8.2-0.2-1.84","null","<span style='color:red; font-size: 70px;'>错误! </span>","null","","","","","","","","","","","","","","","","","","","","","","","feedback_test"
"","","","","","psychophysics","249","457971","0.0-8.2-0.2-0.85","null","","null","","","","","","","","","","","","","key","null","16.66599999999998","1920","1076","j","false","img/T_ambi40.png","をる","prac",""
"","","","","","html-keyboard-response","250","458474","0.0-8.2-0.2-1.85","null","<span class='add_' style='color:yellow; font-size: 70px;'> 太慢! </span>","null","","","","","","","","","","","","","","","","","","","","","","","feedback_test"
"","","","","","psychophysics","251","460987","0.0-8.2-0.2-0.86","null","","null","","","","","","","","","","","","","key","null","16.66651006711408","1920","1076","f","false","img/H_ambi40.png","生人","prac",""
"","","","","","html-keyboard-response","252","461490","0.0-8.2-0.2-1.86","null","<span class='add_' style='color:yellow; font-size: 70px;'> 太慢! </span>","null","","","","","","","","","","","","","","","","","","","","","","","feedback_test"
"","","","","","psychophysics","253","463644","0.0-8.2-0.2-0.87","1140","","j","","","","","","","","","","","","","key","j","16.666156250000313","1920","1076","j","true","img/H_ambi40.png","自我","prac",""
"","","","","","html-keyboard-response","254","464154","0.0-8.2-0.2-1.87","null","<span style='color:GreenYellow; font-size: 70px;'>正确! </span>","null","","","","","","","","","","","","","","","","","","","","","","","feedback_test"
"","","","","","psychophysics","255","466657","0.0-8.2-0.2-0.88","1487","","f","","","","","","","","","","","","","key","f","16.666429530201018","1920","1076","j","false","img/C_ambi40.png","生人","prac",""
"","","","","","html-keyboard-response","256","467163","0.0-8.2-0.2-1.88","null","<span style='color:red; font-size: 70px;'>错误! </span>","null","","","","","","","","","","","","","","","","","","","","","","","feedback_test"
"","","","","","psychophysics","257","469385","0.0-8.2-0.2-0.89","1215","","j","","","","","","","","","","","","","key","j","16.6660909090909","1920","1076","f","false","img/C_ambi40.png","自我","prac",""
"","","","","","html-keyboard-response","258","469895","0.0-8.2-0.2-1.89","null","<span style='color:red; font-size: 70px;'>错误! </span>","null","","","","","","","","","","","","","","","","","","","","","","","feedback_test"
"","","","","","psychophysics","259","472403","0.0-8.2-0.2-0.90","null","","null","","","","","","","","","","","","","key","null","16.666436241610732","1920","1076","j","false","img/C_ambi40.png","生人","prac",""
"","","","","","html-keyboard-response","260","472906","0.0-8.2-0.2-1.90","null","<span class='add_' style='color:yellow; font-size: 70px;'> 太慢! </span>","null","","","","","","","","","","","","","","","","","","","","","","","feedback_test"
"","","","","","psychophysics","261","475434","0.0-8.2-0.2-0.91","null","","null","","","","","","","","","","","","","key","null","16.6662400000003","1920","1076","f","false","img/H_ambi40.png","朋友","prac",""
"","","","","","html-keyboard-response","262","475950","0.0-8.2-0.2-1.91","null","<span class='add_' style='color:yellow; font-size: 70px;'> 太慢! </span>","null","","","","","","","","","","","","","","","","","","","","","","","feedback_test"
"","","","","","psychophysics","263","478454","0.0-8.2-0.2-0.92","null","","null","","","","","","","","","","","","","key","null","16.66673825503344","1920","1076","j","false","img/H_ambi40.png","自我","prac",""
"","","","","","html-keyboard-response","264","478956","0.0-8.2-0.2-1.92","null","<span class='add_' style='color:yellow; font-size: 70px;'> 太慢! </span>","null","","","","","","","","","","","","","","","","","","","","","","","feedback_test"
"","","","","","psychophysics","265","481459","0.0-8.2-0.2-0.93","null","","null","","","","","","","","","","","","","key","null","16.666268456376066","1920","1076","j","false","img/T_ambi40.png","をる","prac",""
"","","","","","html-keyboard-response","266","481970","0.0-8.2-0.2-1.93","null","<span class='add_' style='color:yellow; font-size: 70px;'> 太慢! </span>","null","","","","","","","","","","","","","","","","","","","","","","","feedback_test"
"","","","","","psychophysics","267","484496","0.0-8.2-0.2-0.94","null","","null","","","","","","","","","","","","","key","null","16.666419999999924","1920","1076","j","false","img/T_ambi40.png","をる","prac",""
"","","","","","html-keyboard-response","268","485010","0.0-8.2-0.2-1.94","null","<span class='add_' style='color:yellow; font-size: 70px;'> 太慢! </span>","null","","","","","","","","","","","","","","","","","","","","","","","feedback_test"
"","","","","","psychophysics","269","487520","0.0-8.2-0.2-0.95","null","","null","","","","","","","","","","","","","key","null","16.666315436241728","1920","1076","f","false","img/C_ambi40.png","朋友","prac",""
"","","","","","html-keyboard-response","270","488045","0.0-8.2-0.2-1.95","null","<span class='add_' style='color:yellow; font-size: 70px;'> 太慢! </span>","null","","","","","","","","","","","","","","","","","","","","","","","feedback_test"
"","","","","","html-keyboard-response","271","488439","0.0-8.2-1.2-0.2","393","<style>.context{color:white; font-size: 35px; line-height:40px}</style>                          <div><p class='context'>您正确回答了34% 的试次。</p ><p class='context'>您的平均反应时为1134毫秒。</p >","alt","","","","","","","","","","","","","","","","","","","","","","",""
"","","","","","instructions","272","662696","0.0-8.2-1.2-1.2","174256","","","","","","","","","","","","","","[{""page_index"":0,""viewing_time"":171083},{""page_index"":1,""viewing_time"":2044},{""page_index"":2,""viewing_time"":1128}]","","","","","","","","","","",""
"","","","","","psychophysics","273","665200","0.0-8.3-0.3-0.96","null","","null","","","","","","","","","","","","","key","null","16.66668456375846","1222.6666666666667","642.6666666666666","j","false","img/T_ambi40.png","をる","prac",""
"","","","","","html-keyboard-response","274","665701","0.0-8.3-0.3-1.96","null","<span class='add_' style='color:yellow; font-size: 70px;'> 太慢! </span>","null","","","","","","","","","","","","","","","","","","","","","","","feedback_test"
"","","","","","psychophysics","275","668211","0.0-8.3-0.3-0.97","null","","null","","","","","","","","","","","","","key","null","16.666583892617425","1222.6666666666667","642.6666666666666","j","false","img/H_ambi40.png","自我","prac",""
"","","","","","html-keyboard-response","276","668726","0.0-8.3-0.3-1.97","null","<span class='add_' style='color:yellow; font-size: 70px;'> 太慢! </span>","null","","","","","","","","","","","","","","","","","","","","","","","feedback_test"
"","","","","","psychophysics","277","671250","0.0-8.3-0.3-0.98","null","","null","","","","","","","","","","","","","key","null","16.666326666666816","1222.6666666666667","642.6666666666666","f","false","img/S_ambi40.png","自我","prac",""
"","","","","","html-keyboard-response","278","671781","0.0-8.3-0.3-1.98","null","<span class='add_' style='color:yellow; font-size: 70px;'> 太慢! </span>","null","","","","","","","","","","","","","","","","","","","","","","","feedback_test"
"","","","","","psychophysics","279","674301","0.0-8.3-0.3-0.99","null","","null","","","","","","","","","","","","","key","null","17.00648299319714","1222.6666666666667","642.6666666666666","j","false","img/H_ambi40.png","自我","prac",""
"","","","","","html-keyboard-response","280","674810","0.0-8.3-0.3-1.99","null","<span class='add_' style='color:yellow; font-size: 70px;'> 太慢! </span>","null","","","","","","","","","","","","","","","","","","","","","","","feedback_test"
"","","","","","psychophysics","281","677334","0.0-8.3-0.3-0.100","null","","null","","","","","","","","","","","","","key","null","16.665293333333295","1280","716","j","false","img/T_ambi40.png","をる","prac",""
"","","","","","html-keyboard-response","282","677854","0.0-8.3-0.3-1.100","null","<span class='add_' style='color:yellow; font-size: 70px;'> 太慢! </span>","null","","","","","","","","","","","","","","","","","","","","","","","feedback_test"
"","","","","","psychophysics","283","680366","0.0-8.3-0.3-0.101","null","","null","","","","","","","","","","","","","key","null","16.666295302013754","1280","716","j","false","img/C_ambi40.png","生人","prac",""
"","","","","","html-keyboard-response","284","680871","0.0-8.3-0.3-1.101","null","<span class='add_' style='color:yellow; font-size: 70px;'> 太慢! </span>","null","","","","","","","","","","","","","","","","","","","","","","","feedback_test"
"","","","","","psychophysics","285","683400","0.0-8.3-0.3-0.102","null","","null","","","","","","","","","","","","","key","null","16.666873333333836","1280","716","j","false","img/T_ambi40.png","をる","prac",""
"","","","","","html-keyboard-response","286","683937","0.0-8.3-0.3-1.102","null","<span class='add_' style='color:yellow; font-size: 70px;'> 太慢! </span>","null","","","","","","","","","","","","","","","","","","","","","","","feedback_test"
"","","","","","psychophysics","287","686450","0.0-8.3-0.3-0.103","null","","null","","","","","","","","","","","","","key","null","16.66589261744962","1280","716","f","false","img/S_ambi40.png","生人","prac",""
"","","","","","html-keyboard-response","288","686972","0.0-8.3-0.3-1.103","null","<span class='add_' style='color:yellow; font-size: 70px;'> 太慢! </span>","null","","","","","","","","","","","","","","","","","","","","","","","feedback_test"
"","","","","","psychophysics","289","689480","0.0-8.3-0.3-0.104","null","","null","","","","","","","","","","","","","key","null","16.666442953019665","1280","716","f","false","img/H_ambi40.png","生人","prac",""
"","","","","","html-keyboard-response","290","689999","0.0-8.3-0.3-1.104","null","<span class='add_' style='color:yellow; font-size: 70px;'> 太慢! </span>","null","","","","","","","","","","","","","","","","","","","","","","","feedback_test"
"","","","","","psychophysics","291","691457","0.0-8.3-0.3-0.105","443","","f","","","","","","","","","","","","","key","f","16.66595348837206","1280","716","f","true","img/H_ambi40.png","朋友","prac",""
"","","","","","html-keyboard-response","292","691962","0.0-8.3-0.3-1.105","null","<span style='color:GreenYellow; font-size: 70px;'>正确! </span>","null","","","","","","","","","","","","","","","","","","","","","","","feedback_test"
"","","","","","psychophysics","293","693396","0.0-8.3-0.3-0.106","430","","f","","","","","","","","","","","","","key","f","16.666811764705926","1280","716","j","false","img/C_ambi40.png","生人","prac",""
"","","","","","html-keyboard-response","294","693911","0.0-8.3-0.3-1.106","null","<span style='color:red; font-size: 70px;'>错误! </span>","null","","","","","","","","","","","","","","","","","","","","","","","feedback_test"
"","","","","","psychophysics","295","695251","0.0-8.3-0.3-0.107","335","","j","","","","","","","","","","","","","key","j","16.664887499999896","1280","716","j","true","img/S_ambi40.png","朋友","prac",""
"","","","","","html-keyboard-response","296","695753","0.0-8.3-0.3-1.107","null","<span style='color:GreenYellow; font-size: 70px;'>正确! </span>","null","","","","","","","","","","","","","","","","","","","","","","","feedback_test"
"","","","","","psychophysics","297","698272","0.0-8.3-0.3-0.108","null","","null","","","","","","","","","","","","","key","null","16.6665466666664","1280","716","f","false","img/C_ambi40.png","自我","prac",""
"","","","","","html-keyboard-response","298","698788","0.0-8.3-0.3-1.108","null","<span class='add_' style='color:yellow; font-size: 70px;'> 太慢! </span>","null","","","","","","","","","","","","","","","","","","","","","","","feedback_test"
"","","","","","psychophysics","299","700071","0.0-8.3-0.3-0.109","270","","j","","","","","","","","","","","","","key","j","16.66584210526229","1280","716","j","true","img/T_ambi40.png","をる","prac",""
"","","","","","html-keyboard-response","300","700577","0.0-8.3-0.3-1.109","null","<span style='color:GreenYellow; font-size: 70px;'>正确! </span>","null","","","","","","","","","","","","","","","","","","","","","","","feedback_test"
"","","","","","psychophysics","301","702002","0.0-8.3-0.3-0.110","419","","j","","","","","","","","","","","","","key","j","16.66262352941147","1280","716","f","false","img/C_ambi40.png","朋友","prac",""
"","","","","","html-keyboard-response","302","702515","0.0-8.3-0.3-1.110","null","<span style='color:red; font-size: 70px;'>错误! </span>","null","","","","","","","","","","","","","","","","","","","","","","","feedback_test"
"","","","","","psychophysics","303","703790","0.0-8.3-0.3-0.111","274","","f","","","","","","","","","","","","","key","f","16.494239999999603","1280","716","j","false","img/S_ambi40.png","朋友","prac",""
"","","","","","html-keyboard-response","304","704292","0.0-8.3-0.3-1.111","null","<span style='color:red; font-size: 70px;'>错误! </span>","null","","","","","","","","","","","","","","","","","","","","","","","feedback_test"
"","","","","","psychophysics","305","705579","0.0-8.3-0.3-0.112","254","","j","","","","","","","","","","","","","key","j","16.665921052631393","1280","716","j","true","img/S_ambi40.png","朋友","prac",""
"","","","","","html-keyboard-response","306","706092","0.0-8.3-0.3-1.112","null","<span style='color:GreenYellow; font-size: 70px;'>正确! </span>","null","","","","","","","","","","","","","","","","","","","","","","","feedback_test"
"","","","","","psychophysics","307","707864","0.0-8.3-0.3-0.113","764","","f","","","","","","","","","","","","","key","f","16.665628571428048","1280","716","j","false","img/H_ambi40.png","自我","prac",""
"","","","","","html-keyboard-response","308","708369","0.0-8.3-0.3-1.113","null","<span style='color:red; font-size: 70px;'>错误! </span>","null","","","","","","","","","","","","","","","","","","","","","","","feedback_test"
"","","","","","psychophysics","309","709811","0.0-8.3-0.3-0.114","431","","j","","","","","","","","","","","","","key","j","16.666717647058505","1280","716","j","true","img/C_ambi40.png","生人","prac",""
"","","","","","html-keyboard-response","310","710316","0.0-8.3-0.3-1.114","null","<span style='color:GreenYellow; font-size: 70px;'>正确! </span>","null","","","","","","","","","","","","","","","","","","","","","","","feedback_test"
"","","","","","psychophysics","311","711662","0.0-8.3-0.3-0.115","337","","j","","","","","","","","","","","","","key","j","16.666873417721025","1280","716","j","true","img/S_ambi40.png","朋友","prac",""
"","","","","","html-keyboard-response","312","712164","0.0-8.3-0.3-1.115","null","<span style='color:GreenYellow; font-size: 70px;'>正确! </span>","null","","","","","","","","","","","","","","","","","","","","","","","feedback_test"
"","","","","","psychophysics","313","713442","0.0-8.3-0.3-0.116","276","","j","","","","","","","","","","","","","key","j","16.666657894736424","1280","716","j","true","img/T_ambi40.png","をる","prac",""
"","","","","","html-keyboard-response","314","713949","0.0-8.3-0.3-1.116","null","<span style='color:GreenYellow; font-size: 70px;'>正确! </span>","null","","","","","","","","","","","","","","","","","","","","","","","feedback_test"
"","","","","","psychophysics","315","714967","0.0-8.3-0.3-0.117","17","","f","","","","","","","","","","","","","key","f","16.666133333333224","1280","716","f","true","img/H_ambi40.png","朋友","prac",""
"","","","","","html-keyboard-response","316","715483","0.0-8.3-0.3-1.117","null","<span style='color:yellow; font-size: 70px;'>过快! </span>","null","","","","","","","","","","","","","","","","","","","","","","","feedback_test"
"","","","","","psychophysics","317","717255","0.0-8.3-0.3-0.118","771","","j","","","","","","","","","","","","","key","j","16.666838095237367","1280","716","j","true","img/T_ambi40.png","をる","prac",""
"","","","","","html-keyboard-response","318","717757","0.0-8.3-0.3-1.118","null","<span style='color:GreenYellow; font-size: 70px;'>正确! </span>","null","","","","","","","","","","","","","","","","","","","","","","","feedback_test"
"","","","","","psychophysics","319","719027","0.0-8.3-0.3-0.119","261","","f","","","","","","","","","","","","","key","f","16.666386666667336","1280","716","j","false","img/H_ambi40.png","自我","prac",""
"","","","","","html-keyboard-response","320","719535","0.0-8.3-0.3-1.119","null","<span style='color:red; font-size: 70px;'>错误! </span>","null","","","","","","","","","","","","","","","","","","","","","","","feedback_test"
"","","","","","psychophysics","321","720857","0.0-8.3-0.3-0.120","318","","j","","","","","","","","","","","","","key","j","16.667269230768","1280","716","j","true","img/T_ambi40.png","をる","prac",""
"","","","","","html-keyboard-response","322","721366","0.0-8.3-0.3-1.120","null","<span style='color:GreenYellow; font-size: 70px;'>正确! </span>","null","","","","","","","","","","","","","","","","","","","","","","","feedback_test"
"","","","","","psychophysics","323","722556","0.0-8.3-0.3-0.121","162","","f","","","","","","","","","","","","","key","f","16.665428571429636","1280","716","j","false","img/C_ambi40.png","生人","prac",""
"","","","","","html-keyboard-response","324","723063","0.0-8.3-0.3-1.121","null","<span style='color:yellow; font-size: 70px;'>过快! </span>","null","","","","","","","","","","","","","","","","","","","","","","","feedback_test"
"","","","","","psychophysics","325","724807","0.0-8.3-0.3-0.122","741","","f","","","","","","","","","","","","","key","f","16.66720192307772","1280","716","f","true","img/C_ambi40.png","朋友","prac",""
"","","","","","html-keyboard-response","326","725319","0.0-8.3-0.3-1.122","null","<span style='color:GreenYellow; font-size: 70px;'>正确! </span>","null","","","","","","","","","","","","","","","","","","","","","","","feedback_test"
"","","","","","psychophysics","327","726630","0.0-8.3-0.3-0.123","302","","j","","","","","","","","","","","","","key","j","16.66666233766213","1280","716","j","true","img/T_ambi40.png","をる","prac",""
"","","","","","html-keyboard-response","328","727141","0.0-8.3-0.3-1.123","null","<span style='color:GreenYellow; font-size: 70px;'>正确! </span>","null","","","","","","","","","","","","","","","","","","","","","","","feedback_test"
"","","","","","psychophysics","329","728397","0.0-8.3-0.3-0.124","247","","j","","","","","","","","","","","","","key","j","16.66825675675677","1280","716","f","false","img/C_ambi40.png","自我","prac",""
"","","","","","html-keyboard-response","330","728901","0.0-8.3-0.3-1.124","null","<span style='color:red; font-size: 70px;'>错误! </span>","null","","","","","","","","","","","","","","","","","","","","","","","feedback_test"
"","","","","","psychophysics","331","730181","0.0-8.3-0.3-0.125","274","","f","","","","","","","","","","","","","key","f","16.666239999999913","1280","716","f","true","img/H_ambi40.png","生人","prac",""
"","","","","","html-keyboard-response","332","730687","0.0-8.3-0.3-1.125","null","<span style='color:GreenYellow; font-size: 70px;'>正确! </span>","null","","","","","","","","","","","","","","","","","","","","","","","feedback_test"
"","","","","","psychophysics","333","732008","0.0-8.3-0.3-0.126","319","","f","","","","","","","","","","","","","key","f","16.666833333333788","1280","716","f","true","img/S_ambi40.png","生人","prac",""
"","","","","","html-keyboard-response","334","732517","0.0-8.3-0.3-1.126","null","<span style='color:GreenYellow; font-size: 70px;'>正确! </span>","null","","","","","","","","","","","","","","","","","","","","","","","feedback_test"
"","","","","","psychophysics","335","733827","0.0-8.3-0.3-0.127","297","","j","","","","","","","","","","","","","key","j","16.666038961037874","1280","716","f","false","img/S_ambi40.png","自我","prac",""
"","","","","","html-keyboard-response","336","734328","0.0-8.3-0.3-1.127","null","<span style='color:red; font-size: 70px;'>错误! </span>","null","","","","","","","","","","","","","","","","","","","","","","","feedback_test"
"","","","","","html-keyboard-response","337","735993","0.0-8.3-1.3-0.3","1664","<style>.context{color:white; font-size: 35px; line-height:40px}</style>                          <div><p class='context'>您正确回答了44% 的试次。</p ><p class='context'>您的平均反应时为363毫秒。</p >"," ","","","","","","","","","","","","","","","","","","","","","","",""
"","","","","","instructions","338","743097","0.0-8.3-1.3-1.3","7103","","","","","","","","","","","","","","[{""page_index"":0,""viewing_time"":2416},{""page_index"":1,""viewing_time"":1767},{""page_index"":2,""viewing_time"":2920}]","","","","","","","","","","",""
"","","","","","psychophysics","339","745600","0.0-8.4-0.4-0.128","null","","null","","","","","","","","","","","","","key","null","16.66639999999975","1280","716","j","false","img/T_ambi40.png","をる","prac",""
"","","","","","html-keyboard-response","340","746106","0.0-8.4-0.4-1.128","null","<span class='add_' style='color:yellow; font-size: 70px;'> 太慢! </span>","null","","","","","","","","","","","","","","","","","","","","","","","feedback_test"
"","","","","","psychophysics","341","747416","0.0-8.4-0.4-0.129","301","","j","","","","","","","","","","","","","key","j","16.666435897436877","1280","716","j","true","img/H_ambi40.png","自我","prac",""
"","","","","","html-keyboard-response","342","747931","0.0-8.4-0.4-1.129","null","<span style='color:GreenYellow; font-size: 70px;'>正确! </span>","null","","","","","","","","","","","","","","","","","","","","","","","feedback_test"
"","","","","","psychophysics","343","749622","0.0-8.4-0.4-0.130","690","","f","","","","","","","","","","","","","key","f","16.539640000000364","1280","716","j","false","img/T_ambi40.png","をる","prac",""
"","","","","","html-keyboard-response","344","750151","0.0-8.4-0.4-1.130","null","<span style='color:red; font-size: 70px;'>错误! </span>","null","","","","","","","","","","","","","","","","","","","","","","","feedback_test"
"","","","","","psychophysics","345","751420","0.0-8.4-0.4-0.131","255","","j","","","","","","","","","","","","","key","j","16.665946666666617","1280","716","f","false","img/C_ambi40.png","朋友","prac",""
"","","","","","html-keyboard-response","346","751930","0.0-8.4-0.4-1.131","null","<span style='color:red; font-size: 70px;'>错误! </span>","null","","","","","","","","","","","","","","","","","","","","","","","feedback_test"
"","","","","","psychophysics","347","753067","0.0-8.4-0.4-0.132","134","","f","","","","","","","","","","","","","key","f","16.66739705882398","1280","716","f","true","img/C_ambi40.png","自我","prac",""
"","","","","","html-keyboard-response","348","753584","0.0-8.4-0.4-1.132","null","<span style='color:yellow; font-size: 70px;'>过快! </span>","null","","","","","","","","","","","","","","","","","","","","","","","feedback_test"
"","","","","","psychophysics","349","754845","0.0-8.4-0.4-0.133","250","","j","","","","","","","","","","","","","key","j","16.665175675675652","1280","716","j","true","img/C_ambi40.png","生人","prac",""
"","","","","","html-keyboard-response","350","755360","0.0-8.4-0.4-1.133","null","<span style='color:GreenYellow; font-size: 70px;'>正确! </span>","null","","","","","","","","","","","","","","","","","","","","","","","feedback_test"
"","","","","","psychophysics","351","756672","0.0-8.4-0.4-0.134","307","","j","","","","","","","","","","","","","key","j","16.662358974358842","1280","716","j","true","img/T_ambi40.png","をる","prac",""
"","","","","","html-keyboard-response","352","757187","0.0-8.4-0.4-1.134","null","<span style='color:GreenYellow; font-size: 70px;'>正确! </span>","null","","","","","","","","","","","","","","","","","","","","","","","feedback_test"
"","","","","","psychophysics","353","758661","0.0-8.4-0.4-0.135","462","","f","","","","","","","","","","","","","key","f","16.666160919540292","1280","716","j","false","img/C_ambi40.png","生人","prac",""
"","","","","","html-keyboard-response","354","759166","0.0-8.4-0.4-1.135","null","<span style='color:red; font-size: 70px;'>错误! </span>","null","","","","","","","","","","","","","","","","","","","","","","","feedback_test"
"","","","","","psychophysics","355","761235","0.0-8.4-0.4-0.136","1060","","j","","","","","","","","","","","","","key","j","16.66613008130088","1280","716","j","true","img/S_ambi40.png","朋友","prac",""
"","","","","","html-keyboard-response","356","761754","0.0-8.4-0.4-1.136","null","<span style='color:GreenYellow; font-size: 70px;'>正确! </span>","null","","","","","","","","","","","","","","","","","","","","","","","feedback_test"
"","","","","","psychophysics","357","763038","0.0-8.4-0.4-0.137","260","","j","","","","","","","","","","","","","key","j","16.66634210526306","1280","716","f","false","img/H_ambi40.png","生人","prac",""
"","","","","","html-keyboard-response","358","763540","0.0-8.4-0.4-1.137","null","<span style='color:red; font-size: 70px;'>错误! </span>","null","","","","","","","","","","","","","","","","","","","","","","","feedback_test"
"","","","","","psychophysics","359","764862","0.0-8.4-0.4-0.138","313","","f","","","","","","","","","","","","","key","f","16.664897435896982","1280","716","f","true","img/S_ambi40.png","生人","prac",""
"","","","","","html-keyboard-response","360","765377","0.0-8.4-0.4-1.138","null","<span style='color:GreenYellow; font-size: 70px;'>正确! </span>","null","","","","","","","","","","","","","","","","","","","","","","","feedback_test"
"","","","","","psychophysics","361","766653","0.0-8.4-0.4-0.139","271","","j","","","","","","","","","","","","","key","j","16.664184210526354","1280","716","f","false","img/S_ambi40.png","自我","prac",""
"","","","","","html-keyboard-response","362","767159","0.0-8.4-0.4-1.139","null","<span style='color:red; font-size: 70px;'>错误! </span>","null","","","","","","","","","","","","","","","","","","","","","","","feedback_test"
"","","","","","psychophysics","363","768411","0.0-8.4-0.4-0.140","239","","f","","","","","","","","","","","","","key","f","16.66248648648616","1280","716","j","false","img/T_ambi40.png","をる","prac",""
"","","","","","html-keyboard-response","364","768918","0.0-8.4-0.4-1.140","null","<span style='color:red; font-size: 70px;'>错误! </span>","null","","","","","","","","","","","","","","","","","","","","","","","feedback_test"
"","","","","","psychophysics","365","770222","0.0-8.4-0.4-0.141","297","","j","","","","","","","","","","","","","key","j","16.66685714285712","1280","716","f","false","img/H_ambi40.png","朋友","prac",""
"","","","","","html-keyboard-response","366","770736","0.0-8.4-0.4-1.141","null","<span style='color:red; font-size: 70px;'>错误! </span>","null","","","","","","","","","","","","","","","","","","","","","","","feedback_test"
"","","","","","psychophysics","367","772058","0.0-8.4-0.4-0.142","310","","j","","","","","","","","","","","","","key","j","16.665833333332557","1280","716","j","true","img/S_ambi40.png","朋友","prac",""
"","","","","","html-keyboard-response","368","772561","0.0-8.4-0.4-1.142","null","<span style='color:GreenYellow; font-size: 70px;'>正确! </span>","null","","","","","","","","","","","","","","","","","","","","","","","feedback_test"
"","","","","","psychophysics","369","773967","0.0-8.4-0.4-0.143","396","","j","","","","","","","","","","","","","key","j","16.665083333334355","1280","716","j","true","img/H_ambi40.png","自我","prac",""
"","","","","","html-keyboard-response","370","774476","0.0-8.4-0.4-1.143","null","<span style='color:GreenYellow; font-size: 70px;'>正确! </span>","null","","","","","","","","","","","","","","","","","","","","","","","feedback_test"
"","","","","","psychophysics","371","776045","0.0-8.4-0.4-0.144","563","","j","","","","","","","","","","","","","key","j","16.666505376343935","1280","716","f","false","img/C_ambi40.png","自我","prac",""
"","","","","","html-keyboard-response","372","776548","0.0-8.4-0.4-1.144","null","<span style='color:red; font-size: 70px;'>错误! </span>","null","","","","","","","","","","","","","","","","","","","","","","","feedback_test"
"","","","","","psychophysics","373","778172","0.0-8.4-0.4-0.145","614","","j","","","","","","","","","","","","","key","j","16.66702083333439","1280","716","j","true","img/H_ambi40.png","自我","prac",""
"","","","","","html-keyboard-response","374","778682","0.0-8.4-0.4-1.145","null","<span style='color:GreenYellow; font-size: 70px;'>正确! </span>","null","","","","","","","","","","","","","","","","","","","","","","","feedback_test"
"","","","","","psychophysics","375","779961","0.0-8.4-0.4-0.146","263","","j","","","","","","","","","","","","","key","j","16.6680933333328","1280","716","f","false","img/H_ambi40.png","生人","prac",""
"","","","","","html-keyboard-response","376","780468","0.0-8.4-0.4-1.146","null","<span style='color:red; font-size: 70px;'>错误! </span>","null","","","","","","","","","","","","","","","","","","","","","","","feedback_test"
"","","","","","psychophysics","377","781535","0.0-8.4-0.4-0.147","56","","j","","","","","","","","","","","","","key","j","16.66569841269862","1280","716","j","true","img/S_ambi40.png","朋友","prac",""
"","","","","","html-keyboard-response","378","782040","0.0-8.4-0.4-1.147","null","<span style='color:yellow; font-size: 70px;'>过快! </span>","null","","","","","","","","","","","","","","","","","","","","","","","feedback_test"
"","","","","","psychophysics","379","783268","0.0-8.4-0.4-0.148","221","","j","","","","","","","","","","","","","key","j","16.66695890411071","1280","716","j","true","img/C_ambi40.png","生人","prac",""
"","","","","","html-keyboard-response","380","783775","0.0-8.4-0.4-1.148","null","<span style='color:GreenYellow; font-size: 70px;'>正确! </span>","null","","","","","","","","","","","","","","","","","","","","","","","feedback_test"
"","","","","","psychophysics","381","785071","0.0-8.4-0.4-0.149","293","","j","","","","","","","","","","","","","key","j","16.666051948051475","1280","716","f","false","img/H_ambi40.png","朋友","prac",""
"","","","","","html-keyboard-response","382","785571","0.0-8.4-0.4-1.149","null","<span style='color:red; font-size: 70px;'>错误! </span>","null","","","","","","","","","","","","","","","","","","","","","","","feedback_test"
"","","","","","psychophysics","383","786875","0.0-8.4-0.4-0.150","294","","j","","","","","","","","","","","","","key","j","16.665116883117356","1280","716","j","true","img/T_ambi40.png","をる","prac",""
"","","","","","html-keyboard-response","384","787390","0.0-8.4-0.4-1.150","null","<span style='color:GreenYellow; font-size: 70px;'>正确! </span>","null","","","","","","","","","","","","","","","","","","","","","","","feedback_test"
"","","","","","psychophysics","385","788601","0.0-8.4-0.4-0.151","203","","j","","","","","","","","","","","","","key","j","16.666424657533916","1280","716","f","false","img/C_ambi40.png","朋友","prac",""
"","","","","","html-keyboard-response","386","789108","0.0-8.4-0.4-1.151","null","<span style='color:red; font-size: 70px;'>错误! </span>","null","","","","","","","","","","","","","","","","","","","","","","","feedback_test"
"","","","","","psychophysics","387","791613","0.0-8.4-0.4-0.152","null","","null","","","","","","","","","","","","","key","null","16.66649664429504","1280","716","f","false","img/S_ambi40.png","自我","prac",""
"","","","","","html-keyboard-response","388","792130","0.0-8.4-0.4-1.152","null","<span class='add_' style='color:yellow; font-size: 70px;'> 太慢! </span>","null","","","","","","","","","","","","","","","","","","","","","","","feedback_test"
"","","","","","psychophysics","389","793447","0.0-8.4-0.4-0.153","316","","j","","","","","","","","","","","","","key","j","16.668155844155518","1280","716","f","false","img/S_ambi40.png","生人","prac",""
"","","","","","html-keyboard-response","390","793951","0.0-8.4-0.4-1.153","null","<span style='color:red; font-size: 70px;'>错误! </span>","null","","","","","","","","","","","","","","","","","","","","","","","feedback_test"
"","","","","","psychophysics","391","795360","0.0-8.4-0.4-0.154","399","","j","","","","","","","","","","","","","key","j","16.66697590361512","1280","716","j","true","img/T_ambi40.png","をる","prac",""
"","","","","","html-keyboard-response","392","795875","0.0-8.4-0.4-1.154","null","<span style='color:GreenYellow; font-size: 70px;'>正确! </span>","null","","","","","","","","","","","","","","","","","","","","","","","feedback_test"
"","","","","","psychophysics","393","797197","0.0-8.4-0.4-0.155","316","","j","","","","","","","","","","","","","key","j","16.66434615384489","1280","716","j","true","img/H_ambi40.png","自我","prac",""
"","","","","","html-keyboard-response","394","797713","0.0-8.4-0.4-1.155","null","<span style='color:GreenYellow; font-size: 70px;'>正确! </span>","null","","","","","","","","","","","","","","","","","","","","","","","feedback_test"
"","","","","","psychophysics","395","799033","0.0-8.4-0.4-0.156","319","","j","","","","","","","","","","","","","key","j","16.493230769230138","1280","716","j","true","img/T_ambi40.png","をる","prac",""
"","","","","","html-keyboard-response","396","799538","0.0-8.4-0.4-1.156","null","<span style='color:GreenYellow; font-size: 70px;'>正确! </span>","null","","","","","","","","","","","","","","","","","","","","","","","feedback_test"
"","","","","","psychophysics","397","800816","0.0-8.4-0.4-0.157","268","","j","","","","","","","","","","","","","key","j","16.66596052631595","1280","716","j","true","img/T_ambi40.png","をる","prac",""
"","","","","","html-keyboard-response","398","801330","0.0-8.4-0.4-1.157","null","<span style='color:GreenYellow; font-size: 70px;'>正确! </span>","null","","","","","","","","","","","","","","","","","","","","","","","feedback_test"
"","","","","","psychophysics","399","802622","0.0-8.4-0.4-0.158","291","","j","","","","","","","","","","","","","key","j","16.666144736841822","1280","716","j","true","img/S_ambi40.png","朋友","prac",""
"","","","","","html-keyboard-response","400","803136","0.0-8.4-0.4-1.158","null","<span style='color:GreenYellow; font-size: 70px;'>正确! </span>","null","","","","","","","","","","","","","","","","","","","","","","","feedback_test"
"","","","","","psychophysics","401","804713","0.0-8.4-0.4-0.159","568","","j","","","","","","","","","","","","","key","j","16.66667741935535","1280","716","j","true","img/C_ambi40.png","生人","prac",""
"","","","","","html-keyboard-response","402","805220","0.0-8.4-0.4-1.159","null","<span style='color:GreenYellow; font-size: 70px;'>正确! </span>","null","","","","","","","","","","","","","","","","","","","","","","","feedback_test"
"","","","","","html-keyboard-response","403","811776","0.0-8.4-1.4-0.4","6554","<style>.context{color:white; font-size: 35px; line-height:40px}</style>                          <div><p class='context'>您正确回答了56% 的试次。</p ><p class='context'>您的平均反应时为357毫秒。</p >"," ","","","","","","","","","","","","","","","","","","","","","","",""
"","","","","","instructions","404","850964","0.0-8.4-1.4-1.4","39186","","","","","","","","","","","","","","[{""page_index"":0,""viewing_time"":3168},{""page_index"":1,""viewing_time"":13020},{""page_index"":2,""viewing_time"":22998}]","","","","","","","","","","",""
"","","","","","psychophysics","405","852395","0.0-8.5-0.5-0.160","420","","f","","","","","","","","","","","","","key","f","16.666678571429138","1280","716","j","false","img/T_ambi40.png","をる","prac",""
"","","","","","html-keyboard-response","406","852909","0.0-8.5-0.5-1.160","null","<span style='color:red; font-size: 70px;'>错误! </span>","null","","","","","","","","","","","","","","","","","","","","","","","feedback_test"
"","","","","","psychophysics","407","854245","0.0-8.5-0.5-0.161","331","","j","","","","","","","","","","","","","key","j","16.66554430379721","1280","716","f","false","img/H_ambi40.png","生人","prac",""
"","","","","","html-keyboard-response","408","854747","0.0-8.5-0.5-1.161","null","<span style='color:red; font-size: 70px;'>错误! </span>","null","","","","","","","","","","","","","","","","","","","","","","","feedback_test"
"","","","","","psychophysics","409","856020","0.0-8.5-0.5-0.162","272","","f","","","","","","","","","","","","","key","f","16.666826666666505","1280","716","f","true","img/S_ambi40.png","生人","prac",""
"","","","","","html-keyboard-response","410","856524","0.0-8.5-0.5-1.162","null","<span style='color:GreenYellow; font-size: 70px;'>正确! </span>","null","","","","","","","","","","","","","","","","","","","","","","","feedback_test"
"","","","","","psychophysics","411","857839","0.0-8.5-0.5-0.163","308","","f","","","","","","","","","","","","","key","f","16.665102564101407","1280","716","j","false","img/T_ambi40.png","をる","prac",""
"","","","","","html-keyboard-response","412","858343","0.0-8.5-0.5-1.163","null","<span style='color:red; font-size: 70px;'>错误! </span>","null","","","","","","","","","","","","","","","","","","","","","","","feedback_test"
"","","","","","psychophysics","413","860848","0.0-8.5-0.5-0.164","null","","null","","","","","","","","","","","","","key","null","16.666201342282434","1280","716","j","false","img/C_ambi40.png","生人","prac",""
"","","","","","html-keyboard-response","414","861355","0.0-8.5-0.5-1.164","null","<span class='add_' style='color:yellow; font-size: 70px;'> 太慢! </span>","null","","","","","","","","","","","","","","","","","","","","","","","feedback_test"
"","","","","","psychophysics","415","862820","0.0-8.5-0.5-0.165","456","","f","","","","","","","","","","","","","key","f","16.666896551724353","1280","716","f","true","img/S_ambi40.png","自我","prac",""
"","","","","","html-keyboard-response","416","863324","0.0-8.5-0.5-1.165","null","<span style='color:GreenYellow; font-size: 70px;'>正确! </span>","null","","","","","","","","","","","","","","","","","","","","","","","feedback_test"
"","","","","","psychophysics","417","864742","0.0-8.5-0.5-0.166","411","","j","","","","","","","","","","","","","key","j","16.664821428571095","1280","716","j","true","img/C_ambi40.png","生人","prac",""
"","","","","","html-keyboard-response","418","865244","0.0-8.5-0.5-1.166","null","<span style='color:GreenYellow; font-size: 70px;'>正确! </span>","null","","","","","","","","","","","","","","","","","","","","","","","feedback_test"
"","","","","","psychophysics","419","866585","0.0-8.5-0.5-0.167","315","","j","","","","","","","","","","","","","key","j","16.667537500000616","1280","716","j","true","img/T_ambi40.png","をる","prac",""
"","","","","","html-keyboard-response","420","867099","0.0-8.5-0.5-1.167","null","<span style='color:GreenYellow; font-size: 70px;'>正确! </span>","null","","","","","","","","","","","","","","","","","","","","","","","feedback_test"
"","","","","","psychophysics","421","868562","0.0-8.5-0.5-0.168","452","","j","","","","","","","","","","","","","key","j","16.666883720931068","1280","716","j","true","img/T_ambi40.png","をる","prac",""
"","","","","","html-keyboard-response","422","869076","0.0-8.5-0.5-1.168","null","<span style='color:GreenYellow; font-size: 70px;'>正确! </span>","null","","","","","","","","","","","","","","","","","","","","","","","feedback_test"
"","","","","","psychophysics","423","870371","0.0-8.5-0.5-0.169","290","","f","","","","","","","","","","","","","key","f","16.66766233766276","1280","716","j","false","img/H_ambi40.png","自我","prac",""
"","","","","","html-keyboard-response","424","870886","0.0-8.5-0.5-1.169","null","<span style='color:red; font-size: 70px;'>错误! </span>","null","","","","","","","","","","","","","","","","","","","","","","","feedback_test"
"","","","","","psychophysics","425","872237","0.0-8.5-0.5-0.170","323","","j","","","","","","","","","","","","","key","j","16.666362500000105","1280","716","j","true","img/S_ambi40.png","朋友","prac",""
"","","","","","html-keyboard-response","426","872752","0.0-8.5-0.5-1.170","null","<span style='color:GreenYellow; font-size: 70px;'>正确! </span>","null","","","","","","","","","","","","","","","","","","","","","","","feedback_test"
"","","","","","psychophysics","427","874337","0.0-8.5-0.5-0.171","574","","j","","","","","","","","","","","","","key","j","16.666265957447592","1280","716","j","true","img/S_ambi40.png","朋友","prac",""
"","","","","","html-keyboard-response","428","874845","0.0-8.5-0.5-1.171","null","<span style='color:GreenYellow; font-size: 70px;'>正确! </span>","null","","","","","","","","","","","","","","","","","","","","","","","feedback_test"
"","","","","","psychophysics","429","876264","0.0-8.5-0.5-0.172","417","","j","","","","","","","","","","","","","key","j","16.6662023809525","1280","716","f","false","img/C_ambi40.png","自我","prac",""
"","","","","","html-keyboard-response","430","876774","0.0-8.5-0.5-1.172","null","<span style='color:red; font-size: 70px;'>错误! </span>","null","","","","","","","","","","","","","","","","","","","","","","","feedback_test"
"","","","","","psychophysics","431","878087","0.0-8.5-0.5-0.173","290","","f","","","","","","","","","","","","","key","f","16.668037974683838","1280","716","f","true","img/C_ambi40.png","朋友","prac",""
"","","","","","html-keyboard-response","432","878596","0.0-8.5-0.5-1.173","null","<span style='color:GreenYellow; font-size: 70px;'>正确! </span>","null","","","","","","","","","","","","","","","","","","","","","","","feedback_test"
"","","","","","psychophysics","433","879923","0.0-8.5-0.5-0.174","326","","j","","","","","","","","","","","","","key","j","16.666269230769757","1280","716","f","false","img/H_ambi40.png","朋友","prac",""
"","","","","","html-keyboard-response","434","880433","0.0-8.5-0.5-1.174","null","<span style='color:red; font-size: 70px;'>错误! </span>","null","","","","","","","","","","","","","","","","","","","","","","","feedback_test"
"","","","","","psychophysics","435","881836","0.0-8.5-0.5-0.175","395","","f","","","","","","","","","","","","","key","f","16.667590361446177","1280","716","j","false","img/H_ambi40.png","自我","prac",""
"","","","","","html-keyboard-response","436","882346","0.0-8.5-0.5-1.175","null","<span style='color:red; font-size: 70px;'>错误! </span>","null","","","","","","","","","","","","","","","","","","","","","","","feedback_test"
"","","","","","psychophysics","437","883580","0.0-8.5-0.5-0.176","200","","j","","","","","","","","","","","","","key","j","16.6666805555546","1280","716","f","false","img/S_ambi40.png","生人","prac",""
"","","","","","html-keyboard-response","438","884080","0.0-8.5-0.5-1.176","null","<span style='color:red; font-size: 70px;'>错误! </span>","null","","","","","","","","","","","","","","","","","","","","","","","feedback_test"
"","","","","","psychophysics","439","885377","0.0-8.5-0.5-0.177","285","","f","","","","","","","","","","","","","key","f","16.6655921052642","1280","716","j","false","img/S_ambi40.png","朋友","prac",""
"","","","","","html-keyboard-response","440","885889","0.0-8.5-0.5-1.177","null","<span style='color:red; font-size: 70px;'>错误! </span>","null","","","","","","","","","","","","","","","","","","","","","","","feedback_test"
"","","","","","psychophysics","441","887155","0.0-8.5-0.5-0.178","259","","j","","","","","","","","","","","","","key","j","16.666146666665252","1280","716","f","false","img/S_ambi40.png","自我","prac",""
"","","","","","html-keyboard-response","442","887670","0.0-8.5-0.5-1.178","null","<span style='color:red; font-size: 70px;'>错误! </span>","null","","","","","","","","","","","","","","","","","","","","","","","feedback_test"
"","","","","","psychophysics","443","889357","0.0-8.5-0.5-0.179","678","","f","","","","","","","","","","","","","key","f","16.666149999999906","1280","716","j","false","img/T_ambi40.png","をる","prac",""
"","","","","","html-keyboard-response","444","889858","0.0-8.5-0.5-1.179","null","<span style='color:red; font-size: 70px;'>错误! </span>","null","","","","","","","","","","","","","","","","","","","","","","","feedback_test"
"","","","","","psychophysics","445","891173","0.0-8.5-0.5-0.180","310","","j","","","","","","","","","","","","","key","j","16.667443037974717","1280","716","f","false","img/H_ambi40.png","朋友","prac",""
"","","","","","html-keyboard-response","446","891683","0.0-8.5-0.5-1.180","null","<span style='color:red; font-size: 70px;'>错误! </span>","null","","","","","","","","","","","","","","","","","","","","","","","feedback_test"
"","","","","","psychophysics","447","893094","0.0-8.5-0.5-0.181","398","","j","","","","","","","","","","","","","key","j","16.667397590361098","1280","716","f","false","img/H_ambi40.png","生人","prac",""
"","","","","","html-keyboard-response","448","893606","0.0-8.5-0.5-1.181","null","<span style='color:red; font-size: 70px;'>错误! </span>","null","","","","","","","","","","","","","","","","","","","","","","","feedback_test"
"","","","","","psychophysics","449","894893","0.0-8.5-0.5-0.182","263","","f","","","","","","","","","","","","","key","f","16.66671052631634","1280","716","f","true","img/C_ambi40.png","朋友","prac",""
"","","","","","html-keyboard-response","450","895407","0.0-8.5-0.5-1.182","null","<span style='color:GreenYellow; font-size: 70px;'>正确! </span>","null","","","","","","","","","","","","","","","","","","","","","","","feedback_test"
"","","","","","psychophysics","451","896782","0.0-8.5-0.5-0.183","369","","f","","","","","","","","","","","","","key","f","16.66326829268336","1280","716","j","false","img/C_ambi40.png","生人","prac",""
"","","","","","html-keyboard-response","452","897293","0.0-8.5-0.5-1.183","null","<span style='color:red; font-size: 70px;'>错误! </span>","null","","","","","","","","","","","","","","","","","","","","","","","feedback_test"
