"success","timeout","failed_images","failed_audio","failed_video","trial_type","trial_index","time_elapsed","internal_node_id","rt","stimulus","response","value","item_width_mm","item_height_mm","item_width_px","px2mm","view_dist_mm","item_width_deg","px2deg","scale_factor","win_width_deg","win_height_deg","view_history","response_type","key_press","avg_frame_time","center_x","center_y","correct_response","correct","Image","word","condition","screen_id"
"true","false","[]","[]","[]","preload","0","45929","0.0-0.0","","","","","","","","","","","","","","","","","","","","","","","","","",""
"","","","","","html-keyboard-response","1","86939","0.0-1.0","41009","
     <p>您好，欢迎参加本次实验。</p>
     <p>为充分保障您的权利，请确保您已经知晓并同意《参与实验同意书》以及《数据公开知情同意书》。</p>
     <p>如果您未见过上述内容，请咨询实验员。</p>
     <p>如果您选择继续实验，则表示您已经清楚两份知情同意书的内容并同意。</p>
     <p> <div style = ""color: green""><按任意键至下页></div> </p>
     ","enter","","","","","","","","","","","","","","","","","","","","","","",""
"","","","","","html-keyboard-response","2","90784","0.0-2.0","3843","
     <p>本实验首先需要您填写一些基本个人信息。</p>
     <p> <div style = ""color: green""><按任意键至下页></div></p>
     ","enter","","","","","","","","","","","","","","","","","","","","","","",""
"","","","","","call-function","3","90788","0.0-3.0-0.0","","","","","","","","","","","","","","","","","","","","","","","","","",""
"","","","","","survey-html-form","4","95387","0.0-3.0-1.0","4598","","{""Q0"":""8""}","","","","","","","","","","","","","","","","","","","","","","",""
"","","","","","html-button-response","5","96791","0.0-3.0-2.0","1402","<p style = 'color : white'>您的性别</p>","0","","","","","","","","","","","","","","","","","","","","","","",""
"","","","","","survey-html-form","6","104545","0.0-3.0-3.0","7753","","{""Q0"":""2000""}","","","","","","","","","","","","","","","","","","","","","","",""
"","","","","","survey-html-form","7","110438","0.0-3.0-4.0","5892","","{""Q0"":""6""}","","","","","","","","","","","","","","","","","","","","","","",""
"","","","","","virtual-chinrest","8","265893","0.0-4.0","155453","","","","85.6","53.98","439.91778832174555","5.136337420405246","556.34","8.798355766434911","50","0.8410662396979289","29.58","14.62","","","","","","","","","","","",""
"true","","","","","fullscreen","9","316912","0.0-5.0","","","","","","","","","","","","","","","","","","","","","","","","","",""
"","","","","","instructions","10","399662","0.0-6.0","82749","","","","","","","","","","","","","","[{""page_index"":0,""viewing_time"":12489},{""page_index"":1,""viewing_time"":53140},{""page_index"":2,""viewing_time"":3412},{""page_index"":3,""viewing_time"":6214},{""page_index"":2,""viewing_time"":920},{""page_index"":1,""viewing_time"":4726},{""page_index"":2,""viewing_time"":953},{""page_index"":3,""viewing_time"":895}]","","","","","","","","","","",""
"","","","","","psychophysics","11","402179","0.0-7.0-0.0","null","","null","","","","","","","","","","","","","key","null","16.65259060402668","768","428","f","false","img/S_ambi40.png","自我","prac",""
"","","","","","html-keyboard-response","12","402686","0.0-7.0-1.0","null","<span class='add_' style='color:yellow; font-size: 70px;'> 太慢! </span>","null","","","","","","","","","","","","","","","","","","","","","","","feedback_test"
"","","","","","psychophysics","13","404717","0.0-7.0-0.1","1004","","j","","","","","","","","","","","","","key","j","16.65131666666663","768","428","j","true","img/C_ambi40.png","自我","prac",""
"","","","","","html-keyboard-response","14","405220","0.0-7.0-1.1","null","<span style='color:GreenYellow; font-size: 70px;'>正确! </span>","null","","","","","","","","","","","","","","","","","","","","","","","feedback_test"
"","","","","","psychophysics","15","407285","0.0-7.0-0.2","1062","","j","","","","","","","","","","","","","key","j","16.649837398373926","768","428","j","true","img/T_ambi40.png","をる","prac",""
"","","","","","html-keyboard-response","16","407788","0.0-7.0-1.2","null","<span style='color:GreenYellow; font-size: 70px;'>正确! </span>","null","","","","","","","","","","","","","","","","","","","","","","","feedback_test"
"","","","","","psychophysics","17","409403","0.0-7.0-0.3","611","","j","","","","","","","","","","","","","key","j","16.650541666666566","768","428","j","true","img/T_ambi40.png","をる","prac",""
"","","","","","html-keyboard-response","18","409921","0.0-7.0-1.3","null","<span style='color:GreenYellow; font-size: 70px;'>正确! </span>","null","","","","","","","","","","","","","","","","","","","","","","","feedback_test"
"","","","","","psychophysics","19","411827","0.0-7.0-0.4","885","","j","","","","","","","","","","","","","key","j","16.651008849557638","768","428","j","true","img/T_ambi40.png","をる","prac",""
"","","","","","html-keyboard-response","20","412329","0.0-7.0-1.4","null","<span style='color:GreenYellow; font-size: 70px;'>正确! </span>","null","","","","","","","","","","","","","","","","","","","","","","","feedback_test"
"","","","","","psychophysics","21","414534","0.0-7.0-0.5","1203","","f","","","","","","","","","","","","","key","f","16.649030534351485","768","428","j","false","img/C_ambi40.png","生人","prac",""
"","","","","","html-keyboard-response","22","415035","0.0-7.0-1.5","null","<span style='color:red; font-size: 70px;'>错误! </span>","null","","","","","","","","","","","","","","","","","","","","","","","feedback_test"
"","","","","","psychophysics","23","417429","0.0-7.0-0.6","1392","","f","","","","","","","","","","","","","key","f","16.65106293706303","768","428","j","false","img/S_ambi40.png","生人","prac",""
"","","","","","html-keyboard-response","24","417930","0.0-7.0-1.6","null","<span style='color:red; font-size: 70px;'>错误! </span>","null","","","","","","","","","","","","","","","","","","","","","","","feedback_test"
"","","","","","psychophysics","25","420346","0.0-7.0-0.7","1415","","j","","","","","","","","","","","","","key","j","16.652930555555535","768","428","j","true","img/H_ambi40.png","自我","prac",""
"","","","","","html-keyboard-response","26","420849","0.0-7.0-1.7","null","<span style='color:GreenYellow; font-size: 70px;'>正确! </span>","null","","","","","","","","","","","","","","","","","","","","","","","feedback_test"
"","","","","","psychophysics","27","423175","0.0-7.0-0.8","1324","","j","","","","","","","","","","","","","key","j","16.64154347826084","768","428","j","true","img/H_ambi40.png","朋友","prac",""
"","","","","","html-keyboard-response","28","423679","0.0-7.0-1.8","null","<span style='color:GreenYellow; font-size: 70px;'>正确! </span>","null","","","","","","","","","","","","","","","","","","","","","","","feedback_test"
"","","","","","psychophysics","29","425738","0.0-7.0-0.9","1057","","j","","","","","","","","","","","","","key","j","16.65010569105729","768","428","f","false","img/H_ambi40.png","生人","prac",""
"","","","","","html-keyboard-response","30","426240","0.0-7.0-1.9","null","<span style='color:red; font-size: 70px;'>错误! </span>","null","","","","","","","","","","","","","","","","","","","","","","","feedback_test"
"","","","","","psychophysics","31","428671","0.0-7.0-0.10","1430","","j","","","","","","","","","","","","","key","j","16.651165517241743","768","428","f","false","img/H_ambi40.png","生人","prac",""
"","","","","","html-keyboard-response","32","429172","0.0-7.0-1.10","null","<span style='color:red; font-size: 70px;'>错误! </span>","null","","","","","","","","","","","","","","","","","","","","","","","feedback_test"
"","","","","","psychophysics","33","431561","0.0-7.0-0.11","1387","","f","","","","","","","","","","","","","key","f","16.650573426573473","768","428","f","true","img/C_ambi40.png","朋友","prac",""
"","","","","","html-keyboard-response","34","432064","0.0-7.0-1.11","null","<span style='color:GreenYellow; font-size: 70px;'>正确! </span>","null","","","","","","","","","","","","","","","","","","","","","","","feedback_test"
"","","","","","psychophysics","35","433922","0.0-7.0-0.12","855","","f","","","","","","","","","","","","","key","f","16.652772727272662","768","428","f","true","img/S_ambi40.png","自我","prac",""
"","","","","","html-keyboard-response","36","434424","0.0-7.0-1.12","null","<span style='color:GreenYellow; font-size: 70px;'>正确! </span>","null","","","","","","","","","","","","","","","","","","","","","","","feedback_test"
"","","","","","psychophysics","37","436426","0.0-7.0-0.13","997","","j","","","","","","","","","","","","","key","j","16.648831932773195","768","428","j","true","img/S_ambi40.png","朋友","prac",""
"","","","","","html-keyboard-response","38","436931","0.0-7.0-1.13","null","<span style='color:GreenYellow; font-size: 70px;'>正确! </span>","null","","","","","","","","","","","","","","","","","","","","","","","feedback_test"
"","","","","","psychophysics","39","438792","0.0-7.0-0.14","859","","f","","","","","","","","","","","","","key","f","16.65082882882855","768","428","f","true","img/C_ambi40.png","朋友","prac",""
"","","","","","html-keyboard-response","40","439321","0.0-7.0-1.14","null","<span style='color:GreenYellow; font-size: 70px;'>正确! </span>","null","","","","","","","","","","","","","","","","","","","","","","","feedback_test"
"","","","","","psychophysics","41","441616","0.0-7.0-0.15","1274","","f","","","","","","","","","","","","","key","f","16.65031386861309","768","428","j","false","img/T_ambi40.png","をる","prac",""
"","","","","","html-keyboard-response","42","442120","0.0-7.0-1.15","null","<span style='color:red; font-size: 70px;'>错误! </span>","null","","","","","","","","","","","","","","","","","","","","","","","feedback_test"
"","","","","","psychophysics","43","444337","0.0-7.0-0.16","1214","","j","","","","","","","","","","","","","key","j","16.647227272727335","768","428","f","false","img/H_ambi40.png","生人","prac",""
"","","","","","html-keyboard-response","44","444838","0.0-7.0-1.16","null","<span style='color:red; font-size: 70px;'>错误! </span>","null","","","","","","","","","","","","","","","","","","","","","","","feedback_test"
"","","","","","psychophysics","45","447184","0.0-7.0-0.17","1346","","f","","","","","","","","","","","","","key","f","16.65050000000005","768","428","f","true","img/C_ambi40.png","朋友","prac",""
"","","","","","html-keyboard-response","46","447687","0.0-7.0-1.17","null","<span style='color:GreenYellow; font-size: 70px;'>正确! </span>","null","","","","","","","","","","","","","","","","","","","","","","","feedback_test"
"","","","","","psychophysics","47","449487","0.0-7.0-0.18","797","","f","","","","","","","","","","","","","key","f","16.65023364485992","768","428","f","true","img/S_ambi40.png","自我","prac",""
"","","","","","html-keyboard-response","48","449988","0.0-7.0-1.18","null","<span style='color:GreenYellow; font-size: 70px;'>正确! </span>","null","","","","","","","","","","","","","","","","","","","","","","","feedback_test"
"","","","","","psychophysics","49","452253","0.0-7.0-0.19","1262","","j","","","","","","","","","","","","","key","j","16.646805970149405","768","428","j","true","img/S_ambi40.png","朋友","prac",""
"","","","","","html-keyboard-response","50","452755","0.0-7.0-1.19","null","<span style='color:GreenYellow; font-size: 70px;'>正确! </span>","null","","","","","","","","","","","","","","","","","","","","","","","feedback_test"
"","","","","","psychophysics","51","454592","0.0-7.0-0.20","835","","j","","","","","","","","","","","","","key","j","16.648211009174034","768","428","j","true","img/T_ambi40.png","をる","prac",""
"","","","","","html-keyboard-response","52","455094","0.0-7.0-1.20","null","<span style='color:GreenYellow; font-size: 70px;'>正确! </span>","null","","","","","","","","","","","","","","","","","","","","","","","feedback_test"
"","","","","","psychophysics","53","456774","0.0-7.0-0.21","677","","j","","","","","","","","","","","","","key","j","16.649499999999534","768","428","j","true","img/T_ambi40.png","をる","prac",""
"","","","","","html-keyboard-response","54","457291","0.0-7.0-1.21","null","<span style='color:GreenYellow; font-size: 70px;'>正确! </span>","null","","","","","","","","","","","","","","","","","","","","","","","feedback_test"
"","","","","","psychophysics","55","459539","0.0-7.0-0.22","1227","","f","","","","","","","","","","","","","key","f","16.649350746268485","768","428","j","false","img/S_ambi40.png","生人","prac",""
"","","","","","html-keyboard-response","56","460040","0.0-7.0-1.22","null","<span style='color:red; font-size: 70px;'>错误! </span>","null","","","","","","","","","","","","","","","","","","","","","","","feedback_test"
"","","","","","psychophysics","57","462173","0.0-7.0-0.23","1132","","j","","","","","","","","","","","","","key","j","16.650480314960436","768","428","j","true","img/C_ambi40.png","自我","prac",""
"","","","","","html-keyboard-response","58","462675","0.0-7.0-1.23","null","<span style='color:GreenYellow; font-size: 70px;'>正确! </span>","null","","","","","","","","","","","","","","","","","","","","","","","feedback_test"
"","","","","","psychophysics","59","464890","0.0-7.0-0.24","1212","","f","","","","","","","","","","","","","key","f","16.639465648855104","768","428","f","true","img/S_ambi40.png","自我","prac",""
"","","","","","html-keyboard-response","60","465391","0.0-7.0-1.24","null","<span style='color:GreenYellow; font-size: 70px;'>正确! </span>","null","","","","","","","","","","","","","","","","","","","","","","","feedback_test"
"","","","","","psychophysics","61","467702","0.0-7.0-0.25","1308","","j","","","","","","","","","","","","","key","j","16.65035766423391","768","428","j","true","img/H_ambi40.png","朋友","prac",""
"","","","","","html-keyboard-response","62","468204","0.0-7.0-1.25","null","<span style='color:GreenYellow; font-size: 70px;'>正确! </span>","null","","","","","","","","","","","","","","","","","","","","","","","feedback_test"
"","","","","","psychophysics","63","470469","0.0-7.0-0.26","1264","","f","","","","","","","","","","","","","key","f","16.65023134328397","768","428","f","true","img/H_ambi40.png","生人","prac",""
"","","","","","html-keyboard-response","64","470971","0.0-7.0-1.26","null","<span style='color:GreenYellow; font-size: 70px;'>正确! </span>","null","","","","","","","","","","","","","","","","","","","","","","","feedback_test"
"","","","","","psychophysics","65","472942","0.0-7.0-0.27","969","","j","","","","","","","","","","","","","key","j","16.650675213675843","768","428","j","true","img/T_ambi40.png","をる","prac",""
"","","","","","html-keyboard-response","66","473443","0.0-7.0-1.27","null","<span style='color:GreenYellow; font-size: 70px;'>正确! </span>","null","","","","","","","","","","","","","","","","","","","","","","","feedback_test"
"","","","","","psychophysics","67","475101","0.0-7.0-0.28","656","","j","","","","","","","","","","","","","key","j","16.650747474747465","768","428","j","true","img/T_ambi40.png","をる","prac",""
"","","","","","html-keyboard-response","68","475622","0.0-7.0-1.28","null","<span style='color:GreenYellow; font-size: 70px;'>正确! </span>","null","","","","","","","","","","","","","","","","","","","","","","","feedback_test"
"","","","","","psychophysics","69","477470","0.0-7.0-0.29","829","","f","","","","","","","","","","","","","key","f","16.650345454545988","768","428","j","false","img/H_ambi40.png","自我","prac",""
"","","","","","html-keyboard-response","70","477972","0.0-7.0-1.29","null","<span style='color:red; font-size: 70px;'>错误! </span>","null","","","","","","","","","","","","","","","","","","","","","","","feedback_test"
"","","","","","psychophysics","71","480258","0.0-7.0-0.30","1285","","f","","","","","","","","","","","","","key","f","16.64878676470578","768","428","f","true","img/C_ambi40.png","朋友","prac",""
"","","","","","html-keyboard-response","72","480760","0.0-7.0-1.30","null","<span style='color:GreenYellow; font-size: 70px;'>正确! </span>","null","","","","","","","","","","","","","","","","","","","","","","","feedback_test"
"","","","","","psychophysics","73","482563","0.0-7.0-0.31","801","","j","","","","","","","","","","","","","key","j","16.649663551401556","768","428","j","true","img/C_ambi40.png","生人","prac",""
"","","","","","html-keyboard-response","74","483066","0.0-7.0-1.31","null","<span style='color:GreenYellow; font-size: 70px;'>正确! </span>","null","","","","","","","","","","","","","","","","","","","","","","","feedback_test"
"","","","","","psychophysics","75","484986","0.0-8.0-0.0-0.0","918","","f","","","","","","","","","","","","","key","f","16.65189473684203","768","428","f","true","img/C_ambi40.png","朋友","prac",""
"","","","","","html-keyboard-response","76","485489","0.0-8.0-0.0-1.0","null","<span style='color:GreenYellow; font-size: 70px;'>正确! </span>","null","","","","","","","","","","","","","","","","","","","","","","","feedback_test"
"","","","","","psychophysics","77","487366","0.0-8.0-0.0-0.1","875","","f","","","","","","","","","","","","","key","f","16.64845945945991","768","428","f","true","img/C_ambi40.png","朋友","prac",""
"","","","","","html-keyboard-response","78","487892","0.0-8.0-0.0-1.1","null","<span style='color:GreenYellow; font-size: 70px;'>正确! </span>","null","","","","","","","","","","","","","","","","","","","","","","","feedback_test"
"","","","","","psychophysics","79","489578","0.0-8.0-0.0-0.2","665","","f","","","","","","","","","","","","","key","f","16.647869999998946","768","428","f","true","img/S_ambi40.png","自我","prac",""
"","","","","","html-keyboard-response","80","490080","0.0-8.0-0.0-1.2","null","<span style='color:GreenYellow; font-size: 70px;'>正确! </span>","null","","","","","","","","","","","","","","","","","","","","","","","feedback_test"
"","","","","","psychophysics","81","492074","0.0-8.0-0.0-0.3","992","","j","","","","","","","","","","","","","key","j","16.651168067227392","768","428","j","true","img/C_ambi40.png","生人","prac",""
"","","","","","html-keyboard-response","82","492575","0.0-8.0-0.0-1.3","null","<span style='color:GreenYellow; font-size: 70px;'>正确! </span>","null","","","","","","","","","","","","","","","","","","","","","","","feedback_test"
"","","","","","psychophysics","83","494354","0.0-8.0-0.0-0.4","778","","f","","","","","","","","","","","","","key","f","16.650377358491138","768","428","f","true","img/S_ambi40.png","自我","prac",""
"","","","","","html-keyboard-response","84","494882","0.0-8.0-0.0-1.4","null","<span style='color:GreenYellow; font-size: 70px;'>正确! </span>","null","","","","","","","","","","","","","","","","","","","","","","","feedback_test"
"","","","","","psychophysics","85","497268","0.0-8.0-0.0-0.5","1364","","j","","","","","","","","","","","","","key","j","16.648669014084742","768","428","j","true","img/S_ambi40.png","生人","prac",""
"","","","","","html-keyboard-response","86","497771","0.0-8.0-0.0-1.5","null","<span style='color:GreenYellow; font-size: 70px;'>正确! </span>","null","","","","","","","","","","","","","","","","","","","","","","","feedback_test"
"","","","","","psychophysics","87","499744","0.0-8.0-0.0-0.6","971","","j","","","","","","","","","","","","","key","j","16.65083898305084","768","428","j","true","img/T_ambi40.png","をる","prac",""
"","","","","","html-keyboard-response","88","500248","0.0-8.0-0.0-1.6","null","<span style='color:GreenYellow; font-size: 70px;'>正确! </span>","null","","","","","","","","","","","","","","","","","","","","","","","feedback_test"
"","","","","","psychophysics","89","502162","0.0-8.0-0.0-0.7","912","","f","","","","","","","","","","","","","key","f","16.64848245614057","768","428","f","true","img/H_ambi40.png","生人","prac",""
"","","","","","html-keyboard-response","90","502682","0.0-8.0-0.0-1.7","null","<span style='color:GreenYellow; font-size: 70px;'>正确! </span>","null","","","","","","","","","","","","","","","","","","","","","","","feedback_test"
"","","","","","psychophysics","91","504651","0.0-8.0-0.0-0.8","949","","j","","","","","","","","","","","","","key","j","16.651435897435842","768","428","j","true","img/C_ambi40.png","自我","prac",""
"","","","","","html-keyboard-response","92","505154","0.0-8.0-0.0-1.8","null","<span style='color:GreenYellow; font-size: 70px;'>正确! </span>","null","","","","","","","","","","","","","","","","","","","","","","","feedback_test"
"","","","","","psychophysics","93","506921","0.0-8.0-0.0-0.9","764","","j","","","","","","","","","","","","","key","j","16.64830476190518","768","428","j","true","img/T_ambi40.png","をる","prac",""
"","","","","","html-keyboard-response","94","507426","0.0-8.0-0.0-1.9","null","<span style='color:GreenYellow; font-size: 70px;'>正确! </span>","null","","","","","","","","","","","","","","","","","","","","","","","feedback_test"
"","","","","","psychophysics","95","509254","0.0-8.0-0.0-0.10","824","","j","","","","","","","","","","","","","key","j","16.6480917431192","768","428","j","true","img/T_ambi40.png","をる","prac",""
"","","","","","html-keyboard-response","96","509762","0.0-8.0-0.0-1.10","null","<span style='color:GreenYellow; font-size: 70px;'>正确! </span>","null","","","","","","","","","","","","","","","","","","","","","","","feedback_test"
"","","","","","psychophysics","97","511754","0.0-8.0-0.0-0.11","973","","j","","","","","","","","","","","","","key","j","16.64084745762708","768","428","j","true","img/H_ambi40.png","朋友","prac",""
"","","","","","html-keyboard-response","98","512254","0.0-8.0-0.0-1.11","null","<span style='color:GreenYellow; font-size: 70px;'>正确! </span>","null","","","","","","","","","","","","","","","","","","","","","","","feedback_test"
"","","","","","psychophysics","99","514447","0.0-8.0-0.0-0.12","1190","","j","","","","","","","","","","","","","key","j","16.646946564885496","768","428","j","true","img/H_ambi40.png","自我","prac",""
"","","","","","html-keyboard-response","100","514953","0.0-8.0-0.0-1.12","null","<span style='color:GreenYellow; font-size: 70px;'>正确! </span>","null","","","","","","","","","","","","","","","","","","","","","","","feedback_test"
"","","","","","psychophysics","101","516748","0.0-8.0-0.0-0.13","794","","j","","","","","","","","","","","","","key","j","16.651794392523076","768","428","j","true","img/T_ambi40.png","をる","prac",""
"","","","","","html-keyboard-response","102","517250","0.0-8.0-0.0-1.13","null","<span style='color:GreenYellow; font-size: 70px;'>正确! </span>","null","","","","","","","","","","","","","","","","","","","","","","","feedback_test"
"","","","","","psychophysics","103","519457","0.0-8.0-0.0-0.14","1204","","j","","","","","","","","","","","","","key","j","16.651060606061066","768","428","f","false","img/H_ambi40.png","生人","prac",""
"","","","","","html-keyboard-response","104","519960","0.0-8.0-0.0-1.14","null","<span style='color:red; font-size: 70px;'>错误! </span>","null","","","","","","","","","","","","","","","","","","","","","","","feedback_test"
"","","","","","psychophysics","105","521877","0.0-8.0-0.0-0.15","916","","j","","","","","","","","","","","","","key","j","16.646482456140546","768","428","j","true","img/S_ambi40.png","朋友","prac",""
"","","","","","html-keyboard-response","106","522378","0.0-8.0-0.0-1.15","null","<span style='color:GreenYellow; font-size: 70px;'>正确! </span>","null","","","","","","","","","","","","","","","","","","","","","","","feedback_test"
"","","","","","psychophysics","107","524430","0.0-8.0-0.0-0.16","1050","","j","","","","","","","","","","","","","key","j","16.64949180327879","768","428","j","true","img/S_ambi40.png","生人","prac",""
"","","","","","html-keyboard-response","108","524931","0.0-8.0-0.0-1.16","null","<span style='color:GreenYellow; font-size: 70px;'>正确! </span>","null","","","","","","","","","","","","","","","","","","","","","","","feedback_test"
"","","","","","psychophysics","109","526658","0.0-8.0-0.0-0.17","725","","j","","","","","","","","","","","","","key","j","16.64174509803906","768","428","j","true","img/T_ambi40.png","をる","prac",""
"","","","","","html-keyboard-response","110","527162","0.0-8.0-0.0-1.17","null","<span style='color:GreenYellow; font-size: 70px;'>正确! </span>","null","","","","","","","","","","","","","","","","","","","","","","","feedback_test"
"","","","","","psychophysics","111","529330","0.0-8.0-0.0-0.18","1148","","f","","","","","","","","","","","","","key","f","16.65166406250046","768","428","f","true","img/C_ambi40.png","朋友","prac",""
"","","","","","html-keyboard-response","112","529833","0.0-8.0-0.0-1.18","null","<span style='color:GreenYellow; font-size: 70px;'>正确! </span>","null","","","","","","","","","","","","","","","","","","","","","","","feedback_test"
"","","","","","psychophysics","113","531602","0.0-8.0-0.0-0.19","768","","f","","","","","","","","","","","","","key","f","16.647276190475427","768","428","f","true","img/C_ambi40.png","朋友","prac",""
"","","","","","html-keyboard-response","114","532104","0.0-8.0-0.0-1.19","null","<span style='color:GreenYellow; font-size: 70px;'>正确! </span>","null","","","","","","","","","","","","","","","","","","","","","","","feedback_test"
"","","","","","psychophysics","115","533950","0.0-8.0-0.0-0.20","844","","f","","","","","","","","","","","","","key","f","16.650381818181963","768","428","f","true","img/S_ambi40.png","自我","prac",""
"","","","","","html-keyboard-response","116","534451","0.0-8.0-0.0-1.20","null","<span style='color:GreenYellow; font-size: 70px;'>正确! </span>","null","","","","","","","","","","","","","","","","","","","","","","","feedback_test"
"","","","","","psychophysics","117","536598","0.0-8.0-0.0-0.21","1127","","j","","","","","","","","","","","","","key","j","16.650468750000073","768","428","j","true","img/S_ambi40.png","朋友","prac",""
"","","","","","html-keyboard-response","118","537099","0.0-8.0-0.0-1.21","null","<span style='color:GreenYellow; font-size: 70px;'>正确! </span>","null","","","","","","","","","","","","","","","","","","","","","","","feedback_test"
"","","","","","psychophysics","119","538858","0.0-8.0-0.0-0.22","754","","j","","","","","","","","","","","","","key","j","16.650038095237687","768","428","j","true","img/T_ambi40.png","をる","prac",""
"","","","","","html-keyboard-response","120","539361","0.0-8.0-0.0-1.22","null","<span style='color:GreenYellow; font-size: 70px;'>正确! </span>","null","","","","","","","","","","","","","","","","","","","","","","","feedback_test"
"","","","","","psychophysics","121","541441","0.0-8.0-0.0-0.23","1079","","f","","","","","","","","","","","","","key","f","16.649999999999814","768","428","f","true","img/H_ambi40.png","生人","prac",""
"","","","","","html-keyboard-response","122","541952","0.0-8.0-0.0-1.23","null","<span style='color:GreenYellow; font-size: 70px;'>正确! </span>","null","","","","","","","","","","","","","","","","","","","","","","","feedback_test"
"","","","","","psychophysics","123","543772","0.0-8.0-0.0-0.24","800","","j","","","","","","","","","","","","","key","j","16.65015740740691","768","428","j","true","img/T_ambi40.png","をる","prac",""
"","","","","","html-keyboard-response","124","544273","0.0-8.0-0.0-1.24","null","<span style='color:GreenYellow; font-size: 70px;'>正确! </span>","null","","","","","","","","","","","","","","","","","","","","","","","feedback_test"
"","","","","","psychophysics","125","546486","0.0-8.0-0.0-0.25","1211","","f","","","","","","","","","","","","","key","f","16.64947727272749","768","428","j","false","img/C_ambi40.png","自我","prac",""
"","","","","","html-keyboard-response","126","546988","0.0-8.0-0.0-1.25","null","<span style='color:red; font-size: 70px;'>错误! </span>","null","","","","","","","","","","","","","","","","","","","","","","","feedback_test"
"","","","","","psychophysics","127","549002","0.0-8.0-0.0-0.26","1013","","j","","","","","","","","","","","","","key","j","16.650666666667288","768","428","j","true","img/H_ambi40.png","自我","prac",""
"","","","","","html-keyboard-response","128","549503","0.0-8.0-0.0-1.26","null","<span style='color:GreenYellow; font-size: 70px;'>正确! </span>","null","","","","","","","","","","","","","","","","","","","","","","","feedback_test"
"","","","","","psychophysics","129","551219","0.0-8.0-0.0-0.27","714","","j","","","","","","","","","","","","","key","j","16.651794117647132","768","428","j","true","img/T_ambi40.png","をる","prac",""
"","","","","","html-keyboard-response","130","551720","0.0-8.0-0.0-1.27","null","<span style='color:GreenYellow; font-size: 70px;'>正确! </span>","null","","","","","","","","","","","","","","","","","","","","","","","feedback_test"
"","","","","","psychophysics","131","554195","0.0-8.0-0.0-0.28","1474","","j","","","","","","","","","","","","","key","j","16.65045270270265","768","428","j","true","img/H_ambi40.png","朋友","prac",""
"","","","","","html-keyboard-response","132","554696","0.0-8.0-0.0-1.28","null","<span style='color:GreenYellow; font-size: 70px;'>正确! </span>","null","","","","","","","","","","","","","","","","","","","","","","","feedback_test"
"","","","","","psychophysics","133","556775","0.0-8.0-0.0-0.29","1077","","j","","","","","","","","","","","","","key","j","16.652096774193435","768","428","j","true","img/C_ambi40.png","生人","prac",""
"","","","","","html-keyboard-response","134","557276","0.0-8.0-0.0-1.29","null","<span style='color:GreenYellow; font-size: 70px;'>正确! </span>","null","","","","","","","","","","","","","","","","","","","","","","","feedback_test"
"","","","","","psychophysics","135","559157","0.0-8.0-0.0-0.30","880","","f","","","","","","","","","","","","","key","f","16.64871428571496","768","428","f","true","img/H_ambi40.png","生人","prac",""
"","","","","","html-keyboard-response","136","559658","0.0-8.0-0.0-1.30","null","<span style='color:GreenYellow; font-size: 70px;'>正确! </span>","null","","","","","","","","","","","","","","","","","","","","","","","feedback_test"
"","","","","","psychophysics","137","561638","0.0-8.0-0.0-0.31","978","","f","","","","","","","","","","","","","key","f","16.648635593220252","768","428","f","true","img/S_ambi40.png","自我","prac",""
"","","","","","html-keyboard-response","138","562140","0.0-8.0-0.0-1.31","null","<span style='color:GreenYellow; font-size: 70px;'>正确! </span>","null","","","","","","","","","","","","","","","","","","","","","","","feedback_test"
"","","","","","html-keyboard-response","139","584399","0.0-9.0","22257","<style>.context{color:white; font-size: 35px; line-height:40px}</style>                          <div><p class='context'>您正确回答了94% 的试次。</p ><p class='context'>您的平均反应时为944毫秒。</p ><p class='context'>恭喜您完成练习。按任意键进入正式实验。</p ><p class='footer' style='font-size: 35px; line-height:40px;'>请在进入正式实验实验之前将您的<span style='color: lightgreen;'>食指</span>放在电脑键盘的相应键位上进行按键。</p >"," ","","","","","","","","","","","","","","","","","","","","","","",""
"","","","","","psychophysics","140","586564","0.0-10.0-0.0-0.0-0.0-0.0","1160","","f","","","","","","","","","","","","","key","f","16.653147286822108","768","428","f","true","img/H_ambi40.png","生人","same",""
"","","","","","html-keyboard-response","141","587067","0.0-10.0-0.0-0.0-0.0-1.0","null","<span style='color:GreenYellow; font-size: 70px;'>正确! </span>","null","","","","","","","","","","","","","","","","","","","","","","","feedback_test"
"","","","","","psychophysics","142","588771","0.0-10.0-0.0-0.0-0.0-0.1","702","","f","","","","","","","","","","","","","key","f","16.649235294118306","768","428","f","true","img/S_ambi40.png","自我","same",""
"","","","","","html-keyboard-response","143","589275","0.0-10.0-0.0-0.0-0.0-1.1","null","<span style='color:GreenYellow; font-size: 70px;'>正确! </span>","null","","","","","","","","","","","","","","","","","","","","","","","feedback_test"
"","","","","","psychophysics","144","591245","0.0-10.0-0.0-0.0-0.0-0.2","964","","j","","","","","","","","","","","","","key","j","16.6481196581193","768","428","j","true","img/S_ambi40.png","生人","same",""
"","","","","","html-keyboard-response","145","591749","0.0-10.0-0.0-0.0-0.0-1.2","null","<span style='color:GreenYellow; font-size: 70px;'>正确! </span>","null","","","","","","","","","","","","","","","","","","","","","","","feedback_test"
"","","","","","psychophysics","146","593732","0.0-10.0-0.0-0.0-0.0-0.3","981","","j","","","","","","","","","","","","","key","j","16.649341880341865","768","428","j","true","img/H_ambi40.png","朋友","same",""
"","","","","","html-keyboard-response","147","594234","0.0-10.0-0.0-0.0-0.0-1.3","null","<span style='color:GreenYellow; font-size: 70px;'>正确! </span>","null","","","","","","","","","","","","","","","","","","","","","","","feedback_test"
"","","","","","psychophysics","148","595797","0.0-10.0-0.0-0.0-0.0-0.4","561","","f","","","","","","","","","","","","","key","f","16.64823913043517","768","428","f","true","img/S_ambi40.png","自我","same",""
"","","","","","html-keyboard-response","149","596311","0.0-10.0-0.0-0.0-0.0-1.4","null","<span style='color:GreenYellow; font-size: 70px;'>正确! </span>","null","","","","","","","","","","","","","","","","","","","","","","","feedback_test"
"","","","","","psychophysics","150","598538","0.0-10.0-0.0-0.0-0.0-0.5","1207","","f","","","","","","","","","","","","","key","f","16.650477272727365","768","428","f","true","img/C_ambi40.png","朋友","same",""
"","","","","","html-keyboard-response","151","599040","0.0-10.0-0.0-0.0-0.0-1.5","null","<span style='color:GreenYellow; font-size: 70px;'>正确! </span>","null","","","","","","","","","","","","","","","","","","","","","","","feedback_test"
"","","","","","psychophysics","152","601066","0.0-10.0-0.0-0.0-0.0-0.6","1025","","j","","","","","","","","","","","","","key","j","16.65118181818234","768","428","j","true","img/S_ambi40.png","朋友","same",""
"","","","","","html-keyboard-response","153","601568","0.0-10.0-0.0-0.0-0.0-1.6","null","<span style='color:GreenYellow; font-size: 70px;'>正确! </span>","null","","","","","","","","","","","","","","","","","","","","","","","feedback_test"
"","","","","","psychophysics","154","603323","0.0-10.0-0.0-0.0-0.0-0.7","753","","f","","","","","","","","","","","","","key","f","16.65226923076821","768","428","f","true","img/C_ambi40.png","朋友","same",""
"","","","","","html-keyboard-response","155","603841","0.0-10.0-0.0-0.0-0.0-1.7","null","<span style='color:GreenYellow; font-size: 70px;'>正确! </span>","null","","","","","","","","","","","","","","","","","","","","","","","feedback_test"
"","","","","","psychophysics","156","605677","0.0-10.0-0.0-0.0-0.0-0.8","814","","j","","","","","","","","","","","","","key","j","16.652954128440555","768","428","j","true","img/C_ambi40.png","生人","same",""
"","","","","","html-keyboard-response","157","606178","0.0-10.0-0.0-0.0-0.0-1.8","null","<span style='color:GreenYellow; font-size: 70px;'>正确! </span>","null","","","","","","","","","","","","","","","","","","","","","","","feedback_test"
"","","","","","psychophysics","158","608025","0.0-10.0-0.0-0.0-0.0-0.9","846","","f","","","","","","","","","","","","","key","f","16.64932727272707","768","428","j","false","img/H_ambi40.png","自我","same",""
"","","","","","html-keyboard-response","159","608526","0.0-10.0-0.0-0.0-0.0-1.9","null","<span style='color:red; font-size: 70px;'>错误! </span>","null","","","","","","","","","","","","","","","","","","","","","","","feedback_test"
"","","","","","psychophysics","160","610706","0.0-10.0-0.0-0.0-0.0-0.10","1169","","f","","","","","","","","","","","","","key","f","16.65053846153807","768","428","f","true","img/H_ambi40.png","生人","same",""
"","","","","","html-keyboard-response","161","611207","0.0-10.0-0.0-0.0-0.0-1.10","null","<span style='color:GreenYellow; font-size: 70px;'>正确! </span>","null","","","","","","","","","","","","","","","","","","","","","","","feedback_test"
"","","","","","psychophysics","162","613255","0.0-10.0-0.0-0.0-0.0-0.11","1046","","f","","","","","","","","","","","","","key","f","16.64774590163858","768","428","f","true","img/H_ambi40.png","生人","same",""
"","","","","","html-keyboard-response","163","613759","0.0-10.0-0.0-0.0-0.0-1.11","null","<span style='color:GreenYellow; font-size: 70px;'>正确! </span>","null","","","","","","","","","","","","","","","","","","","","","","","feedback_test"
"","","","","","psychophysics","164","615468","0.0-10.0-0.0-0.0-0.0-0.12","708","","j","","","","","","","","","","","","","key","j","16.650843137254316","768","428","j","true","img/T_ambi40.png","をる","same",""
"","","","","","html-keyboard-response","165","615991","0.0-10.0-0.0-0.0-0.0-1.12","null","<span style='color:GreenYellow; font-size: 70px;'>正确! </span>","null","","","","","","","","","","","","","","","","","","","","","","","feedback_test"
"","","","","","psychophysics","166","617961","0.0-10.0-0.0-0.0-0.0-0.13","949","","f","","","","","","","","","","","","","key","f","16.651350427351286","768","428","f","true","img/C_ambi40.png","朋友","same",""
"","","","","","html-keyboard-response","167","618464","0.0-10.0-0.0-0.0-0.0-1.13","null","<span style='color:GreenYellow; font-size: 70px;'>正确! </span>","null","","","","","","","","","","","","","","","","","","","","","","","feedback_test"
"","","","","","psychophysics","168","620331","0.0-10.0-0.0-0.0-0.0-0.14","865","","j","","","","","","","","","","","","","key","j","16.650612612612555","768","428","j","true","img/T_ambi40.png","をる","same",""
"","","","","","html-keyboard-response","169","620833","0.0-10.0-0.0-0.0-0.0-1.14","null","<span style='color:GreenYellow; font-size: 70px;'>正确! </span>","null","","","","","","","","","","","","","","","","","","","","","","","feedback_test"
"","","","","","psychophysics","170","622912","0.0-10.0-0.0-0.0-0.0-0.15","1076","","j","","","","","","","","","","","","","key","j","16.651870967741424","768","428","j","true","img/C_ambi40.png","自我","same",""
"","","","","","html-keyboard-response","171","623415","0.0-10.0-0.0-0.0-0.0-1.15","null","<span style='color:GreenYellow; font-size: 70px;'>正确! </span>","null","","","","","","","","","","","","","","","","","","","","","","","feedback_test"
"","","","","","psychophysics","172","625226","0.0-10.0-0.0-0.0-0.0-0.16","809","","j","","","","","","","","","","","","","key","j","16.65243518518508","768","428","j","true","img/T_ambi40.png","をる","same",""
"","","","","","html-keyboard-response","173","625728","0.0-10.0-0.0-0.0-0.0-1.16","null","<span style='color:GreenYellow; font-size: 70px;'>正确! </span>","null","","","","","","","","","","","","","","","","","","","","","","","feedback_test"
"","","","","","psychophysics","174","627552","0.0-10.0-0.0-0.0-0.0-0.17","822","","f","","","","","","","","","","","","","key","f","16.656633027522705","768","428","f","true","img/S_ambi40.png","自我","same",""
"","","","","","html-keyboard-response","175","628082","0.0-10.0-0.0-0.0-0.0-1.17","null","<span style='color:GreenYellow; font-size: 70px;'>正确! </span>","null","","","","","","","","","","","","","","","","","","","","","","","feedback_test"
"","","","","","psychophysics","176","629971","0.0-10.0-0.0-0.0-0.0-0.18","869","","f","","","","","","","","","","","","","key","f","16.6538124999996","768","428","f","true","img/S_ambi40.png","自我","same",""
"","","","","","html-keyboard-response","177","630472","0.0-10.0-0.0-0.0-0.0-1.18","null","<span style='color:GreenYellow; font-size: 70px;'>正确! </span>","null","","","","","","","","","","","","","","","","","","","","","","","feedback_test"
"","","","","","psychophysics","178","632501","0.0-10.0-0.0-0.0-0.0-0.19","1026","","j","","","","","","","","","","","","","key","j","16.651454545454552","768","428","j","true","img/H_ambi40.png","朋友","same",""
"","","","","","html-keyboard-response","179","633002","0.0-10.0-0.0-0.0-0.0-1.19","null","<span style='color:GreenYellow; font-size: 70px;'>正确! </span>","null","","","","","","","","","","","","","","","","","","","","","","","feedback_test"
"","","","","","psychophysics","180","635299","0.0-10.0-0.0-0.0-0.0-0.20","1295","","j","","","","","","","","","","","","","key","j","16.653189781021638","768","428","j","true","img/S_ambi40.png","生人","same",""
"","","","","","html-keyboard-response","181","635799","0.0-10.0-0.0-0.0-0.0-1.20","null","<span style='color:GreenYellow; font-size: 70px;'>正确! </span>","null","","","","","","","","","","","","","","","","","","","","","","","feedback_test"
"","","","","","psychophysics","182","637750","0.0-10.0-0.0-0.0-0.0-0.21","949","","j","","","","","","","","","","","","","key","j","16.650560344827305","768","428","j","true","img/C_ambi40.png","自我","same",""
"","","","","","html-keyboard-response","183","638251","0.0-10.0-0.0-0.0-0.0-1.21","null","<span style='color:GreenYellow; font-size: 70px;'>正确! </span>","null","","","","","","","","","","","","","","","","","","","","","","","feedback_test"
"","","","","","psychophysics","184","640330","0.0-10.0-0.0-0.0-0.0-0.22","1077","","f","","","","","","","","","","","","","key","f","16.65053225806426","768","428","f","true","img/H_ambi40.png","生人","same",""
"","","","","","html-keyboard-response","185","640832","0.0-10.0-0.0-0.0-0.0-1.22","null","<span style='color:GreenYellow; font-size: 70px;'>正确! </span>","null","","","","","","","","","","","","","","","","","","","","","","","feedback_test"
"","","","","","psychophysics","186","642825","0.0-10.0-0.0-0.0-0.0-0.23","992","","f","","","","","","","","","","","","","key","f","16.65006722689082","768","428","f","true","img/C_ambi40.png","朋友","same",""
"","","","","","html-keyboard-response","187","643327","0.0-10.0-0.0-0.0-0.0-1.23","null","<span style='color:GreenYellow; font-size: 70px;'>正确! </span>","null","","","","","","","","","","","","","","","","","","","","","","","feedback_test"
"","","","","","psychophysics","188","645406","0.0-10.0-0.0-0.0-0.0-0.24","1077","","j","","","","","","","","","","","","","key","j","16.650443548387322","768","428","j","true","img/H_ambi40.png","自我","same",""
"","","","","","html-keyboard-response","189","645908","0.0-10.0-0.0-0.0-0.0-1.24","null","<span style='color:GreenYellow; font-size: 70px;'>正确! </span>","null","","","","","","","","","","","","","","","","","","","","","","","feedback_test"
"","","","","","psychophysics","190","647770","0.0-10.0-0.0-0.0-0.0-0.25","861","","j","","","","","","","","","","","","","key","j","16.649360360360603","768","428","j","true","img/T_ambi40.png","をる","same",""
"","","","","","html-keyboard-response","191","648271","0.0-10.0-0.0-0.0-0.0-1.25","null","<span style='color:GreenYellow; font-size: 70px;'>正确! </span>","null","","","","","","","","","","","","","","","","","","","","","","","feedback_test"
"","","","","","psychophysics","192","650418","0.0-10.0-0.0-0.0-0.0-0.26","1144","","f","","","","","","","","","","","","","key","f","16.650234374999854","768","428","f","true","img/H_ambi40.png","生人","same",""
"","","","","","html-keyboard-response","193","650919","0.0-10.0-0.0-0.0-0.0-1.26","null","<span style='color:GreenYellow; font-size: 70px;'>正确! </span>","null","","","","","","","","","","","","","","","","","","","","","","","feedback_test"
"","","","","","psychophysics","194","652666","0.0-10.0-0.0-0.0-0.0-0.27","745","","j","","","","","","","","","","","","","key","j","16.650817307692844","768","428","j","true","img/T_ambi40.png","をる","same",""
"","","","","","html-keyboard-response","195","653167","0.0-10.0-0.0-0.0-0.0-1.27","null","<span style='color:GreenYellow; font-size: 70px;'>正确! </span>","null","","","","","","","","","","","","","","","","","","","","","","","feedback_test"
"","","","","","psychophysics","196","655213","0.0-10.0-0.0-0.0-0.0-0.28","1043","","j","","","","","","","","","","","","","key","j","16.64954918032783","768","428","j","true","img/C_ambi40.png","生人","same",""
"","","","","","html-keyboard-response","197","655742","0.0-10.0-0.0-0.0-0.0-1.28","null","<span style='color:GreenYellow; font-size: 70px;'>正确! </span>","null","","","","","","","","","","","","","","","","","","","","","","","feedback_test"
"","","","","","psychophysics","198","657490","0.0-10.0-0.0-0.0-0.0-0.29","727","","j","","","","","","","","","","","","","key","j","16.64746153846052","768","428","j","true","img/T_ambi40.png","をる","same",""
"","","","","","html-keyboard-response","199","657993","0.0-10.0-0.0-0.0-0.0-1.29","null","<span style='color:GreenYellow; font-size: 70px;'>正确! </span>","null","","","","","","","","","","","","","","","","","","","","","","","feedback_test"
"","","","","","psychophysics","200","660196","0.0-10.0-0.0-0.0-0.0-0.30","1199","","f","","","","","","","","","","","","","key","f","16.65020610687042","768","428","f","true","img/C_ambi40.png","朋友","same",""
"","","","","","html-keyboard-response","201","660700","0.0-10.0-0.0-0.0-0.0-1.30","null","<span style='color:GreenYellow; font-size: 70px;'>正确! </span>","null","","","","","","","","","","","","","","","","","","","","","","","feedback_test"
"","","","","","psychophysics","202","662474","0.0-10.0-0.0-0.0-0.0-0.31","772","","f","","","","","","","","","","","","","key","f","16.650504761904344","768","428","f","true","img/S_ambi40.png","自我","same",""
"","","","","","html-keyboard-response","203","662977","0.0-10.0-0.0-0.0-0.0-1.31","null","<span style='color:GreenYellow; font-size: 70px;'>正确! </span>","null","","","","","","","","","","","","","","","","","","","","","","","feedback_test"
"","","","","","psychophysics","204","664749","0.0-10.0-0.0-0.0-0.0-0.32","770","","f","","","","","","","","","","","","","key","f","16.65038679245275","768","428","f","true","img/H_ambi40.png","生人","same",""
"","","","","","html-keyboard-response","205","665252","0.0-10.0-0.0-0.0-0.0-1.32","null","<span style='color:GreenYellow; font-size: 70px;'>正确! </span>","null","","","","","","","","","","","","","","","","","","","","","","","feedback_test"
"","","","","","psychophysics","206","667019","0.0-10.0-0.0-0.0-0.0-0.33","765","","f","","","","","","","","","","","","","key","f","16.650647619048446","768","428","f","true","img/S_ambi40.png","自我","same",""
"","","","","","html-keyboard-response","207","667520","0.0-10.0-0.0-0.0-0.0-1.33","null","<span style='color:GreenYellow; font-size: 70px;'>正确! </span>","null","","","","","","","","","","","","","","","","","","","","","","","feedback_test"
"","","","","","psychophysics","208","669376","0.0-10.0-0.0-0.0-0.0-0.34","853","","j","","","","","","","","","","","","","key","j","16.651522522522683","768","428","j","true","img/S_ambi40.png","朋友","same",""
"","","","","","html-keyboard-response","209","669879","0.0-10.0-0.0-0.0-0.0-1.34","null","<span style='color:GreenYellow; font-size: 70px;'>正确! </span>","null","","","","","","","","","","","","","","","","","","","","","","","feedback_test"
"","","","","","psychophysics","210","671654","0.0-10.0-0.0-0.0-0.0-0.35","773","","f","","","","","","","","","","","","","key","f","16.652123809523793","768","428","f","true","img/C_ambi40.png","朋友","same",""
"","","","","","html-keyboard-response","211","672156","0.0-10.0-0.0-0.0-0.0-1.35","null","<span style='color:GreenYellow; font-size: 70px;'>正确! </span>","null","","","","","","","","","","","","","","","","","","","","","","","feedback_test"
"","","","","","psychophysics","212","673957","0.0-10.0-0.0-0.0-0.0-0.36","797","","f","","","","","","","","","","","","","key","f","16.652476635513498","768","428","f","true","img/C_ambi40.png","朋友","same",""
"","","","","","html-keyboard-response","213","674463","0.0-10.0-0.0-0.0-0.0-1.36","null","<span style='color:GreenYellow; font-size: 70px;'>正确! </span>","null","","","","","","","","","","","","","","","","","","","","","","","feedback_test"
"","","","","","psychophysics","214","675995","0.0-10.0-0.0-0.0-0.0-0.37","514","","j","","","","","","","","","","","","","key","j","16.65081318681241","768","428","j","true","img/T_ambi40.png","をる","same",""
"","","","","","html-keyboard-response","215","676500","0.0-10.0-0.0-0.0-0.0-1.37","null","<span style='color:GreenYellow; font-size: 70px;'>正确! </span>","null","","","","","","","","","","","","","","","","","","","","","","","feedback_test"
"","","","","","psychophysics","216","678357","0.0-10.0-0.0-0.0-0.0-0.38","855","","f","","","","","","","","","","","","","key","f","16.64712727272735","768","428","f","true","img/H_ambi40.png","生人","same",""
"","","","","","html-keyboard-response","217","678858","0.0-10.0-0.0-0.0-0.0-1.38","null","<span style='color:GreenYellow; font-size: 70px;'>正确! </span>","null","","","","","","","","","","","","","","","","","","","","","","","feedback_test"
"","","","","","psychophysics","218","680559","0.0-10.0-0.0-0.0-0.0-0.39","699","","j","","","","","","","","","","","","","key","j","16.6504455445551","768","428","j","true","img/T_ambi40.png","をる","same",""
"","","","","","html-keyboard-response","219","681061","0.0-10.0-0.0-0.0-0.0-1.39","null","<span style='color:GreenYellow; font-size: 70px;'>正确! </span>","null","","","","","","","","","","","","","","","","","","","","","","","feedback_test"
"","","","","","psychophysics","220","682864","0.0-10.0-0.0-0.0-0.0-0.40","780","","f","","","","","","","","","","","","","key","f","16.649401869159192","768","428","f","true","img/H_ambi40.png","生人","same",""
"","","","","","html-keyboard-response","221","683369","0.0-10.0-0.0-0.0-0.0-1.40","null","<span style='color:GreenYellow; font-size: 70px;'>正确! </span>","null","","","","","","","","","","","","","","","","","","","","","","","feedback_test"
"","","","","","psychophysics","222","685378","0.0-10.0-0.0-0.0-0.0-0.41","1006","","j","","","","","","","","","","","","","key","j","16.64945000000007","768","428","j","true","img/H_ambi40.png","朋友","same",""
"","","","","","html-keyboard-response","223","685882","0.0-10.0-0.0-0.0-0.0-1.41","null","<span style='color:GreenYellow; font-size: 70px;'>正确! </span>","null","","","","","","","","","","","","","","","","","","","","","","","feedback_test"
"","","","","","psychophysics","224","687639","0.0-10.0-0.0-0.0-0.0-0.42","755","","f","","","","","","","","","","","","","key","f","16.651190476190475","768","428","f","true","img/C_ambi40.png","朋友","same",""
"","","","","","html-keyboard-response","225","688172","0.0-10.0-0.0-0.0-0.0-1.42","null","<span style='color:GreenYellow; font-size: 70px;'>正确! </span>","null","","","","","","","","","","","","","","","","","","","","","","","feedback_test"
"","","","","","psychophysics","226","689869","0.0-10.0-0.0-0.0-0.0-0.43","676","","f","","","","","","","","","","","","","key","f","16.65008999999962","768","428","f","true","img/C_ambi40.png","朋友","same",""
"","","","","","html-keyboard-response","227","690370","0.0-10.0-0.0-0.0-0.0-1.43","null","<span style='color:GreenYellow; font-size: 70px;'>正确! </span>","null","","","","","","","","","","","","","","","","","","","","","","","feedback_test"
"","","","","","psychophysics","228","692250","0.0-10.0-0.0-0.0-0.0-0.44","878","","j","","","","","","","","","","","","","key","j","17.273308411215552","768","428","j","true","img/C_ambi40.png","生人","same",""
"","","","","","html-keyboard-response","229","692751","0.0-10.0-0.0-0.0-0.0-1.44","null","<span style='color:GreenYellow; font-size: 70px;'>正确! </span>","null","","","","","","","","","","","","","","","","","","","","","","","feedback_test"
"","","","","","psychophysics","230","694601","0.0-10.0-0.0-0.0-0.0-0.45","846","","j","","","","","","","","","","","","","key","j","16.65026363636346","768","428","j","true","img/S_ambi40.png","朋友","same",""
"","","","","","html-keyboard-response","231","695132","0.0-10.0-0.0-0.0-0.0-1.45","null","<span style='color:GreenYellow; font-size: 70px;'>正确! </span>","null","","","","","","","","","","","","","","","","","","","","","","","feedback_test"
"","","","","","psychophysics","232","696974","0.0-10.0-0.0-0.0-0.0-0.46","822","","j","","","","","","","","","","","","","key","j","16.651651376147047","768","428","j","true","img/C_ambi40.png","自我","same",""
"","","","","","html-keyboard-response","233","697476","0.0-10.0-0.0-0.0-0.0-1.46","null","<span style='color:GreenYellow; font-size: 70px;'>正确! </span>","null","","","","","","","","","","","","","","","","","","","","","","","feedback_test"
"","","","","","psychophysics","234","699203","0.0-10.0-0.0-0.0-0.0-0.47","726","","f","","","","","","","","","","","","","key","f","16.65081553398044","768","428","f","true","img/S_ambi40.png","自我","same",""
"","","","","","html-keyboard-response","235","699704","0.0-10.0-0.0-0.0-0.0-1.47","null","<span style='color:GreenYellow; font-size: 70px;'>正确! </span>","null","","","","","","","","","","","","","","","","","","","","","","","feedback_test"
"","","","","","psychophysics","236","701792","0.0-10.0-0.0-0.0-0.0-0.48","1086","","f","","","","","","","","","","","","","key","f","16.650032258064922","768","428","f","true","img/H_ambi40.png","生人","same",""
"","","","","","html-keyboard-response","237","702303","0.0-10.0-0.0-0.0-0.0-1.48","null","<span style='color:GreenYellow; font-size: 70px;'>正确! </span>","null","","","","","","","","","","","","","","","","","","","","","","","feedback_test"
"","","","","","psychophysics","238","704466","0.0-10.0-0.0-0.0-0.0-0.49","1144","","j","","","","","","","","","","","","","key","j","16.650679687500087","768","428","j","true","img/S_ambi40.png","生人","same",""
"","","","","","html-keyboard-response","239","704968","0.0-10.0-0.0-0.0-0.0-1.49","null","<span style='color:GreenYellow; font-size: 70px;'>正确! </span>","null","","","","","","","","","","","","","","","","","","","","","","","feedback_test"
"","","","","","psychophysics","240","706744","0.0-10.0-0.0-0.0-0.0-0.50","774","","f","","","","","","","","","","","","","key","f","16.65101886792482","768","428","f","true","img/S_ambi40.png","自我","same",""
"","","","","","html-keyboard-response","241","707245","0.0-10.0-0.0-0.0-0.0-1.50","null","<span style='color:GreenYellow; font-size: 70px;'>正确! </span>","null","","","","","","","","","","","","","","","","","","","","","","","feedback_test"
"","","","","","psychophysics","242","708946","0.0-10.0-0.0-0.0-0.0-0.51","699","","j","","","","","","","","","","","","","key","j","16.64895049504945","768","428","j","true","img/T_ambi40.png","をる","same",""
"","","","","","html-keyboard-response","243","709447","0.0-10.0-0.0-0.0-0.0-1.51","null","<span style='color:GreenYellow; font-size: 70px;'>正确! </span>","null","","","","","","","","","","","","","","","","","","","","","","","feedback_test"
"","","","","","psychophysics","244","711414","0.0-10.0-0.0-0.0-0.0-0.52","952","","j","","","","","","","","","","","","","key","j","16.6508547008549","768","428","j","true","img/H_ambi40.png","自我","same",""
"","","","","","html-keyboard-response","245","711916","0.0-10.0-0.0-0.0-0.0-1.52","null","<span style='color:GreenYellow; font-size: 70px;'>正确! </span>","null","","","","","","","","","","","","","","","","","","","","","","","feedback_test"
"","","","","","psychophysics","246","713688","0.0-10.0-0.0-0.0-0.0-0.53","770","","f","","","","","","","","","","","","","key","f","16.81020192307635","768","428","f","true","img/S_ambi40.png","自我","same",""
"","","","","","html-keyboard-response","247","714190","0.0-10.0-0.0-0.0-0.0-1.53","null","<span style='color:GreenYellow; font-size: 70px;'>正确! </span>","null","","","","","","","","","","","","","","","","","","","","","","","feedback_test"
"","","","","","psychophysics","248","716025","0.0-10.0-0.0-0.0-0.0-0.54","831","","j","","","","","","","","","","","","","key","j","16.650366972477194","768","428","j","true","img/S_ambi40.png","生人","same",""
"","","","","","html-keyboard-response","249","716551","0.0-10.0-0.0-0.0-0.0-1.54","null","<span style='color:GreenYellow; font-size: 70px;'>正确! </span>","null","","","","","","","","","","","","","","","","","","","","","","","feedback_test"
"","","","","","psychophysics","250","718299","0.0-10.0-0.0-0.0-0.0-0.55","722","","f","","","","","","","","","","","","","key","f","16.65026923076948","768","428","f","true","img/C_ambi40.png","朋友","same",""
"","","","","","html-keyboard-response","251","718802","0.0-10.0-0.0-0.0-0.0-1.55","null","<span style='color:GreenYellow; font-size: 70px;'>正确! </span>","null","","","","","","","","","","","","","","","","","","","","","","","feedback_test"
"","","","","","psychophysics","252","720475","0.0-10.0-0.0-0.0-0.0-0.56","671","","j","","","","","","","","","","","","","key","j","16.650575757575822","768","428","j","true","img/T_ambi40.png","をる","same",""
"","","","","","html-keyboard-response","253","720978","0.0-10.0-0.0-0.0-0.0-1.56","null","<span style='color:GreenYellow; font-size: 70px;'>正确! </span>","null","","","","","","","","","","","","","","","","","","","","","","","feedback_test"
"","","","","","psychophysics","254","722794","0.0-10.0-0.0-0.0-0.0-0.57","814","","f","","","","","","","","","","","","","key","f","16.650240740740966","768","428","f","true","img/C_ambi40.png","朋友","same",""
"","","","","","html-keyboard-response","255","723295","0.0-10.0-0.0-0.0-0.0-1.57","null","<span style='color:GreenYellow; font-size: 70px;'>正确! </span>","null","","","","","","","","","","","","","","","","","","","","","","","feedback_test"
"","","","","","psychophysics","256","725223","0.0-10.0-0.0-0.0-0.0-0.58","901","","f","","","","","","","","","","","","","key","f","16.649973913044263","768","428","f","true","img/H_ambi40.png","生人","same",""
"","","","","","html-keyboard-response","257","725726","0.0-10.0-0.0-0.0-0.0-1.58","null","<span style='color:GreenYellow; font-size: 70px;'>正确! </span>","null","","","","","","","","","","","","","","","","","","","","","","","feedback_test"
"","","","","","psychophysics","258","727569","0.0-10.0-0.0-0.0-0.0-0.59","840","","f","","","","","","","","","","","","","key","f","16.650227272727484","768","428","f","true","img/C_ambi40.png","朋友","same",""
"","","","","","html-keyboard-response","259","728074","0.0-10.0-0.0-0.0-0.0-1.59","null","<span style='color:GreenYellow; font-size: 70px;'>正确! </span>","null","","","","","","","","","","","","","","","","","","","","","","","feedback_test"
"","","","","","psychophysics","260","729863","0.0-10.0-0.0-0.0-0.0-0.60","787","","j","","","","","","","","","","","","","key","j","16.649943396226142","768","428","j","true","img/C_ambi40.png","生人","same",""
"","","","","","html-keyboard-response","261","730382","0.0-10.0-0.0-0.0-0.0-1.60","null","<span style='color:GreenYellow; font-size: 70px;'>正确! </span>","null","","","","","","","","","","","","","","","","","","","","","","","feedback_test"
"","","","","","psychophysics","262","732351","0.0-10.0-0.0-0.0-0.0-0.61","949","","f","","","","","","","","","","","","","key","f","16.65041025641024","768","428","f","true","img/H_ambi40.png","生人","same",""
"","","","","","html-keyboard-response","263","732853","0.0-10.0-0.0-0.0-0.0-1.61","null","<span style='color:GreenYellow; font-size: 70px;'>正确! </span>","null","","","","","","","","","","","","","","","","","","","","","","","feedback_test"
"","","","","","psychophysics","264","734621","0.0-10.0-0.0-0.0-0.0-0.62","767","","f","","","","","","","","","","","","","key","f","16.649790476190503","768","428","f","true","img/S_ambi40.png","自我","same",""
"","","","","","html-keyboard-response","265","735122","0.0-10.0-0.0-0.0-0.0-1.62","null","<span style='color:GreenYellow; font-size: 70px;'>正确! </span>","null","","","","","","","","","","","","","","","","","","","","","","","feedback_test"
"","","","","","psychophysics","266","737121","0.0-10.0-0.0-0.0-0.0-0.63","996","","j","","","","","","","","","","","","","key","j","16.642254237288814","768","428","j","true","img/H_ambi40.png","自我","same",""
"","","","","","html-keyboard-response","267","737642","0.0-10.0-0.0-0.0-0.0-1.63","null","<span style='color:GreenYellow; font-size: 70px;'>正确! </span>","null","","","","","","","","","","","","","","","","","","","","","","","feedback_test"
"","","","","","psychophysics","268","739598","0.0-10.0-0.0-0.0-0.0-0.64","936","","j","","","","","","","","","","","","","key","j","16.648396551724453","768","428","j","true","img/H_ambi40.png","朋友","same",""
"","","","","","html-keyboard-response","269","740098","0.0-10.0-0.0-0.0-0.0-1.64","null","<span style='color:GreenYellow; font-size: 70px;'>正确! </span>","null","","","","","","","","","","","","","","","","","","","","","","","feedback_test"
"","","","","","psychophysics","270","741866","0.0-10.0-0.0-0.0-0.0-0.65","765","","j","","","","","","","","","","","","","key","j","16.650066666666508","768","428","j","true","img/T_ambi40.png","をる","same",""
"","","","","","html-keyboard-response","271","742369","0.0-10.0-0.0-0.0-0.0-1.65","null","<span style='color:GreenYellow; font-size: 70px;'>正确! </span>","null","","","","","","","","","","","","","","","","","","","","","","","feedback_test"
"","","","","","psychophysics","272","744142","0.0-10.0-0.0-0.0-0.0-0.66","771","","j","","","","","","","","","","","","","key","j","16.65040000000015","768","428","j","true","img/T_ambi40.png","をる","same",""
"","","","","","html-keyboard-response","273","744662","0.0-10.0-0.0-0.0-0.0-1.66","null","<span style='color:GreenYellow; font-size: 70px;'>正确! </span>","null","","","","","","","","","","","","","","","","","","","","","","","feedback_test"
"","","","","","psychophysics","274","746409","0.0-10.0-0.0-0.0-0.0-0.67","727","","f","","","","","","","","","","","","","key","f","16.649875000000556","768","428","f","true","img/S_ambi40.png","自我","same",""
"","","","","","html-keyboard-response","275","746910","0.0-10.0-0.0-0.0-0.0-1.67","null","<span style='color:GreenYellow; font-size: 70px;'>正确! </span>","null","","","","","","","","","","","","","","","","","","","","","","","feedback_test"
"","","","","","psychophysics","276","748687","0.0-10.0-0.0-0.0-0.0-0.68","776","","j","","","","","","","","","","","","","key","j","16.650179245282967","768","428","f","false","img/H_ambi40.png","生人","same",""
"","","","","","html-keyboard-response","277","749188","0.0-10.0-0.0-0.0-0.0-1.68","null","<span style='color:red; font-size: 70px;'>错误! </span>","null","","","","","","","","","","","","","","","","","","","","","","","feedback_test"
"","","","","","psychophysics","278","751502","0.0-10.0-0.0-0.0-0.0-0.69","1311","","f","","","","","","","","","","","","","key","f","16.648594202898927","768","428","f","true","img/S_ambi40.png","自我","same",""
"","","","","","html-keyboard-response","279","752003","0.0-10.0-0.0-0.0-0.0-1.69","null","<span style='color:GreenYellow; font-size: 70px;'>正确! </span>","null","","","","","","","","","","","","","","","","","","","","","","","feedback_test"
"","","","","","psychophysics","280","753701","0.0-10.0-0.0-0.0-0.0-0.70","698","","j","","","","","","","","","","","","","key","j","16.65020792079181","768","428","j","true","img/S_ambi40.png","朋友","same",""
"","","","","","html-keyboard-response","281","754204","0.0-10.0-0.0-0.0-0.0-1.70","null","<span style='color:GreenYellow; font-size: 70px;'>正确! </span>","null","","","","","","","","","","","","","","","","","","","","","","","feedback_test"
"","","","","","psychophysics","282","756117","0.0-10.0-0.0-0.0-0.0-0.71","912","","j","","","","","","","","","","","","","key","j","16.650517543859518","768","428","j","true","img/C_ambi40.png","自我","same",""
"","","","","","html-keyboard-response","283","756631","0.0-10.0-0.0-0.0-0.0-1.71","null","<span style='color:GreenYellow; font-size: 70px;'>正确! </span>","null","","","","","","","","","","","","","","","","","","","","","","","feedback_test"
"","","","","","psychophysics","284","758794","0.0-10.0-0.0-0.0-0.0-0.72","1142","","j","","","","","","","","","","","","","key","j","16.64939534883719","768","428","j","true","img/S_ambi40.png","生人","same",""
"","","","","","html-keyboard-response","285","759295","0.0-10.0-0.0-0.0-0.0-1.72","null","<span style='color:GreenYellow; font-size: 70px;'>正确! </span>","null","","","","","","","","","","","","","","","","","","","","","","","feedback_test"
"","","","","","psychophysics","286","760994","0.0-10.0-0.0-0.0-0.0-0.73","698","","j","","","","","","","","","","","","","key","j","16.65042574257396","768","428","j","true","img/T_ambi40.png","をる","same",""
"","","","","","html-keyboard-response","287","761495","0.0-10.0-0.0-0.0-0.0-1.73","null","<span style='color:GreenYellow; font-size: 70px;'>正确! </span>","null","","","","","","","","","","","","","","","","","","","","","","","feedback_test"
"","","","","","psychophysics","288","763325","0.0-10.0-0.0-0.0-0.0-0.74","828","","j","","","","","","","","","","","","","key","j","16.649330275229374","768","428","j","true","img/T_ambi40.png","をる","same",""
"","","","","","html-keyboard-response","289","763831","0.0-10.0-0.0-0.0-0.0-1.74","null","<span style='color:GreenYellow; font-size: 70px;'>正确! </span>","null","","","","","","","","","","","","","","","","","","","","","","","feedback_test"
"","","","","","psychophysics","290","765502","0.0-10.0-0.0-0.0-0.0-0.75","650","","j","","","","","","","","","","","","","key","j","16.65012121212203","768","428","j","true","img/T_ambi40.png","をる","same",""
"","","","","","html-keyboard-response","291","766003","0.0-10.0-0.0-0.0-0.0-1.75","null","<span style='color:GreenYellow; font-size: 70px;'>正确! </span>","null","","","","","","","","","","","","","","","","","","","","","","","feedback_test"
"","","","","","psychophysics","292","767886","0.0-10.0-0.0-0.0-0.0-0.76","881","","f","","","","","","","","","","","","","key","f","16.649964285714045","768","428","f","true","img/H_ambi40.png","生人","same",""
"","","","","","html-keyboard-response","293","768387","0.0-10.0-0.0-0.0-0.0-1.76","null","<span style='color:GreenYellow; font-size: 70px;'>正确! </span>","null","","","","","","","","","","","","","","","","","","","","","","","feedback_test"
"","","","","","psychophysics","294","770215","0.0-10.0-0.0-0.0-0.0-0.77","826","","j","","","","","","","","","","","","","key","j","16.650376146788485","768","428","j","true","img/S_ambi40.png","朋友","same",""
"","","","","","html-keyboard-response","295","770732","0.0-10.0-0.0-0.0-0.0-1.77","null","<span style='color:GreenYellow; font-size: 70px;'>正确! </span>","null","","","","","","","","","","","","","","","","","","","","","","","feedback_test"
"","","","","","psychophysics","296","772886","0.0-10.0-0.0-0.0-0.0-0.78","1135","","f","","","","","","","","","","","","","key","f","16.65020312500019","768","428","f","true","img/H_ambi40.png","生人","same",""
"","","","","","html-keyboard-response","297","773387","0.0-10.0-0.0-0.0-0.0-1.78","null","<span style='color:GreenYellow; font-size: 70px;'>正确! </span>","null","","","","","","","","","","","","","","","","","","","","","","","feedback_test"
"","","","","","psychophysics","298","775117","0.0-10.0-0.0-0.0-0.0-0.79","728","","f","","","","","","","","","","","","","key","f","16.650509803921132","768","428","f","true","img/S_ambi40.png","自我","same",""
"","","","","","html-keyboard-response","299","775618","0.0-10.0-0.0-0.0-0.0-1.79","null","<span style='color:GreenYellow; font-size: 70px;'>正确! </span>","null","","","","","","","","","","","","","","","","","","","","","","","feedback_test"
"","","","","","psychophysics","300","777541","0.0-10.0-0.0-0.0-0.0-0.80","920","","f","","","","","","","","","","","","","key","f","16.64908771929862","768","428","f","true","img/C_ambi40.png","朋友","same",""
"","","","","","html-keyboard-response","301","778052","0.0-10.0-0.0-0.0-0.0-1.80","null","<span style='color:GreenYellow; font-size: 70px;'>正确! </span>","null","","","","","","","","","","","","","","","","","","","","","","","feedback_test"
"","","","","","psychophysics","302","779894","0.0-10.0-0.0-0.0-0.0-0.81","821","","j","","","","","","","","","","","","","key","j","16.648027522935866","768","428","j","true","img/C_ambi40.png","生人","same",""
"","","","","","html-keyboard-response","303","780395","0.0-10.0-0.0-0.0-0.0-1.81","null","<span style='color:GreenYellow; font-size: 70px;'>正确! </span>","null","","","","","","","","","","","","","","","","","","","","","","","feedback_test"
"","","","","","psychophysics","304","782356","0.0-10.0-0.0-0.0-0.0-0.82","957","","j","","","","","","","","","","","","","key","j","16.65033333333265","768","428","j","true","img/H_ambi40.png","朋友","same",""
"","","","","","html-keyboard-response","305","782857","0.0-10.0-0.0-0.0-0.0-1.82","null","<span style='color:GreenYellow; font-size: 70px;'>正确! </span>","null","","","","","","","","","","","","","","","","","","","","","","","feedback_test"
"","","","","","psychophysics","306","785354","0.0-10.0-0.0-0.0-0.0-0.83","1492","","f","","","","","","","","","","","","","key","f","16.649718120805886","768","428","f","true","img/C_ambi40.png","朋友","same",""
"","","","","","html-keyboard-response","307","785856","0.0-10.0-0.0-0.0-0.0-1.83","null","<span style='color:GreenYellow; font-size: 70px;'>正确! </span>","null","","","","","","","","","","","","","","","","","","","","","","","feedback_test"
"","","","","","psychophysics","308","787799","0.0-10.0-0.0-0.0-0.0-0.84","941","","j","","","","","","","","","","","","","key","j","16.65053448275912","768","428","j","true","img/C_ambi40.png","自我","same",""
"","","","","","html-keyboard-response","309","788300","0.0-10.0-0.0-0.0-0.0-1.84","null","<span style='color:GreenYellow; font-size: 70px;'>正确! </span>","null","","","","","","","","","","","","","","","","","","","","","","","feedback_test"
"","","","","","psychophysics","310","790096","0.0-10.0-0.0-0.0-0.0-0.85","794","","f","","","","","","","","","","","","","key","f","16.64944859813011","768","428","f","true","img/S_ambi40.png","自我","same",""
"","","","","","html-keyboard-response","311","790622","0.0-10.0-0.0-0.0-0.0-1.85","null","<span style='color:GreenYellow; font-size: 70px;'>正确! </span>","null","","","","","","","","","","","","","","","","","","","","","","","feedback_test"
"","","","","","psychophysics","312","793143","0.0-10.0-0.0-0.0-0.0-0.86","null","","null","","","","","","","","","","","","","key","null","16.651786666666933","768","428","f","false","img/S_ambi40.png","自我","same",""
"","","","","","html-keyboard-response","313","793644","0.0-10.0-0.0-0.0-0.0-1.86","null","<span class='add_' style='color:yellow; font-size: 70px;'> 太慢! </span>","null","","","","","","","","","","","","","","","","","","","","","","","feedback_test"
"","","","","","psychophysics","314","795654","0.0-10.0-0.0-0.0-0.0-0.87","1008","","f","","","","","","","","","","","","","key","f","16.648591666666714","768","428","f","true","img/C_ambi40.png","朋友","same",""
"","","","","","html-keyboard-response","315","796159","0.0-10.0-0.0-0.0-0.0-1.87","null","<span style='color:GreenYellow; font-size: 70px;'>正确! </span>","null","","","","","","","","","","","","","","","","","","","","","","","feedback_test"
"","","","","","psychophysics","316","798105","0.0-10.0-0.0-0.0-0.0-0.88","944","","j","","","","","","","","","","","","","key","j","16.652249999999686","768","428","j","true","img/H_ambi40.png","自我","same",""
"","","","","","html-keyboard-response","317","798632","0.0-10.0-0.0-0.0-0.0-1.88","null","<span style='color:GreenYellow; font-size: 70px;'>正确! </span>","null","","","","","","","","","","","","","","","","","","","","","","","feedback_test"
"","","","","","psychophysics","318","800867","0.0-10.0-0.0-0.0-0.0-0.89","1214","","j","","","","","","","","","","","","","key","j","16.650571428571084","768","428","f","false","img/H_ambi40.png","生人","same",""
"","","","","","html-keyboard-response","319","801371","0.0-10.0-0.0-0.0-0.0-1.89","null","<span style='color:red; font-size: 70px;'>错误! </span>","null","","","","","","","","","","","","","","","","","","","","","","","feedback_test"
"","","","","","psychophysics","320","803556","0.0-10.0-0.0-0.0-0.0-0.90","1183","","f","","","","","","","","","","","","","key","f","16.6527923076924","768","428","f","true","img/C_ambi40.png","朋友","same",""
"","","","","","html-keyboard-response","321","804058","0.0-10.0-0.0-0.0-0.0-1.90","null","<span style='color:GreenYellow; font-size: 70px;'>正确! </span>","null","","","","","","","","","","","","","","","","","","","","","","","feedback_test"
"","","","","","psychophysics","322","805663","0.0-10.0-0.0-0.0-0.0-0.91","601","","f","","","","","","","","","","","","","key","f","16.650705263157082","768","428","f","true","img/S_ambi40.png","自我","same",""
"","","","","","html-keyboard-response","323","806192","0.0-10.0-0.0-0.0-0.0-1.91","null","<span style='color:GreenYellow; font-size: 70px;'>正确! </span>","null","","","","","","","","","","","","","","","","","","","","","","","feedback_test"
"","","","","","psychophysics","324","807988","0.0-10.0-0.0-0.0-0.0-0.92","775","","j","","","","","","","","","","","","","key","j","16.650415094339788","768","428","j","true","img/S_ambi40.png","朋友","same",""
"","","","","","html-keyboard-response","325","808491","0.0-10.0-0.0-0.0-0.0-1.92","null","<span style='color:GreenYellow; font-size: 70px;'>正确! </span>","null","","","","","","","","","","","","","","","","","","","","","","","feedback_test"
"","","","","","psychophysics","326","810176","0.0-10.0-0.0-0.0-0.0-0.93","683","","f","","","","","","","","","","","","","key","f","16.646609999999637","768","428","f","true","img/S_ambi40.png","自我","same",""
"","","","","","html-keyboard-response","327","810677","0.0-10.0-0.0-0.0-0.0-1.93","null","<span style='color:GreenYellow; font-size: 70px;'>正确! </span>","null","","","","","","","","","","","","","","","","","","","","","","","feedback_test"
"","","","","","psychophysics","328","812579","0.0-10.0-0.0-0.0-0.0-0.94","899","","j","","","","","","","","","","","","","key","j","16.651097345131912","768","428","j","true","img/H_ambi40.png","自我","same",""
"","","","","","html-keyboard-response","329","813092","0.0-10.0-0.0-0.0-0.0-1.94","null","<span style='color:GreenYellow; font-size: 70px;'>正确! </span>","null","","","","","","","","","","","","","","","","","","","","","","","feedback_test"
"","","","","","psychophysics","330","814707","0.0-10.0-0.0-0.0-0.0-0.95","594","","f","","","","","","","","","","","","","key","f","16.65112500000032","768","428","f","true","img/S_ambi40.png","自我","same",""
"","","","","","html-keyboard-response","331","815208","0.0-10.0-0.0-0.0-0.0-1.95","null","<span style='color:GreenYellow; font-size: 70px;'>正确! </span>","null","","","","","","","","","","","","","","","","","","","","","","","feedback_test"
"","","","","","psychophysics","332","817038","0.0-10.0-0.0-0.0-0.0-0.96","829","","f","","","","","","","","","","","","","key","f","16.650018348623444","768","428","f","true","img/H_ambi40.png","生人","same",""
"","","","","","html-keyboard-response","333","817539","0.0-10.0-0.0-0.0-0.0-1.96","null","<span style='color:GreenYellow; font-size: 70px;'>正确! </span>","null","","","","","","","","","","","","","","","","","","","","","","","feedback_test"
"","","","","","psychophysics","334","819350","0.0-10.0-0.0-0.0-0.0-0.97","809","","f","","","","","","","","","","","","","key","f","16.650407407408004","768","428","f","true","img/H_ambi40.png","生人","same",""
"","","","","","html-keyboard-response","335","819872","0.0-10.0-0.0-0.0-0.0-1.97","null","<span style='color:GreenYellow; font-size: 70px;'>正确! </span>","null","","","","","","","","","","","","","","","","","","","","","","","feedback_test"
"","","","","","psychophysics","336","821503","0.0-10.0-0.0-0.0-0.0-0.98","610","","j","","","","","","","","","","","","","key","j","16.652845360824752","768","428","j","true","img/T_ambi40.png","をる","same",""
"","","","","","html-keyboard-response","337","822004","0.0-10.0-0.0-0.0-0.0-1.98","null","<span style='color:GreenYellow; font-size: 70px;'>正确! </span>","null","","","","","","","","","","","","","","","","","","","","","","","feedback_test"
"","","","","","psychophysics","338","824058","0.0-10.0-0.0-0.0-0.0-0.99","1052","","j","","","","","","","","","","","","","key","j","16.650622950819105","768","428","j","true","img/C_ambi40.png","生人","same",""
"","","","","","html-keyboard-response","339","824562","0.0-10.0-0.0-0.0-0.0-1.99","null","<span style='color:GreenYellow; font-size: 70px;'>正确! </span>","null","","","","","","","","","","","","","","","","","","","","","","","feedback_test"
"","","","","","psychophysics","340","826210","0.0-10.0-0.0-0.0-0.0-0.100","647","","j","","","","","","","","","","","","","key","j","16.648663265306304","768","428","j","true","img/T_ambi40.png","をる","same",""
"","","","","","html-keyboard-response","341","826712","0.0-10.0-0.0-0.0-0.0-1.100","null","<span style='color:GreenYellow; font-size: 70px;'>正确! </span>","null","","","","","","","","","","","","","","","","","","","","","","","feedback_test"
"","","","","","psychophysics","342","828449","0.0-10.0-0.0-0.0-0.0-0.101","716","","f","","","","","","","","","","","","","key","f","16.652184466019868","768","428","j","false","img/H_ambi40.png","朋友","same",""
"","","","","","html-keyboard-response","343","828954","0.0-10.0-0.0-0.0-0.0-1.101","null","<span style='color:red; font-size: 70px;'>错误! </span>","null","","","","","","","","","","","","","","","","","","","","","","","feedback_test"
"","","","","","psychophysics","344","831043","0.0-10.0-0.0-0.0-0.0-0.102","1088","","j","","","","","","","","","","","","","key","j","16.650290322580165","768","428","j","true","img/T_ambi40.png","をる","same",""
"","","","","","html-keyboard-response","345","831544","0.0-10.0-0.0-0.0-0.0-1.102","null","<span style='color:GreenYellow; font-size: 70px;'>正确! </span>","null","","","","","","","","","","","","","","","","","","","","","","","feedback_test"
"","","","","","psychophysics","346","833475","0.0-10.0-0.0-0.0-0.0-0.103","929","","f","","","","","","","","","","","","","key","f","16.650817391304702","768","428","f","true","img/H_ambi40.png","生人","same",""
"","","","","","html-keyboard-response","347","833977","0.0-10.0-0.0-0.0-0.0-1.103","null","<span style='color:GreenYellow; font-size: 70px;'>正确! </span>","null","","","","","","","","","","","","","","","","","","","","","","","feedback_test"
"","","","","","psychophysics","348","835962","0.0-10.0-0.0-0.0-0.0-0.104","983","","j","","","","","","","","","","","","","key","j","16.65186324786359","768","428","j","true","img/S_ambi40.png","生人","same",""
"","","","","","html-keyboard-response","349","836464","0.0-10.0-0.0-0.0-0.0-1.104","null","<span style='color:GreenYellow; font-size: 70px;'>正确! </span>","null","","","","","","","","","","","","","","","","","","","","","","","feedback_test"
"","","","","","psychophysics","350","838431","0.0-10.0-0.0-0.0-0.0-0.105","965","","f","","","","","","","","","","","","","key","f","16.648153846154116","768","428","j","false","img/C_ambi40.png","自我","same",""
"","","","","","html-keyboard-response","351","838933","0.0-10.0-0.0-0.0-0.0-1.105","null","<span style='color:red; font-size: 70px;'>错误! </span>","null","","","","","","","","","","","","","","","","","","","","","","","feedback_test"
"","","","","","psychophysics","352","840909","0.0-10.0-0.0-0.0-0.0-0.106","973","","f","","","","","","","","","","","","","key","f","16.649084745762256","768","428","f","true","img/C_ambi40.png","朋友","same",""
"","","","","","html-keyboard-response","353","841413","0.0-10.0-0.0-0.0-0.0-1.106","null","<span style='color:GreenYellow; font-size: 70px;'>正确! </span>","null","","","","","","","","","","","","","","","","","","","","","","","feedback_test"
"","","","","","psychophysics","354","843282","0.0-10.0-0.0-0.0-0.0-0.107","868","","f","","","","","","","","","","","","","key","f","16.650063063063122","768","428","f","true","img/C_ambi40.png","朋友","same",""
"","","","","","html-keyboard-response","355","843812","0.0-10.0-0.0-0.0-0.0-1.107","null","<span style='color:GreenYellow; font-size: 70px;'>正确! </span>","null","","","","","","","","","","","","","","","","","","","","","","","feedback_test"
"","","","","","html-keyboard-response","356","857180","0.0-10.0-0.0-0.0-1.0","13367","<style>.context{color:white; font-size: 35px; line-height:40px}</style>                          <div><p class='context'>您正确回答了94% 的试次。</p><p class='context'>您的平均反应时为882毫秒。</p><p class='context'>请按任意键进入休息</p></div>","j","","","","","","","","","","","","","","","","","","","","","","",""
"","","","","","html-button-response","357","920357","0.0-10.0-0.0-0.0-2.0","63167","
                    <p>您当前还剩余5组实验</p>
                    <p>现在是休息时间，当您结束休息后，您可以点击 结束休息 按钮 继续</p>
                    <p>建议休息时间还剩余<span id=""iii"">60</span>秒</p>","0","","","","","","","","","","","","","","","","","","","","","","",""
"","","","","","psychophysics","358","922385","0.0-10.0-0.0-0.0-0.1-0.108","1023","","j","","","","","","","","","","","","","key","j","16.651058333333154","768","428","j","true","img/T_ambi40.png","をる","same",""
"","","","","","html-keyboard-response","359","922887","0.0-10.0-0.0-0.0-0.1-1.108","null","<span style='color:GreenYellow; font-size: 70px;'>正确! </span>","null","","","","","","","","","","","","","","","","","","","","","","","feedback_test"
"","","","","","psychophysics","360","924710","0.0-10.0-0.0-0.0-0.1-0.109","821","","j","","","","","","","","","","","","","key","j","16.6531192660556","768","428","j","true","img/S_ambi40.png","朋友","same",""
"","","","","","html-keyboard-response","361","925214","0.0-10.0-0.0-0.0-0.1-1.109","null","<span style='color:GreenYellow; font-size: 70px;'>正确! </span>","null","","","","","","","","","","","","","","","","","","","","","","","feedback_test"
"","","","","","psychophysics","362","926832","0.0-10.0-0.0-0.0-0.1-0.110","608","","j","","","","","","","","","","","","","key","j","16.64937499999966","768","428","j","true","img/T_ambi40.png","をる","same",""
"","","","","","html-keyboard-response","363","927333","0.0-10.0-0.0-0.0-0.1-1.110","null","<span style='color:GreenYellow; font-size: 70px;'>正确! </span>","null","","","","","","","","","","","","","","","","","","","","","","","feedback_test"
"","","","","","psychophysics","364","929247","0.0-10.0-0.0-0.0-0.1-0.111","912","","j","","","","","","","","","","","","","key","j","16.650271929823997","768","428","j","true","img/H_ambi40.png","自我","same",""
"","","","","","html-keyboard-response","365","929748","0.0-10.0-0.0-0.0-0.1-1.111","null","<span style='color:GreenYellow; font-size: 70px;'>正确! </span>","null","","","","","","","","","","","","","","","","","","","","","","","feedback_test"
"","","","","","psychophysics","366","931391","0.0-10.0-0.0-0.0-0.1-0.112","640","","f","","","","","","","","","","","","","key","f","16.650448979592493","768","428","f","true","img/S_ambi40.png","自我","same",""
"","","","","","html-keyboard-response","367","931922","0.0-10.0-0.0-0.0-0.1-1.112","null","<span style='color:GreenYellow; font-size: 70px;'>正确! </span>","null","","","","","","","","","","","","","","","","","","","","","","","feedback_test"
"","","","","","psychophysics","368","933572","0.0-10.0-0.0-0.0-0.1-0.113","629","","f","","","","","","","","","","","","","key","f","16.65103061224467","768","428","f","true","img/C_ambi40.png","朋友","same",""
"","","","","","html-keyboard-response","369","934075","0.0-10.0-0.0-0.0-0.1-1.113","null","<span style='color:GreenYellow; font-size: 70px;'>正确! </span>","null","","","","","","","","","","","","","","","","","","","","","","","feedback_test"
"","","","","","psychophysics","370","935772","0.0-10.0-0.0-0.0-0.1-0.114","696","","j","","","","","","","","","","","","","key","j","16.649970297029675","768","428","j","true","img/C_ambi40.png","生人","same",""
"","","","","","html-keyboard-response","371","936294","0.0-10.0-0.0-0.0-0.1-1.114","null","<span style='color:GreenYellow; font-size: 70px;'>正确! </span>","null","","","","","","","","","","","","","","","","","","","","","","","feedback_test"
"","","","","","psychophysics","372","938068","0.0-10.0-0.0-0.0-0.1-0.115","772","","f","","","","","","","","","","","","","key","f","16.650219047619473","768","428","f","true","img/H_ambi40.png","生人","same",""
"","","","","","html-keyboard-response","373","938569","0.0-10.0-0.0-0.0-0.1-1.115","null","<span style='color:GreenYellow; font-size: 70px;'>正确! </span>","null","","","","","","","","","","","","","","","","","","","","","","","feedback_test"
"","","","","","psychophysics","374","940271","0.0-10.0-0.0-0.0-0.1-0.116","699","","j","","","","","","","","","","","","","key","j","16.64945544554543","768","428","j","true","img/H_ambi40.png","朋友","same",""
"","","","","","html-keyboard-response","375","940772","0.0-10.0-0.0-0.0-0.1-1.116","null","<span style='color:GreenYellow; font-size: 70px;'>正确! </span>","null","","","","","","","","","","","","","","","","","","","","","","","feedback_test"
"","","","","","psychophysics","376","942546","0.0-10.0-0.0-0.0-0.1-0.117","773","","f","","","","","","","","","","","","","key","f","16.6481904761899","768","428","f","true","img/C_ambi40.png","朋友","same",""
"","","","","","html-keyboard-response","377","943047","0.0-10.0-0.0-0.0-0.1-1.117","null","<span style='color:GreenYellow; font-size: 70px;'>正确! </span>","null","","","","","","","","","","","","","","","","","","","","","","","feedback_test"
"","","","","","psychophysics","378","945261","0.0-10.0-0.0-0.0-0.1-0.118","1211","","f","","","","","","","","","","","","","key","f","16.64930303030379","768","428","f","true","img/H_ambi40.png","生人","same",""
"","","","","","html-keyboard-response","379","945762","0.0-10.0-0.0-0.0-0.1-1.118","null","<span style='color:GreenYellow; font-size: 70px;'>正确! </span>","null","","","","","","","","","","","","","","","","","","","","","","","feedback_test"
"","","","","","psychophysics","380","947643","0.0-10.0-0.0-0.0-0.1-0.119","880","","j","","","","","","","","","","","","","key","j","16.65103571428543","768","428","j","true","img/S_ambi40.png","生人","same",""
"","","","","","html-keyboard-response","381","948145","0.0-10.0-0.0-0.0-0.1-1.119","null","<span style='color:GreenYellow; font-size: 70px;'>正确! </span>","null","","","","","","","","","","","","","","","","","","","","","","","feedback_test"
"","","","","","psychophysics","382","949775","0.0-10.0-0.0-0.0-0.1-0.120","625","","j","","","","","","","","","","","","","key","j","16.650247422680643","768","428","j","true","img/T_ambi40.png","をる","same",""
"","","","","","html-keyboard-response","383","950276","0.0-10.0-0.0-0.0-0.1-1.120","null","<span style='color:GreenYellow; font-size: 70px;'>正确! </span>","null","","","","","","","","","","","","","","","","","","","","","","","feedback_test"
"","","","","","psychophysics","384","952183","0.0-10.0-0.0-0.0-0.1-0.121","880","","f","","","","","","","","","","","","","key","f","16.652385964912053","768","428","f","true","img/H_ambi40.png","生人","same",""
"","","","","","html-keyboard-response","385","952688","0.0-10.0-0.0-0.0-0.1-1.121","null","<span style='color:GreenYellow; font-size: 70px;'>正确! </span>","null","","","","","","","","","","","","","","","","","","","","","","","feedback_test"
"","","","","","psychophysics","386","954438","0.0-10.0-0.0-0.0-0.1-0.122","749","","f","","","","","","","","","","","","","key","f","16.651278846153918","768","428","f","true","img/S_ambi40.png","自我","same",""
"","","","","","html-keyboard-response","387","954939","0.0-10.0-0.0-0.0-0.1-1.122","null","<span style='color:GreenYellow; font-size: 70px;'>正确! </span>","null","","","","","","","","","","","","","","","","","","","","","","","feedback_test"
"","","","","","psychophysics","388","956551","0.0-10.0-0.0-0.0-0.1-0.123","611","","f","","","","","","","","","","","","","key","f","16.652781250000164","768","428","f","true","img/C_ambi40.png","朋友","same",""
"","","","","","html-keyboard-response","389","957052","0.0-10.0-0.0-0.0-0.1-1.123","null","<span style='color:GreenYellow; font-size: 70px;'>正确! </span>","null","","","","","","","","","","","","","","","","","","","","","","","feedback_test"
"","","","","","psychophysics","390","958819","0.0-10.0-0.0-0.0-0.1-0.124","736","","f","","","","","","","","","","","","","key","f","16.6495142857145","768","428","f","true","img/S_ambi40.png","自我","same",""
"","","","","","html-keyboard-response","391","959320","0.0-10.0-0.0-0.0-0.1-1.124","null","<span style='color:GreenYellow; font-size: 70px;'>正确! </span>","null","","","","","","","","","","","","","","","","","","","","","","","feedback_test"
"","","","","","psychophysics","392","961340","0.0-10.0-0.0-0.0-0.1-0.125","1011","","j","","","","","","","","","","","","","key","j","16.64698333333363","768","428","j","true","img/C_ambi40.png","自我","same",""
"","","","","","html-keyboard-response","393","961844","0.0-10.0-0.0-0.0-0.1-1.125","null","<span style='color:GreenYellow; font-size: 70px;'>正确! </span>","null","","","","","","","","","","","","","","","","","","","","","","","feedback_test"
"","","","","","psychophysics","394","963832","0.0-10.0-0.0-0.0-0.1-0.126","986","","j","","","","","","","","","","","","","key","j","16.649711864407497","768","428","j","true","img/H_ambi40.png","朋友","same",""
"","","","","","html-keyboard-response","395","964334","0.0-10.0-0.0-0.0-0.1-1.126","null","<span style='color:GreenYellow; font-size: 70px;'>正确! </span>","null","","","","","","","","","","","","","","","","","","","","","","","feedback_test"
"","","","","","psychophysics","396","966160","0.0-10.0-0.0-0.0-0.1-0.127","817","","f","","","","","","","","","","","","","key","f","16.650694444443584","768","428","f","true","img/C_ambi40.png","朋友","same",""
"","","","","","html-keyboard-response","397","966661","0.0-10.0-0.0-0.0-0.1-1.127","null","<span style='color:GreenYellow; font-size: 70px;'>正确! </span>","null","","","","","","","","","","","","","","","","","","","","","","","feedback_test"
"","","","","","psychophysics","398","968359","0.0-10.0-0.0-0.0-0.1-0.128","696","","f","","","","","","","","","","","","","key","f","16.651613861385798","768","428","f","true","img/S_ambi40.png","自我","same",""
"","","","","","html-keyboard-response","399","968882","0.0-10.0-0.0-0.0-0.1-1.128","null","<span style='color:GreenYellow; font-size: 70px;'>正确! </span>","null","","","","","","","","","","","","","","","","","","","","","","","feedback_test"
"","","","","","psychophysics","400","970613","0.0-10.0-0.0-0.0-0.1-0.129","710","","f","","","","","","","","","","","","","key","f","16.64914563106762","768","428","f","true","img/S_ambi40.png","自我","same",""
"","","","","","html-keyboard-response","401","971118","0.0-10.0-0.0-0.0-0.1-1.129","null","<span style='color:GreenYellow; font-size: 70px;'>正确! </span>","null","","","","","","","","","","","","","","","","","","","","","","","feedback_test"
"","","","","","psychophysics","402","973257","0.0-10.0-0.0-0.0-0.1-0.130","1136","","f","","","","","","","","","","","","","key","f","16.65004724409435","768","428","f","true","img/H_ambi40.png","生人","same",""
"","","","","","html-keyboard-response","403","973760","0.0-10.0-0.0-0.0-0.1-1.130","null","<span style='color:GreenYellow; font-size: 70px;'>正确! </span>","null","","","","","","","","","","","","","","","","","","","","","","","feedback_test"
"","","","","","psychophysics","404","975389","0.0-10.0-0.0-0.0-0.1-0.131","626","","j","","","","","","","","","","","","","key","j","16.65054166666717","768","428","j","true","img/T_ambi40.png","をる","same",""
"","","","","","html-keyboard-response","405","975902","0.0-10.0-0.0-0.0-0.1-1.131","null","<span style='color:GreenYellow; font-size: 70px;'>正确! </span>","null","","","","","","","","","","","","","","","","","","","","","","","feedback_test"
"","","","","","psychophysics","406","977829","0.0-10.0-0.0-0.0-0.1-0.132","905","","f","","","","","","","","","","","","","key","f","16.651573913043325","768","428","f","true","img/H_ambi40.png","生人","same",""
"","","","","","html-keyboard-response","407","978330","0.0-10.0-0.0-0.0-0.1-1.132","null","<span style='color:GreenYellow; font-size: 70px;'>正确! </span>","null","","","","","","","","","","","","","","","","","","","","","","","feedback_test"
"","","","","","psychophysics","408","979983","0.0-10.0-0.0-0.0-0.1-0.133","652","","j","","","","","","","","","","","","","key","j","16.650367346939117","768","428","j","true","img/T_ambi40.png","をる","same",""
"","","","","","html-keyboard-response","409","980485","0.0-10.0-0.0-0.0-0.1-1.133","null","<span style='color:GreenYellow; font-size: 70px;'>正确! </span>","null","","","","","","","","","","","","","","","","","","","","","","","feedback_test"
"","","","","","psychophysics","410","982190","0.0-10.0-0.0-0.0-0.1-0.134","704","","j","","","","","","","","","","","","","key","j","16.65060396039499","768","428","j","true","img/T_ambi40.png","をる","same",""
"","","","","","html-keyboard-response","411","982692","0.0-10.0-0.0-0.0-0.1-1.134","null","<span style='color:GreenYellow; font-size: 70px;'>正确! </span>","null","","","","","","","","","","","","","","","","","","","","","","","feedback_test"
"","","","","","psychophysics","412","984582","0.0-10.0-0.0-0.0-0.1-0.135","879","","j","","","","","","","","","","","","","key","j","16.650696428570622","768","428","j","true","img/H_ambi40.png","自我","same",""
"","","","","","html-keyboard-response","413","985085","0.0-10.0-0.0-0.0-0.1-1.135","null","<span style='color:GreenYellow; font-size: 70px;'>正确! </span>","null","","","","","","","","","","","","","","","","","","","","","","","feedback_test"
"","","","","","psychophysics","414","986796","0.0-10.0-0.0-0.0-0.1-0.136","708","","f","","","","","","","","","","","","","key","f","16.64930392156798","768","428","f","true","img/C_ambi40.png","朋友","same",""
"","","","","","html-keyboard-response","415","987300","0.0-10.0-0.0-0.0-0.1-1.136","null","<span style='color:GreenYellow; font-size: 70px;'>正确! </span>","null","","","","","","","","","","","","","","","","","","","","","","","feedback_test"
"","","","","","psychophysics","416","989260","0.0-10.0-0.0-0.0-0.1-0.137","957","","j","","","","","","","","","","","","","key","j","16.650991379309463","768","428","j","true","img/S_ambi40.png","生人","same",""
"","","","","","html-keyboard-response","417","989762","0.0-10.0-0.0-0.0-0.1-1.137","null","<span style='color:GreenYellow; font-size: 70px;'>正确! </span>","null","","","","","","","","","","","","","","","","","","","","","","","feedback_test"
"","","","","","psychophysics","418","991627","0.0-10.0-0.0-0.0-0.1-0.138","843","","j","","","","","","","","","","","","","key","j","16.651369369370645","768","428","j","true","img/S_ambi40.png","朋友","same",""
"","","","","","html-keyboard-response","419","992132","0.0-10.0-0.0-0.0-0.1-1.138","null","<span style='color:GreenYellow; font-size: 70px;'>正确! </span>","null","","","","","","","","","","","","","","","","","","","","","","","feedback_test"
"","","","","","psychophysics","420","993929","0.0-10.0-0.0-0.0-0.1-0.139","796","","f","","","","","","","","","","","","","key","f","16.64083177570001","768","428","f","true","img/C_ambi40.png","朋友","same",""
"","","","","","html-keyboard-response","421","994432","0.0-10.0-0.0-0.0-0.1-1.139","null","<span style='color:GreenYellow; font-size: 70px;'>正确! </span>","null","","","","","","","","","","","","","","","","","","","","","","","feedback_test"
"","","","","","psychophysics","422","996099","0.0-10.0-0.0-0.0-0.1-0.140","664","","f","","","","","","","","","","","","","key","f","16.654303030303744","768","428","f","true","img/S_ambi40.png","自我","same",""
"","","","","","html-keyboard-response","423","996600","0.0-10.0-0.0-0.0-0.1-1.140","null","<span style='color:GreenYellow; font-size: 70px;'>正确! </span>","null","","","","","","","","","","","","","","","","","","","","","","","feedback_test"
"","","","","","psychophysics","424","998764","0.0-10.0-0.0-0.0-0.1-0.141","1141","","f","","","","","","","","","","","","","key","f","16.649132812501193","768","428","f","true","img/H_ambi40.png","生人","same",""
"","","","","","html-keyboard-response","425","999265","0.0-10.0-0.0-0.0-0.1-1.141","null","<span style='color:GreenYellow; font-size: 70px;'>正确! </span>","null","","","","","","","","","","","","","","","","","","","","","","","feedback_test"
"","","","","","psychophysics","426","1001289","0.0-10.0-0.0-0.0-0.1-0.142","1022","","j","","","","","","","","","","","","","key","j","16.64815833333414","768","428","j","true","img/C_ambi40.png","生人","same",""
"","","","","","html-keyboard-response","427","1001790","0.0-10.0-0.0-0.0-0.1-1.142","null","<span style='color:GreenYellow; font-size: 70px;'>正确! </span>","null","","","","","","","","","","","","","","","","","","","","","","","feedback_test"
"","","","","","psychophysics","428","1003926","0.0-10.0-0.0-0.0-0.1-0.143","1134","","j","","","","","","","","","","","","","key","j","16.651125984251735","768","428","j","true","img/C_ambi40.png","自我","same",""
"","","","","","html-keyboard-response","429","1004431","0.0-10.0-0.0-0.0-0.1-1.143","null","<span style='color:GreenYellow; font-size: 70px;'>正确! </span>","null","","","","","","","","","","","","","","","","","","","","","","","feedback_test"
"","","","","","psychophysics","430","1006191","0.0-10.0-0.0-0.0-0.1-0.144","757","","f","","","","","","","","","","","","","key","f","16.653480769229084","768","428","f","true","img/H_ambi40.png","生人","same",""
"","","","","","html-keyboard-response","431","1006694","0.0-10.0-0.0-0.0-0.1-1.144","null","<span style='color:GreenYellow; font-size: 70px;'>正确! </span>","null","","","","","","","","","","","","","","","","","","","","","","","feedback_test"
"","","","","","psychophysics","432","1008471","0.0-10.0-0.0-0.0-0.1-0.145","776","","f","","","","","","","","","","","","","key","f","16.649238095239603","768","428","f","true","img/C_ambi40.png","朋友","same",""
"","","","","","html-keyboard-response","433","1008992","0.0-10.0-0.0-0.0-0.1-1.145","null","<span style='color:GreenYellow; font-size: 70px;'>正确! </span>","null","","","","","","","","","","","","","","","","","","","","","","","feedback_test"
"","","","","","psychophysics","434","1010730","0.0-10.0-0.0-0.0-0.1-0.146","717","","f","","","","","","","","","","","","","key","f","16.646805825240875","768","428","f","true","img/H_ambi40.png","生人","same",""
"","","","","","html-keyboard-response","435","1011232","0.0-10.0-0.0-0.0-0.1-1.146","null","<span style='color:GreenYellow; font-size: 70px;'>正确! </span>","null","","","","","","","","","","","","","","","","","","","","","","","feedback_test"
"","","","","","psychophysics","436","1012880","0.0-10.0-0.0-0.0-0.1-0.147","646","","j","","","","","","","","","","","","","key","j","16.650448979591303","768","428","j","true","img/T_ambi40.png","をる","same",""
"","","","","","html-keyboard-response","437","1013381","0.0-10.0-0.0-0.0-0.1-1.147","null","<span style='color:GreenYellow; font-size: 70px;'>正确! </span>","null","","","","","","","","","","","","","","","","","","","","","","","feedback_test"
"","","","","","psychophysics","438","1015064","0.0-10.0-0.0-0.0-0.1-0.148","682","","j","","","","","","","","","","","","","key","j","16.650689999999013","768","428","j","true","img/T_ambi40.png","をる","same",""
"","","","","","html-keyboard-response","439","1015566","0.0-10.0-0.0-0.0-0.1-1.148","null","<span style='color:GreenYellow; font-size: 70px;'>正确! </span>","null","","","","","","","","","","","","","","","","","","","","","","","feedback_test"
"","","","","","psychophysics","440","1017950","0.0-10.0-0.0-0.0-0.1-0.149","1367","","j","","","","","","","","","","","","","key","j","16.652063380280826","768","428","j","true","img/H_ambi40.png","朋友","same",""
"","","","","","html-keyboard-response","441","1018453","0.0-10.0-0.0-0.0-0.1-1.149","null","<span style='color:GreenYellow; font-size: 70px;'>正确! </span>","null","","","","","","","","","","","","","","","","","","","","","","","feedback_test"
"","","","","","psychophysics","442","1020175","0.0-10.0-0.0-0.0-0.1-0.150","720","","j","","","","","","","","","","","","","key","j","16.65082352941253","768","428","j","true","img/T_ambi40.png","をる","same",""
