"success","timeout","failed_images","failed_audio","failed_video","trial_type","trial_index","time_elapsed","internal_node_id","rt","stimulus","response","value","item_width_mm","item_height_mm","item_width_px","px2mm","view_dist_mm","item_width_deg","px2deg","scale_factor","win_width_deg","win_height_deg","view_history","response_type","key_press","avg_frame_time","center_x","center_y","correct_response","correct","Image","word","condition","screen_id"
"true","false","[]","[]","[]","preload","0","530","0.0-0.0","","","","","","","","","","","","","","","","","","","","","","","","","",""
"","","","","","html-keyboard-response","1","57480","0.0-1.0","56948","
     <p>您好，欢迎参加本次实验。</p>
     <p>为充分保障您的权利，请确保您已经知晓并同意《参与实验同意书》以及《数据公开知情同意书》。</p>
     <p>如果您未见过上述内容，请咨询实验员。</p>
     <p>如果您选择继续实验，则表示您已经清楚两份知情同意书的内容并同意。</p>
     <p> <div style = ""color: green""><按任意键至下页></div> </p>
     ","v","","","","","","","","","","","","","","","","","","","","","","",""
"","","","","","html-keyboard-response","2","59074","0.0-2.0","1592","
     <p>本实验首先需要您填写一些基本个人信息。</p>
     <p> <div style = ""color: green""><按任意键至下页></div></p>
     ","v","","","","","","","","","","","","","","","","","","","","","","",""
"","","","","","call-function","3","59075","0.0-3.0-0.0","","","","","","","","","","","","","","","","","","","","","","","","","",""
"","","","","","survey-html-form","4","61403","0.0-3.0-1.0","2326","","{""Q0"":""6""}","","","","","","","","","","","","","","","","","","","","","","",""
"","","","","","html-button-response","5","62314","0.0-3.0-2.0","906","<p style = 'color : white'>您的性别</p>","1","","","","","","","","","","","","","","","","","","","","","","",""
"","","","","","survey-html-form","6","70574","0.0-3.0-3.0","8258","","{""Q0"":""2001""}","","","","","","","","","","","","","","","","","","","","","","",""
"","","","","","survey-html-form","7","73999","0.0-3.0-4.0","3422","","{""Q0"":""5""}","","","","","","","","","","","","","","","","","","","","","","",""
"","","","","","virtual-chinrest","8","187026","0.0-4.0","113022","","","","85.6","53.98","587.7974203355483","6.862069431971559","415.73","11.755948406710965","50","0.7519597478799435","25.06","15.18","","","","","","","","","","","",""
"true","","","","","fullscreen","9","190528","0.0-5.0","","","","","","","","","","","","","","","","","","","","","","","","","",""
"","","","","","instructions","10","251183","0.0-6.0","60653","","","","","","","","","","","","","","[{""page_index"":0,""viewing_time"":5464},{""page_index"":1,""viewing_time"":49370},{""page_index"":2,""viewing_time"":3374},{""page_index"":3,""viewing_time"":2445}]","","","","","","","","","","",""
"","","","","","psychophysics","11","253714","0.0-7.0-0.0","null","","null","","","","","","","","","","","","","key","null","17.007986301370046","654.848446999264","432.42421743079575","j","false","img/C_ambi40.png","朋友","prac",""
"","","","","","html-keyboard-response","12","254223","0.0-7.0-1.0","null","<span class='add_' style='color:yellow; font-size: 70px;'> 太慢! </span>","null","","","","","","","","","","","","","","","","","","","","","","","feedback_test"
"","","","","","psychophysics","13","255983","0.0-7.0-0.1","753","","f","","","","","","","","","","","","","key","f","16.667807692307598","654.848446999264","432.42421743079575","f","true","img/S_ambi40.png","朋友","prac",""
"","","","","","html-keyboard-response","14","256491","0.0-7.0-1.1","null","<span style='color:GreenYellow; font-size: 70px;'>正确! </span>","null","","","","","","","","","","","","","","","","","","","","","","","feedback_test"
"","","","","","psychophysics","15","258308","0.0-7.0-0.2","796","","f","","","","","","","","","","","","","key","f","16.786971962616875","654.848446999264","432.42421743079575","j","false","img/H_ambi40.png","自我","prac",""
"","","","","","html-keyboard-response","16","258813","0.0-7.0-1.2","null","<span style='color:red; font-size: 70px;'>错误! </span>","null","","","","","","","","","","","","","","","","","","","","","","","feedback_test"
"","","","","","psychophysics","17","260847","0.0-7.0-0.3","1032","","f","","","","","","","","","","","","","key","f","16.667208333333352","654.848446999264","432.42421743079575","f","true","img/T_ambi40.png","をる","prac",""
"","","","","","html-keyboard-response","18","261357","0.0-7.0-1.3","null","<span style='color:GreenYellow; font-size: 70px;'>正确! </span>","null","","","","","","","","","","","","","","","","","","","","","","","feedback_test"
"","","","","","psychophysics","19","263024","0.0-7.0-0.4","662","","j","","","","","","","","","","","","","key","j","16.83777551020422","654.848446999264","432.42421743079575","f","false","img/C_ambi40.png","自我","prac",""
"","","","","","html-keyboard-response","20","263543","0.0-7.0-1.4","null","<span style='color:red; font-size: 70px;'>错误! </span>","null","","","","","","","","","","","","","","","","","","","","","","","feedback_test"
"","","","","","psychophysics","21","265389","0.0-7.0-0.5","830","","j","","","","","","","","","","","","","key","j","16.667527272727405","654.848446999264","432.42421743079575","j","true","img/S_ambi40.png","自我","prac",""
"","","","","","html-keyboard-response","22","265899","0.0-7.0-1.5","null","<span style='color:GreenYellow; font-size: 70px;'>正确! </span>","null","","","","","","","","","","","","","","","","","","","","","","","feedback_test"
"","","","","","psychophysics","23","268414","0.0-7.0-0.6","null","","null","","","","","","","","","","","","","key","null","16.667253333333647","654.848446999264","432.42421743079575","j","false","img/S_ambi40.png","生人","prac",""
"","","","","","html-keyboard-response","24","268924","0.0-7.0-1.6","null","<span class='add_' style='color:yellow; font-size: 70px;'> 太慢! </span>","null","","","","","","","","","","","","","","","","","","","","","","","feedback_test"
"","","","","","psychophysics","25","271057","0.0-7.0-0.7","1127","","j","","","","","","","","","","","","","key","j","16.667173228346225","654.848446999264","432.42421743079575","f","false","img/S_ambi40.png","朋友","prac",""
"","","","","","html-keyboard-response","26","271571","0.0-7.0-1.7","null","<span style='color:red; font-size: 70px;'>错误! </span>","null","","","","","","","","","","","","","","","","","","","","","","","feedback_test"
"","","","","","psychophysics","27","273792","0.0-7.0-0.8","1212","","j","","","","","","","","","","","","","key","j","16.667356060606174","654.848446999264","432.42421743079575","f","false","img/T_ambi40.png","をる","prac",""
"","","","","","html-keyboard-response","28","274301","0.0-7.0-1.8","null","<span style='color:red; font-size: 70px;'>错误! </span>","null","","","","","","","","","","","","","","","","","","","","","","","feedback_test"
"","","","","","psychophysics","29","276377","0.0-7.0-0.9","1072","","f","","","","","","","","","","","","","key","f","16.667024390243856","654.848446999264","432.42421743079575","j","false","img/H_ambi40.png","朋友","prac",""
"","","","","","html-keyboard-response","30","276892","0.0-7.0-1.9","null","<span style='color:red; font-size: 70px;'>错误! </span>","null","","","","","","","","","","","","","","","","","","","","","","","feedback_test"
"","","","","","psychophysics","31","279169","0.0-7.0-0.10","1273","","f","","","","","","","","","","","","","key","f","16.664066176470335","654.848446999264","432.42421743079575","f","true","img/H_ambi40.png","生人","prac",""
"","","","","","html-keyboard-response","32","279672","0.0-7.0-1.10","null","<span style='color:GreenYellow; font-size: 70px;'>正确! </span>","null","","","","","","","","","","","","","","","","","","","","","","","feedback_test"
"","","","","","psychophysics","33","281415","0.0-7.0-0.11","736","","j","","","","","","","","","","","","","key","j","16.667514563106945","654.848446999264","432.42421743079575","f","false","img/C_ambi40.png","自我","prac",""
"","","","","","html-keyboard-response","34","281931","0.0-7.0-1.11","null","<span style='color:red; font-size: 70px;'>错误! </span>","null","","","","","","","","","","","","","","","","","","","","","","","feedback_test"
"","","","","","psychophysics","35","284192","0.0-7.0-0.12","1249","","j","","","","","","","","","","","","","key","j","16.667335820895595","654.848446999264","432.42421743079575","f","false","img/T_ambi40.png","をる","prac",""
"","","","","","html-keyboard-response","36","284703","0.0-7.0-1.12","null","<span style='color:red; font-size: 70px;'>错误! </span>","null","","","","","","","","","","","","","","","","","","","","","","","feedback_test"
"","","","","","psychophysics","37","286727","0.0-7.0-0.13","1016","","f","","","","","","","","","","","","","key","f","16.66740833333315","654.848446999264","432.42421743079575","f","true","img/T_ambi40.png","をる","prac",""
"","","","","","html-keyboard-response","38","287231","0.0-7.0-1.13","null","<span style='color:GreenYellow; font-size: 70px;'>正确! </span>","null","","","","","","","","","","","","","","","","","","","","","","","feedback_test"
"","","","","","psychophysics","39","289652","0.0-7.0-0.14","1412","","f","","","","","","","","","","","","","key","f","16.66735416666658","654.848446999264","432.42421743079575","j","false","img/C_ambi40.png","生人","prac",""
"","","","","","html-keyboard-response","40","290155","0.0-7.0-1.14","null","<span style='color:red; font-size: 70px;'>错误! </span>","null","","","","","","","","","","","","","","","","","","","","","","","feedback_test"
"","","","","","psychophysics","41","292004","0.0-7.0-0.15","843","","f","","","","","","","","","","","","","key","f","16.667609090908876","654.848446999264","432.42421743079575","f","true","img/H_ambi40.png","生人","prac",""
"","","","","","html-keyboard-response","42","292516","0.0-7.0-1.15","null","<span style='color:GreenYellow; font-size: 70px;'>正确! </span>","null","","","","","","","","","","","","","","","","","","","","","","","feedback_test"
"","","","","","psychophysics","43","294306","0.0-7.0-0.16","787","","j","","","","","","","","","","","","","key","j","16.66741509433948","654.848446999264","432.42421743079575","f","false","img/S_ambi40.png","朋友","prac",""
"","","","","","html-keyboard-response","44","294818","0.0-7.0-1.16","null","<span style='color:red; font-size: 70px;'>错误! </span>","null","","","","","","","","","","","","","","","","","","","","","","","feedback_test"
"","","","","","psychophysics","45","297347","0.0-7.0-0.17","null","","null","","","","","","","","","","","","","key","null","16.66714666666657","654.848446999264","432.42421743079575","f","false","img/H_ambi40.png","生人","prac",""
"","","","","","html-keyboard-response","46","297863","0.0-7.0-1.17","null","<span class='add_' style='color:yellow; font-size: 70px;'> 太慢! </span>","null","","","","","","","","","","","","","","","","","","","","","","","feedback_test"
"","","","","","psychophysics","47","299935","0.0-7.0-0.18","1070","","f","","","","","","","","","","","","","key","f","16.6669593495932","654.848446999264","432.42421743079575","j","false","img/C_ambi40.png","生人","prac",""
"","","","","","html-keyboard-response","48","300450","0.0-7.0-1.18","null","<span style='color:red; font-size: 70px;'>错误! </span>","null","","","","","","","","","","","","","","","","","","","","","","","feedback_test"
"","","","","","psychophysics","49","302505","0.0-7.0-0.19","1042","","j","","","","","","","","","","","","","key","j","16.66723770491844","654.848446999264","432.42421743079575","j","true","img/S_ambi40.png","生人","prac",""
"","","","","","html-keyboard-response","50","303028","0.0-7.0-1.19","null","<span style='color:GreenYellow; font-size: 70px;'>正确! </span>","null","","","","","","","","","","","","","","","","","","","","","","","feedback_test"
"","","","","","psychophysics","51","304935","0.0-7.0-0.20","898","","j","","","","","","","","","","","","","key","j","16.66850442477848","654.848446999264","432.42421743079575","f","false","img/C_ambi40.png","自我","prac",""
"","","","","","html-keyboard-response","52","305438","0.0-7.0-1.20","null","<span style='color:red; font-size: 70px;'>错误! </span>","null","","","","","","","","","","","","","","","","","","","","","","","feedback_test"
"","","","","","psychophysics","53","307604","0.0-7.0-0.21","1162","","j","","","","","","","","","","","","","key","j","16.66727131782975","654.848446999264","432.42421743079575","j","true","img/H_ambi40.png","朋友","prac",""
"","","","","","html-keyboard-response","54","308108","0.0-7.0-1.21","null","<span style='color:GreenYellow; font-size: 70px;'>正确! </span>","null","","","","","","","","","","","","","","","","","","","","","","","feedback_test"
"","","","","","psychophysics","55","309800","0.0-7.0-0.22","685","","f","","","","","","","","","","","","","key","f","16.647609999999986","654.848446999264","432.42421743079575","f","true","img/C_ambi40.png","自我","prac",""
"","","","","","html-keyboard-response","56","310308","0.0-7.0-1.22","null","<span style='color:GreenYellow; font-size: 70px;'>正确! </span>","null","","","","","","","","","","","","","","","","","","","","","","","feedback_test"
"","","","","","psychophysics","57","312362","0.0-7.0-0.23","1030","","j","","","","","","","","","","","","","key","j","16.6668770491803","654.848446999264","432.42421743079575","j","true","img/S_ambi40.png","自我","prac",""
"","","","","","html-keyboard-response","58","312869","0.0-7.0-1.23","null","<span style='color:GreenYellow; font-size: 70px;'>正确! </span>","null","","","","","","","","","","","","","","","","","","","","","","","feedback_test"
"","","","","","psychophysics","59","315208","0.0-7.0-0.24","1335","","f","","","","","","","","","","","","","key","f","16.66634532374124","654.848446999264","432.42421743079575","f","true","img/H_ambi40.png","生人","prac",""
"","","","","","html-keyboard-response","60","315716","0.0-7.0-1.24","null","<span style='color:GreenYellow; font-size: 70px;'>正确! </span>","null","","","","","","","","","","","","","","","","","","","","","","","feedback_test"
"","","","","","psychophysics","61","317814","0.0-7.0-0.25","1088","","f","","","","","","","","","","","","","key","f","16.667112903225878","654.848446999264","432.42421743079575","f","true","img/S_ambi40.png","朋友","prac",""
"","","","","","html-keyboard-response","62","318326","0.0-7.0-1.25","null","<span style='color:GreenYellow; font-size: 70px;'>正确! </span>","null","","","","","","","","","","","","","","","","","","","","","","","feedback_test"
"","","","","","psychophysics","63","320161","0.0-7.0-0.26","831","","j","","","","","","","","","","","","","key","j","16.667385321100873","654.848446999264","432.42421743079575","j","true","img/C_ambi40.png","朋友","prac",""
"","","","","","html-keyboard-response","64","320668","0.0-7.0-1.26","null","<span style='color:GreenYellow; font-size: 70px;'>正确! </span>","null","","","","","","","","","","","","","","","","","","","","","","","feedback_test"
"","","","","","psychophysics","65","322504","0.0-7.0-0.27","832","","f","","","","","","","","","","","","","key","f","16.667027522935832","654.848446999264","432.42421743079575","f","true","img/T_ambi40.png","をる","prac",""
"","","","","","html-keyboard-response","66","323007","0.0-7.0-1.27","null","<span style='color:GreenYellow; font-size: 70px;'>正确! </span>","null","","","","","","","","","","","","","","","","","","","","","","","feedback_test"
"","","","","","psychophysics","67","324787","0.0-7.0-0.28","759","","f","","","","","","","","","","","","","key","f","16.66783962264176","654.848446999264","432.42421743079575","f","true","img/T_ambi40.png","をる","prac",""
"","","","","","html-keyboard-response","68","325289","0.0-7.0-1.28","null","<span style='color:GreenYellow; font-size: 70px;'>正确! </span>","null","","","","","","","","","","","","","","","","","","","","","","","feedback_test"
"","","","","","psychophysics","69","327084","0.0-7.0-0.29","791","","f","","","","","","","","","","","","","key","f","16.66697196261718","654.848446999264","432.42421743079575","f","true","img/T_ambi40.png","をる","prac",""
"","","","","","html-keyboard-response","70","327601","0.0-7.0-1.29","null","<span style='color:GreenYellow; font-size: 70px;'>正确! </span>","null","","","","","","","","","","","","","","","","","","","","","","","feedback_test"
"","","","","","psychophysics","71","329436","0.0-7.0-0.30","833","","j","","","","","","","","","","","","","key","j","16.665743119266512","654.848446999264","432.42421743079575","j","true","img/H_ambi40.png","自我","prac",""
"","","","","","html-keyboard-response","72","329968","0.0-7.0-1.30","null","<span style='color:GreenYellow; font-size: 70px;'>正确! </span>","null","","","","","","","","","","","","","","","","","","","","","","","feedback_test"
"","","","","","psychophysics","73","331709","0.0-7.0-0.31","728","","f","","","","","","","","","","","","","key","f","16.667660194175042","654.848446999264","432.42421743079575","f","true","img/T_ambi40.png","をる","prac",""
"","","","","","html-keyboard-response","74","332211","0.0-7.0-1.31","null","<span style='color:GreenYellow; font-size: 70px;'>正确! </span>","null","","","","","","","","","","","","","","","","","","","","","","","feedback_test"
"","","","","","psychophysics","75","333867","0.0-8.0-0.0-0.0","653","","j","","","","","","","","","","","","","key","j","16.66715306122443","654.848446999264","432.42421743079575","j","true","img/C_ambi40.png","生人","prac",""
"","","","","","html-keyboard-response","76","334380","0.0-8.0-0.0-1.0","null","<span style='color:GreenYellow; font-size: 70px;'>正确! </span>","null","","","","","","","","","","","","","","","","","","","","","","","feedback_test"
"","","","","","psychophysics","77","336337","0.0-8.0-0.0-0.1","955","","j","","","","","","","","","","","","","key","j","16.666129310344896","654.848446999264","432.42421743079575","j","true","img/C_ambi40.png","朋友","prac",""
"","","","","","html-keyboard-response","78","336872","0.0-8.0-0.0-1.1","null","<span style='color:GreenYellow; font-size: 70px;'>正确! </span>","null","","","","","","","","","","","","","","","","","","","","","","","feedback_test"
"","","","","","psychophysics","79","338988","0.0-8.0-0.0-0.2","1107","","j","","","","","","","","","","","","","key","j","16.655238095238076","654.848446999264","432.42421743079575","f","false","img/S_ambi40.png","朋友","prac",""
"","","","","","html-keyboard-response","80","339492","0.0-8.0-0.0-1.2","null","<span style='color:red; font-size: 70px;'>错误! </span>","null","","","","","","","","","","","","","","","","","","","","","","","feedback_test"
"","","","","","psychophysics","81","341218","0.0-8.0-0.0-0.3","721","","f","","","","","","","","","","","","","key","f","16.66739805825213","654.848446999264","432.42421743079575","f","true","img/C_ambi40.png","自我","prac",""
"","","","","","html-keyboard-response","82","341722","0.0-8.0-0.0-1.3","null","<span style='color:GreenYellow; font-size: 70px;'>正确! </span>","null","","","","","","","","","","","","","","","","","","","","","","","feedback_test"
"","","","","","psychophysics","83","343460","0.0-8.0-0.0-0.4","731","","f","","","","","","","","","","","","","key","f","16.66683495145639","654.848446999264","432.42421743079575","f","true","img/T_ambi40.png","をる","prac",""
"","","","","","html-keyboard-response","84","343974","0.0-8.0-0.0-1.4","null","<span style='color:GreenYellow; font-size: 70px;'>正确! </span>","null","","","","","","","","","","","","","","","","","","","","","","","feedback_test"
"","","","","","psychophysics","85","345612","0.0-8.0-0.0-0.5","614","","f","","","","","","","","","","","","","key","f","16.667412371134034","654.848446999264","432.42421743079575","f","true","img/C_ambi40.png","自我","prac",""
"","","","","","html-keyboard-response","86","346127","0.0-8.0-0.0-1.5","null","<span style='color:GreenYellow; font-size: 70px;'>正确! </span>","null","","","","","","","","","","","","","","","","","","","","","","","feedback_test"
"","","","","","psychophysics","87","347946","0.0-8.0-0.0-0.6","815","","f","","","","","","","","","","","","","key","f","16.660685185185113","654.848446999264","432.42421743079575","f","true","img/T_ambi40.png","をる","prac",""
"","","","","","html-keyboard-response","88","348452","0.0-8.0-0.0-1.6","null","<span style='color:GreenYellow; font-size: 70px;'>正确! </span>","null","","","","","","","","","","","","","","","","","","","","","","","feedback_test"
"","","","","","psychophysics","89","350244","0.0-8.0-0.0-0.7","783","","f","","","","","","","","","","","","","key","f","16.667849056603924","654.848446999264","432.42421743079575","f","true","img/S_ambi40.png","朋友","prac",""
"","","","","","html-keyboard-response","90","350752","0.0-8.0-0.0-1.7","null","<span style='color:GreenYellow; font-size: 70px;'>正确! </span>","null","","","","","","","","","","","","","","","","","","","","","","","feedback_test"
"","","","","","psychophysics","91","352521","0.0-8.0-0.0-0.8","748","","f","","","","","","","","","","","","","key","f","16.666657142857243","654.848446999264","432.42421743079575","j","false","img/S_ambi40.png","生人","prac",""
"","","","","","html-keyboard-response","92","353027","0.0-8.0-0.0-1.8","null","<span style='color:red; font-size: 70px;'>错误! </span>","null","","","","","","","","","","","","","","","","","","","","","","","feedback_test"
"","","","","","psychophysics","93","354856","0.0-8.0-0.0-0.9","825","","j","","","","","","","","","","","","","key","j","16.667110091743353","654.848446999264","432.42421743079575","j","true","img/H_ambi40.png","朋友","prac",""
"","","","","","html-keyboard-response","94","355366","0.0-8.0-0.0-1.9","null","<span style='color:GreenYellow; font-size: 70px;'>正确! </span>","null","","","","","","","","","","","","","","","","","","","","","","","feedback_test"
"","","","","","psychophysics","95","357104","0.0-8.0-0.0-0.10","733","","f","","","","","","","","","","","","","key","f","16.830960784314026","654.848446999264","432.42421743079575","j","false","img/H_ambi40.png","自我","prac",""
"","","","","","html-keyboard-response","96","357628","0.0-8.0-0.0-1.10","null","<span style='color:red; font-size: 70px;'>错误! </span>","null","","","","","","","","","","","","","","","","","","","","","","","feedback_test"
"","","","","","psychophysics","97","359707","0.0-8.0-0.0-0.11","1061","","j","","","","","","","","","","","","","key","j","16.667637096774282","654.848446999264","432.42421743079575","f","false","img/H_ambi40.png","生人","prac",""
"","","","","","html-keyboard-response","98","360224","0.0-8.0-0.0-1.11","null","<span style='color:red; font-size: 70px;'>错误! </span>","null","","","","","","","","","","","","","","","","","","","","","","","feedback_test"
"","","","","","psychophysics","99","362696","0.0-8.0-0.0-0.12","1465","","j","","","","","","","","","","","","","key","j","16.77769863013695","654.848446999264","432.42421743079575","f","false","img/H_ambi40.png","生人","prac",""
"","","","","","html-keyboard-response","100","363206","0.0-8.0-0.0-1.12","null","<span style='color:red; font-size: 70px;'>错误! </span>","null","","","","","","","","","","","","","","","","","","","","","","","feedback_test"
"","","","","","psychophysics","101","364985","0.0-8.0-0.0-0.13","776","","f","","","","","","","","","","","","","key","f","16.66694339622638","654.848446999264","432.42421743079575","f","true","img/T_ambi40.png","をる","prac",""
"","","","","","html-keyboard-response","102","365500","0.0-8.0-0.0-1.13","null","<span style='color:GreenYellow; font-size: 70px;'>正确! </span>","null","","","","","","","","","","","","","","","","","","","","","","","feedback_test"
"","","","","","psychophysics","103","367181","0.0-8.0-0.0-0.14","671","","f","","","","","","","","","","","","","key","f","16.667121212121046","654.848446999264","432.42421743079575","f","true","img/T_ambi40.png","をる","prac",""
"","","","","","html-keyboard-response","104","367699","0.0-8.0-0.0-1.14","null","<span style='color:GreenYellow; font-size: 70px;'>正确! </span>","null","","","","","","","","","","","","","","","","","","","","","","","feedback_test"
"","","","","","psychophysics","105","369505","0.0-8.0-0.0-0.15","804","","j","","","","","","","","","","","","","key","j","16.66668224299085","654.848446999264","432.42421743079575","j","true","img/S_ambi40.png","自我","prac",""
"","","","","","html-keyboard-response","106","370021","0.0-8.0-0.0-1.15","null","<span style='color:GreenYellow; font-size: 70px;'>正确! </span>","null","","","","","","","","","","","","","","","","","","","","","","","feedback_test"
"","","","","","psychophysics","107","372243","0.0-8.0-0.0-0.16","1212","","f","","","","","","","","","","","","","key","f","16.667060606060357","654.848446999264","432.42421743079575","f","true","img/S_ambi40.png","朋友","prac",""
"","","","","","html-keyboard-response","108","372755","0.0-8.0-0.0-1.16","null","<span style='color:GreenYellow; font-size: 70px;'>正确! </span>","null","","","","","","","","","","","","","","","","","","","","","","","feedback_test"
"","","","","","psychophysics","109","374402","0.0-8.0-0.0-0.17","638","","f","","","","","","","","","","","","","key","f","16.668123711340403","654.848446999264","432.42421743079575","f","true","img/S_ambi40.png","朋友","prac",""
"","","","","","html-keyboard-response","110","374918","0.0-8.0-0.0-1.17","null","<span style='color:GreenYellow; font-size: 70px;'>正确! </span>","null","","","","","","","","","","","","","","","","","","","","","","","feedback_test"
"","","","","","psychophysics","111","376827","0.0-8.0-0.0-0.18","895","","j","","","","","","","","","","","","","key","j","16.668734513274167","654.848446999264","432.42421743079575","j","true","img/C_ambi40.png","朋友","prac",""
"","","","","","html-keyboard-response","112","377367","0.0-8.0-0.0-1.18","null","<span style='color:GreenYellow; font-size: 70px;'>正确! </span>","null","","","","","","","","","","","","","","","","","","","","","","","feedback_test"
"","","","","","psychophysics","113","379608","0.0-8.0-0.0-0.19","1226","","f","","","","","","","","","","","","","key","f","16.66557142857149","654.848446999264","432.42421743079575","f","true","img/T_ambi40.png","をる","prac",""
"","","","","","html-keyboard-response","114","380124","0.0-8.0-0.0-1.19","null","<span style='color:GreenYellow; font-size: 70px;'>正确! </span>","null","","","","","","","","","","","","","","","","","","","","","","","feedback_test"
"","","","","","psychophysics","115","382025","0.0-8.0-0.0-0.20","893","","f","","","","","","","","","","","","","key","f","16.667345132743137","654.848446999264","432.42421743079575","f","true","img/H_ambi40.png","生人","prac",""
"","","","","","html-keyboard-response","116","382537","0.0-8.0-0.0-1.20","null","<span style='color:GreenYellow; font-size: 70px;'>正确! </span>","null","","","","","","","","","","","","","","","","","","","","","","","feedback_test"
"","","","","","psychophysics","117","384274","0.0-8.0-0.0-0.21","734","","j","","","","","","","","","","","","","key","j","16.66799029126171","654.848446999264","432.42421743079575","j","true","img/C_ambi40.png","生人","prac",""
"","","","","","html-keyboard-response","118","384812","0.0-8.0-0.0-1.21","null","<span style='color:GreenYellow; font-size: 70px;'>正确! </span>","null","","","","","","","","","","","","","","","","","","","","","","","feedback_test"
"","","","","","psychophysics","119","386416","0.0-8.0-0.0-0.22","598","","f","","","","","","","","","","","","","key","f","16.66723157894724","654.848446999264","432.42421743079575","f","true","img/C_ambi40.png","自我","prac",""
"","","","","","html-keyboard-response","120","386931","0.0-8.0-0.0-1.22","null","<span style='color:GreenYellow; font-size: 70px;'>正确! </span>","null","","","","","","","","","","","","","","","","","","","","","","","feedback_test"
"","","","","","psychophysics","121","388509","0.0-8.0-0.0-0.23","576","","f","","","","","","","","","","","","","key","f","16.66707526881721","654.848446999264","432.42421743079575","f","true","img/T_ambi40.png","をる","prac",""
"","","","","","html-keyboard-response","122","389018","0.0-8.0-0.0-1.23","null","<span style='color:GreenYellow; font-size: 70px;'>正确! </span>","null","","","","","","","","","","","","","","","","","","","","","","","feedback_test"
"","","","","","psychophysics","123","391008","0.0-8.0-0.0-0.24","976","","f","","","","","","","","","","","","","key","f","16.667211864407026","654.848446999264","432.42421743079575","j","false","img/H_ambi40.png","朋友","prac",""
"","","","","","html-keyboard-response","124","391527","0.0-8.0-0.0-1.24","null","<span style='color:red; font-size: 70px;'>错误! </span>","null","","","","","","","","","","","","","","","","","","","","","","","feedback_test"
"","","","","","psychophysics","125","393456","0.0-8.0-0.0-0.25","914","","j","","","","","","","","","","","","","key","j","16.813543859649176","654.848446999264","432.42421743079575","j","true","img/S_ambi40.png","自我","prac",""
"","","","","","html-keyboard-response","126","393968","0.0-8.0-0.0-1.25","null","<span style='color:GreenYellow; font-size: 70px;'>正确! </span>","null","","","","","","","","","","","","","","","","","","","","","","","feedback_test"
"","","","","","psychophysics","127","395921","0.0-8.0-0.0-0.26","941","","f","","","","","","","","","","","","","key","f","16.667594827586136","654.848446999264","432.42421743079575","f","true","img/H_ambi40.png","生人","prac",""
"","","","","","html-keyboard-response","128","396427","0.0-8.0-0.0-1.26","null","<span style='color:GreenYellow; font-size: 70px;'>正确! </span>","null","","","","","","","","","","","","","","","","","","","","","","","feedback_test"
"","","","","","psychophysics","129","398420","0.0-8.0-0.0-0.27","989","","j","","","","","","","","","","","","","key","j","16.667579831932613","654.848446999264","432.42421743079575","j","true","img/S_ambi40.png","生人","prac",""
"","","","","","html-keyboard-response","130","398930","0.0-8.0-0.0-1.27","null","<span style='color:GreenYellow; font-size: 70px;'>正确! </span>","null","","","","","","","","","","","","","","","","","","","","","","","feedback_test"
"","","","","","psychophysics","131","400471","0.0-8.0-0.0-0.28","539","","f","","","","","","","","","","","","","key","f","16.667358695652144","654.848446999264","432.42421743079575","f","true","img/C_ambi40.png","自我","prac",""
"","","","","","html-keyboard-response","132","400980","0.0-8.0-0.0-1.28","null","<span style='color:GreenYellow; font-size: 70px;'>正确! </span>","null","","","","","","","","","","","","","","","","","","","","","","","feedback_test"
"","","","","","psychophysics","133","402751","0.0-8.0-0.0-0.29","769","","j","","","","","","","","","","","","","key","j","16.667257142856915","654.848446999264","432.42421743079575","j","true","img/H_ambi40.png","自我","prac",""
"","","","","","html-keyboard-response","134","403267","0.0-8.0-0.0-1.29","null","<span style='color:GreenYellow; font-size: 70px;'>正确! </span>","null","","","","","","","","","","","","","","","","","","","","","","","feedback_test"
"","","","","","psychophysics","135","404916","0.0-8.0-0.0-0.30","617","","f","","","","","","","","","","","","","key","f","16.667123711340313","654.848446999264","432.42421743079575","f","true","img/T_ambi40.png","をる","prac",""
"","","","","","html-keyboard-response","136","405432","0.0-8.0-0.0-1.30","null","<span style='color:GreenYellow; font-size: 70px;'>正确! </span>","null","","","","","","","","","","","","","","","","","","","","","","","feedback_test"
"","","","","","psychophysics","137","407224","0.0-8.0-0.0-0.31","787","","f","","","","","","","","","","","","","key","f","16.66716037735833","654.848446999264","432.42421743079575","f","true","img/T_ambi40.png","をる","prac",""
"","","","","","html-keyboard-response","138","407730","0.0-8.0-0.0-1.31","null","<span style='color:GreenYellow; font-size: 70px;'>正确! </span>","null","","","","","","","","","","","","","","","","","","","","","","","feedback_test"
"","","","","","html-keyboard-response","139","415198","0.0-9.0","7460","<style>.context{color:white; font-size: 35px; line-height:40px}</style>                          <div><p class='context'>您正确回答了81% 的试次。</p ><p class='context'>您的平均反应时为795毫秒。</p ><p class='context'>恭喜您完成练习。按任意键进入正式实验。</p ><p class='footer' style='font-size: 35px; line-height:40px;'>请在进入正式实验实验之前将您的<span style='color: lightgreen;'>食指</span>放在电脑键盘的相应键位上进行按键。</p >"," ","","","","","","","","","","","","","","","","","","","","","","",""
"","","","","","psychophysics","140","416741","0.0-10.0-0.0-0.0-0.0-0.0","528","","f","","","","","","","","","","","","","key","f","16.667483516483298","654.848446999264","432.42421743079575","f","true","img/C_ambi40.png","自我","same",""
"","","","","","html-keyboard-response","141","417253","0.0-10.0-0.0-0.0-0.0-1.0","null","<span style='color:GreenYellow; font-size: 70px;'>正确! </span>","null","","","","","","","","","","","","","","","","","","","","","","","feedback_test"
"","","","","","psychophysics","142","419017","0.0-10.0-0.0-0.0-0.0-0.1","752","","j","","","","","","","","","","","","","key","j","16.6672307692307","654.848446999264","432.42421743079575","j","true","img/C_ambi40.png","朋友","same",""
"","","","","","html-keyboard-response","143","419523","0.0-10.0-0.0-0.0-0.0-1.1","null","<span style='color:GreenYellow; font-size: 70px;'>正确! </span>","null","","","","","","","","","","","","","","","","","","","","","","","feedback_test"
"","","","","","psychophysics","144","421243","0.0-10.0-0.0-0.0-0.0-0.2","713","","j","","","","","","","","","","","","","key","j","16.66670588235252","654.848446999264","432.42421743079575","j","true","img/H_ambi40.png","自我","same",""
"","","","","","html-keyboard-response","145","421753","0.0-10.0-0.0-0.0-0.0-1.2","null","<span style='color:GreenYellow; font-size: 70px;'>正确! </span>","null","","","","","","","","","","","","","","","","","","","","","","","feedback_test"
"","","","","","psychophysics","146","423375","0.0-10.0-0.0-0.0-0.0-0.3","611","","f","","","","","","","","","","","","","key","f","16.667031249999734","654.848446999264","432.42421743079575","f","true","img/T_ambi40.png","をる","same",""
"","","","","","html-keyboard-response","147","423883","0.0-10.0-0.0-0.0-0.0-1.3","null","<span style='color:GreenYellow; font-size: 70px;'>正确! </span>","null","","","","","","","","","","","","","","","","","","","","","","","feedback_test"
"","","","","","psychophysics","148","425625","0.0-10.0-0.0-0.0-0.0-0.4","739","","j","","","","","","","","","","","","","key","j","16.667436893203735","654.848446999264","432.42421743079575","j","true","img/H_ambi40.png","自我","same",""
"","","","","","html-keyboard-response","149","426135","0.0-10.0-0.0-0.0-0.0-1.4","null","<span style='color:GreenYellow; font-size: 70px;'>正确! </span>","null","","","","","","","","","","","","","","","","","","","","","","","feedback_test"
"","","","","","psychophysics","150","427788","0.0-10.0-0.0-0.0-0.0-0.5","630","","j","","","","","","","","","","","","","key","j","16.667316326530585","654.848446999264","432.42421743079575","j","true","img/S_ambi40.png","自我","same",""
"","","","","","html-keyboard-response","151","428302","0.0-10.0-0.0-0.0-0.0-1.5","null","<span style='color:GreenYellow; font-size: 70px;'>正确! </span>","null","","","","","","","","","","","","","","","","","","","","","","","feedback_test"
"","","","","","psychophysics","152","429984","0.0-10.0-0.0-0.0-0.0-0.6","675","","f","","","","","","","","","","","","","key","f","16.666747474747197","654.848446999264","432.42421743079575","f","true","img/T_ambi40.png","をる","same",""
"","","","","","html-keyboard-response","153","430488","0.0-10.0-0.0-0.0-0.0-1.6","null","<span style='color:GreenYellow; font-size: 70px;'>正确! </span>","null","","","","","","","","","","","","","","","","","","","","","","","feedback_test"
"","","","","","psychophysics","154","432199","0.0-10.0-0.0-0.0-0.0-0.7","699","","j","","","","","","","","","","","","","key","j","16.666376237623798","654.848446999264","432.42421743079575","f","false","img/S_ambi40.png","朋友","same",""
"","","","","","html-keyboard-response","155","432712","0.0-10.0-0.0-0.0-0.0-1.7","null","<span style='color:red; font-size: 70px;'>错误! </span>","null","","","","","","","","","","","","","","","","","","","","","","","feedback_test"
"","","","","","psychophysics","156","434385","0.0-10.0-0.0-0.0-0.0-0.8","652","","j","","","","","","","","","","","","","key","j","16.6634141414137","654.848446999264","432.42421743079575","j","true","img/C_ambi40.png","生人","same",""
"","","","","","html-keyboard-response","157","434897","0.0-10.0-0.0-0.0-0.0-1.8","null","<span style='color:GreenYellow; font-size: 70px;'>正确! </span>","null","","","","","","","","","","","","","","","","","","","","","","","feedback_test"
"","","","","","psychophysics","158","437180","0.0-10.0-0.0-0.0-0.0-0.9","1281","","f","","","","","","","","","","","","","key","f","16.66742647058837","654.848446999264","432.42421743079575","j","false","img/S_ambi40.png","生人","same",""
"","","","","","html-keyboard-response","159","437695","0.0-10.0-0.0-0.0-0.0-1.9","null","<span style='color:red; font-size: 70px;'>错误! </span>","null","","","","","","","","","","","","","","","","","","","","","","","feedback_test"
"","","","","","psychophysics","160","439562","0.0-10.0-0.0-0.0-0.0-0.10","863","","f","","","","","","","","","","","","","key","f","16.6560900900901","654.848446999264","432.42421743079575","f","true","img/H_ambi40.png","生人","same",""
"","","","","","html-keyboard-response","161","440078","0.0-10.0-0.0-0.0-0.0-1.10","null","<span style='color:GreenYellow; font-size: 70px;'>正确! </span>","null","","","","","","","","","","","","","","","","","","","","","","","feedback_test"
"","","","","","psychophysics","162","441577","0.0-10.0-0.0-0.0-0.0-0.11","495","","f","","","","","","","","","","","","","key","f","16.666955056179738","654.848446999264","432.42421743079575","f","true","img/C_ambi40.png","自我","same",""
"","","","","","html-keyboard-response","163","442089","0.0-10.0-0.0-0.0-0.0-1.11","null","<span style='color:GreenYellow; font-size: 70px;'>正确! </span>","null","","","","","","","","","","","","","","","","","","","","","","","feedback_test"
"","","","","","psychophysics","164","443715","0.0-10.0-0.0-0.0-0.0-0.12","616","","j","","","","","","","","","","","","","key","j","16.66750000000017","654.848446999264","432.42421743079575","j","true","img/C_ambi40.png","朋友","same",""
"","","","","","html-keyboard-response","165","444224","0.0-10.0-0.0-0.0-0.0-1.12","null","<span style='color:GreenYellow; font-size: 70px;'>正确! </span>","null","","","","","","","","","","","","","","","","","","","","","","","feedback_test"
"","","","","","psychophysics","166","446039","0.0-10.0-0.0-0.0-0.0-0.13","790","","j","","","","","","","","","","","","","key","j","16.667416666666718","654.848446999264","432.42421743079575","j","true","img/S_ambi40.png","生人","same",""
"","","","","","html-keyboard-response","167","446550","0.0-10.0-0.0-0.0-0.0-1.13","null","<span style='color:GreenYellow; font-size: 70px;'>正确! </span>","null","","","","","","","","","","","","","","","","","","","","","","","feedback_test"
"","","","","","psychophysics","168","448243","0.0-10.0-0.0-0.0-0.0-0.14","678","","f","","","","","","","","","","","","","key","f","16.667119999999997","654.848446999264","432.42421743079575","f","true","img/H_ambi40.png","生人","same",""
"","","","","","html-keyboard-response","169","448757","0.0-10.0-0.0-0.0-0.0-1.14","null","<span style='color:GreenYellow; font-size: 70px;'>正确! </span>","null","","","","","","","","","","","","","","","","","","","","","","","feedback_test"
"","","","","","psychophysics","170","450592","0.0-10.0-0.0-0.0-0.0-0.15","829","","f","","","","","","","","","","","","","key","f","16.667293577982058","654.848446999264","432.42421743079575","f","true","img/S_ambi40.png","朋友","same",""
"","","","","","html-keyboard-response","171","451112","0.0-10.0-0.0-0.0-0.0-1.15","null","<span style='color:GreenYellow; font-size: 70px;'>正确! </span>","null","","","","","","","","","","","","","","","","","","","","","","","feedback_test"
"","","","","","psychophysics","172","453023","0.0-10.0-0.0-0.0-0.0-0.16","905","","j","","","","","","","","","","","","","key","j","16.6624736842105","654.848446999264","432.42421743079575","j","true","img/H_ambi40.png","朋友","same",""
"","","","","","html-keyboard-response","173","453536","0.0-10.0-0.0-0.0-0.0-1.16","null","<span style='color:GreenYellow; font-size: 70px;'>正确! </span>","null","","","","","","","","","","","","","","","","","","","","","","","feedback_test"
"","","","","","psychophysics","174","455148","0.0-10.0-0.0-0.0-0.0-0.17","604","","f","","","","","","","","","","","","","key","f","16.667410526315585","654.848446999264","432.42421743079575","f","true","img/T_ambi40.png","をる","same",""
"","","","","","html-keyboard-response","175","455665","0.0-10.0-0.0-0.0-0.0-1.17","null","<span style='color:GreenYellow; font-size: 70px;'>正确! </span>","null","","","","","","","","","","","","","","","","","","","","","","","feedback_test"
"","","","","","psychophysics","176","457503","0.0-10.0-0.0-0.0-0.0-0.18","834","","f","","","","","","","","","","","","","key","f","16.667321100917544","654.848446999264","432.42421743079575","f","true","img/H_ambi40.png","生人","same",""
"","","","","","html-keyboard-response","177","458013","0.0-10.0-0.0-0.0-0.0-1.18","null","<span style='color:GreenYellow; font-size: 70px;'>正确! </span>","null","","","","","","","","","","","","","","","","","","","","","","","feedback_test"
"","","","","","psychophysics","178","459948","0.0-10.0-0.0-0.0-0.0-0.19","930","","f","","","","","","","","","","","","","key","f","16.667182608695864","654.848446999264","432.42421743079575","f","true","img/S_ambi40.png","朋友","same",""
"","","","","","html-keyboard-response","179","460460","0.0-10.0-0.0-0.0-0.0-1.19","null","<span style='color:GreenYellow; font-size: 70px;'>正确! </span>","null","","","","","","","","","","","","","","","","","","","","","","","feedback_test"
"","","","","","psychophysics","180","462089","0.0-10.0-0.0-0.0-0.0-0.20","623","","f","","","","","","","","","","","","","key","f","16.640484536082255","654.848446999264","432.42421743079575","f","true","img/C_ambi40.png","自我","same",""
"","","","","","html-keyboard-response","181","462596","0.0-10.0-0.0-0.0-0.0-1.20","null","<span style='color:GreenYellow; font-size: 70px;'>正确! </span>","null","","","","","","","","","","","","","","","","","","","","","","","feedback_test"
"","","","","","psychophysics","182","464390","0.0-10.0-0.0-0.0-0.0-0.21","791","","j","","","","","","","","","","","","","key","j","16.667140186916075","654.848446999264","432.42421743079575","j","true","img/S_ambi40.png","生人","same",""
"","","","","","html-keyboard-response","183","464905","0.0-10.0-0.0-0.0-0.0-1.21","null","<span style='color:GreenYellow; font-size: 70px;'>正确! </span>","null","","","","","","","","","","","","","","","","","","","","","","","feedback_test"
"","","","","","psychophysics","184","466802","0.0-10.0-0.0-0.0-0.0-0.22","884","","j","","","","","","","","","","","","","key","j","16.666723214285803","654.848446999264","432.42421743079575","j","true","img/C_ambi40.png","朋友","same",""
"","","","","","html-keyboard-response","185","467312","0.0-10.0-0.0-0.0-0.0-1.22","null","<span style='color:GreenYellow; font-size: 70px;'>正确! </span>","null","","","","","","","","","","","","","","","","","","","","","","","feedback_test"
"","","","","","psychophysics","186","468881","0.0-10.0-0.0-0.0-0.0-0.23","563","","f","","","","","","","","","","","","","key","f","16.66740860215073","654.848446999264","432.42421743079575","f","true","img/T_ambi40.png","をる","same",""
"","","","","","html-keyboard-response","187","469385","0.0-10.0-0.0-0.0-0.0-1.23","null","<span style='color:GreenYellow; font-size: 70px;'>正确! </span>","null","","","","","","","","","","","","","","","","","","","","","","","feedback_test"
"","","","","","psychophysics","188","471155","0.0-10.0-0.0-0.0-0.0-0.24","766","","j","","","","","","","","","","","","","key","j","16.667314285714557","654.848446999264","432.42421743079575","j","true","img/S_ambi40.png","生人","same",""
"","","","","","html-keyboard-response","189","471664","0.0-10.0-0.0-0.0-0.0-1.24","null","<span style='color:GreenYellow; font-size: 70px;'>正确! </span>","null","","","","","","","","","","","","","","","","","","","","","","","feedback_test"
"","","","","","psychophysics","190","473539","0.0-10.0-0.0-0.0-0.0-0.25","839","","f","","","","","","","","","","","","","key","f","16.666428571428696","654.848446999264","432.42421743079575","f","true","img/H_ambi40.png","生人","same",""
"","","","","","html-keyboard-response","191","474041","0.0-10.0-0.0-0.0-0.0-1.25","null","<span style='color:GreenYellow; font-size: 70px;'>正确! </span>","null","","","","","","","","","","","","","","","","","","","","","","","feedback_test"
"","","","","","psychophysics","192","475703","0.0-10.0-0.0-0.0-0.0-0.26","653","","j","","","","","","","","","","","","","key","j","16.66448979591832","654.848446999264","432.42421743079575","j","true","img/S_ambi40.png","自我","same",""
"","","","","","html-keyboard-response","193","476220","0.0-10.0-0.0-0.0-0.0-1.26","null","<span style='color:GreenYellow; font-size: 70px;'>正确! </span>","null","","","","","","","","","","","","","","","","","","","","","","","feedback_test"
"","","","","","psychophysics","194","478479","0.0-10.0-0.0-0.0-0.0-0.27","1246","","f","","","","","","","","","","","","","key","f","16.666798507462868","654.848446999264","432.42421743079575","f","true","img/S_ambi40.png","朋友","same",""
"","","","","","html-keyboard-response","195","478988","0.0-10.0-0.0-0.0-0.0-1.27","null","<span style='color:GreenYellow; font-size: 70px;'>正确! </span>","null","","","","","","","","","","","","","","","","","","","","","","","feedback_test"
"","","","","","psychophysics","196","480558","0.0-10.0-0.0-0.0-0.0-0.28","566","","f","","","","","","","","","","","","","key","f","16.666731182795633","654.848446999264","432.42421743079575","f","true","img/T_ambi40.png","をる","same",""
"","","","","","html-keyboard-response","197","481062","0.0-10.0-0.0-0.0-0.0-1.28","null","<span style='color:GreenYellow; font-size: 70px;'>正确! </span>","null","","","","","","","","","","","","","","","","","","","","","","","feedback_test"
"","","","","","psychophysics","198","482605","0.0-10.0-0.0-0.0-0.0-0.29","539","","f","","","","","","","","","","","","","key","f","16.667010869565114","654.848446999264","432.42421743079575","j","false","img/C_ambi40.png","朋友","same",""
"","","","","","html-keyboard-response","199","483120","0.0-10.0-0.0-0.0-0.0-1.29","null","<span style='color:red; font-size: 70px;'>错误! </span>","null","","","","","","","","","","","","","","","","","","","","","","","feedback_test"
"","","","","","psychophysics","200","485004","0.0-10.0-0.0-0.0-0.0-0.30","873","","j","","","","","","","","","","","","","key","j","16.66713513513536","654.848446999264","432.42421743079575","j","true","img/H_ambi40.png","朋友","same",""
"","","","","","html-keyboard-response","201","485511","0.0-10.0-0.0-0.0-0.0-1.30","null","<span style='color:GreenYellow; font-size: 70px;'>正确! </span>","null","","","","","","","","","","","","","","","","","","","","","","","feedback_test"
"","","","","","psychophysics","202","487145","0.0-10.0-0.0-0.0-0.0-0.31","628","","f","","","","","","","","","","","","","key","f","16.666412371134545","654.848446999264","432.42421743079575","f","true","img/T_ambi40.png","をる","same",""
"","","","","","html-keyboard-response","203","487652","0.0-10.0-0.0-0.0-0.0-1.31","null","<span style='color:GreenYellow; font-size: 70px;'>正确! </span>","null","","","","","","","","","","","","","","","","","","","","","","","feedback_test"
"","","","","","psychophysics","204","489305","0.0-10.0-0.0-0.0-0.0-0.32","649","","j","","","","","","","","","","","","","key","j","16.667826530612096","654.848446999264","432.42421743079575","j","true","img/C_ambi40.png","生人","same",""
"","","","","","html-keyboard-response","205","489808","0.0-10.0-0.0-0.0-0.0-1.32","null","<span style='color:GreenYellow; font-size: 70px;'>正确! </span>","null","","","","","","","","","","","","","","","","","","","","","","","feedback_test"
"","","","","","psychophysics","206","491515","0.0-10.0-0.0-0.0-0.0-0.33","698","","j","","","","","","","","","","","","","key","j","16.667485148515116","654.848446999264","432.42421743079575","j","true","img/H_ambi40.png","自我","same",""
"","","","","","html-keyboard-response","207","492022","0.0-10.0-0.0-0.0-0.0-1.33","null","<span style='color:GreenYellow; font-size: 70px;'>正确! </span>","null","","","","","","","","","","","","","","","","","","","","","","","feedback_test"
"","","","","","psychophysics","208","493767","0.0-10.0-0.0-0.0-0.0-0.34","733","","j","","","","","","","","","","","","","key","j","16.66723300970851","654.848446999264","432.42421743079575","j","true","img/H_ambi40.png","自我","same",""
"","","","","","html-keyboard-response","209","494281","0.0-10.0-0.0-0.0-0.0-1.34","null","<span style='color:GreenYellow; font-size: 70px;'>正确! </span>","null","","","","","","","","","","","","","","","","","","","","","","","feedback_test"
"","","","","","psychophysics","210","495951","0.0-10.0-0.0-0.0-0.0-0.35","667","","f","","","","","","","","","","","","","key","f","16.667585858585422","654.848446999264","432.42421743079575","f","true","img/C_ambi40.png","自我","same",""
"","","","","","html-keyboard-response","211","496468","0.0-10.0-0.0-0.0-0.0-1.35","null","<span style='color:GreenYellow; font-size: 70px;'>正确! </span>","null","","","","","","","","","","","","","","","","","","","","","","","feedback_test"
"","","","","","psychophysics","212","498187","0.0-10.0-0.0-0.0-0.0-0.36","704","","f","","","","","","","","","","","","","key","f","16.666274509804126","654.848446999264","432.42421743079575","f","true","img/H_ambi40.png","生人","same",""
"","","","","","html-keyboard-response","213","498696","0.0-10.0-0.0-0.0-0.0-1.36","null","<span style='color:GreenYellow; font-size: 70px;'>正确! </span>","null","","","","","","","","","","","","","","","","","","","","","","","feedback_test"
"","","","","","psychophysics","214","500493","0.0-10.0-0.0-0.0-0.0-0.37","793","","f","","","","","","","","","","","","","key","f","16.667439252336152","654.848446999264","432.42421743079575","f","true","img/H_ambi40.png","生人","same",""
"","","","","","html-keyboard-response","215","501006","0.0-10.0-0.0-0.0-0.0-1.37","null","<span style='color:GreenYellow; font-size: 70px;'>正确! </span>","null","","","","","","","","","","","","","","","","","","","","","","","feedback_test"
"","","","","","psychophysics","216","502703","0.0-10.0-0.0-0.0-0.0-0.38","689","","f","","","","","","","","","","","","","key","f","16.666260000000474","654.848446999264","432.42421743079575","f","true","img/C_ambi40.png","自我","same",""
"","","","","","html-keyboard-response","217","503213","0.0-10.0-0.0-0.0-0.0-1.38","null","<span style='color:GreenYellow; font-size: 70px;'>正确! </span>","null","","","","","","","","","","","","","","","","","","","","","","","feedback_test"
"","","","","","psychophysics","218","505086","0.0-10.0-0.0-0.0-0.0-0.39","852","","j","","","","","","","","","","","","","key","j","16.667279279279533","654.848446999264","432.42421743079575","j","true","img/S_ambi40.png","自我","same",""
"","","","","","html-keyboard-response","219","505591","0.0-10.0-0.0-0.0-0.0-1.39","null","<span style='color:GreenYellow; font-size: 70px;'>正确! </span>","null","","","","","","","","","","","","","","","","","","","","","","","feedback_test"
"","","","","","psychophysics","220","507766","0.0-10.0-0.0-0.0-0.0-0.40","1168","","f","","","","","","","","","","","","","key","f","16.659131782945668","654.848446999264","432.42421743079575","j","false","img/S_ambi40.png","生人","same",""
"","","","","","html-keyboard-response","221","508278","0.0-10.0-0.0-0.0-0.0-1.40","null","<span style='color:red; font-size: 70px;'>错误! </span>","null","","","","","","","","","","","","","","","","","","","","","","","feedback_test"
"","","","","","psychophysics","222","509912","0.0-10.0-0.0-0.0-0.0-0.41","628","","j","","","","","","","","","","","","","key","j","16.667587628865917","654.848446999264","432.42421743079575","j","true","img/H_ambi40.png","自我","same",""
"","","","","","html-keyboard-response","223","510442","0.0-10.0-0.0-0.0-0.0-1.41","null","<span style='color:GreenYellow; font-size: 70px;'>正确! </span>","null","","","","","","","","","","","","","","","","","","","","","","","feedback_test"
"","","","","","psychophysics","224","512113","0.0-10.0-0.0-0.0-0.0-0.42","646","","j","","","","","","","","","","","","","key","j","16.66473737373746","654.848446999264","432.42421743079575","j","true","img/H_ambi40.png","自我","same",""
"","","","","","html-keyboard-response","225","512618","0.0-10.0-0.0-0.0-0.0-1.42","null","<span style='color:GreenYellow; font-size: 70px;'>正确! </span>","null","","","","","","","","","","","","","","","","","","","","","","","feedback_test"
"","","","","","psychophysics","226","514485","0.0-10.0-0.0-0.0-0.0-0.43","855","","j","","","","","","","","","","","","","key","j","16.66724545454543","654.848446999264","432.42421743079575","j","true","img/H_ambi40.png","朋友","same",""
"","","","","","html-keyboard-response","227","514994","0.0-10.0-0.0-0.0-0.0-1.43","null","<span style='color:GreenYellow; font-size: 70px;'>正确! </span>","null","","","","","","","","","","","","","","","","","","","","","","","feedback_test"
"","","","","","psychophysics","228","516569","0.0-10.0-0.0-0.0-0.0-0.44","569","","f","","","","","","","","","","","","","key","f","16.66545161290372","654.848446999264","432.42421743079575","j","false","img/C_ambi40.png","朋友","same",""
"","","","","","html-keyboard-response","229","517072","0.0-10.0-0.0-0.0-0.0-1.44","null","<span style='color:red; font-size: 70px;'>错误! </span>","null","","","","","","","","","","","","","","","","","","","","","","","feedback_test"
"","","","","","psychophysics","230","518689","0.0-10.0-0.0-0.0-0.0-0.45","589","","j","","","","","","","","","","","","","key","j","16.6678020833333","654.848446999264","432.42421743079575","j","true","img/C_ambi40.png","生人","same",""
"","","","","","html-keyboard-response","231","519204","0.0-10.0-0.0-0.0-0.0-1.45","null","<span style='color:GreenYellow; font-size: 70px;'>正确! </span>","null","","","","","","","","","","","","","","","","","","","","","","","feedback_test"
"","","","","","psychophysics","232","520820","0.0-10.0-0.0-0.0-0.0-0.46","603","","f","","","","","","","","","","","","","key","f","16.6675052631579","654.848446999264","432.42421743079575","f","true","img/C_ambi40.png","自我","same",""
"","","","","","html-keyboard-response","233","521324","0.0-10.0-0.0-0.0-0.0-1.46","null","<span style='color:GreenYellow; font-size: 70px;'>正确! </span>","null","","","","","","","","","","","","","","","","","","","","","","","feedback_test"
"","","","","","psychophysics","234","523133","0.0-10.0-0.0-0.0-0.0-0.47","799","","j","","","","","","","","","","","","","key","j","16.667196261682374","654.848446999264","432.42421743079575","f","false","img/S_ambi40.png","朋友","same",""
"","","","","","html-keyboard-response","235","523641","0.0-10.0-0.0-0.0-0.0-1.47","null","<span style='color:red; font-size: 70px;'>错误! </span>","null","","","","","","","","","","","","","","","","","","","","","","","feedback_test"
"","","","","","psychophysics","236","525450","0.0-10.0-0.0-0.0-0.0-0.48","783","","j","","","","","","","","","","","","","key","j","16.667364485980727","654.848446999264","432.42421743079575","j","true","img/S_ambi40.png","生人","same",""
"","","","","","html-keyboard-response","237","525956","0.0-10.0-0.0-0.0-0.0-1.48","null","<span style='color:GreenYellow; font-size: 70px;'>正确! </span>","null","","","","","","","","","","","","","","","","","","","","","","","feedback_test"
"","","","","","psychophysics","238","527578","0.0-10.0-0.0-0.0-0.0-0.49","611","","f","","","","","","","","","","","","","key","f","16.66744791666618","654.848446999264","432.42421743079575","f","true","img/T_ambi40.png","をる","same",""
"","","","","","html-keyboard-response","239","528081","0.0-10.0-0.0-0.0-0.0-1.49","null","<span style='color:GreenYellow; font-size: 70px;'>正确! </span>","null","","","","","","","","","","","","","","","","","","","","","","","feedback_test"
"","","","","","psychophysics","240","530177","0.0-10.0-0.0-0.0-0.0-0.50","1093","","f","","","","","","","","","","","","","key","f","16.667088000000454","654.848446999264","432.42421743079575","f","true","img/S_ambi40.png","朋友","same",""
"","","","","","html-keyboard-response","241","530691","0.0-10.0-0.0-0.0-0.0-1.50","null","<span style='color:GreenYellow; font-size: 70px;'>正确! </span>","null","","","","","","","","","","","","","","","","","","","","","","","feedback_test"
"","","","","","psychophysics","242","532294","0.0-10.0-0.0-0.0-0.0-0.51","579","","f","","","","","","","","","","","","","key","f","16.6671999999996","654.848446999264","432.42421743079575","f","true","img/T_ambi40.png","をる","same",""
"","","","","","html-keyboard-response","243","532801","0.0-10.0-0.0-0.0-0.0-1.51","null","<span style='color:GreenYellow; font-size: 70px;'>正确! </span>","null","","","","","","","","","","","","","","","","","","","","","","","feedback_test"
"","","","","","psychophysics","244","534684","0.0-10.0-0.0-0.0-0.0-0.52","875","","j","","","","","","","","","","","","","key","j","16.667441441441532","654.848446999264","432.42421743079575","f","false","img/T_ambi40.png","をる","same",""
"","","","","","html-keyboard-response","245","535199","0.0-10.0-0.0-0.0-0.0-1.52","null","<span style='color:red; font-size: 70px;'>错误! </span>","null","","","","","","","","","","","","","","","","","","","","","","","feedback_test"
"","","","","","psychophysics","246","537009","0.0-10.0-0.0-0.0-0.0-0.53","808","","j","","","","","","","","","","","","","key","j","16.667261682242966","654.848446999264","432.42421743079575","j","true","img/C_ambi40.png","朋友","same",""
"","","","","","html-keyboard-response","247","537536","0.0-10.0-0.0-0.0-0.0-1.53","null","<span style='color:GreenYellow; font-size: 70px;'>正确! </span>","null","","","","","","","","","","","","","","","","","","","","","","","feedback_test"
"","","","","","psychophysics","248","539399","0.0-10.0-0.0-0.0-0.0-0.54","852","","f","","","","","","","","","","","","","key","f","16.667045454545455","654.848446999264","432.42421743079575","f","true","img/S_ambi40.png","朋友","same",""
"","","","","","html-keyboard-response","249","539912","0.0-10.0-0.0-0.0-0.0-1.54","null","<span style='color:GreenYellow; font-size: 70px;'>正确! </span>","null","","","","","","","","","","","","","","","","","","","","","","","feedback_test"
"","","","","","psychophysics","250","541721","0.0-10.0-0.0-0.0-0.0-0.55","793","","j","","","","","","","","","","","","","key","j","16.668009345793976","654.848446999264","432.42421743079575","j","true","img/H_ambi40.png","朋友","same",""
"","","","","","html-keyboard-response","251","542238","0.0-10.0-0.0-0.0-0.0-1.55","null","<span style='color:GreenYellow; font-size: 70px;'>正确! </span>","null","","","","","","","","","","","","","","","","","","","","","","","feedback_test"
"","","","","","psychophysics","252","543877","0.0-10.0-0.0-0.0-0.0-0.56","632","","j","","","","","","","","","","","","","key","j","16.667226804122713","654.848446999264","432.42421743079575","j","true","img/H_ambi40.png","自我","same",""
"","","","","","html-keyboard-response","253","544380","0.0-10.0-0.0-0.0-0.0-1.56","null","<span style='color:GreenYellow; font-size: 70px;'>正确! </span>","null","","","","","","","","","","","","","","","","","","","","","","","feedback_test"
"","","","","","psychophysics","254","546370","0.0-10.0-0.0-0.0-0.0-0.57","973","","j","","","","","","","","","","","","","key","j","16.66716949152563","654.848446999264","432.42421743079575","j","true","img/C_ambi40.png","朋友","same",""
"","","","","","html-keyboard-response","255","546878","0.0-10.0-0.0-0.0-0.0-1.57","null","<span style='color:GreenYellow; font-size: 70px;'>正确! </span>","null","","","","","","","","","","","","","","","","","","","","","","","feedback_test"
"","","","","","psychophysics","256","548583","0.0-10.0-0.0-0.0-0.0-0.58","704","","f","","","","","","","","","","","","","key","f","16.667405940594595","654.848446999264","432.42421743079575","f","true","img/H_ambi40.png","生人","same",""
"","","","","","html-keyboard-response","257","549085","0.0-10.0-0.0-0.0-0.0-1.58","null","<span style='color:GreenYellow; font-size: 70px;'>正确! </span>","null","","","","","","","","","","","","","","","","","","","","","","","feedback_test"
"","","","","","psychophysics","258","550770","0.0-10.0-0.0-0.0-0.0-0.59","681","","j","","","","","","","","","","","","","key","j","16.66746999999974","654.848446999264","432.42421743079575","j","true","img/C_ambi40.png","生人","same",""
"","","","","","html-keyboard-response","259","551275","0.0-10.0-0.0-0.0-0.0-1.59","null","<span style='color:GreenYellow; font-size: 70px;'>正确! </span>","null","","","","","","","","","","","","","","","","","","","","","","","feedback_test"
"","","","","","psychophysics","260","552849","0.0-10.0-0.0-0.0-0.0-0.60","550","","f","","","","","","","","","","","","","key","f","16.66716129032229","654.848446999264","432.42421743079575","f","true","img/T_ambi40.png","をる","same",""
"","","","","","html-keyboard-response","261","553363","0.0-10.0-0.0-0.0-0.0-1.60","null","<span style='color:GreenYellow; font-size: 70px;'>正确! </span>","null","","","","","","","","","","","","","","","","","","","","","","","feedback_test"
"","","","","","psychophysics","262","554936","0.0-10.0-0.0-0.0-0.0-0.61","565","","j","","","","","","","","","","","","","key","j","16.66716129032229","654.848446999264","432.42421743079575","j","true","img/H_ambi40.png","自我","same",""
"","","","","","html-keyboard-response","263","555446","0.0-10.0-0.0-0.0-0.0-1.61","null","<span style='color:GreenYellow; font-size: 70px;'>正确! </span>","null","","","","","","","","","","","","","","","","","","","","","","","feedback_test"
"","","","","","psychophysics","264","557225","0.0-10.0-0.0-0.0-0.0-0.62","772","","f","","","","","","","","","","","","","key","f","16.667152380952167","654.848446999264","432.42421743079575","f","true","img/H_ambi40.png","生人","same",""
"","","","","","html-keyboard-response","265","557731","0.0-10.0-0.0-0.0-0.0-1.62","null","<span style='color:GreenYellow; font-size: 70px;'>正确! </span>","null","","","","","","","","","","","","","","","","","","","","","","","feedback_test"
"","","","","","psychophysics","266","559359","0.0-10.0-0.0-0.0-0.0-0.63","612","","j","","","","","","","","","","","","","key","j","16.666572916665853","654.848446999264","432.42421743079575","j","true","img/S_ambi40.png","生人","same",""
"","","","","","html-keyboard-response","267","559861","0.0-10.0-0.0-0.0-0.0-1.63","null","<span style='color:GreenYellow; font-size: 70px;'>正确! </span>","null","","","","","","","","","","","","","","","","","","","","","","","feedback_test"
"","","","","","psychophysics","268","561423","0.0-10.0-0.0-0.0-0.0-0.64","560","","f","","","","","","","","","","","","","key","f","16.66766304347877","654.848446999264","432.42421743079575","f","true","img/C_ambi40.png","自我","same",""
"","","","","","html-keyboard-response","269","561937","0.0-10.0-0.0-0.0-0.0-1.64","null","<span style='color:GreenYellow; font-size: 70px;'>正确! </span>","null","","","","","","","","","","","","","","","","","","","","","","","feedback_test"
"","","","","","psychophysics","270","563550","0.0-10.0-0.0-0.0-0.0-0.65","606","","f","","","","","","","","","","","","","key","f","16.667479166666453","654.848446999264","432.42421743079575","f","true","img/T_ambi40.png","をる","same",""
"","","","","","html-keyboard-response","271","564065","0.0-10.0-0.0-0.0-0.0-1.65","null","<span style='color:GreenYellow; font-size: 70px;'>正确! </span>","null","","","","","","","","","","","","","","","","","","","","","","","feedback_test"
"","","","","","psychophysics","272","565689","0.0-10.0-0.0-0.0-0.0-0.66","611","","j","","","","","","","","","","","","","key","j","16.666989583332906","654.848446999264","432.42421743079575","j","true","img/S_ambi40.png","生人","same",""
"","","","","","html-keyboard-response","273","566191","0.0-10.0-0.0-0.0-0.0-1.66","null","<span style='color:GreenYellow; font-size: 70px;'>正确! </span>","null","","","","","","","","","","","","","","","","","","","","","","","feedback_test"
"","","","","","psychophysics","274","567775","0.0-10.0-0.0-0.0-0.0-0.67","581","","f","","","","","","","","","","","","","key","f","16.66725531914965","654.848446999264","432.42421743079575","f","true","img/C_ambi40.png","自我","same",""
"","","","","","html-keyboard-response","275","568286","0.0-10.0-0.0-0.0-0.0-1.67","null","<span style='color:GreenYellow; font-size: 70px;'>正确! </span>","null","","","","","","","","","","","","","","","","","","","","","","","feedback_test"
"","","","","","psychophysics","276","570003","0.0-10.0-0.0-0.0-0.0-0.68","712","","f","","","","","","","","","","","","","key","f","16.66643137254926","654.848446999264","432.42421743079575","f","true","img/T_ambi40.png","をる","same",""
"","","","","","html-keyboard-response","277","570511","0.0-10.0-0.0-0.0-0.0-1.68","null","<span style='color:GreenYellow; font-size: 70px;'>正确! </span>","null","","","","","","","","","","","","","","","","","","","","","","","feedback_test"
"","","","","","psychophysics","278","572190","0.0-10.0-0.0-0.0-0.0-0.69","662","","f","","","","","","","","","","","","","key","f","16.66721212121216","654.848446999264","432.42421743079575","j","false","img/C_ambi40.png","朋友","same",""
"","","","","","html-keyboard-response","279","572697","0.0-10.0-0.0-0.0-0.0-1.69","null","<span style='color:red; font-size: 70px;'>错误! </span>","null","","","","","","","","","","","","","","","","","","","","","","","feedback_test"
"","","","","","psychophysics","280","574503","0.0-10.0-0.0-0.0-0.0-0.70","797","","j","","","","","","","","","","","","","key","j","16.664626168224213","654.848446999264","432.42421743079575","f","false","img/S_ambi40.png","朋友","same",""
"","","","","","html-keyboard-response","281","575012","0.0-10.0-0.0-0.0-0.0-1.70","null","<span style='color:red; font-size: 70px;'>错误! </span>","null","","","","","","","","","","","","","","","","","","","","","","","feedback_test"
"","","","","","psychophysics","282","576719","0.0-10.0-0.0-0.0-0.0-0.71","705","","j","","","","","","","","","","","","","key","j","16.666990099009126","654.848446999264","432.42421743079575","j","true","img/S_ambi40.png","自我","same",""
"","","","","","html-keyboard-response","283","577237","0.0-10.0-0.0-0.0-0.0-1.71","null","<span style='color:GreenYellow; font-size: 70px;'>正确! </span>","null","","","","","","","","","","","","","","","","","","","","","","","feedback_test"
"","","","","","psychophysics","284","579252","0.0-10.0-0.0-0.0-0.0-0.72","1004","","j","","","","","","","","","","","","","key","j","16.653466666666404","654.848446999264","432.42421743079575","j","true","img/H_ambi40.png","朋友","same",""
"","","","","","html-keyboard-response","285","579760","0.0-10.0-0.0-0.0-0.0-1.72","null","<span style='color:GreenYellow; font-size: 70px;'>正确! </span>","null","","","","","","","","","","","","","","","","","","","","","","","feedback_test"
"","","","","","psychophysics","286","581718","0.0-10.0-0.0-0.0-0.0-0.73","955","","f","","","","","","","","","","","","","key","f","16.66765811965745","654.848446999264","432.42421743079575","f","true","img/S_ambi40.png","朋友","same",""
"","","","","","html-keyboard-response","287","582226","0.0-10.0-0.0-0.0-0.0-1.73","null","<span style='color:GreenYellow; font-size: 70px;'>正确! </span>","null","","","","","","","","","","","","","","","","","","","","","","","feedback_test"
"","","","","","psychophysics","288","584021","0.0-10.0-0.0-0.0-0.0-0.74","792","","j","","","","","","","","","","","","","key","j","16.666551401869125","654.848446999264","432.42421743079575","j","true","img/C_ambi40.png","朋友","same",""
"","","","","","html-keyboard-response","289","584552","0.0-10.0-0.0-0.0-0.0-1.74","null","<span style='color:GreenYellow; font-size: 70px;'>正确! </span>","null","","","","","","","","","","","","","","","","","","","","","","","feedback_test"
"","","","","","psychophysics","290","586360","0.0-10.0-0.0-0.0-0.0-0.75","784","","j","","","","","","","","","","","","","key","j","16.668102803737987","654.848446999264","432.42421743079575","j","true","img/H_ambi40.png","自我","same",""
"","","","","","html-keyboard-response","291","586874","0.0-10.0-0.0-0.0-0.0-1.75","null","<span style='color:GreenYellow; font-size: 70px;'>正确! </span>","null","","","","","","","","","","","","","","","","","","","","","","","feedback_test"
"","","","","","psychophysics","292","588536","0.0-10.0-0.0-0.0-0.0-0.76","658","","j","","","","","","","","","","","","","key","j","16.66782828282819","654.848446999264","432.42421743079575","j","true","img/C_ambi40.png","生人","same",""
"","","","","","html-keyboard-response","293","589037","0.0-10.0-0.0-0.0-0.0-1.76","null","<span style='color:GreenYellow; font-size: 70px;'>正确! </span>","null","","","","","","","","","","","","","","","","","","","","","","","feedback_test"
"","","","","","psychophysics","294","591000","0.0-10.0-0.0-0.0-0.0-0.77","955","","j","","","","","","","","","","","","","key","j","16.66789743589719","654.848446999264","432.42421743079575","j","true","img/S_ambi40.png","生人","same",""
"","","","","","html-keyboard-response","295","591519","0.0-10.0-0.0-0.0-0.0-1.77","null","<span style='color:GreenYellow; font-size: 70px;'>正确! </span>","null","","","","","","","","","","","","","","","","","","","","","","","feedback_test"
"","","","","","psychophysics","296","593341","0.0-10.0-0.0-0.0-0.0-0.78","812","","f","","","","","","","","","","","","","key","f","16.66720370370334","654.848446999264","432.42421743079575","f","true","img/C_ambi40.png","自我","same",""
"","","","","","html-keyboard-response","297","593845","0.0-10.0-0.0-0.0-0.0-1.78","null","<span style='color:GreenYellow; font-size: 70px;'>正确! </span>","null","","","","","","","","","","","","","","","","","","","","","","","feedback_test"
"","","","","","psychophysics","298","595772","0.0-10.0-0.0-0.0-0.0-0.79","925","","j","","","","","","","","","","","","","key","j","16.66709649122806","654.848446999264","432.42421743079575","f","false","img/H_ambi40.png","生人","same",""
"","","","","","html-keyboard-response","299","596289","0.0-10.0-0.0-0.0-0.0-1.79","null","<span style='color:red; font-size: 70px;'>错误! </span>","null","","","","","","","","","","","","","","","","","","","","","","","feedback_test"
"","","","","","psychophysics","300","597996","0.0-10.0-0.0-0.0-0.0-0.80","700","","j","","","","","","","","","","","","","key","j","16.65253465346494","654.848446999264","432.42421743079575","j","true","img/H_ambi40.png","自我","same",""
"","","","","","html-keyboard-response","301","598530","0.0-10.0-0.0-0.0-0.0-1.80","null","<span style='color:GreenYellow; font-size: 70px;'>正确! </span>","null","","","","","","","","","","","","","","","","","","","","","","","feedback_test"
"","","","","","psychophysics","302","600283","0.0-10.0-0.0-0.0-0.0-0.81","736","","j","","","","","","","","","","","","","key","j","16.66773076923094","654.848446999264","432.42421743079575","j","true","img/C_ambi40.png","朋友","same",""
"","","","","","html-keyboard-response","303","600810","0.0-10.0-0.0-0.0-0.0-1.81","null","<span style='color:GreenYellow; font-size: 70px;'>正确! </span>","null","","","","","","","","","","","","","","","","","","","","","","","feedback_test"
"","","","","","psychophysics","304","602553","0.0-10.0-0.0-0.0-0.0-0.82","736","","j","","","","","","","","","","","","","key","j","16.667572815534072","654.848446999264","432.42421743079575","j","true","img/S_ambi40.png","自我","same",""
"","","","","","html-keyboard-response","305","603061","0.0-10.0-0.0-0.0-0.0-1.82","null","<span style='color:GreenYellow; font-size: 70px;'>正确! </span>","null","","","","","","","","","","","","","","","","","","","","","","","feedback_test"
"","","","","","psychophysics","306","604763","0.0-10.0-0.0-0.0-0.0-0.83","695","","f","","","","","","","","","","","","","key","f","16.667772277227215","654.848446999264","432.42421743079575","f","true","img/C_ambi40.png","自我","same",""
"","","","","","html-keyboard-response","307","605274","0.0-10.0-0.0-0.0-0.0-1.83","null","<span style='color:GreenYellow; font-size: 70px;'>正确! </span>","null","","","","","","","","","","","","","","","","","","","","","","","feedback_test"
"","","","","","psychophysics","308","607028","0.0-10.0-0.0-0.0-0.0-0.84","747","","f","","","","","","","","","","","","","key","f","16.667596153845526","654.848446999264","432.42421743079575","f","true","img/S_ambi40.png","朋友","same",""
"","","","","","html-keyboard-response","309","607540","0.0-10.0-0.0-0.0-0.0-1.84","null","<span style='color:GreenYellow; font-size: 70px;'>正确! </span>","null","","","","","","","","","","","","","","","","","","","","","","","feedback_test"
"","","","","","psychophysics","310","609083","0.0-10.0-0.0-0.0-0.0-0.85","541","","f","","","","","","","","","","","","","key","f","16.667659340659156","654.848446999264","432.42421743079575","f","true","img/T_ambi40.png","をる","same",""
"","","","","","html-keyboard-response","311","609596","0.0-10.0-0.0-0.0-0.0-1.85","null","<span style='color:GreenYellow; font-size: 70px;'>正确! </span>","null","","","","","","","","","","","","","","","","","","","","","","","feedback_test"
"","","","","","psychophysics","312","611362","0.0-10.0-0.0-0.0-0.0-0.86","761","","j","","","","","","","","","","","","","key","j","16.667152380952167","654.848446999264","432.42421743079575","j","true","img/S_ambi40.png","生人","same",""
"","","","","","html-keyboard-response","313","611867","0.0-10.0-0.0-0.0-0.0-1.86","null","<span style='color:GreenYellow; font-size: 70px;'>正确! </span>","null","","","","","","","","","","","","","","","","","","","","","","","feedback_test"
"","","","","","psychophysics","314","613439","0.0-10.0-0.0-0.0-0.0-0.87","551","","f","","","","","","","","","","","","","key","f","16.666967741936016","654.848446999264","432.42421743079575","f","true","img/T_ambi40.png","をる","same",""
"","","","","","html-keyboard-response","315","613944","0.0-10.0-0.0-0.0-0.0-1.87","null","<span style='color:GreenYellow; font-size: 70px;'>正确! </span>","null","","","","","","","","","","","","","","","","","","","","","","","feedback_test"
"","","","","","psychophysics","316","616051","0.0-10.0-0.0-0.0-0.0-0.88","1101","","f","","","","","","","","","","","","","key","f","16.667216000000014","654.848446999264","432.42421743079575","f","true","img/T_ambi40.png","をる","same",""
"","","","","","html-keyboard-response","317","616564","0.0-10.0-0.0-0.0-0.0-1.88","null","<span style='color:GreenYellow; font-size: 70px;'>正确! </span>","null","","","","","","","","","","","","","","","","","","","","","","","feedback_test"
"","","","","","psychophysics","318","618324","0.0-10.0-0.0-0.0-0.0-0.89","750","","j","","","","","","","","","","","","","key","j","16.666519230768944","654.848446999264","432.42421743079575","f","false","img/H_ambi40.png","生人","same",""
"","","","","","html-keyboard-response","319","618828","0.0-10.0-0.0-0.0-0.0-1.89","null","<span style='color:red; font-size: 70px;'>错误! </span>","null","","","","","","","","","","","","","","","","","","","","","","","feedback_test"
"","","","","","psychophysics","320","620553","0.0-10.0-0.0-0.0-0.0-0.90","720","","j","","","","","","","","","","","","","key","j","16.667156862744413","654.848446999264","432.42421743079575","j","true","img/S_ambi40.png","自我","same",""
"","","","","","html-keyboard-response","321","621057","0.0-10.0-0.0-0.0-0.0-1.90","null","<span style='color:GreenYellow; font-size: 70px;'>正确! </span>","null","","","","","","","","","","","","","","","","","","","","","","","feedback_test"
"","","","","","psychophysics","322","622755","0.0-10.0-0.0-0.0-0.0-0.91","697","","f","","","","","","","","","","","","","key","f","16.66570999999996","654.848446999264","432.42421743079575","f","true","img/H_ambi40.png","生人","same",""
"","","","","","html-keyboard-response","323","623266","0.0-10.0-0.0-0.0-0.0-1.91","null","<span style='color:GreenYellow; font-size: 70px;'>正确! </span>","null","","","","","","","","","","","","","","","","","","","","","","","feedback_test"
"","","","","","psychophysics","324","625010","0.0-10.0-0.0-0.0-0.0-0.92","723","","f","","","","","","","","","","","","","key","f","16.830960784314026","654.848446999264","432.42421743079575","f","true","img/T_ambi40.png","をる","same",""
"","","","","","html-keyboard-response","325","625525","0.0-10.0-0.0-0.0-0.0-1.92","null","<span style='color:GreenYellow; font-size: 70px;'>正确! </span>","null","","","","","","","","","","","","","","","","","","","","","","","feedback_test"
"","","","","","psychophysics","326","627145","0.0-10.0-0.0-0.0-0.0-0.93","609","","j","","","","","","","","","","","","","key","j","16.66735416666658","654.848446999264","432.42421743079575","j","true","img/C_ambi40.png","朋友","same",""
"","","","","","html-keyboard-response","327","627647","0.0-10.0-0.0-0.0-0.0-1.93","null","<span style='color:GreenYellow; font-size: 70px;'>正确! </span>","null","","","","","","","","","","","","","","","","","","","","","","","feedback_test"
"","","","","","psychophysics","328","629224","0.0-10.0-0.0-0.0-0.0-0.94","567","","f","","","","","","","","","","","","","key","f","16.66717204301097","654.848446999264","432.42421743079575","f","true","img/C_ambi40.png","自我","same",""
"","","","","","html-keyboard-response","329","629731","0.0-10.0-0.0-0.0-0.0-1.94","null","<span style='color:GreenYellow; font-size: 70px;'>正确! </span>","null","","","","","","","","","","","","","","","","","","","","","","","feedback_test"
"","","","","","psychophysics","330","631483","0.0-10.0-0.0-0.0-0.0-0.95","725","","j","","","","","","","","","","","","","key","j","16.66823076923006","654.848446999264","432.42421743079575","j","true","img/S_ambi40.png","生人","same",""
"","","","","","html-keyboard-response","331","631994","0.0-10.0-0.0-0.0-0.0-1.95","null","<span style='color:GreenYellow; font-size: 70px;'>正确! </span>","null","","","","","","","","","","","","","","","","","","","","","","","feedback_test"
"","","","","","psychophysics","332","633720","0.0-10.0-0.0-0.0-0.0-0.96","722","","j","","","","","","","","","","","","","key","j","16.66727450980426","654.848446999264","432.42421743079575","j","true","img/C_ambi40.png","朋友","same",""
"","","","","","html-keyboard-response","333","634231","0.0-10.0-0.0-0.0-0.0-1.96","null","<span style='color:GreenYellow; font-size: 70px;'>正确! </span>","null","","","","","","","","","","","","","","","","","","","","","","","feedback_test"
"","","","","","psychophysics","334","635839","0.0-10.0-0.0-0.0-0.0-0.97","601","","f","","","","","","","","","","","","","key","f","16.6671473684206","654.848446999264","432.42421743079575","f","true","img/T_ambi40.png","をる","same",""
"","","","","","html-keyboard-response","335","636342","0.0-10.0-0.0-0.0-0.0-1.97","null","<span style='color:GreenYellow; font-size: 70px;'>正确! </span>","null","","","","","","","","","","","","","","","","","","","","","","","feedback_test"
"","","","","","psychophysics","336","638121","0.0-10.0-0.0-0.0-0.0-0.98","762","","j","","","","","","","","","","","","","key","j","16.66712380952335","654.848446999264","432.42421743079575","f","false","img/S_ambi40.png","朋友","same",""
"","","","","","html-keyboard-response","337","638626","0.0-10.0-0.0-0.0-0.0-1.98","null","<span style='color:red; font-size: 70px;'>错误! </span>","null","","","","","","","","","","","","","","","","","","","","","","","feedback_test"
"","","","","","psychophysics","338","640403","0.0-10.0-0.0-0.0-0.0-0.99","766","","f","","","","","","","","","","","","","key","f","16.666838095238475","654.848446999264","432.42421743079575","f","true","img/H_ambi40.png","生人","same",""
"","","","","","html-keyboard-response","339","640910","0.0-10.0-0.0-0.0-0.0-1.99","null","<span style='color:GreenYellow; font-size: 70px;'>正确! </span>","null","","","","","","","","","","","","","","","","","","","","","","","feedback_test"
"","","","","","psychophysics","340","642531","0.0-10.0-0.0-0.0-0.0-0.100","606","","j","","","","","","","","","","","","","key","j","16.668499999999767","654.848446999264","432.42421743079575","j","true","img/H_ambi40.png","自我","same",""
"","","","","","html-keyboard-response","341","643037","0.0-10.0-0.0-0.0-0.0-1.100","null","<span style='color:GreenYellow; font-size: 70px;'>正确! </span>","null","","","","","","","","","","","","","","","","","","","","","","","feedback_test"
"","","","","","psychophysics","342","644645","0.0-10.0-0.0-0.0-0.0-0.101","590","","j","","","","","","","","","","","","","key","j","16.667187499999272","654.848446999264","432.42421743079575","j","true","img/H_ambi40.png","自我","same",""
"","","","","","html-keyboard-response","343","645158","0.0-10.0-0.0-0.0-0.0-1.101","null","<span style='color:GreenYellow; font-size: 70px;'>正确! </span>","null","","","","","","","","","","","","","","","","","","","","","","","feedback_test"
"","","","","","psychophysics","344","646788","0.0-10.0-0.0-0.0-0.0-0.102","629","","f","","","","","","","","","","","","","key","f","16.667958333332837","654.848446999264","432.42421743079575","j","false","img/C_ambi40.png","生人","same",""
"","","","","","html-keyboard-response","345","647290","0.0-10.0-0.0-0.0-0.0-1.102","null","<span style='color:red; font-size: 70px;'>错误! </span>","null","","","","","","","","","","","","","","","","","","","","","","","feedback_test"
"","","","","","psychophysics","346","648890","0.0-10.0-0.0-0.0-0.0-0.103","597","","j","","","","","","","","","","","","","key","j","16.667765957447006","654.848446999264","432.42421743079575","f","false","img/S_ambi40.png","朋友","same",""
"","","","","","html-keyboard-response","347","649403","0.0-10.0-0.0-0.0-0.0-1.103","null","<span style='color:red; font-size: 70px;'>错误! </span>","null","","","","","","","","","","","","","","","","","","","","","","","feedback_test"
"","","","","","psychophysics","348","651077","0.0-10.0-0.0-0.0-0.0-0.104","667","","f","","","","","","","","","","","","","key","f","16.667101010100474","654.848446999264","432.42421743079575","f","true","img/C_ambi40.png","自我","same",""
"","","","","","html-keyboard-response","349","651588","0.0-10.0-0.0-0.0-0.0-1.104","null","<span style='color:GreenYellow; font-size: 70px;'>正确! </span>","null","","","","","","","","","","","","","","","","","","","","","","","feedback_test"
"","","","","","psychophysics","350","653368","0.0-10.0-0.0-0.0-0.0-0.105","778","","f","","","","","","","","","","","","","key","f","16.66730188679297","654.848446999264","432.42421743079575","j","false","img/H_ambi40.png","朋友","same",""
"","","","","","html-keyboard-response","351","653880","0.0-10.0-0.0-0.0-0.0-1.105","null","<span style='color:red; font-size: 70px;'>错误! </span>","null","","","","","","","","","","","","","","","","","","","","","","","feedback_test"
"","","","","","psychophysics","352","655595","0.0-10.0-0.0-0.0-0.0-0.106","713","","j","","","","","","","","","","","","","key","j","16.66699019607896","654.848446999264","432.42421743079575","j","true","img/S_ambi40.png","生人","same",""
"","","","","","html-keyboard-response","353","656110","0.0-10.0-0.0-0.0-0.0-1.106","null","<span style='color:GreenYellow; font-size: 70px;'>正确! </span>","null","","","","","","","","","","","","","","","","","","","","","","","feedback_test"
"","","","","","psychophysics","354","657800","0.0-10.0-0.0-0.0-0.0-0.107","669","","f","","","","","","","","","","","","","key","f","16.667179999999934","654.848446999264","432.42421743079575","f","true","img/T_ambi40.png","をる","same",""
"","","","","","html-keyboard-response","355","658308","0.0-10.0-0.0-0.0-0.0-1.107","null","<span style='color:GreenYellow; font-size: 70px;'>正确! </span>","null","","","","","","","","","","","","","","","","","","","","","","","feedback_test"
"","","","","","html-keyboard-response","356","662276","0.0-10.0-0.0-0.0-1.0","3953","<style>.context{color:white; font-size: 35px; line-height:40px}</style>                          <div><p class='context'>您正确回答了86% 的试次。</p><p class='context'>您的平均反应时为721毫秒。</p><p class='context'>请按任意键进入休息</p></div>","j","","","","","","","","","","","","","","","","","","","","","","",""
"","","","","","html-button-response","357","699440","0.0-10.0-0.0-0.0-2.0","37158","
                    <p>您当前还剩余5组实验</p>
                    <p>现在是休息时间，当您结束休息后，您可以点击 结束休息 按钮 继续</p>
                    <p>建议休息时间还剩余<span id=""iii"">60</span>秒</p>","0","","","","","","","","","","","","","","","","","","","","","","",""
"","","","","","psychophysics","358","701301","0.0-10.0-0.0-0.0-0.1-0.108","848","","f","","","","","","","","","","","","","key","f","16.66713636363645","654.848446999264","432.42421743079575","f","true","img/S_ambi40.png","朋友","same",""
"","","","","","html-keyboard-response","359","701808","0.0-10.0-0.0-0.0-0.1-1.108","null","<span style='color:GreenYellow; font-size: 70px;'>正确! </span>","null","","","","","","","","","","","","","","","","","","","","","","","feedback_test"
"","","","","","psychophysics","360","703487","0.0-10.0-0.0-0.0-0.1-0.109","667","","j","","","","","","","","","","","","","key","j","16.66782828282819","654.848446999264","432.42421743079575","j","true","img/S_ambi40.png","自我","same",""
"","","","","","html-keyboard-response","361","703998","0.0-10.0-0.0-0.0-0.1-1.109","null","<span style='color:GreenYellow; font-size: 70px;'>正确! </span>","null","","","","","","","","","","","","","","","","","","","","","","","feedback_test"
"","","","","","psychophysics","362","705560","0.0-10.0-0.0-0.0-0.1-0.110","538","","f","","","","","","","","","","","","","key","f","16.848054347825542","654.848446999264","432.42421743079575","f","true","img/T_ambi40.png","をる","same",""
"","","","","","html-keyboard-response","363","706072","0.0-10.0-0.0-0.0-0.1-1.110","null","<span style='color:GreenYellow; font-size: 70px;'>正确! </span>","null","","","","","","","","","","","","","","","","","","","","","","","feedback_test"
"","","","","","psychophysics","364","707729","0.0-10.0-0.0-0.0-0.1-0.111","655","","j","","","","","","","","","","","","","key","j","16.66751020408131","654.848446999264","432.42421743079575","j","true","img/C_ambi40.png","生人","same",""
"","","","","","html-keyboard-response","365","708232","0.0-10.0-0.0-0.0-0.1-1.111","null","<span style='color:GreenYellow; font-size: 70px;'>正确! </span>","null","","","","","","","","","","","","","","","","","","","","","","","feedback_test"
"","","","","","psychophysics","366","710026","0.0-10.0-0.0-0.0-0.1-0.112","790","","j","","","","","","","","","","","","","key","j","16.640401869159295","654.848446999264","432.42421743079575","j","true","img/S_ambi40.png","生人","same",""
"","","","","","html-keyboard-response","367","710534","0.0-10.0-0.0-0.0-0.1-1.112","null","<span style='color:GreenYellow; font-size: 70px;'>正确! </span>","null","","","","","","","","","","","","","","","","","","","","","","","feedback_test"
"","","","","","psychophysics","368","712143","0.0-10.0-0.0-0.0-0.1-0.113","573","","f","","","","","","","","","","","","","key","f","16.66788541666756","654.848446999264","432.42421743079575","f","true","img/H_ambi40.png","生人","same",""
"","","","","","html-keyboard-response","369","712651","0.0-10.0-0.0-0.0-0.1-1.113","null","<span style='color:GreenYellow; font-size: 70px;'>正确! </span>","null","","","","","","","","","","","","","","","","","","","","","","","feedback_test"
"","","","","","psychophysics","370","714275","0.0-10.0-0.0-0.0-0.1-0.114","619","","f","","","","","","","","","","","","","key","f","16.668360824742326","654.848446999264","432.42421743079575","f","true","img/H_ambi40.png","生人","same",""
"","","","","","html-keyboard-response","371","714778","0.0-10.0-0.0-0.0-0.1-1.114","null","<span style='color:GreenYellow; font-size: 70px;'>正确! </span>","null","","","","","","","","","","","","","","","","","","","","","","","feedback_test"
"","","","","","psychophysics","372","716385","0.0-10.0-0.0-0.0-0.1-0.115","604","","j","","","","","","","","","","","","","key","j","16.667831578947556","654.848446999264","432.42421743079575","f","false","img/S_ambi40.png","朋友","same",""
"","","","","","html-keyboard-response","373","716897","0.0-10.0-0.0-0.0-0.1-1.115","null","<span style='color:red; font-size: 70px;'>错误! </span>","null","","","","","","","","","","","","","","","","","","","","","","","feedback_test"
"","","","","","psychophysics","374","718558","0.0-10.0-0.0-0.0-0.1-0.116","638","","f","","","","","","","","","","","","","key","f","16.637969696969545","654.848446999264","432.42421743079575","f","true","img/C_ambi40.png","自我","same",""
"","","","","","html-keyboard-response","375","719065","0.0-10.0-0.0-0.0-0.1-1.116","null","<span style='color:GreenYellow; font-size: 70px;'>正确! </span>","null","","","","","","","","","","","","","","","","","","","","","","","feedback_test"
"","","","","","psychophysics","376","720568","0.0-10.0-0.0-0.0-0.1-0.117","498","","f","","","","","","","","","","","","","key","f","16.66656179775175","654.848446999264","432.42421743079575","f","true","img/C_ambi40.png","自我","same",""
"","","","","","html-keyboard-response","377","721087","0.0-10.0-0.0-0.0-0.1-1.117","null","<span style='color:GreenYellow; font-size: 70px;'>正确! </span>","null","","","","","","","","","","","","","","","","","","","","","","","feedback_test"
"","","","","","psychophysics","378","722931","0.0-10.0-0.0-0.0-0.1-0.118","838","","j","","","","","","","","","","","","","key","j","16.66716513761486","654.848446999264","432.42421743079575","j","true","img/H_ambi40.png","朋友","same",""
"","","","","","html-keyboard-response","379","723445","0.0-10.0-0.0-0.0-0.1-1.118","null","<span style='color:GreenYellow; font-size: 70px;'>正确! </span>","null","","","","","","","","","","","","","","","","","","","","","","","feedback_test"
"","","","","","psychophysics","380","725014","0.0-10.0-0.0-0.0-0.1-0.119","537","","f","","","","","","","","","","","","","key","f","16.66740860215073","654.848446999264","432.42421743079575","f","true","img/T_ambi40.png","をる","same",""
"","","","","","html-keyboard-response","381","725521","0.0-10.0-0.0-0.0-0.1-1.119","null","<span style='color:GreenYellow; font-size: 70px;'>正确! </span>","null","","","","","","","","","","","","","","","","","","","","","","","feedback_test"
"","","","","","psychophysics","382","727394","0.0-10.0-0.0-0.0-0.1-0.120","862","","j","","","","","","","","","","","","","key","j","16.6671081081081","654.848446999264","432.42421743079575","j","true","img/S_ambi40.png","生人","same",""
"","","","","","html-keyboard-response","383","727911","0.0-10.0-0.0-0.0-0.1-1.120","null","<span style='color:GreenYellow; font-size: 70px;'>正确! </span>","null","","","","","","","","","","","","","","","","","","","","","","","feedback_test"
"","","","","","psychophysics","384","729585","0.0-10.0-0.0-0.0-0.1-0.121","670","","j","","","","","","","","","","","","","key","j","16.667161616161607","654.848446999264","432.42421743079575","j","true","img/H_ambi40.png","自我","same",""
"","","","","","html-keyboard-response","385","730122","0.0-10.0-0.0-0.0-0.1-1.121","null","<span style='color:GreenYellow; font-size: 70px;'>正确! </span>","null","","","","","","","","","","","","","","","","","","","","","","","feedback_test"
"","","","","","psychophysics","386","731869","0.0-10.0-0.0-0.0-0.1-0.122","737","","j","","","","","","","","","","","","","key","j","16.667165048543627","654.848446999264","432.42421743079575","j","true","img/C_ambi40.png","朋友","same",""
"","","","","","html-keyboard-response","387","732382","0.0-10.0-0.0-0.0-0.1-1.122","null","<span style='color:GreenYellow; font-size: 70px;'>正确! </span>","null","","","","","","","","","","","","","","","","","","","","","","","feedback_test"
"","","","","","psychophysics","388","734099","0.0-10.0-0.0-0.0-0.1-0.123","715","","j","","","","","","","","","","","","","key","j","16.667811881187188","654.848446999264","432.42421743079575","j","true","img/H_ambi40.png","自我","same",""
"","","","","","html-keyboard-response","389","734605","0.0-10.0-0.0-0.0-0.1-1.123","null","<span style='color:GreenYellow; font-size: 70px;'>正确! </span>","null","","","","","","","","","","","","","","","","","","","","","","","feedback_test"
"","","","","","psychophysics","390","736460","0.0-10.0-0.0-0.0-0.1-0.124","853","","f","","","","","","","","","","","","","key","f","16.667445454545405","654.848446999264","432.42421743079575","j","false","img/C_ambi40.png","朋友","same",""
"","","","","","html-keyboard-response","391","736996","0.0-10.0-0.0-0.0-0.1-1.124","null","<span style='color:red; font-size: 70px;'>错误! </span>","null","","","","","","","","","","","","","","","","","","","","","","","feedback_test"
"","","","","","psychophysics","392","738662","0.0-10.0-0.0-0.0-0.1-0.125","660","","f","","","","","","","","","","","","","key","f","16.667464646464918","654.848446999264","432.42421743079575","f","true","img/T_ambi40.png","をる","same",""
"","","","","","html-keyboard-response","393","739177","0.0-10.0-0.0-0.0-0.1-1.125","null","<span style='color:GreenYellow; font-size: 70px;'>正确! </span>","null","","","","","","","","","","","","","","","","","","","","","","","feedback_test"
"","","","","","psychophysics","394","740858","0.0-10.0-0.0-0.0-0.1-0.126","676","","j","","","","","","","","","","","","","key","j","16.6675","654.848446999264","432.42421743079575","j","true","img/S_ambi40.png","自我","same",""
"","","","","","html-keyboard-response","395","741375","0.0-10.0-0.0-0.0-0.1-1.126","null","<span style='color:GreenYellow; font-size: 70px;'>正确! </span>","null","","","","","","","","","","","","","","","","","","","","","","","feedback_test"
"","","","","","psychophysics","396","742938","0.0-10.0-0.0-0.0-0.1-0.127","556","","f","","","","","","","","","","","","","key","f","16.66741935483816","654.848446999264","432.42421743079575","f","true","img/T_ambi40.png","をる","same",""
"","","","","","html-keyboard-response","397","743441","0.0-10.0-0.0-0.0-0.1-1.127","null","<span style='color:GreenYellow; font-size: 70px;'>正确! </span>","null","","","","","","","","","","","","","","","","","","","","","","","feedback_test"
"","","","","","psychophysics","398","745362","0.0-10.0-0.0-0.0-0.1-0.128","896","","j","","","","","","","","","","","","","key","j","16.65864035087789","654.848446999264","432.42421743079575","j","true","img/H_ambi40.png","朋友","same",""
"","","","","","html-keyboard-response","399","745867","0.0-10.0-0.0-0.0-0.1-1.128","null","<span style='color:GreenYellow; font-size: 70px;'>正确! </span>","null","","","","","","","","","","","","","","","","","","","","","","","feedback_test"
"","","","","","psychophysics","400","747401","0.0-10.0-0.0-0.0-0.1-0.129","532","","f","","","","","","","","","","","","","key","f","16.66674444444426","654.848446999264","432.42421743079575","j","false","img/C_ambi40.png","朋友","same",""
"","","","","","html-keyboard-response","401","747918","0.0-10.0-0.0-0.0-0.1-1.129","null","<span style='color:red; font-size: 70px;'>错误! </span>","null","","","","","","","","","","","","","","","","","","","","","","","feedback_test"
"","","","","","psychophysics","402","749574","0.0-10.0-0.0-0.0-0.1-0.130","654","","j","","","","","","","","","","","","","key","j","16.66661224489775","654.848446999264","432.42421743079575","j","true","img/H_ambi40.png","自我","same",""
"","","","","","html-keyboard-response","403","750086","0.0-10.0-0.0-0.0-0.1-1.130","null","<span style='color:GreenYellow; font-size: 70px;'>正确! </span>","null","","","","","","","","","","","","","","","","","","","","","","","feedback_test"
"","","","","","psychophysics","404","751810","0.0-10.0-0.0-0.0-0.1-0.131","695","","j","","","","","","","","","","","","","key","j","16.66730392156922","654.848446999264","432.42421743079575","j","true","img/H_ambi40.png","自我","same",""
"","","","","","html-keyboard-response","405","752327","0.0-10.0-0.0-0.0-0.1-1.131","null","<span style='color:GreenYellow; font-size: 70px;'>正确! </span>","null","","","","","","","","","","","","","","","","","","","","","","","feedback_test"
"","","","","","psychophysics","406","753908","0.0-10.0-0.0-0.0-0.1-0.132","576","","j","","","","","","","","","","","","","key","j","16.653361702127324","654.848446999264","432.42421743079575","j","true","img/C_ambi40.png","生人","same",""
"","","","","","html-keyboard-response","407","754421","0.0-10.0-0.0-0.0-0.1-1.132","null","<span style='color:GreenYellow; font-size: 70px;'>正确! </span>","null","","","","","","","","","","","","","","","","","","","","","","","feedback_test"
"","","","","","psychophysics","408","756029","0.0-10.0-0.0-0.0-0.1-0.133","605","","f","","","","","","","","","","","","","key","f","16.667105263157893","654.848446999264","432.42421743079575","f","true","img/T_ambi40.png","をる","same",""
"","","","","","html-keyboard-response","409","756535","0.0-10.0-0.0-0.0-0.1-1.133","null","<span style='color:GreenYellow; font-size: 70px;'>正确! </span>","null","","","","","","","","","","","","","","","","","","","","","","","feedback_test"
"","","","","","psychophysics","410","758292","0.0-10.0-0.0-0.0-0.1-0.134","726","","f","","","","","","","","","","","","","key","f","16.667288461537773","654.848446999264","432.42421743079575","f","true","img/C_ambi40.png","自我","same",""
"","","","","","html-keyboard-response","411","758806","0.0-10.0-0.0-0.0-0.1-1.134","null","<span style='color:GreenYellow; font-size: 70px;'>正确! </span>","null","","","","","","","","","","","","","","","","","","","","","","","feedback_test"
"","","","","","psychophysics","412","760538","0.0-10.0-0.0-0.0-0.1-0.135","723","","j","","","","","","","","","","","","","key","j","16.667407766990454","654.848446999264","432.42421743079575","j","true","img/S_ambi40.png","生人","same",""
"","","","","","html-keyboard-response","413","761041","0.0-10.0-0.0-0.0-0.1-1.135","null","<span style='color:GreenYellow; font-size: 70px;'>正确! </span>","null","","","","","","","","","","","","","","","","","","","","","","","feedback_test"
"","","","","","psychophysics","414","762812","0.0-10.0-0.0-0.0-0.1-0.136","763","","j","","","","","","","","","","","","","key","j","16.65468571428542","654.848446999264","432.42421743079575","j","true","img/S_ambi40.png","生人","same",""
"","","","","","html-keyboard-response","415","763336","0.0-10.0-0.0-0.0-0.1-1.136","null","<span style='color:GreenYellow; font-size: 70px;'>正确! </span>","null","","","","","","","","","","","","","","","","","","","","","","","feedback_test"
"","","","","","psychophysics","416","764915","0.0-10.0-0.0-0.0-0.1-0.137","573","","f","","","","","","","","","","","","","key","f","16.667494623655184","654.848446999264","432.42421743079575","f","true","img/T_ambi40.png","をる","same",""
"","","","","","html-keyboard-response","417","765431","0.0-10.0-0.0-0.0-0.1-1.137","null","<span style='color:GreenYellow; font-size: 70px;'>正确! </span>","null","","","","","","","","","","","","","","","","","","","","","","","feedback_test"
"","","","","","psychophysics","418","767087","0.0-10.0-0.0-0.0-0.1-0.138","653","","j","","","","","","","","","","","","","key","j","16.667525773195877","654.848446999264","432.42421743079575","j","true","img/C_ambi40.png","朋友","same",""
"","","","","","html-keyboard-response","419","767595","0.0-10.0-0.0-0.0-0.1-1.138","null","<span style='color:GreenYellow; font-size: 70px;'>正确! </span>","null","","","","","","","","","","","","","","","","","","","","","","","feedback_test"
