"success","timeout","failed_images","failed_audio","failed_video","trial_type","trial_index","time_elapsed","internal_node_id","rt","stimulus","response","value","item_width_mm","item_height_mm","item_width_px","px2mm","view_dist_mm","item_width_deg","px2deg","scale_factor","win_width_deg","win_height_deg","view_history","response_type","key_press","avg_frame_time","center_x","center_y","correct_response","correct","Image","word","condition","screen_id"
"true","false","[]","[]","[]","preload","0","552","0.0-0.0","","","","","","","","","","","","","","","","","","","","","","","","","",""
"","","","","","html-keyboard-response","1","54015","0.0-1.0","53461","
     <p>您好，欢迎参加本次实验。</p>
     <p>为充分保障您的权利，请确保您已经知晓并同意《参与实验同意书》以及《数据公开知情同意书》。</p>
     <p>如果您未见过上述内容，请咨询实验员。</p>
     <p>如果您选择继续实验，则表示您已经清楚两份知情同意书的内容并同意。</p>
     <p> <div style = ""color: green""><按任意键至下页></div> </p>
     "," ","","","","","","","","","","","","","","","","","","","","","","",""
"","","","","","html-keyboard-response","2","55307","0.0-2.0","1291","
     <p>本实验首先需要您填写一些基本个人信息。</p>
     <p> <div style = ""color: green""><按任意键至下页></div></p>
     "," ","","","","","","","","","","","","","","","","","","","","","","",""
"","","","","","call-function","3","55309","0.0-3.0-0.0","","","","","","","","","","","","","","","","","","","","","","","","","",""
"","","","","","survey-html-form","4","58318","0.0-3.0-1.0","3009","","{""Q0"":""9""}","","","","","","","","","","","","","","","","","","","","","","",""
"","","","","","html-button-response","5","59192","0.0-3.0-2.0","873","<p style = 'color : white'>您的性别</p>","0","","","","","","","","","","","","","","","","","","","","","","",""
"","","","","","survey-html-form","6","65054","0.0-3.0-3.0","5861","","{""Q0"":""2000""}","","","","","","","","","","","","","","","","","","","","","","",""
"","","","","","survey-html-form","7","70106","0.0-3.0-4.0","5050","","{""Q0"":""5""}","","","","","","","","","","","","","","","","","","","","","","",""
"","","","","","virtual-chinrest","8","232577","0.0-4.0","162467","","","","85.6","53.98","400.61881769790364","4.6776799452795","611.12","8.012376353958073","50","0.8786407039557342","26.02","13.76","","","","","","","","","","","",""
"true","","","","","fullscreen","9","237560","0.0-5.0","","","","","","","","","","","","","","","","","","","","","","","","","",""
"","","","","","instructions","10","286049","0.0-6.0","48487","","","","","","","","","","","","","","[{""page_index"":0,""viewing_time"":4020},{""page_index"":1,""viewing_time"":33787},{""page_index"":2,""viewing_time"":4353},{""page_index"":3,""viewing_time"":6325}]","","","","","","","","","","",""
"","","","","","psychophysics","11","288590","0.0-7.0-0.0","null","","null","","","","","","","","","","","","","key","null","22.93196330275205","673.3333558645869","374.736854644804","j","false","img/S_ambi40.png","生人","prac",""
"","","","","","html-keyboard-response","12","289100","0.0-7.0-1.0","null","<span class='add_' style='color:yellow; font-size: 70px;'> 太慢! </span>","null","","","","","","","","","","","","","","","","","","","","","","","feedback_test"
"","","","","","psychophysics","13","291616","0.0-7.0-0.1","null","","null","","","","","","","","","","","","","key","null","22.217774774774337","673.3333558645869","374.736854644804","j","false","img/T_ambi40.png","をる","prac",""
"","","","","","html-keyboard-response","14","292156","0.0-7.0-1.1","null","<span class='add_' style='color:yellow; font-size: 70px;'> 太慢! </span>","null","","","","","","","","","","","","","","","","","","","","","","","feedback_test"
"","","","","","psychophysics","15","294494","0.0-7.0-0.2","1329","","f","","","","","","","","","","","","","key","f","21.900580952380828","673.3333558645869","374.736854644804","j","false","img/C_ambi40.png","朋友","prac",""
"","","","","","html-keyboard-response","16","295004","0.0-7.0-1.2","null","<span style='color:red; font-size: 70px;'>错误! </span>","null","","","","","","","","","","","","","","","","","","","","","","","feedback_test"
"","","","","","psychophysics","17","296819","0.0-7.0-0.3","804","","j","","","","","","","","","","","","","key","j","21.744012195121485","673.3333558645869","374.736854644804","j","true","img/C_ambi40.png","朋友","prac",""
"","","","","","html-keyboard-response","18","297323","0.0-7.0-1.3","null","<span style='color:GreenYellow; font-size: 70px;'>正确! </span>","null","","","","","","","","","","","","","","","","","","","","","","","feedback_test"
"","","","","","psychophysics","19","299014","0.0-7.0-0.4","683","","j","","","","","","","","","","","","","key","j","20.076445783132193","673.3333558645869","374.736854644804","j","true","img/H_ambi40.png","自我","prac",""
"","","","","","html-keyboard-response","20","299519","0.0-7.0-1.4","null","<span style='color:GreenYellow; font-size: 70px;'>正确! </span>","null","","","","","","","","","","","","","","","","","","","","","","","feedback_test"
"","","","","","psychophysics","21","301351","0.0-7.0-0.5","821","","f","","","","","","","","","","","","","key","f","22.495737499999812","673.3333558645869","374.736854644804","j","false","img/T_ambi40.png","をる","prac",""
"","","","","","html-keyboard-response","22","301856","0.0-7.0-1.5","null","<span style='color:red; font-size: 70px;'>错误! </span>","null","","","","","","","","","","","","","","","","","","","","","","","feedback_test"
"","","","","","psychophysics","23","304304","0.0-7.0-0.6","1422","","f","","","","","","","","","","","","","key","f","21.234884955752353","673.3333558645869","374.736854644804","f","true","img/S_ambi40.png","朋友","prac",""
"","","","","","html-keyboard-response","24","304818","0.0-7.0-1.6","null","<span style='color:GreenYellow; font-size: 70px;'>正确! </span>","null","","","","","","","","","","","","","","","","","","","","","","","feedback_test"
"","","","","","psychophysics","25","306930","0.0-7.0-0.7","1104","","f","","","","","","","","","","","","","key","f","22.95882222222216","673.3333558645869","374.736854644804","f","true","img/S_ambi40.png","自我","prac",""
"","","","","","html-keyboard-response","26","307445","0.0-7.0-1.7","null","<span style='color:GreenYellow; font-size: 70px;'>正确! </span>","null","","","","","","","","","","","","","","","","","","","","","","","feedback_test"
"","","","","","psychophysics","27","309681","0.0-7.0-0.8","1218","","j","","","","","","","","","","","","","key","j","21.150000000000336","673.3333558645869","374.736854644804","j","true","img/T_ambi40.png","をる","prac",""
"","","","","","html-keyboard-response","28","310191","0.0-7.0-1.8","null","<span style='color:GreenYellow; font-size: 70px;'>正确! </span>","null","","","","","","","","","","","","","","","","","","","","","","","feedback_test"
"","","","","","psychophysics","29","312577","0.0-7.0-0.9","1378","","f","","","","","","","","","","","","","key","f","20.97825892857145","673.3333558645869","374.736854644804","f","true","img/H_ambi40.png","朋友","prac",""
"","","","","","html-keyboard-response","30","313087","0.0-7.0-1.9","null","<span style='color:GreenYellow; font-size: 70px;'>正确! </span>","null","","","","","","","","","","","","","","","","","","","","","","","feedback_test"
"","","","","","psychophysics","31","315589","0.0-7.0-0.10","1490","","f","","","","","","","","","","","","","key","f","23.487676190476243","673.3333558645869","374.736854644804","f","true","img/C_ambi40.png","自我","prac",""
"","","","","","html-keyboard-response","32","316107","0.0-7.0-1.10","null","<span style='color:GreenYellow; font-size: 70px;'>正确! </span>","null","","","","","","","","","","","","","","","","","","","","","","","feedback_test"
"","","","","","psychophysics","33","318192","0.0-7.0-0.11","1080","","j","","","","","","","","","","","","","key","j","21.17656250000012","673.3333558645869","374.736854644804","j","true","img/H_ambi40.png","自我","prac",""
"","","","","","html-keyboard-response","34","318711","0.0-7.0-1.11","null","<span style='color:GreenYellow; font-size: 70px;'>正确! </span>","null","","","","","","","","","","","","","","","","","","","","","","","feedback_test"
"","","","","","psychophysics","35","321125","0.0-7.0-0.12","1393","","f","","","","","","","","","","","","","key","f","22.693847619047542","673.3333558645869","374.736854644804","f","true","img/H_ambi40.png","生人","prac",""
"","","","","","html-keyboard-response","36","321642","0.0-7.0-1.12","null","<span style='color:GreenYellow; font-size: 70px;'>正确! </span>","null","","","","","","","","","","","","","","","","","","","","","","","feedback_test"
"","","","","","psychophysics","37","323633","0.0-7.0-0.13","986","","j","","","","","","","","","","","","","key","j","21.37255434782571","673.3333558645869","374.736854644804","j","true","img/T_ambi40.png","をる","prac",""
"","","","","","html-keyboard-response","38","324148","0.0-7.0-1.13","null","<span style='color:GreenYellow; font-size: 70px;'>正确! </span>","null","","","","","","","","","","","","","","","","","","","","","","","feedback_test"
"","","","","","psychophysics","39","326700","0.0-7.0-0.14","null","","null","","","","","","","","","","","","","key","null","22.778853211009345","673.3333558645869","374.736854644804","f","false","img/C_ambi40.png","生人","prac",""
"","","","","","html-keyboard-response","40","327216","0.0-7.0-1.14","null","<span class='add_' style='color:yellow; font-size: 70px;'> 太慢! </span>","null","","","","","","","","","","","","","","","","","","","","","","","feedback_test"
"","","","","","psychophysics","41","329726","0.0-7.0-0.15","null","","null","","","","","","","","","","","","","key","null","20.69050000000037","673.3333558645869","374.736854644804","j","false","img/S_ambi40.png","生人","prac",""
"","","","","","html-keyboard-response","42","330231","0.0-7.0-1.15","null","<span class='add_' style='color:yellow; font-size: 70px;'> 太慢! </span>","null","","","","","","","","","","","","","","","","","","","","","","","feedback_test"
"","","","","","psychophysics","43","332132","0.0-7.0-0.16","892","","f","","","","","","","","","","","","","key","f","20.285782608695826","673.3333558645869","374.736854644804","f","true","img/S_ambi40.png","自我","prac",""
"","","","","","html-keyboard-response","44","332655","0.0-7.0-1.16","null","<span style='color:GreenYellow; font-size: 70px;'>正确! </span>","null","","","","","","","","","","","","","","","","","","","","","","","feedback_test"
"","","","","","psychophysics","45","334515","0.0-7.0-0.17","841","","j","","","","","","","","","","","","","key","j","19.74269565217369","673.3333558645869","374.736854644804","j","true","img/H_ambi40.png","自我","prac",""
"","","","","","html-keyboard-response","46","335031","0.0-7.0-1.17","null","<span style='color:GreenYellow; font-size: 70px;'>正确! </span>","null","","","","","","","","","","","","","","","","","","","","","","","feedback_test"
"","","","","","psychophysics","47","337538","0.0-7.0-0.18","null","","null","","","","","","","","","","","","","key","null","21.59015652173877","673.3333558645869","374.736854644804","f","false","img/C_ambi40.png","生人","prac",""
"","","","","","html-keyboard-response","48","338046","0.0-7.0-1.18","null","<span class='add_' style='color:yellow; font-size: 70px;'> 太慢! </span>","null","","","","","","","","","","","","","","","","","","","","","","","feedback_test"
"","","","","","psychophysics","49","339997","0.0-7.0-0.19","933","","j","","","","","","","","","","","","","key","j","21.586386363636517","673.3333558645869","374.736854644804","j","true","img/T_ambi40.png","をる","prac",""
"","","","","","html-keyboard-response","50","340505","0.0-7.0-1.19","null","<span style='color:GreenYellow; font-size: 70px;'>正确! </span>","null","","","","","","","","","","","","","","","","","","","","","","","feedback_test"
"","","","","","psychophysics","51","342607","0.0-7.0-0.20","1097","","j","","","","","","","","","","","","","key","j","20.62318811881227","673.3333558645869","374.736854644804","j","true","img/T_ambi40.png","をる","prac",""
"","","","","","html-keyboard-response","52","343116","0.0-7.0-1.20","null","<span style='color:GreenYellow; font-size: 70px;'>正确! </span>","null","","","","","","","","","","","","","","","","","","","","","","","feedback_test"
"","","","","","psychophysics","53","345623","0.0-7.0-0.21","null","","null","","","","","","","","","","","","","key","null","22.571599999999904","673.3333558645869","374.736854644804","j","false","img/S_ambi40.png","生人","prac",""
"","","","","","html-keyboard-response","54","346132","0.0-7.0-1.21","null","<span class='add_' style='color:yellow; font-size: 70px;'> 太慢! </span>","null","","","","","","","","","","","","","","","","","","","","","","","feedback_test"
"","","","","","psychophysics","55","348139","0.0-7.0-0.22","1002","","f","","","","","","","","","","","","","key","f","21.372760869565155","673.3333558645869","374.736854644804","j","false","img/S_ambi40.png","生人","prac",""
"","","","","","html-keyboard-response","56","348649","0.0-7.0-1.22","null","<span style='color:red; font-size: 70px;'>错误! </span>","null","","","","","","","","","","","","","","","","","","","","","","","feedback_test"
"","","","","","psychophysics","57","351026","0.0-7.0-0.23","1366","","f","","","","","","","","","","","","","key","f","21.55568807339456","673.3333558645869","374.736854644804","f","true","img/H_ambi40.png","生人","prac",""
"","","","","","html-keyboard-response","58","351534","0.0-7.0-1.23","null","<span style='color:GreenYellow; font-size: 70px;'>正确! </span>","null","","","","","","","","","","","","","","","","","","","","","","","feedback_test"
"","","","","","psychophysics","59","353376","0.0-7.0-0.24","833","","j","","","","","","","","","","","","","key","j","20.926511627906894","673.3333558645869","374.736854644804","j","true","img/T_ambi40.png","をる","prac",""
"","","","","","html-keyboard-response","60","353882","0.0-7.0-1.24","null","<span style='color:GreenYellow; font-size: 70px;'>正确! </span>","null","","","","","","","","","","","","","","","","","","","","","","","feedback_test"
"","","","","","psychophysics","61","356402","0.0-7.0-0.25","null","","null","","","","","","","","","","","","","key","null","22.518360360360365","673.3333558645869","374.736854644804","f","false","img/H_ambi40.png","朋友","prac",""
"","","","","","html-keyboard-response","62","356916","0.0-7.0-1.25","null","<span class='add_' style='color:yellow; font-size: 70px;'> 太慢! </span>","null","","","","","","","","","","","","","","","","","","","","","","","feedback_test"
"","","","","","psychophysics","63","359041","0.0-7.0-0.26","1119","","f","","","","","","","","","","","","","key","f","20.788336633663107","673.3333558645869","374.736854644804","f","true","img/S_ambi40.png","朋友","prac",""
"","","","","","html-keyboard-response","64","359557","0.0-7.0-1.26","null","<span style='color:GreenYellow; font-size: 70px;'>正确! </span>","null","","","","","","","","","","","","","","","","","","","","","","","feedback_test"
"","","","","","psychophysics","65","361484","0.0-7.0-0.27","901","","j","","","","","","","","","","","","","key","j","20.875692307692567","673.3333558645869","374.736854644804","j","true","img/T_ambi40.png","をる","prac",""
"","","","","","html-keyboard-response","66","361997","0.0-7.0-1.27","null","<span style='color:GreenYellow; font-size: 70px;'>正确! </span>","null","","","","","","","","","","","","","","","","","","","","","","","feedback_test"
"","","","","","psychophysics","67","364281","0.0-7.0-0.28","1271","","j","","","","","","","","","","","","","key","j","22.272366336633862","673.3333558645869","374.736854644804","j","true","img/C_ambi40.png","朋友","prac",""
"","","","","","html-keyboard-response","68","364795","0.0-7.0-1.28","null","<span style='color:GreenYellow; font-size: 70px;'>正确! </span>","null","","","","","","","","","","","","","","","","","","","","","","","feedback_test"
"","","","","","psychophysics","69","366835","0.0-7.0-0.29","978","","f","","","","","","","","","","","","","key","f","20.74072340425498","673.3333558645869","374.736854644804","f","true","img/C_ambi40.png","自我","prac",""
"","","","","","html-keyboard-response","70","367352","0.0-7.0-1.29","null","<span style='color:GreenYellow; font-size: 70px;'>正确! </span>","null","","","","","","","","","","","","","","","","","","","","","","","feedback_test"
"","","","","","psychophysics","71","369781","0.0-7.0-0.30","1421","","j","","","","","","","","","","","","","key","j","22.63720754716976","673.3333558645869","374.736854644804","j","true","img/H_ambi40.png","自我","prac",""
"","","","","","html-keyboard-response","72","370299","0.0-7.0-1.30","null","<span style='color:GreenYellow; font-size: 70px;'>正确! </span>","null","","","","","","","","","","","","","","","","","","","","","","","feedback_test"
"","","","","","psychophysics","73","372436","0.0-7.0-0.31","1130","","j","","","","","","","","","","","","","key","j","20.74759803921573","673.3333558645869","374.736854644804","j","true","img/C_ambi40.png","朋友","prac",""
"","","","","","html-keyboard-response","74","372951","0.0-7.0-1.31","null","<span style='color:GreenYellow; font-size: 70px;'>正确! </span>","null","","","","","","","","","","","","","","","","","","","","","","","feedback_test"
"","","","","","psychophysics","75","375234","0.0-8.0-0.0-0.0","1280","","j","","","","","","","","","","","","","key","j","20.638376146788847","673.3333558645869","374.736854644804","j","true","img/S_ambi40.png","生人","prac",""
"","","","","","html-keyboard-response","76","375747","0.0-8.0-0.0-1.0","null","<span style='color:GreenYellow; font-size: 70px;'>正确! </span>","null","","","","","","","","","","","","","","","","","","","","","","","feedback_test"
"","","","","","psychophysics","77","377671","0.0-8.0-0.0-0.1","919","","f","","","","","","","","","","","","","key","f","22.88739759036121","673.3333558645869","374.736854644804","f","true","img/S_ambi40.png","朋友","prac",""
"","","","","","html-keyboard-response","78","378183","0.0-8.0-0.0-1.1","null","<span style='color:GreenYellow; font-size: 70px;'>正确! </span>","null","","","","","","","","","","","","","","","","","","","","","","","feedback_test"
"","","","","","psychophysics","79","380187","0.0-8.0-0.0-0.2","973","","f","","","","","","","","","","","","","key","f","20.064540816326648","673.3333558645869","374.736854644804","f","true","img/S_ambi40.png","自我","prac",""
"","","","","","html-keyboard-response","80","380696","0.0-8.0-0.0-1.2","null","<span style='color:GreenYellow; font-size: 70px;'>正确! </span>","null","","","","","","","","","","","","","","","","","","","","","","","feedback_test"
"","","","","","psychophysics","81","383217","0.0-8.0-0.0-0.3","null","","null","","","","","","","","","","","","","key","null","21.182601694915427","673.3333558645869","374.736854644804","f","false","img/H_ambi40.png","朋友","prac",""
"","","","","","html-keyboard-response","82","383728","0.0-8.0-0.0-1.3","null","<span class='add_' style='color:yellow; font-size: 70px;'> 太慢! </span>","null","","","","","","","","","","","","","","","","","","","","","","","feedback_test"
"","","","","","psychophysics","83","385526","0.0-8.0-0.0-0.4","786","","j","","","","","","","","","","","","","key","j","22.939558441558695","673.3333558645869","374.736854644804","j","true","img/T_ambi40.png","をる","prac",""
"","","","","","html-keyboard-response","84","386046","0.0-8.0-0.0-1.4","null","<span style='color:GreenYellow; font-size: 70px;'>正确! </span>","null","","","","","","","","","","","","","","","","","","","","","","","feedback_test"
"","","","","","psychophysics","85","388213","0.0-8.0-0.0-0.5","1164","","f","","","","","","","","","","","","","key","f","21.207646464646764","673.3333558645869","374.736854644804","f","true","img/C_ambi40.png","生人","prac",""
"","","","","","html-keyboard-response","86","388719","0.0-8.0-0.0-1.5","null","<span style='color:GreenYellow; font-size: 70px;'>正确! </span>","null","","","","","","","","","","","","","","","","","","","","","","","feedback_test"
"","","","","","psychophysics","87","390435","0.0-8.0-0.0-0.6","701","","j","","","","","","","","","","","","","key","j","20.778148148147775","673.3333558645869","374.736854644804","j","true","img/T_ambi40.png","をる","prac",""
"","","","","","html-keyboard-response","88","390941","0.0-8.0-0.0-1.6","null","<span style='color:GreenYellow; font-size: 70px;'>正确! </span>","null","","","","","","","","","","","","","","","","","","","","","","","feedback_test"
"","","","","","psychophysics","89","393448","0.0-8.0-0.0-0.7","null","","null","","","","","","","","","","","","","key","null","21.07854700854703","673.3333558645869","374.736854644804","j","false","img/S_ambi40.png","生人","prac",""
"","","","","","html-keyboard-response","90","393957","0.0-8.0-0.0-1.7","null","<span class='add_' style='color:yellow; font-size: 70px;'> 太慢! </span>","null","","","","","","","","","","","","","","","","","","","","","","","feedback_test"
"","","","","","psychophysics","91","396479","0.0-8.0-0.0-0.8","null","","null","","","","","","","","","","","","","key","null","21.182618644067787","673.3333558645869","374.736854644804","j","false","img/C_ambi40.png","朋友","prac",""
"","","","","","html-keyboard-response","92","396985","0.0-8.0-0.0-1.8","null","<span class='add_' style='color:yellow; font-size: 70px;'> 太慢! </span>","null","","","","","","","","","","","","","","","","","","","","","","","feedback_test"
"","","","","","psychophysics","93","398968","0.0-8.0-0.0-0.9","977","","j","","","","","","","","","","","","","key","j","20.784795698924466","673.3333558645869","374.736854644804","j","true","img/H_ambi40.png","自我","prac",""
"","","","","","html-keyboard-response","94","399476","0.0-8.0-0.0-1.9","null","<span style='color:GreenYellow; font-size: 70px;'>正确! </span>","null","","","","","","","","","","","","","","","","","","","","","","","feedback_test"
"","","","","","psychophysics","95","401131","0.0-8.0-0.0-0.10","652","","j","","","","","","","","","","","","","key","j","20.161024691358087","673.3333558645869","374.736854644804","j","true","img/T_ambi40.png","をる","prac",""
"","","","","","html-keyboard-response","96","401636","0.0-8.0-0.0-1.10","null","<span style='color:GreenYellow; font-size: 70px;'>正确! </span>","null","","","","","","","","","","","","","","","","","","","","","","","feedback_test"
"","","","","","psychophysics","97","403315","0.0-8.0-0.0-0.11","676","","j","","","","","","","","","","","","","key","j","21.150025641025515","673.3333558645869","374.736854644804","j","true","img/T_ambi40.png","をる","prac",""
"","","","","","html-keyboard-response","98","403828","0.0-8.0-0.0-1.11","null","<span style='color:GreenYellow; font-size: 70px;'>正确! </span>","null","","","","","","","","","","","","","","","","","","","","","","","feedback_test"
"","","","","","psychophysics","99","405625","0.0-8.0-0.0-0.12","794","","f","","","","","","","","","","","","","key","f","21.33734146341406","673.3333558645869","374.736854644804","f","true","img/C_ambi40.png","自我","prac",""
"","","","","","html-keyboard-response","100","406145","0.0-8.0-0.0-1.12","null","<span style='color:GreenYellow; font-size: 70px;'>正确! </span>","null","","","","","","","","","","","","","","","","","","","","","","","feedback_test"
"","","","","","psychophysics","101","407961","0.0-8.0-0.0-0.13","805","","f","","","","","","","","","","","","","key","f","19.846438202247015","673.3333558645869","374.736854644804","f","true","img/H_ambi40.png","生人","prac",""
"","","","","","html-keyboard-response","102","408477","0.0-8.0-0.0-1.13","null","<span style='color:GreenYellow; font-size: 70px;'>正确! </span>","null","","","","","","","","","","","","","","","","","","","","","","","feedback_test"
"","","","","","psychophysics","103","410078","0.0-8.0-0.0-0.14","596","","j","","","","","","","","","","","","","key","j","21.16737837837836","673.3333558645869","374.736854644804","j","true","img/H_ambi40.png","自我","prac",""
"","","","","","html-keyboard-response","104","410591","0.0-8.0-0.0-1.14","null","<span style='color:GreenYellow; font-size: 70px;'>正确! </span>","null","","","","","","","","","","","","","","","","","","","","","","","feedback_test"
"","","","","","psychophysics","105","412212","0.0-8.0-0.0-0.15","598","","j","","","","","","","","","","","","","key","j","21.68547945205451","673.3333558645869","374.736854644804","j","true","img/C_ambi40.png","朋友","prac",""
"","","","","","html-keyboard-response","106","412721","0.0-8.0-0.0-1.15","null","<span style='color:GreenYellow; font-size: 70px;'>正确! </span>","null","","","","","","","","","","","","","","","","","","","","","","","feedback_test"
"","","","","","psychophysics","107","415046","0.0-8.0-0.0-0.16","1318","","f","","","","","","","","","","","","","key","f","22.111442307691995","673.3333558645869","374.736854644804","f","true","img/H_ambi40.png","生人","prac",""
"","","","","","html-keyboard-response","108","415559","0.0-8.0-0.0-1.16","null","<span style='color:GreenYellow; font-size: 70px;'>正确! </span>","null","","","","","","","","","","","","","","","","","","","","","","","feedback_test"
"","","","","","psychophysics","109","417574","0.0-8.0-0.0-0.17","1012","","j","","","","","","","","","","","","","key","j","22.21823333333337","673.3333558645869","374.736854644804","j","true","img/H_ambi40.png","自我","prac",""
"","","","","","html-keyboard-response","110","418088","0.0-8.0-0.0-1.17","null","<span style='color:GreenYellow; font-size: 70px;'>正确! </span>","null","","","","","","","","","","","","","","","","","","","","","","","feedback_test"
"","","","","","psychophysics","111","420213","0.0-8.0-0.0-0.18","1097","","j","","","","","","","","","","","","","key","j","20.3845825242715","673.3333558645869","374.736854644804","j","true","img/C_ambi40.png","朋友","prac",""
"","","","","","html-keyboard-response","112","420724","0.0-8.0-0.0-1.18","null","<span style='color:GreenYellow; font-size: 70px;'>正确! </span>","null","","","","","","","","","","","","","","","","","","","","","","","feedback_test"
"","","","","","psychophysics","113","422900","0.0-8.0-0.0-0.19","1169","","j","","","","","","","","","","","","","key","j","20.313790476190793","673.3333558645869","374.736854644804","j","true","img/S_ambi40.png","生人","prac",""
"","","","","","html-keyboard-response","114","423408","0.0-8.0-0.0-1.19","null","<span style='color:GreenYellow; font-size: 70px;'>正确! </span>","null","","","","","","","","","","","","","","","","","","","","","","","feedback_test"
"","","","","","psychophysics","115","425234","0.0-8.0-0.0-0.20","819","","j","","","","","","","","","","","","","key","j","22.85903846153852","673.3333558645869","374.736854644804","j","true","img/T_ambi40.png","をる","prac",""
"","","","","","html-keyboard-response","116","425750","0.0-8.0-0.0-1.20","null","<span style='color:GreenYellow; font-size: 70px;'>正确! </span>","null","","","","","","","","","","","","","","","","","","","","","","","feedback_test"
"","","","","","psychophysics","117","427925","0.0-8.0-0.0-0.21","1170","","f","","","","","","","","","","","","","key","f","21.713171717171637","673.3333558645869","374.736854644804","f","true","img/C_ambi40.png","自我","prac",""
"","","","","","html-keyboard-response","118","428429","0.0-8.0-0.0-1.21","null","<span style='color:GreenYellow; font-size: 70px;'>正确! </span>","null","","","","","","","","","","","","","","","","","","","","","","","feedback_test"
"","","","","","psychophysics","119","430126","0.0-8.0-0.0-0.22","692","","j","","","","","","","","","","","","","key","j","22.82699999999979","673.3333558645869","374.736854644804","j","true","img/T_ambi40.png","をる","prac",""
"","","","","","html-keyboard-response","120","430639","0.0-8.0-0.0-1.22","null","<span style='color:GreenYellow; font-size: 70px;'>正确! </span>","null","","","","","","","","","","","","","","","","","","","","","","","feedback_test"
"","","","","","psychophysics","121","433106","0.0-8.0-0.0-0.23","1465","","j","","","","","","","","","","","","","key","j","21.300643478260557","673.3333558645869","374.736854644804","j","true","img/S_ambi40.png","生人","prac",""
"","","","","","html-keyboard-response","122","433624","0.0-8.0-0.0-1.23","null","<span style='color:GreenYellow; font-size: 70px;'>正确! </span>","null","","","","","","","","","","","","","","","","","","","","","","","feedback_test"
"","","","","","psychophysics","123","435778","0.0-8.0-0.0-0.24","1147","","f","","","","","","","","","","","","","key","f","19.65050943396252","673.3333558645869","374.736854644804","f","true","img/C_ambi40.png","生人","prac",""
"","","","","","html-keyboard-response","124","436301","0.0-8.0-0.0-1.24","null","<span style='color:GreenYellow; font-size: 70px;'>正确! </span>","null","","","","","","","","","","","","","","","","","","","","","","","feedback_test"
"","","","","","psychophysics","125","438191","0.0-8.0-0.0-0.25","885","","f","","","","","","","","","","","","","key","f","20.325857142857046","673.3333558645869","374.736854644804","f","true","img/S_ambi40.png","自我","prac",""
"","","","","","html-keyboard-response","126","438698","0.0-8.0-0.0-1.25","null","<span style='color:GreenYellow; font-size: 70px;'>正确! </span>","null","","","","","","","","","","","","","","","","","","","","","","","feedback_test"
"","","","","","psychophysics","127","440936","0.0-8.0-0.0-0.26","1234","","f","","","","","","","","","","","","","key","f","21.15001923076936","673.3333558645869","374.736854644804","j","false","img/C_ambi40.png","朋友","prac",""
"","","","","","html-keyboard-response","128","441445","0.0-8.0-0.0-1.26","null","<span style='color:red; font-size: 70px;'>错误! </span>","null","","","","","","","","","","","","","","","","","","","","","","","feedback_test"
"","","","","","psychophysics","129","443103","0.0-8.0-0.0-0.27","647","","j","","","","","","","","","","","","","key","j","22.37054794520532","673.3333558645869","374.736854644804","j","true","img/T_ambi40.png","をる","prac",""
"","","","","","html-keyboard-response","130","443617","0.0-8.0-0.0-1.27","null","<span style='color:GreenYellow; font-size: 70px;'>正确! </span>","null","","","","","","","","","","","","","","","","","","","","","","","feedback_test"
"","","","","","psychophysics","131","445933","0.0-8.0-0.0-0.28","1310","","j","","","","","","","","","","","","","key","j","20.383044642857254","673.3333558645869","374.736854644804","j","true","img/H_ambi40.png","自我","prac",""
"","","","","","html-keyboard-response","132","446435","0.0-8.0-0.0-1.28","null","<span style='color:GreenYellow; font-size: 70px;'>正确! </span>","null","","","","","","","","","","","","","","","","","","","","","","","feedback_test"
"","","","","","psychophysics","133","448206","0.0-8.0-0.0-0.29","767","","j","","","","","","","","","","","","","key","j","20.879831325300653","673.3333558645869","374.736854644804","f","false","img/H_ambi40.png","朋友","prac",""
"","","","","","html-keyboard-response","134","448721","0.0-8.0-0.0-1.29","null","<span style='color:red; font-size: 70px;'>错误! </span>","null","","","","","","","","","","","","","","","","","","","","","","","feedback_test"
"","","","","","psychophysics","135","450799","0.0-8.0-0.0-0.30","1072","","f","","","","","","","","","","","","","key","f","21.680677419354367","673.3333558645869","374.736854644804","f","true","img/S_ambi40.png","朋友","prac",""
"","","","","","html-keyboard-response","136","451318","0.0-8.0-0.0-1.30","null","<span style='color:GreenYellow; font-size: 70px;'>正确! </span>","null","","","","","","","","","","","","","","","","","","","","","","","feedback_test"
"","","","","","psychophysics","137","452907","0.0-8.0-0.0-0.31","584","","j","","","","","","","","","","","","","key","j","20.88517333333303","673.3333558645869","374.736854644804","j","true","img/T_ambi40.png","をる","prac",""
"","","","","","html-keyboard-response","138","453425","0.0-8.0-0.0-1.31","null","<span style='color:GreenYellow; font-size: 70px;'>正确! </span>","null","","","","","","","","","","","","","","","","","","","","","","","feedback_test"
"","","","","","html-keyboard-response","139","462695","0.0-9.0","9253","<style>.context{color:white; font-size: 35px; line-height:40px}</style>                          <div><p class='context'>您正确回答了84% 的试次。</p ><p class='context'>您的平均反应时为937毫秒。</p ><p class='context'>恭喜您完成练习。按任意键进入正式实验。</p ><p class='footer' style='font-size: 35px; line-height:40px;'>请在进入正式实验实验之前将您的<span style='color: lightgreen;'>食指</span>放在电脑键盘的相应键位上进行按键。</p >"," ","","","","","","","","","","","","","","","","","","","","","","",""
"","","","","","psychophysics","140","465217","0.0-10.0-0.0-0.0-0.0-0.0","null","","null","","","","","","","","","","","","","key","null","20.87072268907546","673.3333558645869","374.736854644804","f","false","img/C_ambi40.png","生人","same",""
"","","","","","html-keyboard-response","141","465724","0.0-10.0-0.0-0.0-0.0-1.0","null","<span class='add_' style='color:yellow; font-size: 70px;'> 太慢! </span>","null","","","","","","","","","","","","","","","","","","","","","","","feedback_test"
"","","","","","psychophysics","142","467573","0.0-10.0-0.0-0.0-0.0-0.1","845","","f","","","","","","","","","","","","","key","f","21.424404761905038","673.3333558645869","374.736854644804","f","true","img/C_ambi40.png","自我","same",""
"","","","","","html-keyboard-response","143","468076","0.0-10.0-0.0-0.0-0.0-1.1","null","<span style='color:GreenYellow; font-size: 70px;'>正确! </span>","null","","","","","","","","","","","","","","","","","","","","","","","feedback_test"
"","","","","","psychophysics","144","470153","0.0-10.0-0.0-0.0-0.0-0.2","1075","","j","","","","","","","","","","","","","key","j","19.899281553397955","673.3333558645869","374.736854644804","j","true","img/H_ambi40.png","自我","same",""
"","","","","","html-keyboard-response","145","470674","0.0-10.0-0.0-0.0-0.0-1.2","null","<span style='color:GreenYellow; font-size: 70px;'>正确! </span>","null","","","","","","","","","","","","","","","","","","","","","","","feedback_test"
"","","","","","psychophysics","146","473188","0.0-10.0-0.0-0.0-0.0-0.3","null","","null","","","","","","","","","","","","","key","null","21.633412280702032","673.3333558645869","374.736854644804","j","false","img/C_ambi40.png","朋友","same",""
"","","","","","html-keyboard-response","147","473712","0.0-10.0-0.0-0.0-0.0-1.3","null","<span class='add_' style='color:yellow; font-size: 70px;'> 太慢! </span>","null","","","","","","","","","","","","","","","","","","","","","","","feedback_test"
"","","","","","psychophysics","148","475636","0.0-10.0-0.0-0.0-0.0-0.4","906","","f","","","","","","","","","","","","","key","f","21.107244444444465","673.3333558645869","374.736854644804","f","true","img/S_ambi40.png","自我","same",""
"","","","","","html-keyboard-response","149","476143","0.0-10.0-0.0-0.0-0.0-1.4","null","<span style='color:GreenYellow; font-size: 70px;'>正确! </span>","null","","","","","","","","","","","","","","","","","","","","","","","feedback_test"
"","","","","","psychophysics","150","478416","0.0-10.0-0.0-0.0-0.0-0.5","1266","","f","","","","","","","","","","","","","key","f","21.63077884615408","673.3333558645869","374.736854644804","f","true","img/H_ambi40.png","生人","same",""
"","","","","","html-keyboard-response","151","478918","0.0-10.0-0.0-0.0-0.0-1.5","null","<span style='color:GreenYellow; font-size: 70px;'>正确! </span>","null","","","","","","","","","","","","","","","","","","","","","","","feedback_test"
"","","","","","psychophysics","152","480569","0.0-10.0-0.0-0.0-0.0-0.6","642","","j","","","","","","","","","","","","","key","j","20.99114285714247","673.3333558645869","374.736854644804","j","true","img/T_ambi40.png","をる","same",""
"","","","","","html-keyboard-response","153","481079","0.0-10.0-0.0-0.0-0.0-1.6","null","<span style='color:GreenYellow; font-size: 70px;'>正确! </span>","null","","","","","","","","","","","","","","","","","","","","","","","feedback_test"
"","","","","","psychophysics","154","482971","0.0-10.0-0.0-0.0-0.0-0.7","881","","j","","","","","","","","","","","","","key","j","21.95689411764718","673.3333558645869","374.736854644804","j","true","img/S_ambi40.png","生人","same",""
"","","","","","html-keyboard-response","155","483479","0.0-10.0-0.0-0.0-0.0-1.7","null","<span style='color:GreenYellow; font-size: 70px;'>正确! </span>","null","","","","","","","","","","","","","","","","","","","","","","","feedback_test"
"","","","","","psychophysics","156","485081","0.0-10.0-0.0-0.0-0.0-0.8","570","","j","","","","","","","","","","","","","key","j","20.081871794871777","673.3333558645869","374.736854644804","j","true","img/T_ambi40.png","をる","same",""
"","","","","","html-keyboard-response","157","485598","0.0-10.0-0.0-0.0-0.0-1.8","null","<span style='color:GreenYellow; font-size: 70px;'>正确! </span>","null","","","","","","","","","","","","","","","","","","","","","","","feedback_test"
"","","","","","psychophysics","158","487172","0.0-10.0-0.0-0.0-0.0-0.9","555","","j","","","","","","","","","","","","","key","j","23.227833333333503","673.3333558645869","374.736854644804","j","true","img/C_ambi40.png","朋友","same",""
"","","","","","html-keyboard-response","159","487680","0.0-10.0-0.0-0.0-0.0-1.9","null","<span style='color:GreenYellow; font-size: 70px;'>正确! </span>","null","","","","","","","","","","","","","","","","","","","","","","","feedback_test"
"","","","","","psychophysics","160","489449","0.0-10.0-0.0-0.0-0.0-0.10","767","","f","","","","","","","","","","","","","key","f","19.919804597700995","673.3333558645869","374.736854644804","f","true","img/S_ambi40.png","朋友","same",""
"","","","","","html-keyboard-response","161","489956","0.0-10.0-0.0-0.0-0.0-1.10","null","<span style='color:GreenYellow; font-size: 70px;'>正确! </span>","null","","","","","","","","","","","","","","","","","","","","","","","feedback_test"
"","","","","","psychophysics","162","491774","0.0-10.0-0.0-0.0-0.0-0.11","810","","j","","","","","","","","","","","","","key","j","22.012172839506587","673.3333558645869","374.736854644804","j","true","img/S_ambi40.png","生人","same",""
"","","","","","html-keyboard-response","163","492281","0.0-10.0-0.0-0.0-0.0-1.11","null","<span style='color:GreenYellow; font-size: 70px;'>正确! </span>","null","","","","","","","","","","","","","","","","","","","","","","","feedback_test"
"","","","","","psychophysics","164","494080","0.0-10.0-0.0-0.0-0.0-0.12","785","","j","","","","","","","","","","","","","key","j","21.937037974682966","673.3333558645869","374.736854644804","f","false","img/H_ambi40.png","朋友","same",""
"","","","","","html-keyboard-response","165","494599","0.0-10.0-0.0-0.0-0.0-1.12","null","<span style='color:red; font-size: 70px;'>错误! </span>","null","","","","","","","","","","","","","","","","","","","","","","","feedback_test"
"","","","","","psychophysics","166","496233","0.0-10.0-0.0-0.0-0.0-0.13","617","","j","","","","","","","","","","","","","key","j","23.091142857142923","673.3333558645869","374.736854644804","j","true","img/T_ambi40.png","をる","same",""
"","","","","","html-keyboard-response","167","496749","0.0-10.0-0.0-0.0-0.0-1.13","null","<span style='color:GreenYellow; font-size: 70px;'>正确! </span>","null","","","","","","","","","","","","","","","","","","","","","","","feedback_test"
"","","","","","psychophysics","168","499087","0.0-10.0-0.0-0.0-0.0-0.14","1323","","f","","","","","","","","","","","","","key","f","21.138222222222357","673.3333558645869","374.736854644804","f","true","img/H_ambi40.png","朋友","same",""
"","","","","","html-keyboard-response","169","499596","0.0-10.0-0.0-0.0-0.0-1.14","null","<span style='color:GreenYellow; font-size: 70px;'>正确! </span>","null","","","","","","","","","","","","","","","","","","","","","","","feedback_test"
"","","","","","psychophysics","170","501248","0.0-10.0-0.0-0.0-0.0-0.15","647","","j","","","","","","","","","","","","","key","j","20.991909090908813","673.3333558645869","374.736854644804","j","true","img/H_ambi40.png","自我","same",""
"","","","","","html-keyboard-response","171","501754","0.0-10.0-0.0-0.0-0.0-1.15","null","<span style='color:GreenYellow; font-size: 70px;'>正确! </span>","null","","","","","","","","","","","","","","","","","","","","","","","feedback_test"
"","","","","","psychophysics","172","503540","0.0-10.0-0.0-0.0-0.0-0.16","781","","f","","","","","","","","","","","","","key","f","20.584552941176877","673.3333558645869","374.736854644804","f","true","img/S_ambi40.png","自我","same",""
"","","","","","html-keyboard-response","173","504051","0.0-10.0-0.0-0.0-0.0-1.16","null","<span style='color:GreenYellow; font-size: 70px;'>正确! </span>","null","","","","","","","","","","","","","","","","","","","","","","","feedback_test"
"","","","","","psychophysics","174","506290","0.0-10.0-0.0-0.0-0.0-0.17","1231","","f","","","","","","","","","","","","","key","f","20.05803703703687","673.3333558645869","374.736854644804","f","true","img/C_ambi40.png","生人","same",""
"","","","","","html-keyboard-response","175","506806","0.0-10.0-0.0-0.0-0.0-1.17","null","<span style='color:GreenYellow; font-size: 70px;'>正确! </span>","null","","","","","","","","","","","","","","","","","","","","","","","feedback_test"
"","","","","","psychophysics","176","509140","0.0-10.0-0.0-0.0-0.0-0.18","1319","","f","","","","","","","","","","","","","key","f","21.491476635513916","673.3333558645869","374.736854644804","f","true","img/S_ambi40.png","自我","same",""
"","","","","","html-keyboard-response","177","509649","0.0-10.0-0.0-0.0-0.0-1.18","null","<span style='color:GreenYellow; font-size: 70px;'>正确! </span>","null","","","","","","","","","","","","","","","","","","","","","","","feedback_test"
"","","","","","psychophysics","178","511511","0.0-10.0-0.0-0.0-0.0-0.19","851","","f","","","","","","","","","","","","","key","f","21.314279069767338","673.3333558645869","374.736854644804","f","true","img/C_ambi40.png","自我","same",""
"","","","","","html-keyboard-response","179","512018","0.0-10.0-0.0-0.0-0.0-1.19","null","<span style='color:GreenYellow; font-size: 70px;'>正确! </span>","null","","","","","","","","","","","","","","","","","","","","","","","feedback_test"
"","","","","","psychophysics","180","513956","0.0-10.0-0.0-0.0-0.0-0.20","934","","f","","","","","","","","","","","","","key","f","21.057736263736434","673.3333558645869","374.736854644804","f","true","img/H_ambi40.png","生人","same",""
"","","","","","html-keyboard-response","181","514467","0.0-10.0-0.0-0.0-0.0-1.20","null","<span style='color:GreenYellow; font-size: 70px;'>正确! </span>","null","","","","","","","","","","","","","","","","","","","","","","","feedback_test"
"","","","","","psychophysics","182","516883","0.0-10.0-0.0-0.0-0.0-0.21","1366","","j","","","","","","","","","","","","","key","j","21.275857142857213","673.3333558645869","374.736854644804","j","true","img/S_ambi40.png","生人","same",""
"","","","","","html-keyboard-response","183","517390","0.0-10.0-0.0-0.0-0.0-1.21","null","<span style='color:GreenYellow; font-size: 70px;'>正确! </span>","null","","","","","","","","","","","","","","","","","","","","","","","feedback_test"
"","","","","","psychophysics","184","519057","0.0-10.0-0.0-0.0-0.0-0.22","661","","j","","","","","","","","","","","","","key","j","20.20480000000025","673.3333558645869","374.736854644804","j","true","img/T_ambi40.png","をる","same",""
"","","","","","html-keyboard-response","185","519565","0.0-10.0-0.0-0.0-0.0-1.22","null","<span style='color:GreenYellow; font-size: 70px;'>正确! </span>","null","","","","","","","","","","","","","","","","","","","","","","","feedback_test"
"","","","","","psychophysics","186","521694","0.0-10.0-0.0-0.0-0.0-0.23","1122","","j","","","","","","","","","","","","","key","j","20.996199999999952","673.3333558645869","374.736854644804","j","true","img/S_ambi40.png","生人","same",""
"","","","","","html-keyboard-response","187","522201","0.0-10.0-0.0-0.0-0.0-1.23","null","<span style='color:GreenYellow; font-size: 70px;'>正确! </span>","null","","","","","","","","","","","","","","","","","","","","","","","feedback_test"
"","","","","","psychophysics","188","523957","0.0-10.0-0.0-0.0-0.0-0.24","751","","f","","","","","","","","","","","","","key","f","20.192329411764685","673.3333558645869","374.736854644804","f","true","img/H_ambi40.png","朋友","same",""
"","","","","","html-keyboard-response","189","524464","0.0-10.0-0.0-0.0-0.0-1.24","null","<span style='color:GreenYellow; font-size: 70px;'>正确! </span>","null","","","","","","","","","","","","","","","","","","","","","","","feedback_test"
"","","","","","psychophysics","190","526732","0.0-10.0-0.0-0.0-0.0-0.25","1253","","j","","","","","","","","","","","","","key","j","21.943178217822343","673.3333558645869","374.736854644804","f","false","img/S_ambi40.png","朋友","same",""
"","","","","","html-keyboard-response","191","527248","0.0-10.0-0.0-0.0-0.0-1.25","null","<span style='color:red; font-size: 70px;'>错误! </span>","null","","","","","","","","","","","","","","","","","","","","","","","feedback_test"
"","","","","","psychophysics","192","529197","0.0-10.0-0.0-0.0-0.0-0.26","919","","f","","","","","","","","","","","","","key","f","23.953937499999302","673.3333558645869","374.736854644804","f","true","img/S_ambi40.png","自我","same",""
"","","","","","html-keyboard-response","193","529710","0.0-10.0-0.0-0.0-0.0-1.26","null","<span style='color:GreenYellow; font-size: 70px;'>正确! </span>","null","","","","","","","","","","","","","","","","","","","","","","","feedback_test"
"","","","","","psychophysics","194","532094","0.0-10.0-0.0-0.0-0.0-0.27","1377","","f","","","","","","","","","","","","","key","f","20.829455357142642","673.3333558645869","374.736854644804","f","true","img/H_ambi40.png","朋友","same",""
"","","","","","html-keyboard-response","195","532610","0.0-10.0-0.0-0.0-0.0-1.27","null","<span style='color:GreenYellow; font-size: 70px;'>正确! </span>","null","","","","","","","","","","","","","","","","","","","","","","","feedback_test"
"","","","","","psychophysics","196","534364","0.0-10.0-0.0-0.0-0.0-0.28","746","","j","","","","","","","","","","","","","key","j","22.2907272727265","673.3333558645869","374.736854644804","j","true","img/H_ambi40.png","自我","same",""
"","","","","","html-keyboard-response","197","534877","0.0-10.0-0.0-0.0-0.0-1.28","null","<span style='color:GreenYellow; font-size: 70px;'>正确! </span>","null","","","","","","","","","","","","","","","","","","","","","","","feedback_test"
"","","","","","psychophysics","198","536591","0.0-10.0-0.0-0.0-0.0-0.29","709","","j","","","","","","","","","","","","","key","j","21.57761538461543","673.3333558645869","374.736854644804","j","true","img/T_ambi40.png","をる","same",""
"","","","","","html-keyboard-response","199","537103","0.0-10.0-0.0-0.0-0.0-1.29","null","<span style='color:GreenYellow; font-size: 70px;'>正确! </span>","null","","","","","","","","","","","","","","","","","","","","","","","feedback_test"
"","","","","","psychophysics","200","539116","0.0-10.0-0.0-0.0-0.0-0.30","1009","","f","","","","","","","","","","","","","key","f","20.268639175257327","673.3333558645869","374.736854644804","f","true","img/C_ambi40.png","生人","same",""
"","","","","","html-keyboard-response","201","539640","0.0-10.0-0.0-0.0-0.0-1.30","null","<span style='color:GreenYellow; font-size: 70px;'>正确! </span>","null","","","","","","","","","","","","","","","","","","","","","","","feedback_test"
"","","","","","psychophysics","202","541695","0.0-10.0-0.0-0.0-0.0-0.31","1045","","j","","","","","","","","","","","","","key","j","22.46744943820228","673.3333558645869","374.736854644804","j","true","img/C_ambi40.png","朋友","same",""
"","","","","","html-keyboard-response","203","542208","0.0-10.0-0.0-0.0-0.0-1.31","null","<span style='color:GreenYellow; font-size: 70px;'>正确! </span>","null","","","","","","","","","","","","","","","","","","","","","","","feedback_test"
"","","","","","psychophysics","204","544091","0.0-10.0-0.0-0.0-0.0-0.32","878","","j","","","","","","","","","","","","","key","j","21.01881818181904","673.3333558645869","374.736854644804","j","true","img/T_ambi40.png","をる","same",""
"","","","","","html-keyboard-response","205","544601","0.0-10.0-0.0-0.0-0.0-1.32","null","<span style='color:GreenYellow; font-size: 70px;'>正确! </span>","null","","","","","","","","","","","","","","","","","","","","","","","feedback_test"
"","","","","","psychophysics","206","546380","0.0-10.0-0.0-0.0-0.0-0.33","775","","j","","","","","","","","","","","","","key","j","20.93103658536551","673.3333558645869","374.736854644804","j","true","img/H_ambi40.png","自我","same",""
"","","","","","html-keyboard-response","207","546893","0.0-10.0-0.0-0.0-0.0-1.33","null","<span style='color:GreenYellow; font-size: 70px;'>正确! </span>","null","","","","","","","","","","","","","","","","","","","","","","","feedback_test"
"","","","","","psychophysics","208","549299","0.0-10.0-0.0-0.0-0.0-0.34","1394","","j","","","","","","","","","","","","","key","j","20.940230088495955","673.3333558645869","374.736854644804","j","true","img/C_ambi40.png","朋友","same",""
"","","","","","html-keyboard-response","209","549803","0.0-10.0-0.0-0.0-0.0-1.34","null","<span style='color:GreenYellow; font-size: 70px;'>正确! </span>","null","","","","","","","","","","","","","","","","","","","","","","","feedback_test"
"","","","","","psychophysics","210","552276","0.0-10.0-0.0-0.0-0.0-0.35","1465","","f","","","","","","","","","","","","","key","f","22.3204587155968","673.3333558645869","374.736854644804","f","true","img/C_ambi40.png","生人","same",""
"","","","","","html-keyboard-response","211","552784","0.0-10.0-0.0-0.0-0.0-1.35","null","<span style='color:GreenYellow; font-size: 70px;'>正确! </span>","null","","","","","","","","","","","","","","","","","","","","","","","feedback_test"
"","","","","","psychophysics","212","554323","0.0-10.0-0.0-0.0-0.0-0.36","524","","j","","","","","","","","","","","","","key","j","19.995933333334204","673.3333558645869","374.736854644804","f","false","img/H_ambi40.png","生人","same",""
"","","","","","html-keyboard-response","213","554844","0.0-10.0-0.0-0.0-0.0-1.36","null","<span style='color:red; font-size: 70px;'>错误! </span>","null","","","","","","","","","","","","","","","","","","","","","","","feedback_test"
"","","","","","psychophysics","214","556678","0.0-10.0-0.0-0.0-0.0-0.37","831","","f","","","","","","","","","","","","","key","f","22.079012499999955","673.3333558645869","374.736854644804","f","true","img/S_ambi40.png","自我","same",""
"","","","","","html-keyboard-response","215","557193","0.0-10.0-0.0-0.0-0.0-1.37","null","<span style='color:GreenYellow; font-size: 70px;'>正确! </span>","null","","","","","","","","","","","","","","","","","","","","","","","feedback_test"
"","","","","","psychophysics","216","559424","0.0-10.0-0.0-0.0-0.0-0.38","1227","","f","","","","","","","","","","","","","key","f","21.778079207920893","673.3333558645869","374.736854644804","f","true","img/S_ambi40.png","朋友","same",""
"","","","","","html-keyboard-response","217","559940","0.0-10.0-0.0-0.0-0.0-1.38","null","<span style='color:GreenYellow; font-size: 70px;'>正确! </span>","null","","","","","","","","","","","","","","","","","","","","","","","feedback_test"
"","","","","","psychophysics","218","562194","0.0-10.0-0.0-0.0-0.0-0.39","1236","","f","","","","","","","","","","","","","key","f","21.26564761904689","673.3333558645869","374.736854644804","f","true","img/S_ambi40.png","自我","same",""
"","","","","","html-keyboard-response","219","562711","0.0-10.0-0.0-0.0-0.0-1.39","null","<span style='color:GreenYellow; font-size: 70px;'>正确! </span>","null","","","","","","","","","","","","","","","","","","","","","","","feedback_test"
"","","","","","psychophysics","220","564898","0.0-10.0-0.0-0.0-0.0-0.40","1161","","f","","","","","","","","","","","","","key","f","21.495960000000196","673.3333558645869","374.736854644804","f","true","img/C_ambi40.png","生人","same",""
"","","","","","html-keyboard-response","221","565407","0.0-10.0-0.0-0.0-0.0-1.40","null","<span style='color:GreenYellow; font-size: 70px;'>正确! </span>","null","","","","","","","","","","","","","","","","","","","","","","","feedback_test"
"","","","","","psychophysics","222","567918","0.0-10.0-0.0-0.0-0.0-0.41","null","","null","","","","","","","","","","","","","key","null","21.972424778760725","673.3333558645869","374.736854644804","f","false","img/H_ambi40.png","朋友","same",""
"","","","","","html-keyboard-response","223","568422","0.0-10.0-0.0-0.0-0.0-1.41","null","<span class='add_' style='color:yellow; font-size: 70px;'> 太慢! </span>","null","","","","","","","","","","","","","","","","","","","","","","","feedback_test"
"","","","","","psychophysics","224","570266","0.0-10.0-0.0-0.0-0.0-0.42","838","","f","","","","","","","","","","","","","key","f","22.991582278480543","673.3333558645869","374.736854644804","j","false","img/C_ambi40.png","朋友","same",""
"","","","","","html-keyboard-response","225","570771","0.0-10.0-0.0-0.0-0.0-1.42","null","<span style='color:red; font-size: 70px;'>错误! </span>","null","","","","","","","","","","","","","","","","","","","","","","","feedback_test"
"","","","","","psychophysics","226","573015","0.0-10.0-0.0-0.0-0.0-0.43","1241","","f","","","","","","","","","","","","","key","f","21.310009615383862","673.3333558645869","374.736854644804","f","true","img/H_ambi40.png","朋友","same",""
"","","","","","html-keyboard-response","227","573531","0.0-10.0-0.0-0.0-0.0-1.43","null","<span style='color:GreenYellow; font-size: 70px;'>正确! </span>","null","","","","","","","","","","","","","","","","","","","","","","","feedback_test"
"","","","","","psychophysics","228","575596","0.0-10.0-0.0-0.0-0.0-0.44","1059","","j","","","","","","","","","","","","","key","j","21.680602150537343","673.3333558645869","374.736854644804","j","true","img/S_ambi40.png","生人","same",""
"","","","","","html-keyboard-response","229","576099","0.0-10.0-0.0-0.0-0.0-1.44","null","<span style='color:GreenYellow; font-size: 70px;'>正确! </span>","null","","","","","","","","","","","","","","","","","","","","","","","feedback_test"
"","","","","","psychophysics","230","577916","0.0-10.0-0.0-0.0-0.0-0.45","792","","j","","","","","","","","","","","","","key","j","20.26147727272738","673.3333558645869","374.736854644804","j","true","img/S_ambi40.png","生人","same",""
"","","","","","html-keyboard-response","231","578436","0.0-10.0-0.0-0.0-0.0-1.45","null","<span style='color:GreenYellow; font-size: 70px;'>正确! </span>","null","","","","","","","","","","","","","","","","","","","","","","","feedback_test"
"","","","","","psychophysics","232","580965","0.0-10.0-0.0-0.0-0.0-0.46","null","","null","","","","","","","","","","","","","key","null","21.92556140350848","673.3333558645869","374.736854644804","j","false","img/C_ambi40.png","朋友","same",""
"","","","","","html-keyboard-response","233","581485","0.0-10.0-0.0-0.0-0.0-1.46","null","<span class='add_' style='color:yellow; font-size: 70px;'> 太慢! </span>","null","","","","","","","","","","","","","","","","","","","","","","","feedback_test"
"","","","","","psychophysics","234","583128","0.0-10.0-0.0-0.0-0.0-0.47","623","","j","","","","","","","","","","","","","key","j","19.54418518518408","673.3333558645869","374.736854644804","j","true","img/T_ambi40.png","をる","same",""
"","","","","","html-keyboard-response","235","583649","0.0-10.0-0.0-0.0-0.0-1.47","null","<span style='color:GreenYellow; font-size: 70px;'>正确! </span>","null","","","","","","","","","","","","","","","","","","","","","","","feedback_test"
"","","","","","psychophysics","236","585350","0.0-10.0-0.0-0.0-0.0-0.48","699","","j","","","","","","","","","","","","","key","j","20.82911249999888","673.3333558645869","374.736854644804","j","true","img/H_ambi40.png","自我","same",""
"","","","","","html-keyboard-response","237","585868","0.0-10.0-0.0-0.0-0.0-1.48","null","<span style='color:GreenYellow; font-size: 70px;'>正确! </span>","null","","","","","","","","","","","","","","","","","","","","","","","feedback_test"
"","","","","","psychophysics","238","588080","0.0-10.0-0.0-0.0-0.0-0.49","1197","","f","","","","","","","","","","","","","key","f","20.436301886792656","673.3333558645869","374.736854644804","f","true","img/C_ambi40.png","自我","same",""
"","","","","","html-keyboard-response","239","588602","0.0-10.0-0.0-0.0-0.0-1.49","null","<span style='color:GreenYellow; font-size: 70px;'>正确! </span>","null","","","","","","","","","","","","","","","","","","","","","","","feedback_test"
"","","","","","psychophysics","240","590385","0.0-10.0-0.0-0.0-0.0-0.50","770","","f","","","","","","","","","","","","","key","f","20.071795454545114","673.3333558645869","374.736854644804","f","true","img/C_ambi40.png","生人","same",""
"","","","","","html-keyboard-response","241","590890","0.0-10.0-0.0-0.0-0.0-1.50","null","<span style='color:GreenYellow; font-size: 70px;'>正确! </span>","null","","","","","","","","","","","","","","","","","","","","","","","feedback_test"
"","","","","","psychophysics","242","592526","0.0-10.0-0.0-0.0-0.0-0.51","634","","j","","","","","","","","","","","","","key","j","22.218333333332946","673.3333558645869","374.736854644804","j","true","img/T_ambi40.png","をる","same",""
"","","","","","html-keyboard-response","243","593039","0.0-10.0-0.0-0.0-0.0-1.51","null","<span style='color:GreenYellow; font-size: 70px;'>正确! </span>","null","","","","","","","","","","","","","","","","","","","","","","","feedback_test"
"","","","","","psychophysics","244","594799","0.0-10.0-0.0-0.0-0.0-0.52","730","","j","","","","","","","","","","","","","key","j","20.6311428571422","673.3333558645869","374.736854644804","j","true","img/H_ambi40.png","自我","same",""
"","","","","","html-keyboard-response","245","595305","0.0-10.0-0.0-0.0-0.0-1.52","null","<span style='color:GreenYellow; font-size: 70px;'>正确! </span>","null","","","","","","","","","","","","","","","","","","","","","","","feedback_test"
"","","","","","psychophysics","246","597327","0.0-10.0-0.0-0.0-0.0-0.53","1018","","j","","","","","","","","","","","","","key","j","21.27298936170174","673.3333558645869","374.736854644804","j","true","img/T_ambi40.png","をる","same",""
"","","","","","html-keyboard-response","247","597841","0.0-10.0-0.0-0.0-0.0-1.53","null","<span style='color:GreenYellow; font-size: 70px;'>正确! </span>","null","","","","","","","","","","","","","","","","","","","","","","","feedback_test"
"","","","","","psychophysics","248","600017","0.0-10.0-0.0-0.0-0.0-0.54","1162","","f","","","","","","","","","","","","","key","f","19.749407407407286","673.3333558645869","374.736854644804","f","true","img/H_ambi40.png","朋友","same",""
"","","","","","html-keyboard-response","249","600530","0.0-10.0-0.0-0.0-0.0-1.54","null","<span style='color:GreenYellow; font-size: 70px;'>正确! </span>","null","","","","","","","","","","","","","","","","","","","","","","","feedback_test"
"","","","","","psychophysics","250","602721","0.0-10.0-0.0-0.0-0.0-0.55","1185","","f","","","","","","","","","","","","","key","f","20.95287128712862","673.3333558645869","374.736854644804","f","true","img/S_ambi40.png","朋友","same",""
"","","","","","html-keyboard-response","251","603236","0.0-10.0-0.0-0.0-0.0-1.55","null","<span style='color:GreenYellow; font-size: 70px;'>正确! </span>","null","","","","","","","","","","","","","","","","","","","","","","","feedback_test"
"","","","","","psychophysics","252","605007","0.0-10.0-0.0-0.0-0.0-0.56","769","","j","","","","","","","","","","","","","key","j","20.345383720929995","673.3333558645869","374.736854644804","j","true","img/H_ambi40.png","自我","same",""
"","","","","","html-keyboard-response","253","605519","0.0-10.0-0.0-0.0-0.0-1.56","null","<span style='color:GreenYellow; font-size: 70px;'>正确! </span>","null","","","","","","","","","","","","","","","","","","","","","","","feedback_test"
"","","","","","psychophysics","254","607506","0.0-10.0-0.0-0.0-0.0-0.57","983","","j","","","","","","","","","","","","","key","j","19.663209999999964","673.3333558645869","374.736854644804","j","true","img/C_ambi40.png","朋友","same",""
"","","","","","html-keyboard-response","255","608016","0.0-10.0-0.0-0.0-0.0-1.57","null","<span style='color:GreenYellow; font-size: 70px;'>正确! </span>","null","","","","","","","","","","","","","","","","","","","","","","","feedback_test"
"","","","","","psychophysics","256","609689","0.0-10.0-0.0-0.0-0.0-0.58","668","","j","","","","","","","","","","","","","key","j","21.70648684210487","673.3333558645869","374.736854644804","j","true","img/C_ambi40.png","朋友","same",""
"","","","","","html-keyboard-response","257","610204","0.0-10.0-0.0-0.0-0.0-1.58","null","<span style='color:GreenYellow; font-size: 70px;'>正确! </span>","null","","","","","","","","","","","","","","","","","","","","","","","feedback_test"
"","","","","","psychophysics","258","612128","0.0-10.0-0.0-0.0-0.0-0.59","912","","f","","","","","","","","","","","","","key","f","22.348882352941505","673.3333558645869","374.736854644804","f","true","img/H_ambi40.png","朋友","same",""
"","","","","","html-keyboard-response","259","612639","0.0-10.0-0.0-0.0-0.0-1.59","null","<span style='color:GreenYellow; font-size: 70px;'>正确! </span>","null","","","","","","","","","","","","","","","","","","","","","","","feedback_test"
"","","","","","psychophysics","260","614888","0.0-10.0-0.0-0.0-0.0-0.60","1245","","j","","","","","","","","","","","","","key","j","21.107285714285847","673.3333558645869","374.736854644804","j","true","img/S_ambi40.png","生人","same",""
"","","","","","html-keyboard-response","261","615393","0.0-10.0-0.0-0.0-0.0-1.60","null","<span style='color:GreenYellow; font-size: 70px;'>正确! </span>","null","","","","","","","","","","","","","","","","","","","","","","","feedback_test"
"","","","","","psychophysics","262","617025","0.0-10.0-0.0-0.0-0.0-0.61","620","","j","","","","","","","","","","","","","key","j","21.39275675675693","673.3333558645869","374.736854644804","j","true","img/T_ambi40.png","をる","same",""
"","","","","","html-keyboard-response","263","617544","0.0-10.0-0.0-0.0-0.0-1.61","null","<span style='color:GreenYellow; font-size: 70px;'>正确! </span>","null","","","","","","","","","","","","","","","","","","","","","","","feedback_test"
"","","","","","psychophysics","264","619677","0.0-10.0-0.0-0.0-0.0-0.62","1128","","f","","","","","","","","","","","","","key","f","20.99563000000082","673.3333558645869","374.736854644804","f","true","img/S_ambi40.png","自我","same",""
"","","","","","html-keyboard-response","265","620189","0.0-10.0-0.0-0.0-0.0-1.62","null","<span style='color:GreenYellow; font-size: 70px;'>正确! </span>","null","","","","","","","","","","","","","","","","","","","","","","","feedback_test"
"","","","","","psychophysics","266","622471","0.0-10.0-0.0-0.0-0.0-0.63","1269","","f","","","","","","","","","","","","","key","f","20.63792660550445","673.3333558645869","374.736854644804","f","true","img/H_ambi40.png","生人","same",""
"","","","","","html-keyboard-response","267","622986","0.0-10.0-0.0-0.0-0.0-1.63","null","<span style='color:GreenYellow; font-size: 70px;'>正确! </span>","null","","","","","","","","","","","","","","","","","","","","","","","feedback_test"
"","","","","","psychophysics","268","625502","0.0-10.0-0.0-0.0-0.0-0.64","null","","null","","","","","","","","","","","","","key","null","22.778385321101293","673.3333558645869","374.736854644804","j","false","img/S_ambi40.png","生人","same",""
"","","","","","html-keyboard-response","269","626015","0.0-10.0-0.0-0.0-0.0-1.64","null","<span class='add_' style='color:yellow; font-size: 70px;'> 太慢! </span>","null","","","","","","","","","","","","","","","","","","","","","","","feedback_test"
"","","","","","psychophysics","270","627954","0.0-10.0-0.0-0.0-0.0-0.65","936","","f","","","","","","","","","","","","","key","f","22.88696385542189","673.3333558645869","374.736854644804","f","true","img/C_ambi40.png","生人","same",""
"","","","","","html-keyboard-response","271","628469","0.0-10.0-0.0-0.0-0.0-1.65","null","<span style='color:GreenYellow; font-size: 70px;'>正确! </span>","null","","","","","","","","","","","","","","","","","","","","","","","feedback_test"
"","","","","","psychophysics","272","630396","0.0-10.0-0.0-0.0-0.0-0.66","896","","f","","","","","","","","","","","","","key","f","19.820694736842263","673.3333558645869","374.736854644804","f","true","img/C_ambi40.png","生人","same",""
"","","","","","html-keyboard-response","273","630903","0.0-10.0-0.0-0.0-0.0-1.66","null","<span style='color:GreenYellow; font-size: 70px;'>正确! </span>","null","","","","","","","","","","","","","","","","","","","","","","","feedback_test"
"","","","","","psychophysics","274","632661","0.0-10.0-0.0-0.0-0.0-0.67","741","","j","","","","","","","","","","","","","key","j","22.290428571428727","673.3333558645869","374.736854644804","j","true","img/H_ambi40.png","自我","same",""
"","","","","","html-keyboard-response","275","633166","0.0-10.0-0.0-0.0-0.0-1.67","null","<span style='color:GreenYellow; font-size: 70px;'>正确! </span>","null","","","","","","","","","","","","","","","","","","","","","","","feedback_test"
"","","","","","psychophysics","276","634802","0.0-10.0-0.0-0.0-0.0-0.68","632","","j","","","","","","","","","","","","","key","j","21.329520000000485","673.3333558645869","374.736854644804","j","true","img/T_ambi40.png","をる","same",""
"","","","","","html-keyboard-response","277","635326","0.0-10.0-0.0-0.0-0.0-1.68","null","<span style='color:GreenYellow; font-size: 70px;'>正确! </span>","null","","","","","","","","","","","","","","","","","","","","","","","feedback_test"
"","","","","","psychophysics","278","637791","0.0-10.0-0.0-0.0-0.0-0.69","1458","","f","","","","","","","","","","","","","key","f","21.529221238938277","673.3333558645869","374.736854644804","f","true","img/S_ambi40.png","自我","same",""
"","","","","","html-keyboard-response","279","638331","0.0-10.0-0.0-0.0-0.0-1.69","null","<span style='color:GreenYellow; font-size: 70px;'>正确! </span>","null","","","","","","","","","","","","","","","","","","","","","","","feedback_test"
"","","","","","psychophysics","280","640540","0.0-10.0-0.0-0.0-0.0-0.70","1207","","f","","","","","","","","","","","","","key","f","21.40142156862809","673.3333558645869","374.736854644804","f","true","img/C_ambi40.png","自我","same",""
"","","","","","html-keyboard-response","281","641042","0.0-10.0-0.0-0.0-0.0-1.70","null","<span style='color:GreenYellow; font-size: 70px;'>正确! </span>","null","","","","","","","","","","","","","","","","","","","","","","","feedback_test"
"","","","","","psychophysics","282","642717","0.0-10.0-0.0-0.0-0.0-0.71","671","","j","","","","","","","","","","","","","key","j","20.936294871794345","673.3333558645869","374.736854644804","j","true","img/T_ambi40.png","をる","same",""
"","","","","","html-keyboard-response","283","643236","0.0-10.0-0.0-0.0-0.0-1.71","null","<span style='color:GreenYellow; font-size: 70px;'>正确! </span>","null","","","","","","","","","","","","","","","","","","","","","","","feedback_test"
"","","","","","psychophysics","284","645312","0.0-10.0-0.0-0.0-0.0-0.72","1059","","f","","","","","","","","","","","","","key","f","20.95829896907293","673.3333558645869","374.736854644804","f","true","img/H_ambi40.png","生人","same",""
"","","","","","html-keyboard-response","285","645827","0.0-10.0-0.0-0.0-0.0-1.72","null","<span style='color:GreenYellow; font-size: 70px;'>正确! </span>","null","","","","","","","","","","","","","","","","","","","","","","","feedback_test"
"","","","","","psychophysics","286","647762","0.0-10.0-0.0-0.0-0.0-0.73","927","","j","","","","","","","","","","","","","key","j","22.28277906976765","673.3333558645869","374.736854644804","j","true","img/S_ambi40.png","生人","same",""
"","","","","","html-keyboard-response","287","648278","0.0-10.0-0.0-0.0-0.0-1.73","null","<span style='color:GreenYellow; font-size: 70px;'>正确! </span>","null","","","","","","","","","","","","","","","","","","","","","","","feedback_test"
"","","","","","psychophysics","288","650590","0.0-10.0-0.0-0.0-0.0-0.74","1307","","f","","","","","","","","","","","","","key","f","20.531821428571543","673.3333558645869","374.736854644804","f","true","img/S_ambi40.png","自我","same",""
"","","","","","html-keyboard-response","289","651094","0.0-10.0-0.0-0.0-0.0-1.74","null","<span style='color:GreenYellow; font-size: 70px;'>正确! </span>","null","","","","","","","","","","","","","","","","","","","","","","","feedback_test"
"","","","","","psychophysics","290","652798","0.0-10.0-0.0-0.0-0.0-0.75","701","","j","","","","","","","","","","","","","key","j","21.706710526315298","673.3333558645869","374.736854644804","j","true","img/C_ambi40.png","朋友","same",""
"","","","","","html-keyboard-response","291","653308","0.0-10.0-0.0-0.0-0.0-1.75","null","<span style='color:GreenYellow; font-size: 70px;'>正确! </span>","null","","","","","","","","","","","","","","","","","","","","","","","feedback_test"
"","","","","","psychophysics","292","655071","0.0-10.0-0.0-0.0-0.0-0.76","760","","f","","","","","","","","","","","","","key","f","21.13485365853611","673.3333558645869","374.736854644804","f","true","img/S_ambi40.png","朋友","same",""
"","","","","","html-keyboard-response","293","655575","0.0-10.0-0.0-0.0-0.0-1.76","null","<span style='color:GreenYellow; font-size: 70px;'>正确! </span>","null","","","","","","","","","","","","","","","","","","","","","","","feedback_test"
"","","","","","psychophysics","294","657268","0.0-10.0-0.0-0.0-0.0-0.77","675","","j","","","","","","","","","","","","","key","j","22.21844000000041","673.3333558645869","374.736854644804","j","true","img/T_ambi40.png","をる","same",""
"","","","","","html-keyboard-response","295","657785","0.0-10.0-0.0-0.0-0.0-1.77","null","<span style='color:GreenYellow; font-size: 70px;'>正确! </span>","null","","","","","","","","","","","","","","","","","","","","","","","feedback_test"
"","","","","","psychophysics","296","659896","0.0-10.0-0.0-0.0-0.0-0.78","1105","","j","","","","","","","","","","","","","key","j","20.66287000000011","673.3333558645869","374.736854644804","j","true","img/C_ambi40.png","朋友","same",""
"","","","","","html-keyboard-response","297","660405","0.0-10.0-0.0-0.0-0.0-1.78","null","<span style='color:GreenYellow; font-size: 70px;'>正确! </span>","null","","","","","","","","","","","","","","","","","","","","","","","feedback_test"
"","","","","","psychophysics","298","662280","0.0-10.0-0.0-0.0-0.0-0.79","874","","j","","","","","","","","","","","","","key","j","21.068689655172694","673.3333558645869","374.736854644804","j","true","img/S_ambi40.png","生人","same",""
"","","","","","html-keyboard-response","299","662785","0.0-10.0-0.0-0.0-0.0-1.79","null","<span style='color:GreenYellow; font-size: 70px;'>正确! </span>","null","","","","","","","","","","","","","","","","","","","","","","","feedback_test"
"","","","","","psychophysics","300","664705","0.0-10.0-0.0-0.0-0.0-0.80","910","","f","","","","","","","","","","","","","key","f","20.46710869565267","673.3333558645869","374.736854644804","f","true","img/H_ambi40.png","朋友","same",""
"","","","","","html-keyboard-response","301","665223","0.0-10.0-0.0-0.0-0.0-1.80","null","<span style='color:GreenYellow; font-size: 70px;'>正确! </span>","null","","","","","","","","","","","","","","","","","","","","","","","feedback_test"
"","","","","","psychophysics","302","667332","0.0-10.0-0.0-0.0-0.0-0.81","1105","","f","","","","","","","","","","","","","key","f","19.83768571428511","673.3333558645869","374.736854644804","f","true","img/C_ambi40.png","生人","same",""
"","","","","","html-keyboard-response","303","667844","0.0-10.0-0.0-0.0-0.0-1.81","null","<span style='color:GreenYellow; font-size: 70px;'>正确! </span>","null","","","","","","","","","","","","","","","","","","","","","","","feedback_test"
"","","","","","psychophysics","304","669703","0.0-10.0-0.0-0.0-0.0-0.82","839","","j","","","","","","","","","","","","","key","j","21.119953488371994","673.3333558645869","374.736854644804","j","true","img/H_ambi40.png","自我","same",""
"","","","","","html-keyboard-response","305","670217","0.0-10.0-0.0-0.0-0.0-1.82","null","<span style='color:GreenYellow; font-size: 70px;'>正确! </span>","null","","","","","","","","","","","","","","","","","","","","","","","feedback_test"
"","","","","","psychophysics","306","672410","0.0-10.0-0.0-0.0-0.0-0.83","1180","","f","","","","","","","","","","","","","key","f","21.23803921568655","673.3333558645869","374.736854644804","f","true","img/C_ambi40.png","自我","same",""
"","","","","","html-keyboard-response","307","672923","0.0-10.0-0.0-0.0-0.0-1.83","null","<span style='color:GreenYellow; font-size: 70px;'>正确! </span>","null","","","","","","","","","","","","","","","","","","","","","","","feedback_test"
"","","","","","psychophysics","308","675106","0.0-10.0-0.0-0.0-0.0-0.84","1178","","f","","","","","","","","","","","","","key","f","21.496080000000074","673.3333558645869","374.736854644804","f","true","img/C_ambi40.png","生人","same",""
"","","","","","html-keyboard-response","309","675609","0.0-10.0-0.0-0.0-0.0-1.84","null","<span style='color:GreenYellow; font-size: 70px;'>正确! </span>","null","","","","","","","","","","","","","","","","","","","","","","","feedback_test"
"","","","","","psychophysics","310","677410","0.0-10.0-0.0-0.0-0.0-0.85","788","","j","","","","","","","","","","","","","key","j","22.07927500000078","673.3333558645869","374.736854644804","f","false","img/H_ambi40.png","朋友","same",""
"","","","","","html-keyboard-response","311","677929","0.0-10.0-0.0-0.0-0.0-1.85","null","<span style='color:red; font-size: 70px;'>错误! </span>","null","","","","","","","","","","","","","","","","","","","","","","","feedback_test"
"","","","","","psychophysics","312","679873","0.0-10.0-0.0-0.0-0.0-0.86","939","","f","","","","","","","","","","","","","key","f","22.81317857142754","673.3333558645869","374.736854644804","f","true","img/S_ambi40.png","自我","same",""
"","","","","","html-keyboard-response","313","680380","0.0-10.0-0.0-0.0-0.0-1.86","null","<span style='color:GreenYellow; font-size: 70px;'>正确! </span>","null","","","","","","","","","","","","","","","","","","","","","","","feedback_test"
"","","","","","psychophysics","314","682336","0.0-10.0-0.0-0.0-0.0-0.87","952","","j","","","","","","","","","","","","","key","j","20.386702127659326","673.3333558645869","374.736854644804","j","true","img/H_ambi40.png","自我","same",""
"","","","","","html-keyboard-response","315","682838","0.0-10.0-0.0-0.0-0.0-1.87","null","<span style='color:GreenYellow; font-size: 70px;'>正确! </span>","null","","","","","","","","","","","","","","","","","","","","","","","feedback_test"
"","","","","","psychophysics","316","684573","0.0-10.0-0.0-0.0-0.0-0.88","730","","j","","","","","","","","","","","","","key","j","23.283054794519757","673.3333558645869","374.736854644804","j","true","img/T_ambi40.png","をる","same",""
"","","","","","html-keyboard-response","317","685087","0.0-10.0-0.0-0.0-0.0-1.88","null","<span style='color:GreenYellow; font-size: 70px;'>正确! </span>","null","","","","","","","","","","","","","","","","","","","","","","","feedback_test"
"","","","","","psychophysics","318","686850","0.0-10.0-0.0-0.0-0.0-0.89","759","","j","","","","","","","","","","","","","key","j","21.394814814816023","673.3333558645869","374.736854644804","j","true","img/T_ambi40.png","をる","same",""
"","","","","","html-keyboard-response","319","687359","0.0-10.0-0.0-0.0-0.0-1.89","null","<span style='color:GreenYellow; font-size: 70px;'>正确! </span>","null","","","","","","","","","","","","","","","","","","","","","","","feedback_test"
"","","","","","psychophysics","320","689618","0.0-10.0-0.0-0.0-0.0-0.90","1249","","f","","","","","","","","","","","","","key","f","21.727784313724886","673.3333558645869","374.736854644804","j","false","img/S_ambi40.png","生人","same",""
"","","","","","html-keyboard-response","321","690131","0.0-10.0-0.0-0.0-0.0-1.90","null","<span style='color:red; font-size: 70px;'>错误! </span>","null","","","","","","","","","","","","","","","","","","","","","","","feedback_test"
"","","","","","psychophysics","322","691905","0.0-10.0-0.0-0.0-0.0-0.91","769","","j","","","","","","","","","","","","","key","j","22.43193589743728","673.3333558645869","374.736854644804","j","true","img/T_ambi40.png","をる","same",""
"","","","","","html-keyboard-response","323","692416","0.0-10.0-0.0-0.0-0.0-1.91","null","<span style='color:GreenYellow; font-size: 70px;'>正确! </span>","null","","","","","","","","","","","","","","","","","","","","","","","feedback_test"
"","","","","","psychophysics","324","694208","0.0-10.0-0.0-0.0-0.0-0.92","776","","j","","","","","","","","","","","","","key","j","21.806666666667702","673.3333558645869","374.736854644804","j","true","img/H_ambi40.png","自我","same",""
"","","","","","html-keyboard-response","325","694711","0.0-10.0-0.0-0.0-0.0-1.92","null","<span style='color:GreenYellow; font-size: 70px;'>正确! </span>","null","","","","","","","","","","","","","","","","","","","","","","","feedback_test"
"","","","","","psychophysics","326","697058","0.0-10.0-0.0-0.0-0.0-0.93","1333","","f","","","","","","","","","","","","","key","f","19.82407758620684","673.3333558645869","374.736854644804","f","true","img/H_ambi40.png","朋友","same",""
"","","","","","html-keyboard-response","327","697567","0.0-10.0-0.0-0.0-0.0-1.93","null","<span style='color:GreenYellow; font-size: 70px;'>正确! </span>","null","","","","","","","","","","","","","","","","","","","","","","","feedback_test"
"","","","","","psychophysics","328","699383","0.0-10.0-0.0-0.0-0.0-0.94","814","","j","","","","","","","","","","","","","key","j","20.732569767442413","673.3333558645869","374.736854644804","j","true","img/C_ambi40.png","朋友","same",""
"","","","","","html-keyboard-response","329","699894","0.0-10.0-0.0-0.0-0.0-1.94","null","<span style='color:GreenYellow; font-size: 70px;'>正确! </span>","null","","","","","","","","","","","","","","","","","","","","","","","feedback_test"
"","","","","","psychophysics","330","701747","0.0-10.0-0.0-0.0-0.0-0.95","845","","f","","","","","","","","","","","","","key","f","22.150231707315868","673.3333558645869","374.736854644804","j","false","img/S_ambi40.png","生人","same",""
"","","","","","html-keyboard-response","331","702256","0.0-10.0-0.0-0.0-0.0-1.95","null","<span style='color:red; font-size: 70px;'>错误! </span>","null","","","","","","","","","","","","","","","","","","","","","","","feedback_test"
"","","","","","psychophysics","332","704141","0.0-10.0-0.0-0.0-0.0-0.96","875","","f","","","","","","","","","","","","","key","f","20.59576404494432","673.3333558645869","374.736854644804","f","true","img/C_ambi40.png","自我","same",""
"","","","","","html-keyboard-response","333","704648","0.0-10.0-0.0-0.0-0.0-1.96","null","<span style='color:GreenYellow; font-size: 70px;'>正确! </span>","null","","","","","","","","","","","","","","","","","","","","","","","feedback_test"
"","","","","","psychophysics","334","706530","0.0-10.0-0.0-0.0-0.0-0.97","879","","f","","","","","","","","","","","","","key","f","22.83540740740819","673.3333558645869","374.736854644804","f","true","img/S_ambi40.png","自我","same",""
"","","","","","html-keyboard-response","335","707036","0.0-10.0-0.0-0.0-0.0-1.97","null","<span style='color:GreenYellow; font-size: 70px;'>正确! </span>","null","","","","","","","","","","","","","","","","","","","","","","","feedback_test"
"","","","","","psychophysics","336","709376","0.0-10.0-0.0-0.0-0.0-0.98","1326","","f","","","","","","","","","","","","","key","f","21.694160377358543","673.3333558645869","374.736854644804","f","true","img/H_ambi40.png","朋友","same",""
"","","","","","html-keyboard-response","337","709890","0.0-10.0-0.0-0.0-0.0-1.98","null","<span style='color:GreenYellow; font-size: 70px;'>正确! </span>","null","","","","","","","","","","","","","","","","","","","","","","","feedback_test"
"","","","","","psychophysics","338","711890","0.0-10.0-0.0-0.0-0.0-0.99","999","","f","","","","","","","","","","","","","key","f","20.064499999999963","673.3333558645869","374.736854644804","f","true","img/S_ambi40.png","朋友","same",""
"","","","","","html-keyboard-response","339","712419","0.0-10.0-0.0-0.0-0.0-1.99","null","<span style='color:GreenYellow; font-size: 70px;'>正确! </span>","null","","","","","","","","","","","","","","","","","","","","","","","feedback_test"
"","","","","","psychophysics","340","714409","0.0-10.0-0.0-0.0-0.0-0.100","978","","f","","","","","","","","","","","","","key","f","20.740978723404275","673.3333558645869","374.736854644804","f","true","img/C_ambi40.png","生人","same",""
"","","","","","html-keyboard-response","341","714920","0.0-10.0-0.0-0.0-0.0-1.100","null","<span style='color:GreenYellow; font-size: 70px;'>正确! </span>","null","","","","","","","","","","","","","","","","","","","","","","","feedback_test"
"","","","","","psychophysics","342","717188","0.0-10.0-0.0-0.0-0.0-0.101","1258","","f","","","","","","","","","","","","","key","f","22.108128712871018","673.3333558645869","374.736854644804","f","true","img/C_ambi40.png","生人","same",""
"","","","","","html-keyboard-response","343","717700","0.0-10.0-0.0-0.0-0.0-1.101","null","<span style='color:GreenYellow; font-size: 70px;'>正确! </span>","null","","","","","","","","","","","","","","","","","","","","","","","feedback_test"
"","","","","","psychophysics","344","719802","0.0-10.0-0.0-0.0-0.0-0.102","1091","","f","","","","","","","","","","","","","key","f","20.257833333333323","673.3333558645869","374.736854644804","f","true","img/S_ambi40.png","自我","same",""
"","","","","","html-keyboard-response","345","720313","0.0-10.0-0.0-0.0-0.0-1.102","null","<span style='color:GreenYellow; font-size: 70px;'>正确! </span>","null","","","","","","","","","","","","","","","","","","","","","","","feedback_test"
"","","","","","psychophysics","346","722499","0.0-10.0-0.0-0.0-0.0-0.103","1183","","j","","","","","","","","","","","","","key","j","21.66261999999988","673.3333558645869","374.736854644804","j","true","img/C_ambi40.png","朋友","same",""
"","","","","","html-keyboard-response","347","723011","0.0-10.0-0.0-0.0-0.0-1.103","null","<span style='color:GreenYellow; font-size: 70px;'>正确! </span>","null","","","","","","","","","","","","","","","","","","","","","","","feedback_test"
"","","","","","psychophysics","348","725316","0.0-10.0-0.0-0.0-0.0-0.104","1278","","j","","","","","","","","","","","","","key","j","21.840524271843748","673.3333558645869","374.736854644804","j","true","img/H_ambi40.png","自我","same",""
"","","","","","html-keyboard-response","349","725841","0.0-10.0-0.0-0.0-0.0-1.104","null","<span style='color:GreenYellow; font-size: 70px;'>正确! </span>","null","","","","","","","","","","","","","","","","","","","","","","","feedback_test"
"","","","","","psychophysics","350","727935","0.0-10.0-0.0-0.0-0.0-0.105","1067","","j","","","","","","","","","","","","","key","j","21.35034375000032","673.3333558645869","374.736854644804","j","true","img/T_ambi40.png","をる","same",""
"","","","","","html-keyboard-response","351","728443","0.0-10.0-0.0-0.0-0.0-1.105","null","<span style='color:GreenYellow; font-size: 70px;'>正确! </span>","null","","","","","","","","","","","","","","","","","","","","","","","feedback_test"
"","","","","","psychophysics","352","730843","0.0-10.0-0.0-0.0-0.0-0.106","1391","","f","","","","","","","","","","","","","key","f","20.542241379310546","673.3333558645869","374.736854644804","f","true","img/H_ambi40.png","生人","same",""
"","","","","","html-keyboard-response","353","731353","0.0-10.0-0.0-0.0-0.0-1.106","null","<span style='color:GreenYellow; font-size: 70px;'>正确! </span>","null","","","","","","","","","","","","","","","","","","","","","","","feedback_test"
"","","","","","psychophysics","354","733051","0.0-10.0-0.0-0.0-0.0-0.107","686","","j","","","","","","","","","","","","","key","j","21.092949367088526","673.3333558645869","374.736854644804","j","true","img/T_ambi40.png","をる","same",""
"","","","","","html-keyboard-response","355","733559","0.0-10.0-0.0-0.0-0.0-1.107","null","<span style='color:GreenYellow; font-size: 70px;'>正确! </span>","null","","","","","","","","","","","","","","","","","","","","","","","feedback_test"
"","","","","","html-keyboard-response","356","738015","0.0-10.0-0.0-0.0-1.0","4451","<style>.context{color:white; font-size: 35px; line-height:40px}</style>                          <div><p class='context'>您正确回答了89% 的试次。</p><p class='context'>您的平均反应时为965毫秒。</p><p class='context'>请按任意键进入休息</p></div>"," ","","","","","","","","","","","","","","","","","","","","","","",""
"","","","","","html-button-response","357","796769","0.0-10.0-0.0-0.0-2.0","58734","
                    <p>您当前还剩余5组实验</p>
                    <p>现在是休息时间，当您结束休息后，您可以点击 结束休息 按钮 继续</p>
                    <p>建议休息时间还剩余<span id=""iii"">60</span>秒</p>","0","","","","","","","","","","","","","","","","","","","","","","",""
"","","","","","psychophysics","358","799285","0.0-10.0-0.0-0.0-0.1-0.108","null","","null","","","","","","","","","","","","","key","null","21.404586206895804","673.3333558645869","374.736854644804","j","false","img/S_ambi40.png","生人","same",""
"","","","","","html-keyboard-response","359","799790","0.0-10.0-0.0-0.0-0.1-1.108","null","<span class='add_' style='color:yellow; font-size: 70px;'> 太慢! </span>","null","","","","","","","","","","","","","","","","","","","","","","","feedback_test"
"","","","","","psychophysics","360","801774","0.0-10.0-0.0-0.0-0.1-0.109","967","","f","","","","","","","","","","","","","key","f","20.099371134020274","673.3333558645869","374.736854644804","f","true","img/H_ambi40.png","朋友","same",""
"","","","","","html-keyboard-response","361","802284","0.0-10.0-0.0-0.0-0.1-1.109","null","<span style='color:GreenYellow; font-size: 70px;'>正确! </span>","null","","","","","","","","","","","","","","","","","","","","","","","feedback_test"
"","","","","","psychophysics","362","803993","0.0-10.0-0.0-0.0-0.1-0.110","700","","j","","","","","","","","","","","","","key","j","19.83751190476219","673.3333558645869","374.736854644804","j","true","img/T_ambi40.png","をる","same",""
"","","","","","html-keyboard-response","363","804497","0.0-10.0-0.0-0.0-0.1-1.110","null","<span style='color:GreenYellow; font-size: 70px;'>正确! </span>","null","","","","","","","","","","","","","","","","","","","","","","","feedback_test"
"","","","","","psychophysics","364","806423","0.0-10.0-0.0-0.0-0.1-0.111","901","","f","","","","","","","","","","","","","key","f","18.829940000000644","673.3333558645869","374.736854644804","f","true","img/S_ambi40.png","朋友","same",""
"","","","","","html-keyboard-response","365","806937","0.0-10.0-0.0-0.0-0.1-1.111","null","<span style='color:GreenYellow; font-size: 70px;'>正确! </span>","null","","","","","","","","","","","","","","","","","","","","","","","feedback_test"
"","","","","","psychophysics","366","808799","0.0-10.0-0.0-0.0-0.1-0.112","855","","f","","","","","","","","","","","","","key","f","21.17268235294066","673.3333558645869","374.736854644804","f","true","img/H_ambi40.png","朋友","same",""
"","","","","","html-keyboard-response","367","809306","0.0-10.0-0.0-0.0-0.1-1.112","null","<span style='color:GreenYellow; font-size: 70px;'>正确! </span>","null","","","","","","","","","","","","","","","","","","","","","","","feedback_test"
"","","","","","psychophysics","368","811189","0.0-10.0-0.0-0.0-0.1-0.113","872","","f","","","","","","","","","","","","","key","f","21.01869318181707","673.3333558645869","374.736854644804","f","true","img/S_ambi40.png","自我","same",""
"","","","","","html-keyboard-response","369","811703","0.0-10.0-0.0-0.0-0.1-1.113","null","<span style='color:GreenYellow; font-size: 70px;'>正确! </span>","null","","","","","","","","","","","","","","","","","","","","","","","feedback_test"
"","","","","","psychophysics","370","813377","0.0-10.0-0.0-0.0-0.1-0.114","657","","j","","","","","","","","","","","","","key","j","20.161345679012562","673.3333558645869","374.736854644804","j","true","img/T_ambi40.png","をる","same",""
"","","","","","html-keyboard-response","371","813896","0.0-10.0-0.0-0.0-0.1-1.114","null","<span style='color:GreenYellow; font-size: 70px;'>正确! </span>","null","","","","","","","","","","","","","","","","","","","","","","","feedback_test"
"","","","","","psychophysics","372","816128","0.0-10.0-0.0-0.0-0.1-0.115","1213","","f","","","","","","","","","","","","","key","f","21.14972115384612","673.3333558645869","374.736854644804","f","true","img/C_ambi40.png","自我","same",""
"","","","","","html-keyboard-response","373","816659","0.0-10.0-0.0-0.0-0.1-1.115","null","<span style='color:GreenYellow; font-size: 70px;'>正确! </span>","null","","","","","","","","","","","","","","","","","","","","","","","feedback_test"
"","","","","","psychophysics","374","818488","0.0-10.0-0.0-0.0-0.1-0.116","821","","f","","","","","","","","","","","","","key","f","20.926116279070538","673.3333558645869","374.736854644804","j","false","img/C_ambi40.png","朋友","same",""
"","","","","","html-keyboard-response","375","818993","0.0-10.0-0.0-0.0-0.1-1.116","null","<span style='color:red; font-size: 70px;'>错误! </span>","null","","","","","","","","","","","","","","","","","","","","","","","feedback_test"
"","","","","","psychophysics","376","820812","0.0-10.0-0.0-0.0-0.1-0.117","816","","f","","","","","","","","","","","","","key","f","21.22639285714277","673.3333558645869","374.736854644804","f","true","img/H_ambi40.png","生人","same",""
"","","","","","html-keyboard-response","377","821324","0.0-10.0-0.0-0.0-0.1-1.117","null","<span style='color:GreenYellow; font-size: 70px;'>正确! </span>","null","","","","","","","","","","","","","","","","","","","","","","","feedback_test"
"","","","","","psychophysics","378","823316","0.0-10.0-0.0-0.0-0.1-0.118","976","","j","","","","","","","","","","","","","key","j","20.740904255319347","673.3333558645869","374.736854644804","j","true","img/H_ambi40.png","自我","same",""
"","","","","","html-keyboard-response","379","823820","0.0-10.0-0.0-0.0-0.1-1.118","null","<span style='color:GreenYellow; font-size: 70px;'>正确! </span>","null","","","","","","","","","","","","","","","","","","","","","","","feedback_test"
"","","","","","psychophysics","380","825582","0.0-10.0-0.0-0.0-0.1-0.119","733","","j","","","","","","","","","","","","","key","j","21.937240506329314","673.3333558645869","374.736854644804","j","true","img/T_ambi40.png","をる","same",""
"","","","","","html-keyboard-response","381","826098","0.0-10.0-0.0-0.0-0.1-1.119","null","<span style='color:GreenYellow; font-size: 70px;'>正确! </span>","null","","","","","","","","","","","","","","","","","","","","","","","feedback_test"
"","","","","","psychophysics","382","827972","0.0-10.0-0.0-0.0-0.1-0.120","868","","j","","","","","","","","","","","","","key","j","22.556073170731686","673.3333558645869","374.736854644804","j","true","img/H_ambi40.png","自我","same",""
"","","","","","html-keyboard-response","383","828490","0.0-10.0-0.0-0.0-0.1-1.120","null","<span style='color:GreenYellow; font-size: 70px;'>正确! </span>","null","","","","","","","","","","","","","","","","","","","","","","","feedback_test"
"","","","","","psychophysics","384","830481","0.0-10.0-0.0-0.0-0.1-0.121","976","","j","","","","","","","","","","","","","key","j","20.482427083332976","673.3333558645869","374.736854644804","j","true","img/C_ambi40.png","朋友","same",""
"","","","","","html-keyboard-response","385","831000","0.0-10.0-0.0-0.0-0.1-1.121","null","<span style='color:GreenYellow; font-size: 70px;'>正确! </span>","null","","","","","","","","","","","","","","","","","","","","","","","feedback_test"
"","","","","","psychophysics","386","832789","0.0-10.0-0.0-0.0-0.1-0.122","778","","j","","","","","","","","","","","","","key","j","20.780247058823484","673.3333558645869","374.736854644804","j","true","img/S_ambi40.png","生人","same",""
"","","","","","html-keyboard-response","387","833323","0.0-10.0-0.0-0.0-0.1-1.122","null","<span style='color:GreenYellow; font-size: 70px;'>正确! </span>","null","","","","","","","","","","","","","","","","","","","","","","","feedback_test"
"","","","","","psychophysics","388","835195","0.0-10.0-0.0-0.0-0.1-0.123","829","","f","","","","","","","","","","","","","key","f","20.551600000000974","673.3333558645869","374.736854644804","f","true","img/S_ambi40.png","自我","same",""
"","","","","","html-keyboard-response","389","835707","0.0-10.0-0.0-0.0-0.1-1.123","null","<span style='color:GreenYellow; font-size: 70px;'>正确! </span>","null","","","","","","","","","","","","","","","","","","","","","","","feedback_test"
"","","","","","psychophysics","390","837962","0.0-10.0-0.0-0.0-0.1-0.124","1243","","j","","","","","","","","","","","","","key","j","22.162480000000215","673.3333558645869","374.736854644804","f","false","img/C_ambi40.png","生人","same",""
"","","","","","html-keyboard-response","391","838475","0.0-10.0-0.0-0.0-0.1-1.124","null","<span style='color:red; font-size: 70px;'>错误! </span>","null","","","","","","","","","","","","","","","","","","","","","","","feedback_test"
"","","","","","psychophysics","392","841015","0.0-10.0-0.0-0.0-0.1-0.125","null","","null","","","","","","","","","","","","","key","null","20.863974789915677","673.3333558645869","374.736854644804","f","false","img/C_ambi40.png","生人","same",""
"","","","","","html-keyboard-response","393","841523","0.0-10.0-0.0-0.0-0.1-1.125","null","<span class='add_' style='color:yellow; font-size: 70px;'> 太慢! </span>","null","","","","","","","","","","","","","","","","","","","","","","","feedback_test"
"","","","","","psychophysics","394","843644","0.0-10.0-0.0-0.0-0.1-0.126","1104","","f","","","","","","","","","","","","","key","f","22.336127659574675","673.3333558645869","374.736854644804","f","true","img/C_ambi40.png","生人","same",""
"","","","","","html-keyboard-response","395","844152","0.0-10.0-0.0-0.0-0.1-1.126","null","<span style='color:GreenYellow; font-size: 70px;'>正确! </span>","null","","","","","","","","","","","","","","","","","","","","","","","feedback_test"
"","","","","","psychophysics","396","845822","0.0-10.0-0.0-0.0-0.1-0.127","661","","j","","","","","","","","","","","","","key","j","20.41311249999999","673.3333558645869","374.736854644804","j","true","img/T_ambi40.png","をる","same",""
"","","","","","html-keyboard-response","397","846328","0.0-10.0-0.0-0.0-0.1-1.127","null","<span style='color:GreenYellow; font-size: 70px;'>正确! </span>","null","","","","","","","","","","","","","","","","","","","","","","","feedback_test"
"","","","","","psychophysics","398","848360","0.0-10.0-0.0-0.0-0.1-0.128","1020","","f","","","","","","","","","","","","","key","f","22.093438202247096","673.3333558645869","374.736854644804","f","true","img/H_ambi40.png","生人","same",""
"","","","","","html-keyboard-response","399","848885","0.0-10.0-0.0-0.0-0.1-1.128","null","<span style='color:GreenYellow; font-size: 70px;'>正确! </span>","null","","","","","","","","","","","","","","","","","","","","","","","feedback_test"
"","","","","","psychophysics","400","851205","0.0-10.0-0.0-0.0-0.1-0.129","1313","","j","","","","","","","","","","","","","key","j","22.82893999999971","673.3333558645869","374.736854644804","j","true","img/H_ambi40.png","自我","same",""
"","","","","","html-keyboard-response","401","851714","0.0-10.0-0.0-0.0-0.1-1.129","null","<span style='color:GreenYellow; font-size: 70px;'>正确! </span>","null","","","","","","","","","","","","","","","","","","","","","","","feedback_test"
"","","","","","psychophysics","402","853955","0.0-10.0-0.0-0.0-0.1-0.130","1234","","f","","","","","","","","","","","","","key","f","19.996745454545387","673.3333558645869","374.736854644804","f","true","img/S_ambi40.png","朋友","same",""
"","","","","","html-keyboard-response","403","854460","0.0-10.0-0.0-0.0-0.1-1.130","null","<span style='color:GreenYellow; font-size: 70px;'>正确! </span>","null","","","","","","","","","","","","","","","","","","","","","","","feedback_test"
"","","","","","psychophysics","404","856996","0.0-10.0-0.0-0.0-0.1-0.131","null","","null","","","","","","","","","","","","","key","null","20.381859504131885","673.3333558645869","374.736854644804","f","false","img/C_ambi40.png","生人","same",""
"","","","","","html-keyboard-response","405","857504","0.0-10.0-0.0-0.0-0.1-1.131","null","<span class='add_' style='color:yellow; font-size: 70px;'> 太慢! </span>","null","","","","","","","","","","","","","","","","","","","","","","","feedback_test"
"","","","","","psychophysics","406","859521","0.0-10.0-0.0-0.0-0.1-0.132","1012","","j","","","","","","","","","","","","","key","j","21.55392391304359","673.3333558645869","374.736854644804","j","true","img/S_ambi40.png","生人","same",""
"","","","","","html-keyboard-response","407","860038","0.0-10.0-0.0-0.0-0.1-1.132","null","<span style='color:GreenYellow; font-size: 70px;'>正确! </span>","null","","","","","","","","","","","","","","","","","","","","","","","feedback_test"
"","","","","","psychophysics","408","861729","0.0-10.0-0.0-0.0-0.1-0.133","685","","j","","","","","","","","","","","","","key","j","21.70622368420989","673.3333558645869","374.736854644804","j","true","img/H_ambi40.png","自我","same",""
"","","","","","html-keyboard-response","409","862238","0.0-10.0-0.0-0.0-0.1-1.133","null","<span style='color:GreenYellow; font-size: 70px;'>正确! </span>","null","","","","","","","","","","","","","","","","","","","","","","","feedback_test"
"","","","","","psychophysics","410","864229","0.0-10.0-0.0-0.0-0.1-0.134","989","","f","","","","","","","","","","","","","key","f","20.481854166666988","673.3333558645869","374.736854644804","f","true","img/H_ambi40.png","朋友","same",""
"","","","","","html-keyboard-response","411","864744","0.0-10.0-0.0-0.0-0.1-1.134","null","<span style='color:GreenYellow; font-size: 70px;'>正确! </span>","null","","","","","","","","","","","","","","","","","","","","","","","feedback_test"
"","","","","","psychophysics","412","866408","0.0-10.0-0.0-0.0-0.1-0.135","658","","j","","","","","","","","","","","","","key","j","22.53033802816874","673.3333558645869","374.736854644804","j","true","img/T_ambi40.png","をる","same",""
"","","","","","html-keyboard-response","413","866924","0.0-10.0-0.0-0.0-0.1-1.135","null","<span style='color:GreenYellow; font-size: 70px;'>正确! </span>","null","","","","","","","","","","","","","","","","","","","","","","","feedback_test"
"","","","","","psychophysics","414","868854","0.0-10.0-0.0-0.0-0.1-0.136","921","","j","","","","","","","","","","","","","key","j","20.46692391304279","673.3333558645869","374.736854644804","j","true","img/C_ambi40.png","朋友","same",""
"","","","","","html-keyboard-response","415","869360","0.0-10.0-0.0-0.0-0.1-1.136","null","<span style='color:GreenYellow; font-size: 70px;'>正确! </span>","null","","","","","","","","","","","","","","","","","","","","","","","feedback_test"
"","","","","","psychophysics","416","871151","0.0-10.0-0.0-0.0-0.1-0.137","783","","j","","","","","","","","","","","","","key","j","20.303011494252466","673.3333558645869","374.736854644804","j","true","img/C_ambi40.png","朋友","same",""
"","","","","","html-keyboard-response","417","871670","0.0-10.0-0.0-0.0-0.1-1.137","null","<span style='color:GreenYellow; font-size: 70px;'>正确! </span>","null","","","","","","","","","","","","","","","","","","","","","","","feedback_test"
