"success","timeout","failed_images","failed_audio","failed_video","trial_type","trial_index","time_elapsed","internal_node_id","rt","stimulus","response","value","item_width_mm","item_height_mm","item_width_px","px2mm","view_dist_mm","item_width_deg","px2deg","scale_factor","win_width_deg","win_height_deg","view_history","response_type","key_press","avg_frame_time","center_x","center_y","correct_response","correct","Image","word","condition","screen_id"
"true","false","[]","[]","[]","preload","0","27391","0.0-0.0","","","","","","","","","","","","","","","","","","","","","","","","","",""
"","","","","","html-keyboard-response","1","33503","0.0-1.0","6110","
     <p>您好，欢迎参加本次实验。</p>
     <p>为充分保障您的权利，请确保您已经知晓并同意《参与实验同意书》以及《数据公开知情同意书》。</p>
     <p>如果您未见过上述内容，请咨询实验员。</p>
     <p>如果您选择继续实验，则表示您已经清楚两份知情同意书的内容并同意。</p>
     <p> <div style = ""color: green""><按任意键至下页></div> </p>
     "," ","","","","","","","","","","","","","","","","","","","","","","",""
"","","","","","html-keyboard-response","2","37033","0.0-2.0","3530","
     <p>本实验首先需要您填写一些基本个人信息。</p>
     <p> <div style = ""color: green""><按任意键至下页></div></p>
     "," ","","","","","","","","","","","","","","","","","","","","","","",""
"","","","","","call-function","3","37034","0.0-3.0-0.0","","","","","","","","","","","","","","","","","","","","","","","","","",""
"","","","","","survey-html-form","4","87582","0.0-3.0-1.0","50547","","{""Q0"":""14""}","","","","","","","","","","","","","","","","","","","","","","",""
"","","","","","html-button-response","5","89327","0.0-3.0-2.0","1742","<p style = 'color : white'>您的性别</p>","1","","","","","","","","","","","","","","","","","","","","","","",""
"","","","","","survey-html-form","6","94397","0.0-3.0-3.0","5065","","{""Q0"":""1999""}","","","","","","","","","","","","","","","","","","","","","","",""
"","","","","","survey-html-form","7","98403","0.0-3.0-4.0","4004","","{""Q0"":""5""}","","","","","","","","","","","","","","","","","","","","","","",""
"","","","","","virtual-chinrest","8","294995","0.0-4.0","196591","","","","85.6","53.98","559.5518575248728","6.537921703711673","436.86","11.191037150497458","50","0.6791148932663644","25.6","12.94","","","","","","","","","","","",""
"true","","","","","fullscreen","9","300081","0.0-5.0","","","","","","","","","","","","","","","","","","","","","","","","","",""
"","","","","","instructions","10","369419","0.0-6.0","69336","","","","","","","","","","","","","","[{""page_index"":0,""viewing_time"":6348},{""page_index"":1,""viewing_time"":55054},{""page_index"":2,""viewing_time"":3140},{""page_index"":3,""viewing_time"":4794}]","","","","","","","","","","",""
"","","","","","psychophysics","11","371927","0.0-7.0-0.0","null","","null","","","","","","","","","","","","","key","null","16.6663087248324","640","396","j","false","img/C_ambi40.png","生人","prac",""
"","","","","","html-keyboard-response","12","372441","0.0-7.0-1.0","null","<span class='add_' style='color:yellow; font-size: 70px;'> 太慢! </span>","null","","","","","","","","","","","","","","","","","","","","","","","feedback_test"
"","","","","","psychophysics","13","374540","0.0-7.0-0.1","1085","","f","","","","","","","","","","","","","key","f","16.666399999999907","640","396","f","true","img/S_ambi40.png","自我","prac",""
"","","","","","html-keyboard-response","14","375046","0.0-7.0-1.1","null","<span style='color:GreenYellow; font-size: 70px;'>正确! </span>","null","","","","","","","","","","","","","","","","","","","","","","","feedback_test"
"","","","","","psychophysics","15","376774","0.0-7.0-0.2","725","","f","","","","","","","","","","","","","key","f","16.665631067961144","640","396","f","true","img/H_ambi40.png","生人","prac",""
"","","","","","html-keyboard-response","16","377280","0.0-7.0-1.2","null","<span style='color:GreenYellow; font-size: 70px;'>正确! </span>","null","","","","","","","","","","","","","","","","","","","","","","","feedback_test"
"","","","","","psychophysics","17","379018","0.0-7.0-0.3","722","","j","","","","","","","","","","","","","key","j","16.666213592232964","640","396","j","true","img/C_ambi40.png","自我","prac",""
"","","","","","html-keyboard-response","18","379524","0.0-7.0-1.3","null","<span style='color:GreenYellow; font-size: 70px;'>正确! </span>","null","","","","","","","","","","","","","","","","","","","","","","","feedback_test"
"","","","","","psychophysics","19","381348","0.0-7.0-0.4","810","","j","","","","","","","","","","","","","key","j","16.665925925925777","640","396","f","false","img/C_ambi40.png","朋友","prac",""
"","","","","","html-keyboard-response","20","381853","0.0-7.0-1.4","null","<span style='color:red; font-size: 70px;'>错误! </span>","null","","","","","","","","","","","","","","","","","","","","","","","feedback_test"
"","","","","","psychophysics","21","383912","0.0-7.0-0.5","1054","","j","","","","","","","","","","","","","key","j","16.66606557377009","640","396","j","true","img/T_ambi40.png","をる","prac",""
"","","","","","html-keyboard-response","22","384424","0.0-7.0-1.5","null","<span style='color:GreenYellow; font-size: 70px;'>正确! </span>","null","","","","","","","","","","","","","","","","","","","","","","","feedback_test"
"","","","","","psychophysics","23","386615","0.0-7.0-0.6","1185","","j","","","","","","","","","","","","","key","j","16.665846153846136","640","396","j","true","img/T_ambi40.png","をる","prac",""
"","","","","","html-keyboard-response","24","387118","0.0-7.0-1.6","null","<span style='color:GreenYellow; font-size: 70px;'>正确! </span>","null","","","","","","","","","","","","","","","","","","","","","","","feedback_test"
"","","","","","psychophysics","25","389486","0.0-7.0-0.7","1353","","j","","","","","","","","","","","","","key","j","16.666382978723554","640","396","j","true","img/S_ambi40.png","生人","prac",""
"","","","","","html-keyboard-response","26","390000","0.0-7.0-1.7","null","<span style='color:GreenYellow; font-size: 70px;'>正确! </span>","null","","","","","","","","","","","","","","","","","","","","","","","feedback_test"
"","","","","","psychophysics","27","391740","0.0-7.0-0.8","724","","j","","","","","","","","","","","","","key","j","16.666346153846042","640","396","j","true","img/T_ambi40.png","をる","prac",""
"","","","","","html-keyboard-response","28","392250","0.0-7.0-1.8","null","<span style='color:GreenYellow; font-size: 70px;'>正确! </span>","null","","","","","","","","","","","","","","","","","","","","","","","feedback_test"
"","","","","","psychophysics","29","394166","0.0-7.0-0.9","904","","j","","","","","","","","","","","","","key","j","16.666140350877214","640","396","j","true","img/S_ambi40.png","朋友","prac",""
"","","","","","html-keyboard-response","30","394671","0.0-7.0-1.9","null","<span style='color:GreenYellow; font-size: 70px;'>正确! </span>","null","","","","","","","","","","","","","","","","","","","","","","","feedback_test"
"","","","","","psychophysics","31","396463","0.0-7.0-0.10","788","","j","","","","","","","","","","","","","key","j","16.666415094339204","640","396","f","false","img/C_ambi40.png","朋友","prac",""
"","","","","","html-keyboard-response","32","396968","0.0-7.0-1.10","null","<span style='color:red; font-size: 70px;'>错误! </span>","null","","","","","","","","","","","","","","","","","","","","","","","feedback_test"
"","","","","","psychophysics","33","399480","0.0-7.0-0.11","null","","null","","","","","","","","","","","","","key","null","16.666400000000138","640","396","f","false","img/H_ambi40.png","生人","prac",""
"","","","","","html-keyboard-response","34","399981","0.0-7.0-1.11","null","<span class='add_' style='color:yellow; font-size: 70px;'> 太慢! </span>","null","","","","","","","","","","","","","","","","","","","","","","","feedback_test"
"","","","","","psychophysics","35","402086","0.0-7.0-0.12","1103","","j","","","","","","","","","","","","","key","j","16.666240000000222","640","396","j","true","img/H_ambi40.png","自我","prac",""
"","","","","","html-keyboard-response","36","402590","0.0-7.0-1.12","null","<span style='color:GreenYellow; font-size: 70px;'>正确! </span>","null","","","","","","","","","","","","","","","","","","","","","","","feedback_test"
"","","","","","psychophysics","37","404196","0.0-7.0-0.13","603","","j","","","","","","","","","","","","","key","j","16.665894736842205","640","396","j","true","img/T_ambi40.png","をる","prac",""
"","","","","","html-keyboard-response","38","404696","0.0-7.0-1.13","null","<span style='color:GreenYellow; font-size: 70px;'>正确! </span>","null","","","","","","","","","","","","","","","","","","","","","","","feedback_test"
"","","","","","psychophysics","39","406602","0.0-7.0-0.14","892","","j","","","","","","","","","","","","","key","j","16.666548672566435","640","396","j","true","img/H_ambi40.png","朋友","prac",""
"","","","","","html-keyboard-response","40","407115","0.0-7.0-1.14","null","<span style='color:GreenYellow; font-size: 70px;'>正确! </span>","null","","","","","","","","","","","","","","","","","","","","","","","feedback_test"
"","","","","","psychophysics","41","409021","0.0-7.0-0.15","903","","f","","","","","","","","","","","","","key","f","16.666371681415825","640","396","f","true","img/S_ambi40.png","自我","prac",""
"","","","","","html-keyboard-response","42","409523","0.0-7.0-1.15","null","<span style='color:GreenYellow; font-size: 70px;'>正确! </span>","null","","","","","","","","","","","","","","","","","","","","","","","feedback_test"
"","","","","","psychophysics","43","411294","0.0-7.0-0.16","759","","j","","","","","","","","","","","","","key","j","16.666285714285358","640","396","f","false","img/C_ambi40.png","朋友","prac",""
"","","","","","html-keyboard-response","44","411804","0.0-7.0-1.16","null","<span style='color:red; font-size: 70px;'>错误! </span>","null","","","","","","","","","","","","","","","","","","","","","","","feedback_test"
"","","","","","psychophysics","45","413444","0.0-7.0-0.17","639","","j","","","","","","","","","","","","","key","j","16.666391752577464","640","396","j","true","img/T_ambi40.png","をる","prac",""
"","","","","","html-keyboard-response","46","413948","0.0-7.0-1.17","null","<span style='color:GreenYellow; font-size: 70px;'>正确! </span>","null","","","","","","","","","","","","","","","","","","","","","","","feedback_test"
"","","","","","psychophysics","47","415802","0.0-7.0-0.18","838","","j","","","","","","","","","","","","","key","j","16.666545454545517","640","396","f","false","img/H_ambi40.png","生人","prac",""
"","","","","","html-keyboard-response","48","416302","0.0-7.0-1.18","null","<span style='color:red; font-size: 70px;'>错误! </span>","null","","","","","","","","","","","","","","","","","","","","","","","feedback_test"
"","","","","","psychophysics","49","418018","0.0-7.0-0.19","709","","j","","","","","","","","","","","","","key","j","16.66653465346484","640","396","j","true","img/T_ambi40.png","をる","prac",""
"","","","","","html-keyboard-response","50","418523","0.0-7.0-1.19","null","<span style='color:GreenYellow; font-size: 70px;'>正确! </span>","null","","","","","","","","","","","","","","","","","","","","","","","feedback_test"
"","","","","","psychophysics","51","420729","0.0-7.0-0.20","1204","","j","","","","","","","","","","","","","key","j","16.66641221374037","640","396","j","true","img/C_ambi40.png","生人","prac",""
"","","","","","html-keyboard-response","52","421238","0.0-7.0-1.20","null","<span style='color:GreenYellow; font-size: 70px;'>正确! </span>","null","","","","","","","","","","","","","","","","","","","","","","","feedback_test"
"","","","","","psychophysics","53","423302","0.0-7.0-0.21","1062","","j","","","","","","","","","","","","","key","j","16.665901639344185","640","396","j","true","img/S_ambi40.png","朋友","prac",""
"","","","","","html-keyboard-response","54","423813","0.0-7.0-1.21","null","<span style='color:GreenYellow; font-size: 70px;'>正确! </span>","null","","","","","","","","","","","","","","","","","","","","","","","feedback_test"
"","","","","","psychophysics","55","426259","0.0-7.0-0.22","1430","","j","","","","","","","","","","","","","key","j","16.66589041095911","640","396","f","false","img/C_ambi40.png","朋友","prac",""
"","","","","","html-keyboard-response","56","426769","0.0-7.0-1.22","null","<span style='color:red; font-size: 70px;'>错误! </span>","null","","","","","","","","","","","","","","","","","","","","","","","feedback_test"
"","","","","","psychophysics","57","428693","0.0-7.0-0.23","909","","f","","","","","","","","","","","","","key","f","16.66649122807001","640","396","f","true","img/S_ambi40.png","自我","prac",""
"","","","","","html-keyboard-response","58","429204","0.0-7.0-1.23","null","<span style='color:GreenYellow; font-size: 70px;'>正确! </span>","null","","","","","","","","","","","","","","","","","","","","","","","feedback_test"
"","","","","","psychophysics","59","431397","0.0-7.0-0.24","1187","","f","","","","","","","","","","","","","key","f","16.665846153846136","640","396","j","false","img/S_ambi40.png","生人","prac",""
"","","","","","html-keyboard-response","60","431905","0.0-7.0-1.24","null","<span style='color:red; font-size: 70px;'>错误! </span>","null","","","","","","","","","","","","","","","","","","","","","","","feedback_test"
"","","","","","psychophysics","61","433697","0.0-7.0-0.25","779","","j","","","","","","","","","","","","","key","j","16.66584905660393","640","396","j","true","img/T_ambi40.png","をる","prac",""
"","","","","","html-keyboard-response","62","434202","0.0-7.0-1.25","null","<span style='color:GreenYellow; font-size: 70px;'>正确! </span>","null","","","","","","","","","","","","","","","","","","","","","","","feedback_test"
"","","","","","psychophysics","63","436717","0.0-7.0-0.26","null","","null","","","","","","","","","","","","","key","null","16.66617449664436","640","396","j","false","img/C_ambi40.png","自我","prac",""
"","","","","","html-keyboard-response","64","437233","0.0-7.0-1.26","null","<span class='add_' style='color:yellow; font-size: 70px;'> 太慢! </span>","null","","","","","","","","","","","","","","","","","","","","","","","feedback_test"
"","","","","","psychophysics","65","438911","0.0-7.0-0.27","677","","f","","","","","","","","","","","","","key","f","16.666199999999954","640","396","f","true","img/S_ambi40.png","自我","prac",""
"","","","","","html-keyboard-response","66","439420","0.0-7.0-1.27","null","<span style='color:GreenYellow; font-size: 70px;'>正确! </span>","null","","","","","","","","","","","","","","","","","","","","","","","feedback_test"
"","","","","","psychophysics","67","441681","0.0-7.0-0.28","1245","","j","","","","","","","","","","","","","key","j","16.7911278195491","640","396","j","true","img/H_ambi40.png","朋友","prac",""
"","","","","","html-keyboard-response","68","442189","0.0-7.0-1.28","null","<span style='color:GreenYellow; font-size: 70px;'>正确! </span>","null","","","","","","","","","","","","","","","","","","","","","","","feedback_test"
"","","","","","psychophysics","69","444681","0.0-7.0-0.29","1487","","f","","","","","","","","","","","","","key","f","16.665810810811063","640","396","f","true","img/H_ambi40.png","生人","prac",""
"","","","","","html-keyboard-response","70","445192","0.0-7.0-1.29","null","<span style='color:GreenYellow; font-size: 70px;'>正确! </span>","null","","","","","","","","","","","","","","","","","","","","","","","feedback_test"
"","","","","","psychophysics","71","446816","0.0-7.0-0.30","606","","j","","","","","","","","","","","","","key","j","16.666458333333747","640","396","j","true","img/T_ambi40.png","をる","prac",""
"","","","","","html-keyboard-response","72","447324","0.0-7.0-1.30","null","<span style='color:GreenYellow; font-size: 70px;'>正确! </span>","null","","","","","","","","","","","","","","","","","","","","","","","feedback_test"
"","","","","","psychophysics","73","449441","0.0-7.0-0.31","1102","","j","","","","","","","","","","","","","key","j","16.666507936507788","640","396","j","true","img/H_ambi40.png","自我","prac",""
"","","","","","html-keyboard-response","74","449947","0.0-7.0-1.31","null","<span style='color:GreenYellow; font-size: 70px;'>正确! </span>","null","","","","","","","","","","","","","","","","","","","","","","","feedback_test"
"","","","","","psychophysics","75","451945","0.0-8.0-0.0-0.0","981","","j","","","","","","","","","","","","","key","j","16.666050420168144","640","396","j","true","img/S_ambi40.png","朋友","prac",""
"","","","","","html-keyboard-response","76","452458","0.0-8.0-0.0-1.0","null","<span style='color:GreenYellow; font-size: 70px;'>正确! </span>","null","","","","","","","","","","","","","","","","","","","","","","","feedback_test"
"","","","","","psychophysics","77","454383","0.0-8.0-0.0-0.1","907","","j","","","","","","","","","","","","","key","j","16.666140350876702","640","396","f","false","img/C_ambi40.png","朋友","prac",""
"","","","","","html-keyboard-response","78","454892","0.0-8.0-0.0-1.1","null","<span style='color:red; font-size: 70px;'>错误! </span>","null","","","","","","","","","","","","","","","","","","","","","","","feedback_test"
"","","","","","psychophysics","79","456547","0.0-8.0-0.0-0.2","650","","j","","","","","","","","","","","","","key","j","16.666326530612125","640","396","j","true","img/T_ambi40.png","をる","prac",""
"","","","","","html-keyboard-response","80","457056","0.0-8.0-0.0-1.2","null","<span style='color:GreenYellow; font-size: 70px;'>正确! </span>","null","","","","","","","","","","","","","","","","","","","","","","","feedback_test"
"","","","","","psychophysics","81","458730","0.0-8.0-0.0-0.3","660","","f","","","","","","","","","","","","","key","f","16.66646464646446","640","396","f","true","img/S_ambi40.png","自我","prac",""
"","","","","","html-keyboard-response","82","459241","0.0-8.0-0.0-1.3","null","<span style='color:GreenYellow; font-size: 70px;'>正确! </span>","null","","","","","","","","","","","","","","","","","","","","","","","feedback_test"
"","","","","","psychophysics","83","460924","0.0-8.0-0.0-0.4","670","","j","","","","","","","","","","","","","key","j","16.665999999999766","640","396","j","true","img/T_ambi40.png","をる","prac",""
"","","","","","html-keyboard-response","84","461438","0.0-8.0-0.0-1.4","null","<span style='color:GreenYellow; font-size: 70px;'>正确! </span>","null","","","","","","","","","","","","","","","","","","","","","","","feedback_test"
"","","","","","psychophysics","85","463360","0.0-8.0-0.0-0.5","908","","j","","","","","","","","","","","","","key","j","16.665789473684416","640","396","j","true","img/S_ambi40.png","生人","prac",""
"","","","","","html-keyboard-response","86","463874","0.0-8.0-0.0-1.5","null","<span style='color:GreenYellow; font-size: 70px;'>正确! </span>","null","","","","","","","","","","","","","","","","","","","","","","","feedback_test"
"","","","","","psychophysics","87","465705","0.0-8.0-0.0-0.6","812","","f","","","","","","","","","","","","","key","f","16.666055045871346","640","396","j","false","img/H_ambi40.png","自我","prac",""
"","","","","","html-keyboard-response","88","466211","0.0-8.0-0.0-1.6","null","<span style='color:red; font-size: 70px;'>错误! </span>","null","","","","","","","","","","","","","","","","","","","","","","","feedback_test"
"","","","","","psychophysics","89","467791","0.0-8.0-0.0-0.7","578","","j","","","","","","","","","","","","","key","j","16.665957446808264","640","396","j","true","img/T_ambi40.png","をる","prac",""
"","","","","","html-keyboard-response","90","468292","0.0-8.0-0.0-1.7","null","<span style='color:GreenYellow; font-size: 70px;'>正确! </span>","null","","","","","","","","","","","","","","","","","","","","","","","feedback_test"
"","","","","","psychophysics","91","470460","0.0-8.0-0.0-0.8","1167","","j","","","","","","","","","","","","","key","j","16.666511627907283","640","396","j","true","img/C_ambi40.png","自我","prac",""
"","","","","","html-keyboard-response","92","470964","0.0-8.0-0.0-1.8","null","<span style='color:GreenYellow; font-size: 70px;'>正确! </span>","null","","","","","","","","","","","","","","","","","","","","","","","feedback_test"
"","","","","","psychophysics","93","473478","0.0-8.0-0.0-0.9","null","","null","","","","","","","","","","","","","key","null","16.666266666666683","640","396","f","false","img/H_ambi40.png","生人","prac",""
"","","","","","html-keyboard-response","94","473979","0.0-8.0-0.0-1.9","null","<span class='add_' style='color:yellow; font-size: 70px;'> 太慢! </span>","null","","","","","","","","","","","","","","","","","","","","","","","feedback_test"
"","","","","","psychophysics","95","475965","0.0-8.0-0.0-0.10","970","","j","","","","","","","","","","","","","key","j","16.66644067796622","640","396","j","true","img/H_ambi40.png","朋友","prac",""
"","","","","","html-keyboard-response","96","476473","0.0-8.0-0.0-1.10","null","<span style='color:GreenYellow; font-size: 70px;'>正确! </span>","null","","","","","","","","","","","","","","","","","","","","","","","feedback_test"
"","","","","","psychophysics","97","478375","0.0-8.0-0.0-0.11","896","","j","","","","","","","","","","","","","key","j","16.666371681415825","640","396","f","false","img/C_ambi40.png","朋友","prac",""
"","","","","","html-keyboard-response","98","478878","0.0-8.0-0.0-1.11","null","<span style='color:red; font-size: 70px;'>错误! </span>","null","","","","","","","","","","","","","","","","","","","","","","","feedback_test"
"","","","","","psychophysics","99","480615","0.0-8.0-0.0-0.12","735","","f","","","","","","","","","","","","","key","f","16.666213592232964","640","396","f","true","img/S_ambi40.png","自我","prac",""
"","","","","","html-keyboard-response","100","481128","0.0-8.0-0.0-1.12","null","<span style='color:GreenYellow; font-size: 70px;'>正确! </span>","null","","","","","","","","","","","","","","","","","","","","","","","feedback_test"
"","","","","","psychophysics","101","483125","0.0-8.0-0.0-0.13","987","","f","","","","","","","","","","","","","key","f","16.6665546218488","640","396","f","true","img/H_ambi40.png","生人","prac",""
"","","","","","html-keyboard-response","102","483633","0.0-8.0-0.0-1.13","null","<span style='color:GreenYellow; font-size: 70px;'>正确! </span>","null","","","","","","","","","","","","","","","","","","","","","","","feedback_test"
"","","","","","psychophysics","103","485462","0.0-8.0-0.0-0.14","814","","j","","","","","","","","","","","","","key","j","16.66623853211005","640","396","j","true","img/C_ambi40.png","生人","prac",""
"","","","","","html-keyboard-response","104","485972","0.0-8.0-0.0-1.14","null","<span style='color:GreenYellow; font-size: 70px;'>正确! </span>","null","","","","","","","","","","","","","","","","","","","","","","","feedback_test"
"","","","","","psychophysics","105","487594","0.0-8.0-0.0-0.15","603","","j","","","","","","","","","","","","","key","j","16.66625000000022","640","396","j","true","img/T_ambi40.png","をる","prac",""
"","","","","","html-keyboard-response","106","488099","0.0-8.0-0.0-1.15","null","<span style='color:GreenYellow; font-size: 70px;'>正确! </span>","null","","","","","","","","","","","","","","","","","","","","","","","feedback_test"
"","","","","","psychophysics","107","489717","0.0-8.0-0.0-0.16","603","","f","","","","","","","","","","","","","key","f","16.666526315789547","640","396","f","true","img/S_ambi40.png","自我","prac",""
"","","","","","html-keyboard-response","108","490223","0.0-8.0-0.0-1.16","null","<span style='color:GreenYellow; font-size: 70px;'>正确! </span>","null","","","","","","","","","","","","","","","","","","","","","","","feedback_test"
"","","","","","psychophysics","109","492111","0.0-8.0-0.0-0.17","870","","j","","","","","","","","","","","","","key","j","16.66624999999996","640","396","j","true","img/S_ambi40.png","朋友","prac",""
"","","","","","html-keyboard-response","110","492612","0.0-8.0-0.0-1.17","null","<span style='color:GreenYellow; font-size: 70px;'>正确! </span>","null","","","","","","","","","","","","","","","","","","","","","","","feedback_test"
"","","","","","psychophysics","111","494211","0.0-8.0-0.0-0.18","593","","j","","","","","","","","","","","","","key","j","16.666526315789547","640","396","j","true","img/T_ambi40.png","をる","prac",""
"","","","","","html-keyboard-response","112","494715","0.0-8.0-0.0-1.18","null","<span style='color:GreenYellow; font-size: 70px;'>正确! </span>","null","","","","","","","","","","","","","","","","","","","","","","","feedback_test"
"","","","","","psychophysics","113","496626","0.0-8.0-0.0-0.19","896","","f","","","","","","","","","","","","","key","f","16.66649122807001","640","396","j","false","img/C_ambi40.png","自我","prac",""
"","","","","","html-keyboard-response","114","497132","0.0-8.0-0.0-1.19","null","<span style='color:red; font-size: 70px;'>错误! </span>","null","","","","","","","","","","","","","","","","","","","","","","","feedback_test"
"","","","","","psychophysics","115","498882","0.0-8.0-0.0-0.20","737","","j","","","","","","","","","","","","","key","j","16.666346153846042","640","396","f","false","img/C_ambi40.png","朋友","prac",""
"","","","","","html-keyboard-response","116","499394","0.0-8.0-0.0-1.20","null","<span style='color:red; font-size: 70px;'>错误! </span>","null","","","","","","","","","","","","","","","","","","","","","","","feedback_test"
"","","","","","psychophysics","117","500950","0.0-8.0-0.0-0.21","550","","f","","","","","","","","","","","","","key","f","16.66630434782596","640","396","f","true","img/S_ambi40.png","自我","prac",""
"","","","","","html-keyboard-response","118","501453","0.0-8.0-0.0-1.21","null","<span style='color:GreenYellow; font-size: 70px;'>正确! </span>","null","","","","","","","","","","","","","","","","","","","","","","","feedback_test"
"","","","","","psychophysics","119","503259","0.0-8.0-0.0-0.22","800","","j","","","","","","","","","","","","","key","j","16.666355140186806","640","396","f","false","img/C_ambi40.png","朋友","prac",""
"","","","","","html-keyboard-response","120","503775","0.0-8.0-0.0-1.22","null","<span style='color:red; font-size: 70px;'>错误! </span>","null","","","","","","","","","","","","","","","","","","","","","","","feedback_test"
"","","","","","psychophysics","121","505825","0.0-8.0-0.0-0.23","1036","","j","","","","","","","","","","","","","key","j","16.66639344262333","640","396","j","true","img/H_ambi40.png","自我","prac",""
"","","","","","html-keyboard-response","122","506333","0.0-8.0-0.0-1.23","null","<span style='color:GreenYellow; font-size: 70px;'>正确! </span>","null","","","","","","","","","","","","","","","","","","","","","","","feedback_test"
"","","","","","psychophysics","123","508292","0.0-8.0-0.0-0.24","949","","j","","","","","","","","","","","","","key","j","16.665982905982766","640","396","j","true","img/S_ambi40.png","生人","prac",""
"","","","","","html-keyboard-response","124","508798","0.0-8.0-0.0-1.24","null","<span style='color:GreenYellow; font-size: 70px;'>正确! </span>","null","","","","","","","","","","","","","","","","","","","","","","","feedback_test"
"","","","","","psychophysics","125","510423","0.0-8.0-0.0-0.25","611","","j","","","","","","","","","","","","","key","j","16.666391752577464","640","396","j","true","img/T_ambi40.png","をる","prac",""
"","","","","","html-keyboard-response","126","510934","0.0-8.0-0.0-1.25","null","<span style='color:GreenYellow; font-size: 70px;'>正确! </span>","null","","","","","","","","","","","","","","","","","","","","","","","feedback_test"
"","","","","","psychophysics","127","513031","0.0-8.0-0.0-0.26","1094","","f","","","","","","","","","","","","","key","f","16.66645161290287","640","396","f","true","img/H_ambi40.png","生人","prac",""
"","","","","","html-keyboard-response","128","513532","0.0-8.0-0.0-1.26","null","<span style='color:GreenYellow; font-size: 70px;'>正确! </span>","null","","","","","","","","","","","","","","","","","","","","","","","feedback_test"
"","","","","","psychophysics","129","515814","0.0-8.0-0.0-0.27","1270","","j","","","","","","","","","","","","","key","j","16.666176470588063","640","396","j","true","img/C_ambi40.png","生人","prac",""
"","","","","","html-keyboard-response","130","516324","0.0-8.0-0.0-1.27","null","<span style='color:GreenYellow; font-size: 70px;'>正确! </span>","null","","","","","","","","","","","","","","","","","","","","","","","feedback_test"
"","","","","","psychophysics","131","518839","0.0-8.0-0.0-0.28","null","","null","","","","","","","","","","","","","key","null","16.66639999999975","640","396","j","false","img/H_ambi40.png","朋友","prac",""
"","","","","","html-keyboard-response","132","519357","0.0-8.0-0.0-1.28","null","<span class='add_' style='color:yellow; font-size: 70px;'> 太慢! </span>","null","","","","","","","","","","","","","","","","","","","","","","","feedback_test"
"","","","","","psychophysics","133","520963","0.0-8.0-0.0-0.29","593","","j","","","","","","","","","","","","","key","j","16.665894736842205","640","396","j","true","img/T_ambi40.png","をる","prac",""
"","","","","","html-keyboard-response","134","521477","0.0-8.0-0.0-1.29","null","<span style='color:GreenYellow; font-size: 70px;'>正确! </span>","null","","","","","","","","","","","","","","","","","","","","","","","feedback_test"
"","","","","","psychophysics","135","523350","0.0-8.0-0.0-0.30","867","","f","","","","","","","","","","","","","key","f","16.66630630630597","640","396","f","true","img/H_ambi40.png","生人","prac",""
"","","","","","html-keyboard-response","136","523866","0.0-8.0-0.0-1.30","null","<span style='color:GreenYellow; font-size: 70px;'>正确! </span>","null","","","","","","","","","","","","","","","","","","","","","","","feedback_test"
"","","","","","psychophysics","137","525480","0.0-8.0-0.0-0.31","608","","j","","","","","","","","","","","","","key","j","16.666315789474176","640","396","j","true","img/T_ambi40.png","をる","prac",""
"","","","","","html-keyboard-response","138","525993","0.0-8.0-0.0-1.31","null","<span style='color:GreenYellow; font-size: 70px;'>正确! </span>","null","","","","","","","","","","","","","","","","","","","","","","","feedback_test"
"","","","","","html-keyboard-response","139","537797","0.0-9.0","11801","<style>.context{color:white; font-size: 35px; line-height:40px}</style>                          <div><p class='context'>您正确回答了75% 的试次。</p ><p class='context'>您的平均反应时为807毫秒。</p ><p class='context'>恭喜您完成练习。按任意键进入正式实验。</p ><p class='footer' style='font-size: 35px; line-height:40px;'>请在进入正式实验实验之前将您的<span style='color: lightgreen;'>食指</span>放在电脑键盘的相应键位上进行按键。</p >"," ","","","","","","","","","","","","","","","","","","","","","","",""
"","","","","","psychophysics","140","539418","0.0-10.0-0.0-0.0-0.0-0.0","618","","j","","","","","","","","","","","","","key","j","16.666041666667297","640","396","j","true","img/T_ambi40.png","をる","same",""
"","","","","","html-keyboard-response","141","539923","0.0-10.0-0.0-0.0-0.0-1.0","null","<span style='color:GreenYellow; font-size: 70px;'>正确! </span>","null","","","","","","","","","","","","","","","","","","","","","","","feedback_test"
"","","","","","psychophysics","142","542058","0.0-10.0-0.0-0.0-0.0-0.1","1131","","f","","","","","","","","","","","","","key","f","16.666456692913496","640","396","f","true","img/C_ambi40.png","朋友","same",""
"","","","","","html-keyboard-response","143","542570","0.0-10.0-0.0-0.0-0.0-1.1","null","<span style='color:GreenYellow; font-size: 70px;'>正确! </span>","null","","","","","","","","","","","","","","","","","","","","","","","feedback_test"
"","","","","","psychophysics","144","544395","0.0-10.0-0.0-0.0-0.0-0.2","823","","f","","","","","","","","","","","","","key","f","16.66648148148131","640","396","j","false","img/S_ambi40.png","朋友","same",""
"","","","","","html-keyboard-response","145","544897","0.0-10.0-0.0-0.0-0.0-1.2","null","<span style='color:red; font-size: 70px;'>错误! </span>","null","","","","","","","","","","","","","","","","","","","","","","","feedback_test"
"","","","","","psychophysics","146","546593","0.0-10.0-0.0-0.0-0.0-0.3","681","","j","","","","","","","","","","","","","key","j","16.66633663366383","640","396","j","true","img/T_ambi40.png","をる","same",""
"","","","","","html-keyboard-response","147","547100","0.0-10.0-0.0-0.0-0.0-1.3","null","<span style='color:GreenYellow; font-size: 70px;'>正确! </span>","null","","","","","","","","","","","","","","","","","","","","","","","feedback_test"
"","","","","","psychophysics","148","548704","0.0-10.0-0.0-0.0-0.0-0.4","590","","j","","","","","","","","","","","","","key","j","16.666041666667297","640","396","j","true","img/T_ambi40.png","をる","same",""
"","","","","","html-keyboard-response","149","549207","0.0-10.0-0.0-0.0-0.0-1.4","null","<span style='color:GreenYellow; font-size: 70px;'>正确! </span>","null","","","","","","","","","","","","","","","","","","","","","","","feedback_test"
"","","","","","psychophysics","150","551081","0.0-10.0-0.0-0.0-0.0-0.5","871","","f","","","","","","","","","","","","","key","f","16.66630630630597","640","396","f","true","img/H_ambi40.png","生人","same",""
"","","","","","html-keyboard-response","151","551596","0.0-10.0-0.0-0.0-0.0-1.5","null","<span style='color:GreenYellow; font-size: 70px;'>正确! </span>","null","","","","","","","","","","","","","","","","","","","","","","","feedback_test"
"","","","","","psychophysics","152","553484","0.0-10.0-0.0-0.0-0.0-0.6","876","","f","","","","","","","","","","","","","key","f","16.66607142857122","640","396","f","true","img/H_ambi40.png","生人","same",""
"","","","","","html-keyboard-response","153","554000","0.0-10.0-0.0-0.0-0.0-1.6","null","<span style='color:GreenYellow; font-size: 70px;'>正确! </span>","null","","","","","","","","","","","","","","","","","","","","","","","feedback_test"
"","","","","","psychophysics","154","555761","0.0-10.0-0.0-0.0-0.0-0.7","753","","j","","","","","","","","","","","","","key","j","16.6663461538466","640","396","j","true","img/C_ambi40.png","自我","same",""
"","","","","","html-keyboard-response","155","556274","0.0-10.0-0.0-0.0-0.0-1.7","null","<span style='color:GreenYellow; font-size: 70px;'>正确! </span>","null","","","","","","","","","","","","","","","","","","","","","","","feedback_test"
"","","","","","psychophysics","156","558180","0.0-10.0-0.0-0.0-0.0-0.8","888","","j","","","","","","","","","","","","","key","j","16.66654867256695","640","396","f","false","img/C_ambi40.png","朋友","same",""
"","","","","","html-keyboard-response","157","558690","0.0-10.0-0.0-0.0-0.0-1.8","null","<span style='color:red; font-size: 70px;'>错误! </span>","null","","","","","","","","","","","","","","","","","","","","","","","feedback_test"
"","","","","","psychophysics","158","560341","0.0-10.0-0.0-0.0-0.0-0.9","634","","f","","","","","","","","","","","","","key","f","16.66632653061272","640","396","f","true","img/S_ambi40.png","自我","same",""
"","","","","","html-keyboard-response","159","560845","0.0-10.0-0.0-0.0-0.0-1.9","null","<span style='color:GreenYellow; font-size: 70px;'>正确! </span>","null","","","","","","","","","","","","","","","","","","","","","","","feedback_test"
"","","","","","psychophysics","160","563185","0.0-10.0-0.0-0.0-0.0-0.10","1341","","j","","","","","","","","","","","","","key","j","16.666474820143986","640","396","j","true","img/C_ambi40.png","生人","same",""
"","","","","","html-keyboard-response","161","563694","0.0-10.0-0.0-0.0-0.0-1.10","null","<span style='color:GreenYellow; font-size: 70px;'>正确! </span>","null","","","","","","","","","","","","","","","","","","","","","","","feedback_test"
"","","","","","psychophysics","162","566074","0.0-10.0-0.0-0.0-0.0-0.11","1369","","j","","","","","","","","","","","","","key","j","16.66633802816898","640","396","j","true","img/H_ambi40.png","自我","same",""
"","","","","","html-keyboard-response","163","566577","0.0-10.0-0.0-0.0-0.0-1.11","null","<span style='color:GreenYellow; font-size: 70px;'>正确! </span>","null","","","","","","","","","","","","","","","","","","","","","","","feedback_test"
"","","","","","psychophysics","164","568121","0.0-10.0-0.0-0.0-0.0-0.12","539","","f","","","","","","","","","","","","","key","f","16.666521739131145","640","396","f","true","img/S_ambi40.png","自我","same",""
"","","","","","html-keyboard-response","165","568627","0.0-10.0-0.0-0.0-0.0-1.12","null","<span style='color:GreenYellow; font-size: 70px;'>正确! </span>","null","","","","","","","","","","","","","","","","","","","","","","","feedback_test"
"","","","","","psychophysics","166","570444","0.0-10.0-0.0-0.0-0.0-0.13","805","","j","","","","","","","","","","","","","key","j","16.66629629629703","640","396","f","false","img/C_ambi40.png","朋友","same",""
"","","","","","html-keyboard-response","167","570950","0.0-10.0-0.0-0.0-0.0-1.13","null","<span style='color:red; font-size: 70px;'>错误! </span>","null","","","","","","","","","","","","","","","","","","","","","","","feedback_test"
"","","","","","psychophysics","168","572848","0.0-10.0-0.0-0.0-0.0-0.14","893","","j","","","","","","","","","","","","","key","j","16.666428571428696","640","396","j","true","img/H_ambi40.png","朋友","same",""
"","","","","","html-keyboard-response","169","573351","0.0-10.0-0.0-0.0-0.0-1.14","null","<span style='color:GreenYellow; font-size: 70px;'>正确! </span>","null","","","","","","","","","","","","","","","","","","","","","","","feedback_test"
"","","","","","psychophysics","170","575254","0.0-10.0-0.0-0.0-0.0-0.15","898","","f","","","","","","","","","","","","","key","f","16.66637168141531","640","396","f","true","img/H_ambi40.png","生人","same",""
"","","","","","html-keyboard-response","171","575764","0.0-10.0-0.0-0.0-0.0-1.15","null","<span style='color:GreenYellow; font-size: 70px;'>正确! </span>","null","","","","","","","","","","","","","","","","","","","","","","","feedback_test"
"","","","","","psychophysics","172","577495","0.0-10.0-0.0-0.0-0.0-0.16","714","","j","","","","","","","","","","","","","key","j","16.666407766990428","640","396","j","true","img/S_ambi40.png","生人","same",""
"","","","","","html-keyboard-response","173","578000","0.0-10.0-0.0-0.0-0.0-1.16","null","<span style='color:GreenYellow; font-size: 70px;'>正确! </span>","null","","","","","","","","","","","","","","","","","","","","","","","feedback_test"
"","","","","","psychophysics","174","579705","0.0-10.0-0.0-0.0-0.0-0.17","691","","f","","","","","","","","","","","","","key","f","16.665999999999766","640","396","f","true","img/S_ambi40.png","自我","same",""
"","","","","","html-keyboard-response","175","580216","0.0-10.0-0.0-0.0-0.0-1.17","null","<span style='color:GreenYellow; font-size: 70px;'>正确! </span>","null","","","","","","","","","","","","","","","","","","","","","","","feedback_test"
"","","","","","psychophysics","176","582207","0.0-10.0-0.0-0.0-0.0-0.18","985","","j","","","","","","","","","","","","","key","j","16.66644067796622","640","396","j","true","img/S_ambi40.png","朋友","same",""
"","","","","","html-keyboard-response","177","582715","0.0-10.0-0.0-0.0-0.0-1.18","null","<span style='color:GreenYellow; font-size: 70px;'>正确! </span>","null","","","","","","","","","","","","","","","","","","","","","","","feedback_test"
"","","","","","psychophysics","178","584700","0.0-10.0-0.0-0.0-0.0-0.19","984","","j","","","","","","","","","","","","","key","j","16.66644067796622","640","396","f","false","img/C_ambi40.png","朋友","same",""
"","","","","","html-keyboard-response","179","585214","0.0-10.0-0.0-0.0-0.0-1.19","null","<span style='color:red; font-size: 70px;'>错误! </span>","null","","","","","","","","","","","","","","","","","","","","","","","feedback_test"
"","","","","","psychophysics","180","586827","0.0-10.0-0.0-0.0-0.0-0.20","600","","j","","","","","","","","","","","","","key","j","16.665833333332557","640","396","j","true","img/T_ambi40.png","をる","same",""
"","","","","","html-keyboard-response","181","587336","0.0-10.0-0.0-0.0-0.0-1.20","null","<span style='color:GreenYellow; font-size: 70px;'>正确! </span>","null","","","","","","","","","","","","","","","","","","","","","","","feedback_test"
"","","","","","psychophysics","182","589346","0.0-10.0-0.0-0.0-0.0-0.21","1007","","j","","","","","","","","","","","","","key","j","16.666050420168144","640","396","j","true","img/H_ambi40.png","朋友","same",""
"","","","","","html-keyboard-response","183","589848","0.0-10.0-0.0-0.0-0.0-1.21","null","<span style='color:GreenYellow; font-size: 70px;'>正确! </span>","null","","","","","","","","","","","","","","","","","","","","","","","feedback_test"
"","","","","","psychophysics","184","592092","0.0-10.0-0.0-0.0-0.0-0.22","1241","","j","","","","","","","","","","","","","key","j","16.665970149253663","640","396","f","false","img/C_ambi40.png","朋友","same",""
"","","","","","html-keyboard-response","185","592604","0.0-10.0-0.0-0.0-0.0-1.22","null","<span style='color:red; font-size: 70px;'>错误! </span>","null","","","","","","","","","","","","","","","","","","","","","","","feedback_test"
"","","","","","psychophysics","186","594614","0.0-10.0-0.0-0.0-0.0-0.23","1000","","j","","","","","","","","","","","","","key","j","16.665882352941097","640","396","j","true","img/S_ambi40.png","生人","same",""
"","","","","","html-keyboard-response","187","595126","0.0-10.0-0.0-0.0-0.0-1.23","null","<span style='color:GreenYellow; font-size: 70px;'>正确! </span>","null","","","","","","","","","","","","","","","","","","","","","","","feedback_test"
"","","","","","psychophysics","188","596725","0.0-10.0-0.0-0.0-0.0-0.24","584","","j","","","","","","","","","","","","","key","j","16.66631578947295","640","396","j","true","img/T_ambi40.png","をる","same",""
"","","","","","html-keyboard-response","189","597231","0.0-10.0-0.0-0.0-0.0-1.24","null","<span style='color:GreenYellow; font-size: 70px;'>正确! </span>","null","","","","","","","","","","","","","","","","","","","","","","","feedback_test"
"","","","","","psychophysics","190","598938","0.0-10.0-0.0-0.0-0.0-0.25","700","","f","","","","","","","","","","","","","key","f","16.666078431372","640","396","f","true","img/S_ambi40.png","自我","same",""
"","","","","","html-keyboard-response","191","599445","0.0-10.0-0.0-0.0-0.0-1.25","null","<span style='color:GreenYellow; font-size: 70px;'>正确! </span>","null","","","","","","","","","","","","","","","","","","","","","","","feedback_test"
"","","","","","psychophysics","192","601331","0.0-10.0-0.0-0.0-0.0-0.26","882","","f","","","","","","","","","","","","","key","f","16.66624999999996","640","396","f","true","img/C_ambi40.png","朋友","same",""
"","","","","","html-keyboard-response","193","601846","0.0-10.0-0.0-0.0-0.0-1.26","null","<span style='color:GreenYellow; font-size: 70px;'>正确! </span>","null","","","","","","","","","","","","","","","","","","","","","","","feedback_test"
"","","","","","psychophysics","194","603465","0.0-10.0-0.0-0.0-0.0-0.27","617","","f","","","","","","","","","","","","","key","f","16.66624999999961","640","396","f","true","img/S_ambi40.png","自我","same",""
"","","","","","html-keyboard-response","195","603975","0.0-10.0-0.0-0.0-0.0-1.27","null","<span style='color:GreenYellow; font-size: 70px;'>正确! </span>","null","","","","","","","","","","","","","","","","","","","","","","","feedback_test"
"","","","","","psychophysics","196","605563","0.0-10.0-0.0-0.0-0.0-0.28","581","","j","","","","","","","","","","","","","key","j","16.666382978723554","640","396","j","true","img/T_ambi40.png","をる","same",""
"","","","","","html-keyboard-response","197","606076","0.0-10.0-0.0-0.0-0.0-1.28","null","<span style='color:GreenYellow; font-size: 70px;'>正确! </span>","null","","","","","","","","","","","","","","","","","","","","","","","feedback_test"
"","","","","","psychophysics","198","607910","0.0-10.0-0.0-0.0-0.0-0.29","830","","f","","","","","","","","","","","","","key","f","16.66642201834875","640","396","f","true","img/H_ambi40.png","生人","same",""
"","","","","","html-keyboard-response","199","608417","0.0-10.0-0.0-0.0-0.0-1.29","null","<span style='color:GreenYellow; font-size: 70px;'>正确! </span>","null","","","","","","","","","","","","","","","","","","","","","","","feedback_test"
"","","","","","psychophysics","200","610375","0.0-10.0-0.0-0.0-0.0-0.30","941","","f","","","","","","","","","","","","","key","f","16.6660344827587","640","396","f","true","img/H_ambi40.png","生人","same",""
"","","","","","html-keyboard-response","201","610884","0.0-10.0-0.0-0.0-0.0-1.30","null","<span style='color:GreenYellow; font-size: 70px;'>正确! </span>","null","","","","","","","","","","","","","","","","","","","","","","","feedback_test"
"","","","","","psychophysics","202","612724","0.0-10.0-0.0-0.0-0.0-0.31","825","","f","","","","","","","","","","","","","key","f","16.666055045871346","640","396","j","false","img/C_ambi40.png","生人","same",""
"","","","","","html-keyboard-response","203","613226","0.0-10.0-0.0-0.0-0.0-1.31","null","<span style='color:red; font-size: 70px;'>错误! </span>","null","","","","","","","","","","","","","","","","","","","","","","","feedback_test"
"","","","","","psychophysics","204","615391","0.0-10.0-0.0-0.0-0.0-0.32","1149","","f","","","","","","","","","","","","","key","f","16.66604651162733","640","396","j","false","img/C_ambi40.png","自我","same",""
"","","","","","html-keyboard-response","205","615897","0.0-10.0-0.0-0.0-0.0-1.32","null","<span style='color:red; font-size: 70px;'>错误! </span>","null","","","","","","","","","","","","","","","","","","","","","","","feedback_test"
"","","","","","psychophysics","206","617661","0.0-10.0-0.0-0.0-0.0-0.33","749","","f","","","","","","","","","","","","","key","f","16.666285714285358","640","396","f","true","img/S_ambi40.png","自我","same",""
"","","","","","html-keyboard-response","207","618163","0.0-10.0-0.0-0.0-0.0-1.33","null","<span style='color:GreenYellow; font-size: 70px;'>正确! </span>","null","","","","","","","","","","","","","","","","","","","","","","","feedback_test"
"","","","","","psychophysics","208","619990","0.0-10.0-0.0-0.0-0.0-0.34","814","","f","","","","","","","","","","","","","key","f","16.66642201834875","640","396","f","true","img/H_ambi40.png","生人","same",""
"","","","","","html-keyboard-response","209","620491","0.0-10.0-0.0-0.0-0.0-1.34","null","<span style='color:GreenYellow; font-size: 70px;'>正确! </span>","null","","","","","","","","","","","","","","","","","","","","","","","feedback_test"
"","","","","","psychophysics","210","622504","0.0-10.0-0.0-0.0-0.0-0.35","1010","","j","","","","","","","","","","","","","key","j","16.666499999999846","640","396","j","true","img/H_ambi40.png","自我","same",""
"","","","","","html-keyboard-response","211","623016","0.0-10.0-0.0-0.0-0.0-1.35","null","<span style='color:GreenYellow; font-size: 70px;'>正确! </span>","null","","","","","","","","","","","","","","","","","","","","","","","feedback_test"
"","","","","","psychophysics","212","624945","0.0-10.0-0.0-0.0-0.0-0.36","924","","f","","","","","","","","","","","","","key","f","16.665789473683393","640","396","f","true","img/S_ambi40.png","自我","same",""
"","","","","","html-keyboard-response","213","625455","0.0-10.0-0.0-0.0-0.0-1.36","null","<span style='color:GreenYellow; font-size: 70px;'>正确! </span>","null","","","","","","","","","","","","","","","","","","","","","","","feedback_test"
"","","","","","psychophysics","214","627279","0.0-10.0-0.0-0.0-0.0-0.37","807","","j","","","","","","","","","","","","","key","j","16.66648148148131","640","396","f","false","img/S_ambi40.png","自我","same",""
"","","","","","html-keyboard-response","215","627784","0.0-10.0-0.0-0.0-0.0-1.37","null","<span style='color:red; font-size: 70px;'>错误! </span>","null","","","","","","","","","","","","","","","","","","","","","","","feedback_test"
"","","","","","psychophysics","216","629843","0.0-10.0-0.0-0.0-0.0-0.38","1046","","f","","","","","","","","","","","","","key","f","16.66639344262333","640","396","j","false","img/C_ambi40.png","自我","same",""
"","","","","","html-keyboard-response","217","630357","0.0-10.0-0.0-0.0-0.0-1.38","null","<span style='color:red; font-size: 70px;'>错误! </span>","null","","","","","","","","","","","","","","","","","","","","","","","feedback_test"
"","","","","","psychophysics","218","632258","0.0-10.0-0.0-0.0-0.0-0.39","887","","j","","","","","","","","","","","","","key","j","16.66654867256695","640","396","j","true","img/S_ambi40.png","朋友","same",""
"","","","","","html-keyboard-response","219","632772","0.0-10.0-0.0-0.0-0.0-1.39","null","<span style='color:GreenYellow; font-size: 70px;'>正确! </span>","null","","","","","","","","","","","","","","","","","","","","","","","feedback_test"
"","","","","","psychophysics","220","634374","0.0-10.0-0.0-0.0-0.0-0.40","601","","j","","","","","","","","","","","","","key","j","16.666526315788936","640","396","j","true","img/T_ambi40.png","をる","same",""
"","","","","","html-keyboard-response","221","634882","0.0-10.0-0.0-0.0-0.0-1.40","null","<span style='color:GreenYellow; font-size: 70px;'>正确! </span>","null","","","","","","","","","","","","","","","","","","","","","","","feedback_test"
"","","","","","psychophysics","222","637073","0.0-10.0-0.0-0.0-0.0-0.41","1176","","j","","","","","","","","","","","","","key","j","16.666461538461647","640","396","j","true","img/C_ambi40.png","生人","same",""
"","","","","","html-keyboard-response","223","637583","0.0-10.0-0.0-0.0-0.0-1.41","null","<span style='color:GreenYellow; font-size: 70px;'>正确! </span>","null","","","","","","","","","","","","","","","","","","","","","","","feedback_test"
"","","","","","psychophysics","224","639382","0.0-10.0-0.0-0.0-0.0-0.42","797","","j","","","","","","","","","","","","","key","j","16.666226415094297","640","396","f","false","img/C_ambi40.png","朋友","same",""
"","","","","","html-keyboard-response","225","639892","0.0-10.0-0.0-0.0-0.0-1.42","null","<span style='color:red; font-size: 70px;'>错误! </span>","null","","","","","","","","","","","","","","","","","","","","","","","feedback_test"
"","","","","","psychophysics","226","642046","0.0-10.0-0.0-0.0-0.0-0.43","1152","","f","","","","","","","","","","","","","key","f","16.666093750000073","640","396","f","true","img/H_ambi40.png","生人","same",""
"","","","","","html-keyboard-response","227","642551","0.0-10.0-0.0-0.0-0.0-1.43","null","<span style='color:GreenYellow; font-size: 70px;'>正确! </span>","null","","","","","","","","","","","","","","","","","","","","","","","feedback_test"
"","","","","","psychophysics","228","644651","0.0-10.0-0.0-0.0-0.0-0.44","1091","","f","","","","","","","","","","","","","key","f","16.666451612903337","640","396","f","true","img/C_ambi40.png","朋友","same",""
"","","","","","html-keyboard-response","229","645161","0.0-10.0-0.0-0.0-0.0-1.44","null","<span style='color:GreenYellow; font-size: 70px;'>正确! </span>","null","","","","","","","","","","","","","","","","","","","","","","","feedback_test"
"","","","","","psychophysics","230","646759","0.0-10.0-0.0-0.0-0.0-0.45","593","","j","","","","","","","","","","","","","key","j","16.665894736842205","640","396","j","true","img/T_ambi40.png","をる","same",""
"","","","","","html-keyboard-response","231","647270","0.0-10.0-0.0-0.0-0.0-1.45","null","<span style='color:GreenYellow; font-size: 70px;'>正确! </span>","null","","","","","","","","","","","","","","","","","","","","","","","feedback_test"
"","","","","","psychophysics","232","649157","0.0-10.0-0.0-0.0-0.0-0.46","884","","f","","","","","","","","","","","","","key","f","16.665892857142484","640","396","f","true","img/H_ambi40.png","生人","same",""
"","","","","","html-keyboard-response","233","649667","0.0-10.0-0.0-0.0-0.0-1.46","null","<span style='color:GreenYellow; font-size: 70px;'>正确! </span>","null","","","","","","","","","","","","","","","","","","","","","","","feedback_test"
"","","","","","psychophysics","234","651591","0.0-10.0-0.0-0.0-0.0-0.47","910","","j","","","","","","","","","","","","","key","j","16.66649122807001","640","396","j","true","img/H_ambi40.png","朋友","same",""
"","","","","","html-keyboard-response","235","652097","0.0-10.0-0.0-0.0-0.0-1.47","null","<span style='color:GreenYellow; font-size: 70px;'>正确! </span>","null","","","","","","","","","","","","","","","","","","","","","","","feedback_test"
"","","","","","psychophysics","236","653969","0.0-10.0-0.0-0.0-0.0-0.48","857","","j","","","","","","","","","","","","","key","j","16.66630630630702","640","396","j","true","img/S_ambi40.png","生人","same",""
"","","","","","html-keyboard-response","237","654471","0.0-10.0-0.0-0.0-0.0-1.48","null","<span style='color:GreenYellow; font-size: 70px;'>正确! </span>","null","","","","","","","","","","","","","","","","","","","","","","","feedback_test"
"","","","","","psychophysics","238","656394","0.0-10.0-0.0-0.0-0.0-0.49","906","","f","","","","","","","","","","","","","key","f","16.66649122807001","640","396","f","true","img/C_ambi40.png","朋友","same",""
"","","","","","html-keyboard-response","239","656896","0.0-10.0-0.0-0.0-0.0-1.49","null","<span style='color:GreenYellow; font-size: 70px;'>正确! </span>","null","","","","","","","","","","","","","","","","","","","","","","","feedback_test"
"","","","","","psychophysics","240","658912","0.0-10.0-0.0-0.0-0.0-0.50","1014","","j","","","","","","","","","","","","","key","j","16.66633333333302","640","396","j","true","img/H_ambi40.png","自我","same",""
"","","","","","html-keyboard-response","241","659428","0.0-10.0-0.0-0.0-0.0-1.50","null","<span style='color:GreenYellow; font-size: 70px;'>正确! </span>","null","","","","","","","","","","","","","","","","","","","","","","","feedback_test"
"","","","","","psychophysics","242","661063","0.0-10.0-0.0-0.0-0.0-0.51","623","","j","","","","","","","","","","","","","key","j","16.66597938144306","640","396","j","true","img/T_ambi40.png","をる","same",""
"","","","","","html-keyboard-response","243","661568","0.0-10.0-0.0-0.0-0.0-1.51","null","<span style='color:GreenYellow; font-size: 70px;'>正确! </span>","null","","","","","","","","","","","","","","","","","","","","","","","feedback_test"
"","","","","","psychophysics","244","664079","0.0-10.0-0.0-0.0-0.0-0.52","null","","null","","","","","","","","","","","","","key","null","16.66630872483162","640","396","f","false","img/H_ambi40.png","生人","same",""
"","","","","","html-keyboard-response","245","664583","0.0-10.0-0.0-0.0-0.0-1.52","null","<span class='add_' style='color:yellow; font-size: 70px;'> 太慢! </span>","null","","","","","","","","","","","","","","","","","","","","","","","feedback_test"
"","","","","","psychophysics","246","666190","0.0-10.0-0.0-0.0-0.0-0.53","601","","f","","","","","","","","","","","","","key","f","16.66652631579016","640","396","f","true","img/S_ambi40.png","自我","same",""
"","","","","","html-keyboard-response","247","666694","0.0-10.0-0.0-0.0-0.0-1.53","null","<span style='color:GreenYellow; font-size: 70px;'>正确! </span>","null","","","","","","","","","","","","","","","","","","","","","","","feedback_test"
"","","","","","psychophysics","248","668329","0.0-10.0-0.0-0.0-0.0-0.54","619","","j","","","","","","","","","","","","","key","j","16.66618556701026","640","396","j","true","img/T_ambi40.png","をる","same",""
"","","","","","html-keyboard-response","249","668833","0.0-10.0-0.0-0.0-0.0-1.54","null","<span style='color:GreenYellow; font-size: 70px;'>正确! </span>","null","","","","","","","","","","","","","","","","","","","","","","","feedback_test"
"","","","","","psychophysics","250","670498","0.0-10.0-0.0-0.0-0.0-0.55","660","","j","","","","","","","","","","","","","key","j","16.665918367347032","640","396","j","true","img/H_ambi40.png","朋友","same",""
"","","","","","html-keyboard-response","251","671005","0.0-10.0-0.0-0.0-0.0-1.55","null","<span style='color:GreenYellow; font-size: 70px;'>正确! </span>","null","","","","","","","","","","","","","","","","","","","","","","","feedback_test"
"","","","","","psychophysics","252","672575","0.0-10.0-0.0-0.0-0.0-0.56","555","","j","","","","","","","","","","","","","key","j","16.666021505375742","640","396","j","true","img/T_ambi40.png","をる","same",""
"","","","","","html-keyboard-response","253","673085","0.0-10.0-0.0-0.0-0.0-1.56","null","<span style='color:GreenYellow; font-size: 70px;'>正确! </span>","null","","","","","","","","","","","","","","","","","","","","","","","feedback_test"
"","","","","","psychophysics","254","674761","0.0-10.0-0.0-0.0-0.0-0.57","662","","f","","","","","","","","","","","","","key","f","16.6656565656568","640","396","f","true","img/S_ambi40.png","自我","same",""
"","","","","","html-keyboard-response","255","675272","0.0-10.0-0.0-0.0-0.0-1.57","null","<span style='color:GreenYellow; font-size: 70px;'>正确! </span>","null","","","","","","","","","","","","","","","","","","","","","","","feedback_test"
"","","","","","psychophysics","256","676847","0.0-10.0-0.0-0.0-0.0-0.58","559","","f","","","","","","","","","","","","","key","f","16.66645161290428","640","396","f","true","img/S_ambi40.png","自我","same",""
"","","","","","html-keyboard-response","257","677352","0.0-10.0-0.0-0.0-0.0-1.58","null","<span style='color:GreenYellow; font-size: 70px;'>正确! </span>","null","","","","","","","","","","","","","","","","","","","","","","","feedback_test"
"","","","","","psychophysics","258","679014","0.0-10.0-0.0-0.0-0.0-0.59","661","","j","","","","","","","","","","","","","key","j","16.66612244897869","640","396","j","true","img/C_ambi40.png","生人","same",""
"","","","","","html-keyboard-response","259","679525","0.0-10.0-0.0-0.0-0.0-1.59","null","<span style='color:GreenYellow; font-size: 70px;'>正确! </span>","null","","","","","","","","","","","","","","","","","","","","","","","feedback_test"
"","","","","","psychophysics","260","681270","0.0-10.0-0.0-0.0-0.0-0.60","728","","j","","","","","","","","","","","","","key","j","16.66582524271917","640","396","j","true","img/S_ambi40.png","生人","same",""
"","","","","","html-keyboard-response","261","681780","0.0-10.0-0.0-0.0-0.0-1.60","null","<span style='color:GreenYellow; font-size: 70px;'>正确! </span>","null","","","","","","","","","","","","","","","","","","","","","","","feedback_test"
"","","","","","psychophysics","262","683543","0.0-10.0-0.0-0.0-0.0-0.61","754","","f","","","","","","","","","","","","","key","f","16.666285714285358","640","396","f","true","img/H_ambi40.png","生人","same",""
"","","","","","html-keyboard-response","263","684054","0.0-10.0-0.0-0.0-0.0-1.61","null","<span style='color:GreenYellow; font-size: 70px;'>正确! </span>","null","","","","","","","","","","","","","","","","","","","","","","","feedback_test"
"","","","","","psychophysics","264","685942","0.0-10.0-0.0-0.0-0.0-0.62","869","","f","","","","","","","","","","","","","key","f","16.666428571428696","640","396","f","true","img/H_ambi40.png","生人","same",""
"","","","","","html-keyboard-response","265","686453","0.0-10.0-0.0-0.0-0.0-1.62","null","<span style='color:GreenYellow; font-size: 70px;'>正确! </span>","null","","","","","","","","","","","","","","","","","","","","","","","feedback_test"
"","","","","","psychophysics","266","688206","0.0-10.0-0.0-0.0-0.0-0.63","739","","f","","","","","","","","","","","","","key","f","16.66576923076914","640","396","f","true","img/H_ambi40.png","生人","same",""
"","","","","","html-keyboard-response","267","688712","0.0-10.0-0.0-0.0-0.0-1.63","null","<span style='color:GreenYellow; font-size: 70px;'>正确! </span>","null","","","","","","","","","","","","","","","","","","","","","","","feedback_test"
"","","","","","psychophysics","268","690336","0.0-10.0-0.0-0.0-0.0-0.64","623","","f","","","","","","","","","","","","","key","f","16.666391752576263","640","396","j","false","img/H_ambi40.png","自我","same",""
"","","","","","html-keyboard-response","269","690853","0.0-10.0-0.0-0.0-0.0-1.64","null","<span style='color:red; font-size: 70px;'>错误! </span>","null","","","","","","","","","","","","","","","","","","","","","","","feedback_test"
"","","","","","psychophysics","270","692813","0.0-10.0-0.0-0.0-0.0-0.65","947","","j","","","","","","","","","","","","","key","j","16.666206896551966","640","396","j","true","img/S_ambi40.png","朋友","same",""
"","","","","","html-keyboard-response","271","693318","0.0-10.0-0.0-0.0-0.0-1.65","null","<span style='color:GreenYellow; font-size: 70px;'>正确! </span>","null","","","","","","","","","","","","","","","","","","","","","","","feedback_test"
"","","","","","psychophysics","272","695219","0.0-10.0-0.0-0.0-0.0-0.66","888","","f","","","","","","","","","","","","","key","f","16.66654867256592","640","396","f","true","img/C_ambi40.png","朋友","same",""
"","","","","","html-keyboard-response","273","695722","0.0-10.0-0.0-0.0-0.0-1.66","null","<span style='color:GreenYellow; font-size: 70px;'>正确! </span>","null","","","","","","","","","","","","","","","","","","","","","","","feedback_test"
"","","","","","psychophysics","274","697394","0.0-10.0-0.0-0.0-0.0-0.67","656","","f","","","","","","","","","","","","","key","f","16.66626262626225","640","396","f","true","img/S_ambi40.png","自我","same",""
"","","","","","html-keyboard-response","275","697906","0.0-10.0-0.0-0.0-0.0-1.67","null","<span style='color:GreenYellow; font-size: 70px;'>正确! </span>","null","","","","","","","","","","","","","","","","","","","","","","","feedback_test"
"","","","","","psychophysics","276","699494","0.0-10.0-0.0-0.0-0.0-0.68","586","","j","","","","","","","","","","","","","key","j","16.665957446808264","640","396","j","true","img/T_ambi40.png","をる","same",""
"","","","","","html-keyboard-response","277","700006","0.0-10.0-0.0-0.0-0.0-1.68","null","<span style='color:GreenYellow; font-size: 70px;'>正确! </span>","null","","","","","","","","","","","","","","","","","","","","","","","feedback_test"
"","","","","","psychophysics","278","701956","0.0-10.0-0.0-0.0-0.0-0.69","942","","f","","","","","","","","","","","","","key","f","16.66620689655096","640","396","f","true","img/C_ambi40.png","朋友","same",""
"","","","","","html-keyboard-response","279","702466","0.0-10.0-0.0-0.0-0.0-1.69","null","<span style='color:GreenYellow; font-size: 70px;'>正确! </span>","null","","","","","","","","","","","","","","","","","","","","","","","feedback_test"
"","","","","","psychophysics","280","704271","0.0-10.0-0.0-0.0-0.0-0.70","787","","f","","","","","","","","","","","","","key","f","16.666037735849937","640","396","f","true","img/C_ambi40.png","朋友","same",""
"","","","","","html-keyboard-response","281","704776","0.0-10.0-0.0-0.0-0.0-1.70","null","<span style='color:GreenYellow; font-size: 70px;'>正确! </span>","null","","","","","","","","","","","","","","","","","","","","","","","feedback_test"
"","","","","","psychophysics","282","706544","0.0-10.0-0.0-0.0-0.0-0.71","755","","j","","","","","","","","","","","","","key","j","16.666476190476015","640","396","j","true","img/C_ambi40.png","自我","same",""
"","","","","","html-keyboard-response","283","707052","0.0-10.0-0.0-0.0-0.0-1.71","null","<span style='color:GreenYellow; font-size: 70px;'>正确! </span>","null","","","","","","","","","","","","","","","","","","","","","","","feedback_test"
"","","","","","psychophysics","284","708822","0.0-10.0-0.0-0.0-0.0-0.72","767","","f","","","","","","","","","","","","","key","f","16.82673076923059","640","396","f","true","img/H_ambi40.png","生人","same",""
"","","","","","html-keyboard-response","285","709337","0.0-10.0-0.0-0.0-0.0-1.72","null","<span style='color:GreenYellow; font-size: 70px;'>正确! </span>","null","","","","","","","","","","","","","","","","","","","","","","","feedback_test"
"","","","","","psychophysics","286","711046","0.0-10.0-0.0-0.0-0.0-0.73","698","","f","","","","","","","","","","","","","key","f","16.66653465346599","640","396","f","true","img/S_ambi40.png","自我","same",""
"","","","","","html-keyboard-response","287","711548","0.0-10.0-0.0-0.0-0.0-1.73","null","<span style='color:GreenYellow; font-size: 70px;'>正确! </span>","null","","","","","","","","","","","","","","","","","","","","","","","feedback_test"
"","","","","","psychophysics","288","713094","0.0-10.0-0.0-0.0-0.0-0.74","530","","j","","","","","","","","","","","","","key","j","16.66637362637378","640","396","j","true","img/T_ambi40.png","をる","same",""
"","","","","","html-keyboard-response","289","713607","0.0-10.0-0.0-0.0-0.0-1.74","null","<span style='color:GreenYellow; font-size: 70px;'>正确! </span>","null","","","","","","","","","","","","","","","","","","","","","","","feedback_test"
"","","","","","psychophysics","290","715526","0.0-10.0-0.0-0.0-0.0-0.75","907","","j","","","","","","","","","","","","","key","j","16.66631578947438","640","396","f","false","img/C_ambi40.png","朋友","same",""
"","","","","","html-keyboard-response","291","716041","0.0-10.0-0.0-0.0-0.0-1.75","null","<span style='color:red; font-size: 70px;'>错误! </span>","null","","","","","","","","","","","","","","","","","","","","","","","feedback_test"
"","","","","","psychophysics","292","717683","0.0-10.0-0.0-0.0-0.0-0.76","636","","j","","","","","","","","","","","","","key","j","16.66597938144306","640","396","f","false","img/C_ambi40.png","朋友","same",""
"","","","","","html-keyboard-response","293","718185","0.0-10.0-0.0-0.0-0.0-1.76","null","<span style='color:red; font-size: 70px;'>错误! </span>","null","","","","","","","","","","","","","","","","","","","","","","","feedback_test"
"","","","","","psychophysics","294","719728","0.0-10.0-0.0-0.0-0.0-0.77","538","","f","","","","","","","","","","","","","key","f","16.66593406593381","640","396","f","true","img/S_ambi40.png","自我","same",""
"","","","","","html-keyboard-response","295","720232","0.0-10.0-0.0-0.0-0.0-1.77","null","<span style='color:GreenYellow; font-size: 70px;'>正确! </span>","null","","","","","","","","","","","","","","","","","","","","","","","feedback_test"
"","","","","","psychophysics","296","722180","0.0-10.0-0.0-0.0-0.0-0.78","933","","f","","","","","","","","","","","","","key","f","16.666434782607805","640","396","f","true","img/H_ambi40.png","生人","same",""
"","","","","","html-keyboard-response","297","722682","0.0-10.0-0.0-0.0-0.0-1.78","null","<span style='color:GreenYellow; font-size: 70px;'>正确! </span>","null","","","","","","","","","","","","","","","","","","","","","","","feedback_test"
"","","","","","psychophysics","298","724297","0.0-10.0-0.0-0.0-0.0-0.79","606","","f","","","","","","","","","","","","","key","f","16.66631578947295","640","396","f","true","img/S_ambi40.png","自我","same",""
"","","","","","html-keyboard-response","299","724804","0.0-10.0-0.0-0.0-0.0-1.79","null","<span style='color:GreenYellow; font-size: 70px;'>正确! </span>","null","","","","","","","","","","","","","","","","","","","","","","","feedback_test"
"","","","","","psychophysics","300","726612","0.0-10.0-0.0-0.0-0.0-0.80","807","","f","","","","","","","","","","","","","key","f","16.59851851851865","640","396","f","true","img/H_ambi40.png","生人","same",""
"","","","","","html-keyboard-response","301","727127","0.0-10.0-0.0-0.0-0.0-1.80","null","<span style='color:GreenYellow; font-size: 70px;'>正确! </span>","null","","","","","","","","","","","","","","","","","","","","","","","feedback_test"
"","","","","","psychophysics","302","728796","0.0-10.0-0.0-0.0-0.0-0.81","655","","f","","","","","","","","","","","","","key","f","16.66646464646446","640","396","j","false","img/S_ambi40.png","朋友","same",""
"","","","","","html-keyboard-response","303","729311","0.0-10.0-0.0-0.0-0.0-1.81","null","<span style='color:red; font-size: 70px;'>错误! </span>","null","","","","","","","","","","","","","","","","","","","","","","","feedback_test"
"","","","","","psychophysics","304","731342","0.0-10.0-0.0-0.0-0.0-0.82","1030","","f","","","","","","","","","","","","","key","f","16.66644628099089","640","396","j","false","img/C_ambi40.png","自我","same",""
"","","","","","html-keyboard-response","305","731851","0.0-10.0-0.0-0.0-0.0-1.82","null","<span style='color:red; font-size: 70px;'>错误! </span>","null","","","","","","","","","","","","","","","","","","","","","","","feedback_test"
"","","","","","psychophysics","306","733861","0.0-10.0-0.0-0.0-0.0-0.83","992","","f","","","","","","","","","","","","","key","f","16.666050420168144","640","396","j","false","img/C_ambi40.png","生人","same",""
"","","","","","html-keyboard-response","307","734367","0.0-10.0-0.0-0.0-0.0-1.83","null","<span style='color:red; font-size: 70px;'>错误! </span>","null","","","","","","","","","","","","","","","","","","","","","","","feedback_test"
"","","","","","psychophysics","308","736310","0.0-10.0-0.0-0.0-0.0-0.84","930","","j","","","","","","","","","","","","","key","j","16.666434782608817","640","396","j","true","img/S_ambi40.png","生人","same",""
"","","","","","html-keyboard-response","309","736821","0.0-10.0-0.0-0.0-0.0-1.84","null","<span style='color:GreenYellow; font-size: 70px;'>正确! </span>","null","","","","","","","","","","","","","","","","","","","","","","","feedback_test"
"","","","","","psychophysics","310","738872","0.0-10.0-0.0-0.0-0.0-0.85","1034","","j","","","","","","","","","","","","","key","j","16.66655737704876","640","396","j","true","img/H_ambi40.png","朋友","same",""
"","","","","","html-keyboard-response","311","739380","0.0-10.0-0.0-0.0-0.0-1.85","null","<span style='color:GreenYellow; font-size: 70px;'>正确! </span>","null","","","","","","","","","","","","","","","","","","","","","","","feedback_test"
"","","","","","psychophysics","312","740919","0.0-10.0-0.0-0.0-0.0-0.86","532","","j","","","","","","","","","","","","","key","j","16.666593406593766","640","396","j","true","img/T_ambi40.png","をる","same",""
"","","","","","html-keyboard-response","313","741422","0.0-10.0-0.0-0.0-0.0-1.86","null","<span style='color:GreenYellow; font-size: 70px;'>正确! </span>","null","","","","","","","","","","","","","","","","","","","","","","","feedback_test"
"","","","","","psychophysics","314","743322","0.0-10.0-0.0-0.0-0.0-0.87","883","","f","","","","","","","","","","","","","key","f","16.66637168141531","640","396","f","true","img/C_ambi40.png","朋友","same",""
"","","","","","html-keyboard-response","315","743835","0.0-10.0-0.0-0.0-0.0-1.87","null","<span style='color:GreenYellow; font-size: 70px;'>正确! </span>","null","","","","","","","","","","","","","","","","","","","","","","","feedback_test"
"","","","","","psychophysics","316","745447","0.0-10.0-0.0-0.0-0.0-0.88","599","","j","","","","","","","","","","","","","key","j","16.666526315788936","640","396","j","true","img/T_ambi40.png","をる","same",""
"","","","","","html-keyboard-response","317","745951","0.0-10.0-0.0-0.0-0.0-1.88","null","<span style='color:GreenYellow; font-size: 70px;'>正确! </span>","null","","","","","","","","","","","","","","","","","","","","","","","feedback_test"
"","","","","","psychophysics","318","747978","0.0-10.0-0.0-0.0-0.0-0.89","1022","","j","","","","","","","","","","","","","key","j","16.66600000000035","640","396","j","true","img/H_ambi40.png","自我","same",""
"","","","","","html-keyboard-response","319","748486","0.0-10.0-0.0-0.0-0.0-1.89","null","<span style='color:GreenYellow; font-size: 70px;'>正确! </span>","null","","","","","","","","","","","","","","","","","","","","","","","feedback_test"
"","","","","","psychophysics","320","750507","0.0-10.0-0.0-0.0-0.0-0.90","1017","","f","","","","","","","","","","","","","key","f","16.66599999999938","640","396","j","false","img/C_ambi40.png","自我","same",""
"","","","","","html-keyboard-response","321","751010","0.0-10.0-0.0-0.0-0.0-1.90","null","<span style='color:red; font-size: 70px;'>错误! </span>","null","","","","","","","","","","","","","","","","","","","","","","","feedback_test"
"","","","","","psychophysics","322","752555","0.0-10.0-0.0-0.0-0.0-0.91","544","","j","","","","","","","","","","","","","key","j","16.666086956522044","640","396","j","true","img/T_ambi40.png","をる","same",""
"","","","","","html-keyboard-response","323","753058","0.0-10.0-0.0-0.0-0.0-1.91","null","<span style='color:GreenYellow; font-size: 70px;'>正确! </span>","null","","","","","","","","","","","","","","","","","","","","","","","feedback_test"
"","","","","","psychophysics","324","754749","0.0-10.0-0.0-0.0-0.0-0.92","680","","j","","","","","","","","","","","","","key","j","16.666199999999954","640","396","f","false","img/C_ambi40.png","朋友","same",""
"","","","","","html-keyboard-response","325","755255","0.0-10.0-0.0-0.0-0.0-1.92","null","<span style='color:red; font-size: 70px;'>错误! </span>","null","","","","","","","","","","","","","","","","","","","","","","","feedback_test"
"","","","","","psychophysics","326","757076","0.0-10.0-0.0-0.0-0.0-0.93","813","","f","","","","","","","","","","","","","key","f","16.666481481482386","640","396","f","true","img/H_ambi40.png","生人","same",""
"","","","","","html-keyboard-response","327","757583","0.0-10.0-0.0-0.0-0.0-1.93","null","<span style='color:GreenYellow; font-size: 70px;'>正确! </span>","null","","","","","","","","","","","","","","","","","","","","","","","feedback_test"
"","","","","","psychophysics","328","759251","0.0-10.0-0.0-0.0-0.0-0.94","663","","j","","","","","","","","","","","","","key","j","16.6656565656568","640","396","j","true","img/T_ambi40.png","をる","same",""
"","","","","","html-keyboard-response","329","759759","0.0-10.0-0.0-0.0-0.0-1.94","null","<span style='color:GreenYellow; font-size: 70px;'>正确! </span>","null","","","","","","","","","","","","","","","","","","","","","","","feedback_test"
"","","","","","psychophysics","330","761905","0.0-10.0-0.0-0.0-0.0-0.95","1141","","j","","","","","","","","","","","","","key","j","16.66656250000051","640","396","j","true","img/S_ambi40.png","生人","same",""
"","","","","","html-keyboard-response","331","762413","0.0-10.0-0.0-0.0-0.0-1.95","null","<span style='color:GreenYellow; font-size: 70px;'>正确! </span>","null","","","","","","","","","","","","","","","","","","","","","","","feedback_test"
"","","","","","psychophysics","332","764414","0.0-10.0-0.0-0.0-0.0-0.96","990","","f","","","","","","","","","","","","","key","f","16.665882352941097","640","396","f","true","img/H_ambi40.png","生人","same",""
"","","","","","html-keyboard-response","333","764920","0.0-10.0-0.0-0.0-0.0-1.96","null","<span style='color:GreenYellow; font-size: 70px;'>正确! </span>","null","","","","","","","","","","","","","","","","","","","","","","","feedback_test"
"","","","","","psychophysics","334","766771","0.0-10.0-0.0-0.0-0.0-0.97","849","","f","","","","","","","","","","","","","key","f","16.66642201834875","640","396","f","true","img/C_ambi40.png","朋友","same",""
"","","","","","html-keyboard-response","335","767284","0.0-10.0-0.0-0.0-0.0-1.97","null","<span style='color:GreenYellow; font-size: 70px;'>正确! </span>","null","","","","","","","","","","","","","","","","","","","","","","","feedback_test"
"","","","","","psychophysics","336","769248","0.0-10.0-0.0-0.0-0.0-0.98","952","","f","","","","","","","","","","","","","key","f","16.666379310345228","640","396","f","true","img/H_ambi40.png","生人","same",""
"","","","","","html-keyboard-response","337","769752","0.0-10.0-0.0-0.0-0.0-1.98","null","<span style='color:GreenYellow; font-size: 70px;'>正确! </span>","null","","","","","","","","","","","","","","","","","","","","","","","feedback_test"
"","","","","","psychophysics","338","771541","0.0-10.0-0.0-0.0-0.0-0.99","767","","f","","","","","","","","","","","","","key","f","16.82514285714299","640","396","f","true","img/S_ambi40.png","自我","same",""
"","","","","","html-keyboard-response","339","772044","0.0-10.0-0.0-0.0-0.0-1.99","null","<span style='color:GreenYellow; font-size: 70px;'>正确! </span>","null","","","","","","","","","","","","","","","","","","","","","","","feedback_test"
"","","","","","psychophysics","340","773809","0.0-10.0-0.0-0.0-0.0-0.100","751","","f","","","","","","","","","","","","","key","f","16.666476190476015","640","396","f","true","img/S_ambi40.png","自我","same",""
"","","","","","html-keyboard-response","341","774311","0.0-10.0-0.0-0.0-0.0-1.100","null","<span style='color:GreenYellow; font-size: 70px;'>正确! </span>","null","","","","","","","","","","","","","","","","","","","","","","","feedback_test"
"","","","","","psychophysics","342","776180","0.0-10.0-0.0-0.0-0.0-0.101","857","","j","","","","","","","","","","","","","key","j","16.666486486486317","640","396","j","true","img/S_ambi40.png","朋友","same",""
"","","","","","html-keyboard-response","343","776692","0.0-10.0-0.0-0.0-0.0-1.101","null","<span style='color:GreenYellow; font-size: 70px;'>正确! </span>","null","","","","","","","","","","","","","","","","","","","","","","","feedback_test"
"","","","","","psychophysics","344","778541","0.0-10.0-0.0-0.0-0.0-0.102","844","","j","","","","","","","","","","","","","key","j","16.66636363636406","640","396","j","true","img/H_ambi40.png","自我","same",""
"","","","","","html-keyboard-response","345","779056","0.0-10.0-0.0-0.0-0.0-1.102","null","<span style='color:GreenYellow; font-size: 70px;'>正确! </span>","null","","","","","","","","","","","","","","","","","","","","","","","feedback_test"
"","","","","","psychophysics","346","780666","0.0-10.0-0.0-0.0-0.0-0.103","593","","j","","","","","","","","","","","","","key","j","16.66652631579016","640","396","j","true","img/T_ambi40.png","をる","same",""
"","","","","","html-keyboard-response","347","781169","0.0-10.0-0.0-0.0-0.0-1.103","null","<span style='color:GreenYellow; font-size: 70px;'>正确! </span>","null","","","","","","","","","","","","","","","","","","","","","","","feedback_test"
"","","","","","psychophysics","348","783055","0.0-10.0-0.0-0.0-0.0-0.104","871","","f","","","","","","","","","","","","","key","f","16.666428571428696","640","396","f","true","img/C_ambi40.png","朋友","same",""
"","","","","","html-keyboard-response","349","783570","0.0-10.0-0.0-0.0-0.0-1.104","null","<span style='color:GreenYellow; font-size: 70px;'>正确! </span>","null","","","","","","","","","","","","","","","","","","","","","","","feedback_test"
"","","","","","psychophysics","350","785474","0.0-10.0-0.0-0.0-0.0-0.105","891","","j","","","","","","","","","","","","","key","j","16.66637168141634","640","396","j","true","img/H_ambi40.png","朋友","same",""
"","","","","","html-keyboard-response","351","785988","0.0-10.0-0.0-0.0-0.0-1.105","null","<span style='color:GreenYellow; font-size: 70px;'>正确! </span>","null","","","","","","","","","","","","","","","","","","","","","","","feedback_test"
"","","","","","psychophysics","352","787610","0.0-10.0-0.0-0.0-0.0-0.106","605","","f","","","","","","","","","","","","","key","f","16.666041666667297","640","396","f","true","img/S_ambi40.png","自我","same",""
"","","","","","html-keyboard-response","353","788116","0.0-10.0-0.0-0.0-0.0-1.106","null","<span style='color:GreenYellow; font-size: 70px;'>正确! </span>","null","","","","","","","","","","","","","","","","","","","","","","","feedback_test"
"","","","","","psychophysics","354","790266","0.0-10.0-0.0-0.0-0.0-0.107","1143","","f","","","","","","","","","","","","","key","f","16.666141732283283","640","396","j","false","img/C_ambi40.png","生人","same",""
"","","","","","html-keyboard-response","355","790782","0.0-10.0-0.0-0.0-0.0-1.107","null","<span style='color:red; font-size: 70px;'>错误! </span>","null","","","","","","","","","","","","","","","","","","","","","","","feedback_test"
"","","","","","html-keyboard-response","356","793295","0.0-10.0-0.0-0.0-1.0","2512","<style>.context{color:white; font-size: 35px; line-height:40px}</style>                          <div><p class='context'>您正确回答了81% 的试次。</p><p class='context'>您的平均反应时为801毫秒。</p><p class='context'>请按任意键进入休息</p></div>"," ","","","","","","","","","","","","","","","","","","","","","","",""
"","","","","","html-button-response","357","816222","0.0-10.0-0.0-0.0-2.0","22925","
                    <p>您当前还剩余5组实验</p>
                    <p>现在是休息时间，当您结束休息后，您可以点击 结束休息 按钮 继续</p>
                    <p>建议休息时间还剩余<span id=""iii"">60</span>秒</p>","0","","","","","","","","","","","","","","","","","","","","","","",""
"","","","","","psychophysics","358","818169","0.0-10.0-0.0-0.0-0.1-0.108","935","","j","","","","","","","","","","","","","key","j","16.666379310345228","640","396","j","true","img/S_ambi40.png","朋友","same",""
"","","","","","html-keyboard-response","359","818670","0.0-10.0-0.0-0.0-0.1-1.108","null","<span style='color:GreenYellow; font-size: 70px;'>正确! </span>","null","","","","","","","","","","","","","","","","","","","","","","","feedback_test"
"","","","","","psychophysics","360","820273","0.0-10.0-0.0-0.0-0.1-0.109","590","","j","","","","","","","","","","","","","key","j","16.66610526315819","640","396","j","true","img/T_ambi40.png","をる","same",""
"","","","","","html-keyboard-response","361","820774","0.0-10.0-0.0-0.0-0.1-1.109","null","<span style='color:GreenYellow; font-size: 70px;'>正确! </span>","null","","","","","","","","","","","","","","","","","","","","","","","feedback_test"
"","","","","","psychophysics","362","822696","0.0-10.0-0.0-0.0-0.1-0.110","919","","j","","","","","","","","","","","","","key","j","16.66596491228107","640","396","j","true","img/H_ambi40.png","自我","same",""
"","","","","","html-keyboard-response","363","823213","0.0-10.0-0.0-0.0-0.1-1.110","null","<span style='color:GreenYellow; font-size: 70px;'>正确! </span>","null","","","","","","","","","","","","","","","","","","","","","","","feedback_test"
"","","","","","psychophysics","364","825063","0.0-10.0-0.0-0.0-0.1-0.111","839","","f","","","","","","","","","","","","","key","f","16.66587155963264","640","396","f","true","img/H_ambi40.png","生人","same",""
"","","","","","html-keyboard-response","365","825575","0.0-10.0-0.0-0.0-0.1-1.111","null","<span style='color:GreenYellow; font-size: 70px;'>正确! </span>","null","","","","","","","","","","","","","","","","","","","","","","","feedback_test"
"","","","","","psychophysics","366","827354","0.0-10.0-0.0-0.0-0.1-0.112","775","","f","","","","","","","","","","","","","key","f","16.666037735848835","640","396","j","false","img/C_ambi40.png","自我","same",""
"","","","","","html-keyboard-response","367","827861","0.0-10.0-0.0-0.0-0.1-1.112","null","<span style='color:red; font-size: 70px;'>错误! </span>","null","","","","","","","","","","","","","","","","","","","","","","","feedback_test"
"","","","","","psychophysics","368","829794","0.0-10.0-0.0-0.0-0.1-0.113","918","","f","","","","","","","","","","","","","key","f","16.666434782608817","640","396","j","false","img/C_ambi40.png","生人","same",""
"","","","","","html-keyboard-response","369","830301","0.0-10.0-0.0-0.0-0.1-1.113","null","<span style='color:red; font-size: 70px;'>错误! </span>","null","","","","","","","","","","","","","","","","","","","","","","","feedback_test"
"","","","","","psychophysics","370","831879","0.0-10.0-0.0-0.0-0.1-0.114","570","","j","","","","","","","","","","","","","key","j","16.66645161290428","640","396","j","true","img/T_ambi40.png","をる","same",""
"","","","","","html-keyboard-response","371","832382","0.0-10.0-0.0-0.0-0.1-1.114","null","<span style='color:GreenYellow; font-size: 70px;'>正确! </span>","null","","","","","","","","","","","","","","","","","","","","","","","feedback_test"
"","","","","","psychophysics","372","834011","0.0-10.0-0.0-0.0-0.1-0.115","615","","f","","","","","","","","","","","","","key","f","16.66624999999961","640","396","f","true","img/S_ambi40.png","自我","same",""
"","","","","","html-keyboard-response","373","834518","0.0-10.0-0.0-0.0-0.1-1.115","null","<span style='color:GreenYellow; font-size: 70px;'>正确! </span>","null","","","","","","","","","","","","","","","","","","","","","","","feedback_test"
"","","","","","psychophysics","374","836678","0.0-10.0-0.0-0.0-0.1-0.116","1155","","f","","","","","","","","","","","","","key","f","16.666093750000073","640","396","f","true","img/C_ambi40.png","朋友","same",""
"","","","","","html-keyboard-response","375","837187","0.0-10.0-0.0-0.0-0.1-1.116","null","<span style='color:GreenYellow; font-size: 70px;'>正确! </span>","null","","","","","","","","","","","","","","","","","","","","","","","feedback_test"
"","","","","","psychophysics","376","839273","0.0-10.0-0.0-0.0-0.1-0.117","1080","","j","","","","","","","","","","","","","key","j","16.665967741935145","640","396","j","true","img/S_ambi40.png","生人","same",""
"","","","","","html-keyboard-response","377","839777","0.0-10.0-0.0-0.0-0.1-1.117","null","<span style='color:GreenYellow; font-size: 70px;'>正确! </span>","null","","","","","","","","","","","","","","","","","","","","","","","feedback_test"
"","","","","","psychophysics","378","841694","0.0-10.0-0.0-0.0-0.1-0.118","904","","f","","","","","","","","","","","","","key","f","16.66631578947438","640","396","f","true","img/C_ambi40.png","朋友","same",""
"","","","","","html-keyboard-response","379","842197","0.0-10.0-0.0-0.0-0.1-1.118","null","<span style='color:GreenYellow; font-size: 70px;'>正确! </span>","null","","","","","","","","","","","","","","","","","","","","","","","feedback_test"
"","","","","","psychophysics","380","844019","0.0-10.0-0.0-0.0-0.1-0.119","810","","f","","","","","","","","","","","","","key","f","16.66611111111167","640","396","f","true","img/H_ambi40.png","生人","same",""
"","","","","","html-keyboard-response","381","844530","0.0-10.0-0.0-0.0-0.1-1.119","null","<span style='color:GreenYellow; font-size: 70px;'>正确! </span>","null","","","","","","","","","","","","","","","","","","","","","","","feedback_test"
"","","","","","psychophysics","382","846210","0.0-10.0-0.0-0.0-0.1-0.120","672","","f","","","","","","","","","","","","","key","f","16.66646464646446","640","396","f","true","img/S_ambi40.png","自我","same",""
"","","","","","html-keyboard-response","383","846724","0.0-10.0-0.0-0.0-0.1-1.120","null","<span style='color:GreenYellow; font-size: 70px;'>正确! </span>","null","","","","","","","","","","","","","","","","","","","","","","","feedback_test"
"","","","","","psychophysics","384","848328","0.0-10.0-0.0-0.0-0.1-0.121","590","","j","","","","","","","","","","","","","key","j","16.666105263156965","640","396","j","true","img/T_ambi40.png","をる","same",""
"","","","","","html-keyboard-response","385","848837","0.0-10.0-0.0-0.0-0.1-1.121","null","<span style='color:GreenYellow; font-size: 70px;'>正确! </span>","null","","","","","","","","","","","","","","","","","","","","","","","feedback_test"
"","","","","","psychophysics","386","850637","0.0-10.0-0.0-0.0-0.1-0.122","796","","f","","","","","","","","","","","","","key","f","16.666542056074288","640","396","f","true","img/H_ambi40.png","生人","same",""
"","","","","","html-keyboard-response","387","851139","0.0-10.0-0.0-0.0-0.1-1.122","null","<span style='color:GreenYellow; font-size: 70px;'>正确! </span>","null","","","","","","","","","","","","","","","","","","","","","","","feedback_test"
"","","","","","psychophysics","388","852758","0.0-10.0-0.0-0.0-0.1-0.123","606","","f","","","","","","","","","","","","","key","f","16.66645833333314","640","396","f","true","img/S_ambi40.png","自我","same",""
"","","","","","html-keyboard-response","389","853261","0.0-10.0-0.0-0.0-0.1-1.123","null","<span style='color:GreenYellow; font-size: 70px;'>正确! </span>","null","","","","","","","","","","","","","","","","","","","","","","","feedback_test"
"","","","","","psychophysics","390","855090","0.0-10.0-0.0-0.0-0.1-0.124","813","","f","","","","","","","","","","","","","key","f","16.66642201834875","640","396","f","true","img/C_ambi40.png","朋友","same",""
"","","","","","html-keyboard-response","391","855600","0.0-10.0-0.0-0.0-0.1-1.124","null","<span style='color:GreenYellow; font-size: 70px;'>正确! </span>","null","","","","","","","","","","","","","","","","","","","","","","","feedback_test"
"","","","","","psychophysics","392","857619","0.0-10.0-0.0-0.0-0.1-0.125","1015","","j","","","","","","","","","","","","","key","j","16.66600000000035","640","396","j","true","img/H_ambi40.png","朋友","same",""
"","","","","","html-keyboard-response","393","858132","0.0-10.0-0.0-0.0-0.1-1.125","null","<span style='color:GreenYellow; font-size: 70px;'>正确! </span>","null","","","","","","","","","","","","","","","","","","","","","","","feedback_test"
"","","","","","psychophysics","394","859785","0.0-10.0-0.0-0.0-0.1-0.126","649","","j","","","","","","","","","","","","","key","j","16.666530612244376","640","396","j","true","img/T_ambi40.png","をる","same",""
"","","","","","html-keyboard-response","395","860290","0.0-10.0-0.0-0.0-0.1-1.126","null","<span style='color:GreenYellow; font-size: 70px;'>正确! </span>","null","","","","","","","","","","","","","","","","","","","","","","","feedback_test"
"","","","","","psychophysics","396","861941","0.0-10.0-0.0-0.0-0.1-0.127","638","","f","","","","","","","","","","","","","key","f","16.66632653061272","640","396","f","true","img/S_ambi40.png","自我","same",""
"","","","","","html-keyboard-response","397","862443","0.0-10.0-0.0-0.0-0.1-1.127","null","<span style='color:GreenYellow; font-size: 70px;'>正确! </span>","null","","","","","","","","","","","","","","","","","","","","","","","feedback_test"
"","","","","","psychophysics","398","864269","0.0-10.0-0.0-0.0-0.1-0.128","811","","f","","","","","","","","","","","","","key","f","16.666055045871346","640","396","f","true","img/C_ambi40.png","朋友","same",""
"","","","","","html-keyboard-response","399","864775","0.0-10.0-0.0-0.0-0.1-1.128","null","<span style='color:GreenYellow; font-size: 70px;'>正确! </span>","null","","","","","","","","","","","","","","","","","","","","","","","feedback_test"
"","","","","","psychophysics","400","866557","0.0-10.0-0.0-0.0-0.1-0.129","774","","j","","","","","","","","","","","","","key","j","16.666226415094297","640","396","j","true","img/H_ambi40.png","朋友","same",""
"","","","","","html-keyboard-response","401","867061","0.0-10.0-0.0-0.0-0.1-1.129","null","<span style='color:GreenYellow; font-size: 70px;'>正确! </span>","null","","","","","","","","","","","","","","","","","","","","","","","feedback_test"
"","","","","","psychophysics","402","868905","0.0-10.0-0.0-0.0-0.1-0.130","836","","j","","","","","","","","","","","","","key","j","16.666363636363002","640","396","j","true","img/H_ambi40.png","自我","same",""
"","","","","","html-keyboard-response","403","869413","0.0-10.0-0.0-0.0-0.1-1.130","null","<span style='color:GreenYellow; font-size: 70px;'>正确! </span>","null","","","","","","","","","","","","","","","","","","","","","","","feedback_test"
"","","","","","psychophysics","404","871050","0.0-10.0-0.0-0.0-0.1-0.131","632","","j","","","","","","","","","","","","","key","j","16.66597938144426","640","396","j","true","img/T_ambi40.png","をる","same",""
"","","","","","html-keyboard-response","405","871558","0.0-10.0-0.0-0.0-0.1-1.131","null","<span style='color:GreenYellow; font-size: 70px;'>正确! </span>","null","","","","","","","","","","","","","","","","","","","","","","","feedback_test"
"","","","","","psychophysics","406","873209","0.0-10.0-0.0-0.0-0.1-0.132","649","","j","","","","","","","","","","","","","key","j","16.666530612244376","640","396","j","true","img/T_ambi40.png","をる","same",""
"","","","","","html-keyboard-response","407","873716","0.0-10.0-0.0-0.0-0.1-1.132","null","<span style='color:GreenYellow; font-size: 70px;'>正确! </span>","null","","","","","","","","","","","","","","","","","","","","","","","feedback_test"
"","","","","","psychophysics","408","875344","0.0-10.0-0.0-0.0-0.1-0.133","615","","f","","","","","","","","","","","","","key","f","16.66624999999961","640","396","f","true","img/S_ambi40.png","自我","same",""
"","","","","","html-keyboard-response","409","875856","0.0-10.0-0.0-0.0-0.1-1.133","null","<span style='color:GreenYellow; font-size: 70px;'>正确! </span>","null","","","","","","","","","","","","","","","","","","","","","","","feedback_test"
"","","","","","psychophysics","410","877817","0.0-10.0-0.0-0.0-0.1-0.134","946","","f","","","","","","","","","","","","","key","f","16.666379310344226","640","396","f","true","img/H_ambi40.png","生人","same",""
"","","","","","html-keyboard-response","411","878327","0.0-10.0-0.0-0.0-0.1-1.134","null","<span style='color:GreenYellow; font-size: 70px;'>正确! </span>","null","","","","","","","","","","","","","","","","","","","","","","","feedback_test"
"","","","","","psychophysics","412","880202","0.0-10.0-0.0-0.0-0.1-0.135","859","","f","","","","","","","","","","","","","key","f","16.9690909090907","640","396","j","false","img/C_ambi40.png","自我","same",""
"","","","","","html-keyboard-response","413","880706","0.0-10.0-0.0-0.0-0.1-1.135","null","<span style='color:red; font-size: 70px;'>错误! </span>","null","","","","","","","","","","","","","","","","","","","","","","","feedback_test"
"","","","","","psychophysics","414","882641","0.0-10.0-0.0-0.0-0.1-0.136","933","","j","","","","","","","","","","","","","key","j","16.666434782608817","640","396","j","true","img/S_ambi40.png","生人","same",""
"","","","","","html-keyboard-response","415","883149","0.0-10.0-0.0-0.0-0.1-1.136","null","<span style='color:GreenYellow; font-size: 70px;'>正确! </span>","null","","","","","","","","","","","","","","","","","","","","","","","feedback_test"
"","","","","","psychophysics","416","885140","0.0-10.0-0.0-0.0-0.1-0.137","983","","f","","","","","","","","","","","","","key","f","16.66644067796622","640","396","f","true","img/H_ambi40.png","生人","same",""
"","","","","","html-keyboard-response","417","885650","0.0-10.0-0.0-0.0-0.1-1.137","null","<span style='color:GreenYellow; font-size: 70px;'>正确! </span>","null","","","","","","","","","","","","","","","","","","","","","","","feedback_test"
"","","","","","psychophysics","418","887554","0.0-10.0-0.0-0.0-0.1-0.138","901","","f","","","","","","","","","","","","","key","f","16.666017699115127","640","396","f","true","img/C_ambi40.png","朋友","same",""
"","","","","","html-keyboard-response","419","888058","0.0-10.0-0.0-0.0-0.1-1.138","null","<span style='color:GreenYellow; font-size: 70px;'>正确! </span>","null","","","","","","","","","","","","","","","","","","","","","","","feedback_test"
"","","","","","psychophysics","420","889940","0.0-10.0-0.0-0.0-0.1-0.139","862","","f","","","","","","","","","","","","","key","f","16.666428571428696","640","396","f","true","img/H_ambi40.png","生人","same",""
"","","","","","html-keyboard-response","421","890447","0.0-10.0-0.0-0.0-0.1-1.139","null","<span style='color:GreenYellow; font-size: 70px;'>正确! </span>","null","","","","","","","","","","","","","","","","","","","","","","","feedback_test"
"","","","","","psychophysics","422","892574","0.0-10.0-0.0-0.0-0.1-0.140","1113","","f","","","","","","","","","","","","","key","f","16.66634920634891","640","396","j","false","img/C_ambi40.png","生人","same",""
"","","","","","html-keyboard-response","423","893088","0.0-10.0-0.0-0.0-0.1-1.140","null","<span style='color:red; font-size: 70px;'>错误! </span>","null","","","","","","","","","","","","","","","","","","","","","","","feedback_test"
"","","","","","psychophysics","424","895190","0.0-10.0-0.0-0.0-0.1-0.141","1096","","j","","","","","","","","","","","","","key","j","16.666080000000076","640","396","j","true","img/S_ambi40.png","朋友","same",""
"","","","","","html-keyboard-response","425","895701","0.0-10.0-0.0-0.0-0.1-1.141","null","<span style='color:GreenYellow; font-size: 70px;'>正确! </span>","null","","","","","","","","","","","","","","","","","","","","","","","feedback_test"
"","","","","","psychophysics","426","897471","0.0-10.0-0.0-0.0-0.1-0.142","756","","f","","","","","","","","","","","","","key","f","16.666095238094705","640","396","f","true","img/S_ambi40.png","自我","same",""
"","","","","","html-keyboard-response","427","897984","0.0-10.0-0.0-0.0-0.1-1.142","null","<span style='color:GreenYellow; font-size: 70px;'>正确! </span>","null","","","","","","","","","","","","","","","","","","","","","","","feedback_test"
"","","","","","psychophysics","428","900053","0.0-10.0-0.0-0.0-0.1-0.143","1053","","f","","","","","","","","","","","","","key","f","16.66601626016294","640","396","f","true","img/C_ambi40.png","朋友","same",""
"","","","","","html-keyboard-response","429","900557","0.0-10.0-0.0-0.0-0.1-1.143","null","<span style='color:GreenYellow; font-size: 70px;'>正确! </span>","null","","","","","","","","","","","","","","","","","","","","","","","feedback_test"
"","","","","","psychophysics","430","902469","0.0-10.0-0.0-0.0-0.1-0.144","901","","f","","","","","","","","","","","","","key","f","16.66631578947336","640","396","f","true","img/H_ambi40.png","生人","same",""
"","","","","","html-keyboard-response","431","902984","0.0-10.0-0.0-0.0-0.1-1.144","null","<span style='color:GreenYellow; font-size: 70px;'>正确! </span>","null","","","","","","","","","","","","","","","","","","","","","","","feedback_test"
"","","","","","psychophysics","432","904784","0.0-10.0-0.0-0.0-0.1-0.145","784","","j","","","","","","","","","","","","","key","j","16.666168224299327","640","396","j","true","img/S_ambi40.png","生人","same",""
"","","","","","html-keyboard-response","433","905295","0.0-10.0-0.0-0.0-0.1-1.145","null","<span style='color:GreenYellow; font-size: 70px;'>正确! </span>","null","","","","","","","","","","","","","","","","","","","","","","","feedback_test"
"","","","","","psychophysics","434","907114","0.0-10.0-0.0-0.0-0.1-0.146","804","","f","","","","","","","","","","","","","key","f","16.666168224299327","640","396","f","true","img/S_ambi40.png","自我","same",""
"","","","","","html-keyboard-response","435","907623","0.0-10.0-0.0-0.0-0.1-1.146","null","<span style='color:GreenYellow; font-size: 70px;'>正确! </span>","null","","","","","","","","","","","","","","","","","","","","","","","feedback_test"
"","","","","","psychophysics","436","909527","0.0-10.0-0.0-0.0-0.1-0.147","892","","j","","","","","","","","","","","","","key","j","16.666194690265733","640","396","j","true","img/S_ambi40.png","朋友","same",""
"","","","","","html-keyboard-response","437","910041","0.0-10.0-0.0-0.0-0.1-1.147","null","<span style='color:GreenYellow; font-size: 70px;'>正确! </span>","null","","","","","","","","","","","","","","","","","","","","","","","feedback_test"
"","","","","","psychophysics","438","911870","0.0-10.0-0.0-0.0-0.1-0.148","813","","f","","","","","","","","","","","","","key","f","16.666055045871346","640","396","f","true","img/H_ambi40.png","生人","same",""
"","","","","","html-keyboard-response","439","912384","0.0-10.0-0.0-0.0-0.1-1.148","null","<span style='color:GreenYellow; font-size: 70px;'>正确! </span>","null","","","","","","","","","","","","","","","","","","","","","","","feedback_test"
"","","","","","psychophysics","440","914313","0.0-10.0-0.0-0.0-0.1-0.149","925","","j","","","","","","","","","","","","","key","j","16.66631578947438","640","396","j","true","img/H_ambi40.png","朋友","same",""
"","","","","","html-keyboard-response","441","914816","0.0-10.0-0.0-0.0-0.1-1.149","null","<span style='color:GreenYellow; font-size: 70px;'>正确! </span>","null","","","","","","","","","","","","","","","","","","","","","","","feedback_test"
"","","","","","psychophysics","442","916466","0.0-10.0-0.0-0.0-0.1-0.150","637","","j","","","","","","","","","","","","","key","j","16.666122448979877","640","396","j","true","img/T_ambi40.png","をる","same",""
"","","","","","html-keyboard-response","443","916980","0.0-10.0-0.0-0.0-0.1-1.150","null","<span style='color:GreenYellow; font-size: 70px;'>正确! </span>","null","","","","","","","","","","","","","","","","","","","","","","","feedback_test"
