"success","timeout","failed_images","failed_audio","failed_video","trial_type","trial_index","time_elapsed","internal_node_id","rt","stimulus","response","value","item_width_mm","item_height_mm","item_width_px","px2mm","view_dist_mm","item_width_deg","px2deg","scale_factor","win_width_deg","win_height_deg","view_history","response_type","key_press","avg_frame_time","center_x","center_y","correct_response","correct","Image","word","condition","screen_id"
"true","false","[]","[]","[]","preload","0","500","0.0-0.0","","","","","","","","","","","","","","","","","","","","","","","","","",""
"","","","","","html-keyboard-response","1","52783","0.0-1.0","52282","
     <p>您好，欢迎参加本次实验。</p>
     <p>为充分保障您的权利，请确保您已经知晓并同意《参与实验同意书》以及《数据公开知情同意书》。</p>
     <p>如果您未见过上述内容，请咨询实验员。</p>
     <p>如果您选择继续实验，则表示您已经清楚两份知情同意书的内容并同意。</p>
     <p> <div style = ""color: green""><按任意键至下页></div> </p>
     ","h","","","","","","","","","","","","","","","","","","","","","","",""
"","","","","","html-keyboard-response","2","55457","0.0-2.0","2674","
     <p>本实验首先需要您填写一些基本个人信息。</p>
     <p> <div style = ""color: green""><按任意键至下页></div></p>
     ","h","","","","","","","","","","","","","","","","","","","","","","",""
"","","","","","call-function","3","55458","0.0-3.0-0.0","","","","","","","","","","","","","","","","","","","","","","","","","",""
"","","","","","survey-html-form","4","61912","0.0-3.0-1.0","6453","","{""Q0"":""11""}","","","","","","","","","","","","","","","","","","","","","","",""
"","","","","","html-button-response","5","63769","0.0-3.0-2.0","1856","<p style = 'color : white'>您的性别</p>","1","","","","","","","","","","","","","","","","","","","","","","",""
"","","","","","survey-html-form","6","69538","0.0-3.0-3.0","5768","","{""Q0"":""2001""}","","","","","","","","","","","","","","","","","","","","","","",""
"","","","","","survey-html-form","7","72667","0.0-3.0-4.0","3128","","{""Q0"":""5""}","","","","","","","","","","","","","","","","","","","","","","",""
"","","","","","virtual-chinrest","8","244456","0.0-4.0","171787","","","","85.6","53.98","517.8130535807439","6.0493325927797805","472.29","10.356261071614878","50","0.8149659362231517","28.74","15.82","","","","","","","","","","","",""
"true","","","","","fullscreen","9","305925","0.0-5.0","","","","","","","","","","","","","","","","","","","","","","","","","",""
"","","","","","instructions","10","393060","0.0-6.0","87133","","","","","","","","","","","","","","[{""page_index"":0,""viewing_time"":9505},{""page_index"":1,""viewing_time"":40892},{""page_index"":2,""viewing_time"":8430},{""page_index"":3,""viewing_time"":15434},{""page_index"":2,""viewing_time"":666},{""page_index"":1,""viewing_time"":9098},{""page_index"":2,""viewing_time"":1324},{""page_index"":3,""viewing_time"":1784}]","","","","","","","","","","",""
"","","","","","psychophysics","11","395568","0.0-7.0-0.0","null","","null","","","","","","","","","","","","","key","null","16.660966442952997","747","463","f","false","img/H_ambi40.png","朋友","prac",""
"","","","","","html-keyboard-response","12","396082","0.0-7.0-1.0","null","<span class='add_' style='color:yellow; font-size: 70px;'> 太慢! </span>","null","","","","","","","","","","","","","","","","","","","","","","","feedback_test"
"","","","","","psychophysics","13","397858","0.0-7.0-0.1","775","","j","","","","","","","","","","","","","key","j","16.660698113207406","747","463","f","false","img/C_ambi40.png","自我","prac",""
"","","","","","html-keyboard-response","14","398372","0.0-7.0-1.1","null","<span style='color:red; font-size: 70px;'>错误! </span>","null","","","","","","","","","","","","","","","","","","","","","","","feedback_test"
"","","","","","psychophysics","15","400883","0.0-7.0-0.2","null","","null","","","","","","","","","","","","","key","null","16.661181208053712","747","463","j","false","img/S_ambi40.png","朋友","prac",""
"","","","","","html-keyboard-response","16","401397","0.0-7.0-1.2","null","<span class='add_' style='color:yellow; font-size: 70px;'> 太慢! </span>","null","","","","","","","","","","","","","","","","","","","","","","","feedback_test"
"","","","","","psychophysics","17","403510","0.0-7.0-0.3","1112","","f","","","","","","","","","","","","","key","f","16.66086507936485","747","463","f","true","img/H_ambi40.png","生人","prac",""
"","","","","","html-keyboard-response","18","404022","0.0-7.0-1.3","null","<span style='color:GreenYellow; font-size: 70px;'>正确! </span>","null","","","","","","","","","","","","","","","","","","","","","","","feedback_test"
"","","","","","psychophysics","19","406099","0.0-7.0-0.4","1072","","f","","","","","","","","","","","","","key","f","16.661040322580508","747","463","j","false","img/H_ambi40.png","自我","prac",""
"","","","","","html-keyboard-response","20","406605","0.0-7.0-1.4","null","<span style='color:red; font-size: 70px;'>错误! </span>","null","","","","","","","","","","","","","","","","","","","","","","","feedback_test"
"","","","","","psychophysics","21","409113","0.0-7.0-0.5","null","","null","","","","","","","","","","","","","key","null","16.661073825503355","747","463","f","false","img/T_ambi40.png","をる","prac",""
"","","","","","html-keyboard-response","22","409625","0.0-7.0-1.5","null","<span class='add_' style='color:yellow; font-size: 70px;'> 太慢! </span>","null","","","","","","","","","","","","","","","","","","","","","","","feedback_test"
"","","","","","psychophysics","23","411816","0.0-7.0-0.6","1187","","f","","","","","","","","","","","","","key","f","16.660931297709883","747","463","j","false","img/C_ambi40.png","生人","prac",""
"","","","","","html-keyboard-response","24","412319","0.0-7.0-1.6","null","<span style='color:red; font-size: 70px;'>错误! </span>","null","","","","","","","","","","","","","","","","","","","","","","","feedback_test"
"","","","","","psychophysics","25","414545","0.0-7.0-0.7","1216","","j","","","","","","","","","","","","","key","j","16.660984848484848","747","463","j","true","img/H_ambi40.png","自我","prac",""
"","","","","","html-keyboard-response","26","415059","0.0-7.0-1.7","null","<span style='color:GreenYellow; font-size: 70px;'>正确! </span>","null","","","","","","","","","","","","","","","","","","","","","","","feedback_test"
"","","","","","psychophysics","27","417163","0.0-7.0-0.8","1102","","f","","","","","","","","","","","","","key","f","16.661142857142888","747","463","f","true","img/S_ambi40.png","自我","prac",""
"","","","","","html-keyboard-response","28","417671","0.0-7.0-1.8","null","<span style='color:GreenYellow; font-size: 70px;'>正确! </span>","null","","","","","","","","","","","","","","","","","","","","","","","feedback_test"
"","","","","","psychophysics","29","420115","0.0-7.0-0.9","1439","","f","","","","","","","","","","","","","key","f","16.6632260273973","747","463","f","true","img/S_ambi40.png","生人","prac",""
"","","","","","html-keyboard-response","30","420624","0.0-7.0-1.9","null","<span style='color:GreenYellow; font-size: 70px;'>正确! </span>","null","","","","","","","","","","","","","","","","","","","","","","","feedback_test"
"","","","","","psychophysics","31","422777","0.0-7.0-0.10","1151","","j","","","","","","","","","","","","","key","j","16.551109375000124","747","463","f","false","img/C_ambi40.png","朋友","prac",""
"","","","","","html-keyboard-response","32","423278","0.0-7.0-1.10","null","<span style='color:red; font-size: 70px;'>错误! </span>","null","","","","","","","","","","","","","","","","","","","","","","","feedback_test"
"","","","","","psychophysics","33","425782","0.0-7.0-0.11","null","","null","","","","","","","","","","","","","key","null","16.660973154362324","747","463","f","false","img/T_ambi40.png","をる","prac",""
"","","","","","html-keyboard-response","34","426296","0.0-7.0-1.11","null","<span class='add_' style='color:yellow; font-size: 70px;'> 太慢! </span>","null","","","","","","","","","","","","","","","","","","","","","","","feedback_test"
"","","","","","psychophysics","35","428804","0.0-7.0-0.12","null","","null","","","","","","","","","","","","","key","null","16.66095302013435","747","463","j","false","img/S_ambi40.png","朋友","prac",""
"","","","","","html-keyboard-response","36","429320","0.0-7.0-1.12","null","<span class='add_' style='color:yellow; font-size: 70px;'> 太慢! </span>","null","","","","","","","","","","","","","","","","","","","","","","","feedback_test"
"","","","","","psychophysics","37","431835","0.0-7.0-0.13","null","","null","","","","","","","","","","","","","key","null","16.660853333333506","747","463","f","false","img/T_ambi40.png","をる","prac",""
"","","","","","html-keyboard-response","38","432350","0.0-7.0-1.13","null","<span class='add_' style='color:yellow; font-size: 70px;'> 太慢! </span>","null","","","","","","","","","","","","","","","","","","","","","","","feedback_test"
"","","","","","psychophysics","39","434854","0.0-7.0-0.14","null","","null","","","","","","","","","","","","","key","null","16.661060402684708","747","463","f","false","img/T_ambi40.png","をる","prac",""
"","","","","","html-keyboard-response","40","435357","0.0-7.0-1.14","null","<span class='add_' style='color:yellow; font-size: 70px;'> 太慢! </span>","null","","","","","","","","","","","","","","","","","","","","","","","feedback_test"
"","","","","","psychophysics","41","437870","0.0-7.0-0.15","null","","null","","","","","","","","","","","","","key","null","16.66103355704663","747","463","j","false","img/C_ambi40.png","生人","prac",""
"","","","","","html-keyboard-response","42","438375","0.0-7.0-1.15","null","<span class='add_' style='color:yellow; font-size: 70px;'> 太慢! </span>","null","","","","","","","","","","","","","","","","","","","","","","","feedback_test"
"","","","","","psychophysics","43","440885","0.0-7.0-0.16","null","","null","","","","","","","","","","","","","key","null","16.661020134228373","747","463","f","false","img/S_ambi40.png","自我","prac",""
"","","","","","html-keyboard-response","44","441399","0.0-7.0-1.16","null","<span class='add_' style='color:yellow; font-size: 70px;'> 太慢! </span>","null","","","","","","","","","","","","","","","","","","","","","","","feedback_test"
"","","","","","psychophysics","45","443903","0.0-7.0-0.17","null","","null","","","","","","","","","","","","","key","null","16.66097999999998","747","463","j","false","img/S_ambi40.png","朋友","prac",""
"","","","","","html-keyboard-response","46","444415","0.0-7.0-1.17","null","<span class='add_' style='color:yellow; font-size: 70px;'> 太慢! </span>","null","","","","","","","","","","","","","","","","","","","","","","","feedback_test"
"","","","","","psychophysics","47","446917","0.0-7.0-0.18","null","","null","","","","","","","","","","","","","key","null","16.661369127516743","747","463","f","false","img/S_ambi40.png","生人","prac",""
"","","","","","html-keyboard-response","48","447431","0.0-7.0-1.18","null","<span class='add_' style='color:yellow; font-size: 70px;'> 太慢! </span>","null","","","","","","","","","","","","","","","","","","","","","","","feedback_test"
"","","","","","psychophysics","49","449942","0.0-7.0-0.19","null","","null","","","","","","","","","","","","","key","null","16.66100666666675","747","463","f","false","img/H_ambi40.png","生人","prac",""
"","","","","","html-keyboard-response","50","450457","0.0-7.0-1.19","null","<span class='add_' style='color:yellow; font-size: 70px;'> 太慢! </span>","null","","","","","","","","","","","","","","","","","","","","","","","feedback_test"
"","","","","","psychophysics","51","452964","0.0-7.0-0.20","null","","null","","","","","","","","","","","","","key","null","16.66355033557051","747","463","j","false","img/C_ambi40.png","生人","prac",""
"","","","","","html-keyboard-response","52","453476","0.0-7.0-1.20","null","<span class='add_' style='color:yellow; font-size: 70px;'> 太慢! </span>","null","","","","","","","","","","","","","","","","","","","","","","","feedback_test"
"","","","","","psychophysics","53","455980","0.0-7.0-0.21","null","","null","","","","","","","","","","","","","key","null","16.661060402684317","747","463","f","false","img/C_ambi40.png","自我","prac",""
"","","","","","html-keyboard-response","54","456482","0.0-7.0-1.21","null","<span class='add_' style='color:yellow; font-size: 70px;'> 太慢! </span>","null","","","","","","","","","","","","","","","","","","","","","","","feedback_test"
"","","","","","psychophysics","55","458996","0.0-7.0-0.22","null","","null","","","","","","","","","","","","","key","null","16.66307382550342","747","463","j","false","img/C_ambi40.png","生人","prac",""
"","","","","","html-keyboard-response","56","459510","0.0-7.0-1.22","null","<span class='add_' style='color:yellow; font-size: 70px;'> 太慢! </span>","null","","","","","","","","","","","","","","","","","","","","","","","feedback_test"
"","","","","","psychophysics","57","462028","0.0-7.0-0.23","null","","null","","","","","","","","","","","","","key","null","16.660933333333425","747","463","j","false","img/S_ambi40.png","朋友","prac",""
"","","","","","html-keyboard-response","58","462541","0.0-7.0-1.23","null","<span class='add_' style='color:yellow; font-size: 70px;'> 太慢! </span>","null","","","","","","","","","","","","","","","","","","","","","","","feedback_test"
"","","","","","psychophysics","59","465044","0.0-7.0-0.24","null","","null","","","","","","","","","","","","","key","null","16.660966442952997","747","463","j","false","img/H_ambi40.png","自我","prac",""
"","","","","","html-keyboard-response","60","465544","0.0-7.0-1.24","null","<span class='add_' style='color:yellow; font-size: 70px;'> 太慢! </span>","null","","","","","","","","","","","","","","","","","","","","","","","feedback_test"
"","","","","","psychophysics","61","468054","0.0-7.0-0.25","null","","null","","","","","","","","","","","","","key","null","16.660805369127267","747","463","f","false","img/T_ambi40.png","をる","prac",""
"","","","","","html-keyboard-response","62","468569","0.0-7.0-1.25","null","<span class='add_' style='color:yellow; font-size: 70px;'> 太慢! </span>","null","","","","","","","","","","","","","","","","","","","","","","","feedback_test"
"","","","","","psychophysics","63","471075","0.0-7.0-0.26","null","","null","","","","","","","","","","","","","key","null","16.6609060402683","747","463","f","false","img/H_ambi40.png","朋友","prac",""
"","","","","","html-keyboard-response","64","471581","0.0-7.0-1.26","null","<span class='add_' style='color:yellow; font-size: 70px;'> 太慢! </span>","null","","","","","","","","","","","","","","","","","","","","","","","feedback_test"
"","","","","","psychophysics","65","474091","0.0-7.0-0.27","null","","null","","","","","","","","","","","","","key","null","16.660865771811967","747","463","j","false","img/H_ambi40.png","自我","prac",""
"","","","","","html-keyboard-response","66","474593","0.0-7.0-1.27","null","<span class='add_' style='color:yellow; font-size: 70px;'> 太慢! </span>","null","","","","","","","","","","","","","","","","","","","","","","","feedback_test"
"","","","","","psychophysics","67","477097","0.0-7.0-0.28","null","","null","","","","","","","","","","","","","key","null","16.661073825503355","747","463","f","false","img/T_ambi40.png","をる","prac",""
"","","","","","html-keyboard-response","68","477608","0.0-7.0-1.28","null","<span class='add_' style='color:yellow; font-size: 70px;'> 太慢! </span>","null","","","","","","","","","","","","","","","","","","","","","","","feedback_test"
"","","","","","psychophysics","69","479731","0.0-7.0-0.29","1112","","f","","","","","","","","","","","","","key","f","16.661150793650737","747","463","f","true","img/T_ambi40.png","をる","prac",""
"","","","","","html-keyboard-response","70","480239","0.0-7.0-1.29","null","<span style='color:GreenYellow; font-size: 70px;'>正确! </span>","null","","","","","","","","","","","","","","","","","","","","","","","feedback_test"
"","","","","","psychophysics","71","481782","0.0-7.0-0.30","531","","f","","","","","","","","","","","","","key","f","16.660692307691903","747","463","f","true","img/T_ambi40.png","をる","prac",""
"","","","","","html-keyboard-response","72","482288","0.0-7.0-1.30","null","<span style='color:GreenYellow; font-size: 70px;'>正确! </span>","null","","","","","","","","","","","","","","","","","","","","","","","feedback_test"
"","","","","","psychophysics","73","484279","0.0-7.0-0.31","990","","j","","","","","","","","","","","","","key","j","16.66081355932224","747","463","f","false","img/C_ambi40.png","朋友","prac",""
"","","","","","html-keyboard-response","74","484791","0.0-7.0-1.31","null","<span style='color:red; font-size: 70px;'>错误! </span>","null","","","","","","","","","","","","","","","","","","","","","","","feedback_test"
"","","","","","psychophysics","75","487175","0.0-8.0-0.0-0.0","1373","","f","","","","","","","","","","","","","key","f","16.661105633802666","747","463","j","false","img/C_ambi40.png","生人","prac",""
"","","","","","html-keyboard-response","76","487688","0.0-8.0-0.0-1.0","null","<span style='color:red; font-size: 70px;'>错误! </span>","null","","","","","","","","","","","","","","","","","","","","","","","feedback_test"
"","","","","","psychophysics","77","489682","0.0-8.0-0.0-0.1","980","","j","","","","","","","","","","","","","key","j","16.66059322033908","747","463","j","true","img/H_ambi40.png","自我","prac",""
"","","","","","html-keyboard-response","78","490194","0.0-8.0-0.0-1.1","null","<span style='color:GreenYellow; font-size: 70px;'>正确! </span>","null","","","","","","","","","","","","","","","","","","","","","","","feedback_test"
"","","","","","psychophysics","79","492523","0.0-8.0-0.0-0.2","1321","","j","","","","","","","","","","","","","key","j","16.661136690647385","747","463","f","false","img/H_ambi40.png","生人","prac",""
"","","","","","html-keyboard-response","80","493040","0.0-8.0-0.0-1.2","null","<span style='color:red; font-size: 70px;'>错误! </span>","null","","","","","","","","","","","","","","","","","","","","","","","feedback_test"
"","","","","","psychophysics","81","495087","0.0-8.0-0.0-0.3","1036","","f","","","","","","","","","","","","","key","f","16.661073770491907","747","463","f","true","img/T_ambi40.png","をる","prac",""
"","","","","","html-keyboard-response","82","495592","0.0-8.0-0.0-1.3","null","<span style='color:GreenYellow; font-size: 70px;'>正确! </span>","null","","","","","","","","","","","","","","","","","","","","","","","feedback_test"
"","","","","","psychophysics","83","497185","0.0-8.0-0.0-0.4","585","","f","","","","","","","","","","","","","key","f","16.660894736841836","747","463","f","true","img/T_ambi40.png","をる","prac",""
"","","","","","html-keyboard-response","84","497693","0.0-8.0-0.0-1.4","null","<span style='color:GreenYellow; font-size: 70px;'>正确! </span>","null","","","","","","","","","","","","","","","","","","","","","","","feedback_test"
"","","","","","psychophysics","85","499857","0.0-8.0-0.0-0.5","1157","","j","","","","","","","","","","","","","key","j","16.66101550387603","747","463","f","false","img/C_ambi40.png","朋友","prac",""
"","","","","","html-keyboard-response","86","500367","0.0-8.0-0.0-1.5","null","<span style='color:red; font-size: 70px;'>错误! </span>","null","","","","","","","","","","","","","","","","","","","","","","","feedback_test"
"","","","","","psychophysics","87","502288","0.0-8.0-0.0-0.6","908","","f","","","","","","","","","","","","","key","f","16.661131578947423","747","463","f","true","img/S_ambi40.png","自我","prac",""
"","","","","","html-keyboard-response","88","502803","0.0-8.0-0.0-1.6","null","<span style='color:GreenYellow; font-size: 70px;'>正确! </span>","null","","","","","","","","","","","","","","","","","","","","","","","feedback_test"
"","","","","","psychophysics","89","505258","0.0-8.0-0.0-0.7","1444","","f","","","","","","","","","","","","","key","f","16.660938356164603","747","463","j","false","img/C_ambi40.png","生人","prac",""
"","","","","","html-keyboard-response","90","505767","0.0-8.0-0.0-1.7","null","<span style='color:red; font-size: 70px;'>错误! </span>","null","","","","","","","","","","","","","","","","","","","","","","","feedback_test"
"","","","","","psychophysics","91","507786","0.0-8.0-0.0-0.8","1008","","f","","","","","","","","","","","","","key","f","16.660983333333085","747","463","f","true","img/C_ambi40.png","自我","prac",""
"","","","","","html-keyboard-response","92","508293","0.0-8.0-0.0-1.8","null","<span style='color:GreenYellow; font-size: 70px;'>正确! </span>","null","","","","","","","","","","","","","","","","","","","","","","","feedback_test"
"","","","","","psychophysics","93","509800","0.0-8.0-0.0-0.9","504","","f","","","","","","","","","","","","","key","f","16.660755555555482","747","463","f","true","img/T_ambi40.png","をる","prac",""
"","","","","","html-keyboard-response","94","510316","0.0-8.0-0.0-1.9","null","<span style='color:GreenYellow; font-size: 70px;'>正确! </span>","null","","","","","","","","","","","","","","","","","","","","","","","feedback_test"
"","","","","","psychophysics","95","512243","0.0-8.0-0.0-0.10","916","","f","","","","","","","","","","","","","key","f","16.66108771929826","747","463","f","true","img/S_ambi40.png","生人","prac",""
"","","","","","html-keyboard-response","96","512754","0.0-8.0-0.0-1.10","null","<span style='color:GreenYellow; font-size: 70px;'>正确! </span>","null","","","","","","","","","","","","","","","","","","","","","","","feedback_test"
"","","","","","psychophysics","97","514548","0.0-8.0-0.0-0.11","787","","f","","","","","","","","","","","","","key","f","16.660953271027577","747","463","j","false","img/S_ambi40.png","朋友","prac",""
"","","","","","html-keyboard-response","98","515056","0.0-8.0-0.0-1.11","null","<span style='color:red; font-size: 70px;'>错误! </span>","null","","","","","","","","","","","","","","","","","","","","","","","feedback_test"
"","","","","","psychophysics","99","517285","0.0-8.0-0.0-0.12","1225","","j","","","","","","","","","","","","","key","j","16.661052631578826","747","463","f","false","img/H_ambi40.png","朋友","prac",""
"","","","","","html-keyboard-response","100","517787","0.0-8.0-0.0-1.12","null","<span style='color:red; font-size: 70px;'>错误! </span>","null","","","","","","","","","","","","","","","","","","","","","","","feedback_test"
"","","","","","psychophysics","101","519409","0.0-8.0-0.0-0.13","620","","f","","","","","","","","","","","","","key","f","16.661197916666424","747","463","f","true","img/T_ambi40.png","をる","prac",""
"","","","","","html-keyboard-response","102","519911","0.0-8.0-0.0-1.13","null","<span style='color:GreenYellow; font-size: 70px;'>正确! </span>","null","","","","","","","","","","","","","","","","","","","","","","","feedback_test"
"","","","","","psychophysics","103","521857","0.0-8.0-0.0-0.14","936","","j","","","","","","","","","","","","","key","j","16.66094782608713","747","463","j","true","img/H_ambi40.png","自我","prac",""
"","","","","","html-keyboard-response","104","522364","0.0-8.0-0.0-1.14","null","<span style='color:GreenYellow; font-size: 70px;'>正确! </span>","null","","","","","","","","","","","","","","","","","","","","","","","feedback_test"
"","","","","","psychophysics","105","524028","0.0-8.0-0.0-0.15","654","","j","","","","","","","","","","","","","key","j","16.661131313131214","747","463","j","true","img/S_ambi40.png","朋友","prac",""
"","","","","","html-keyboard-response","106","524541","0.0-8.0-0.0-1.15","null","<span style='color:GreenYellow; font-size: 70px;'>正确! </span>","null","","","","","","","","","","","","","","","","","","","","","","","feedback_test"
"","","","","","psychophysics","107","526344","0.0-8.0-0.0-0.16","793","","f","","","","","","","","","","","","","key","f","16.660878504672148","747","463","f","true","img/S_ambi40.png","自我","prac",""
"","","","","","html-keyboard-response","108","526859","0.0-8.0-0.0-1.16","null","<span style='color:GreenYellow; font-size: 70px;'>正确! </span>","null","","","","","","","","","","","","","","","","","","","","","","","feedback_test"
"","","","","","psychophysics","109","529005","0.0-8.0-0.0-0.17","1138","","f","","","","","","","","","","","","","key","f","16.660874015747893","747","463","f","true","img/H_ambi40.png","生人","prac",""
"","","","","","html-keyboard-response","110","529518","0.0-8.0-0.0-1.17","null","<span style='color:GreenYellow; font-size: 70px;'>正确! </span>","null","","","","","","","","","","","","","","","","","","","","","","","feedback_test"
"","","","","","psychophysics","111","531278","0.0-8.0-0.0-0.18","756","","f","","","","","","","","","","","","","key","f","16.661028571427977","747","463","f","true","img/S_ambi40.png","生人","prac",""
"","","","","","html-keyboard-response","112","531781","0.0-8.0-0.0-1.18","null","<span style='color:GreenYellow; font-size: 70px;'>正确! </span>","null","","","","","","","","","","","","","","","","","","","","","","","feedback_test"
"","","","","","psychophysics","113","533589","0.0-8.0-0.0-0.19","801","","j","","","","","","","","","","","","","key","j","16.662953703704126","747","463","j","true","img/H_ambi40.png","自我","prac",""
"","","","","","html-keyboard-response","114","534102","0.0-8.0-0.0-1.19","null","<span style='color:GreenYellow; font-size: 70px;'>正确! </span>","null","","","","","","","","","","","","","","","","","","","","","","","feedback_test"
"","","","","","psychophysics","115","535791","0.0-8.0-0.0-0.20","688","","f","","","","","","","","","","","","","key","f","16.66079207920783","747","463","f","true","img/T_ambi40.png","をる","prac",""
"","","","","","html-keyboard-response","116","536304","0.0-8.0-0.0-1.20","null","<span style='color:GreenYellow; font-size: 70px;'>正确! </span>","null","","","","","","","","","","","","","","","","","","","","","","","feedback_test"
"","","","","","psychophysics","117","538262","0.0-8.0-0.0-0.21","957","","j","","","","","","","","","","","","","key","j","16.66095689655149","747","463","j","true","img/S_ambi40.png","朋友","prac",""
"","","","","","html-keyboard-response","118","538765","0.0-8.0-0.0-1.21","null","<span style='color:GreenYellow; font-size: 70px;'>正确! </span>","null","","","","","","","","","","","","","","","","","","","","","","","feedback_test"
"","","","","","psychophysics","119","540689","0.0-8.0-0.0-0.22","920","","f","","","","","","","","","","","","","key","f","16.661078260869356","747","463","f","true","img/H_ambi40.png","朋友","prac",""
"","","","","","html-keyboard-response","120","541205","0.0-8.0-0.0-1.22","null","<span style='color:GreenYellow; font-size: 70px;'>正确! </span>","null","","","","","","","","","","","","","","","","","","","","","","","feedback_test"
"","","","","","psychophysics","121","542879","0.0-8.0-0.0-0.23","664","","f","","","","","","","","","","","","","key","f","16.661191919192934","747","463","f","true","img/T_ambi40.png","をる","prac",""
"","","","","","html-keyboard-response","122","543389","0.0-8.0-0.0-1.23","null","<span style='color:GreenYellow; font-size: 70px;'>正确! </span>","null","","","","","","","","","","","","","","","","","","","","","","","feedback_test"
"","","","","","psychophysics","123","545315","0.0-8.0-0.0-0.24","915","","j","","","","","","","","","","","","","key","j","16.660929824561574","747","463","f","false","img/C_ambi40.png","自我","prac",""
"","","","","","html-keyboard-response","124","545826","0.0-8.0-0.0-1.24","null","<span style='color:red; font-size: 70px;'>错误! </span>","null","","","","","","","","","","","","","","","","","","","","","","","feedback_test"
"","","","","","psychophysics","125","548038","0.0-8.0-0.0-0.25","1206","","j","","","","","","","","","","","","","key","j","16.6610833333336","747","463","j","true","img/C_ambi40.png","生人","prac",""
"","","","","","html-keyboard-response","126","548551","0.0-8.0-0.0-1.25","null","<span style='color:GreenYellow; font-size: 70px;'>正确! </span>","null","","","","","","","","","","","","","","","","","","","","","","","feedback_test"
"","","","","","psychophysics","127","550403","0.0-8.0-0.0-0.26","842","","f","","","","","","","","","","","","","key","f","16.66097272727321","747","463","f","true","img/C_ambi40.png","朋友","prac",""
"","","","","","html-keyboard-response","128","550916","0.0-8.0-0.0-1.26","null","<span style='color:GreenYellow; font-size: 70px;'>正确! </span>","null","","","","","","","","","","","","","","","","","","","","","","","feedback_test"
"","","","","","psychophysics","129","552872","0.0-8.0-0.0-0.27","943","","f","","","","","","","","","","","","","key","f","16.66089655172405","747","463","f","true","img/T_ambi40.png","をる","prac",""
"","","","","","html-keyboard-response","130","553378","0.0-8.0-0.0-1.27","null","<span style='color:GreenYellow; font-size: 70px;'>正确! </span>","null","","","","","","","","","","","","","","","","","","","","","","","feedback_test"
"","","","","","psychophysics","131","555103","0.0-8.0-0.0-0.28","722","","f","","","","","","","","","","","","","key","f","16.660669902912613","747","463","f","true","img/T_ambi40.png","をる","prac",""
"","","","","","html-keyboard-response","132","555618","0.0-8.0-0.0-1.28","null","<span style='color:GreenYellow; font-size: 70px;'>正确! </span>","null","","","","","","","","","","","","","","","","","","","","","","","feedback_test"
"","","","","","psychophysics","133","557739","0.0-8.0-0.0-0.29","1110","","j","","","","","","","","","","","","","key","j","16.660920634921197","747","463","j","true","img/H_ambi40.png","自我","prac",""
"","","","","","html-keyboard-response","134","558252","0.0-8.0-0.0-1.29","null","<span style='color:GreenYellow; font-size: 70px;'>正确! </span>","null","","","","","","","","","","","","","","","","","","","","","","","feedback_test"
"","","","","","psychophysics","135","560527","0.0-8.0-0.0-0.30","1271","","j","","","","","","","","","","","","","key","j","16.66107407407404","747","463","j","true","img/S_ambi40.png","朋友","prac",""
"","","","","","html-keyboard-response","136","561030","0.0-8.0-0.0-1.30","null","<span style='color:GreenYellow; font-size: 70px;'>正确! </span>","null","","","","","","","","","","","","","","","","","","","","","","","feedback_test"
"","","","","","psychophysics","137","563403","0.0-8.0-0.0-0.31","1365","","j","","","","","","","","","","","","","key","j","16.660851063829323","747","463","j","true","img/C_ambi40.png","生人","prac",""
"","","","","","html-keyboard-response","138","563911","0.0-8.0-0.0-1.31","null","<span style='color:GreenYellow; font-size: 70px;'>正确! </span>","null","","","","","","","","","","","","","","","","","","","","","","","feedback_test"
"","","","","","html-keyboard-response","139","576387","0.0-9.0","12475","<style>.context{color:white; font-size: 35px; line-height:40px}</style>                          <div><p class='context'>您正确回答了78% 的试次。</p ><p class='context'>您的平均反应时为893毫秒。</p ><p class='context'>恭喜您完成练习。按任意键进入正式实验。</p ><p class='footer' style='font-size: 35px; line-height:40px;'>请在进入正式实验实验之前将您的<span style='color: lightgreen;'>食指</span>放在电脑键盘的相应键位上进行按键。</p >","j","","","","","","","","","","","","","","","","","","","","","","",""
"","","","","","psychophysics","140","578747","0.0-10.0-0.0-0.0-0.0-0.0","1350","","f","","","","","","","","","","","","","key","f","16.660673758865446","747","463","f","true","img/H_ambi40.png","生人","same",""
"","","","","","html-keyboard-response","141","579248","0.0-10.0-0.0-0.0-0.0-1.0","null","<span style='color:GreenYellow; font-size: 70px;'>正确! </span>","null","","","","","","","","","","","","","","","","","","","","","","","feedback_test"
"","","","","","psychophysics","142","581163","0.0-10.0-0.0-0.0-0.0-0.1","908","","f","","","","","","","","","","","","","key","f","16.66108771929877","747","463","f","true","img/S_ambi40.png","自我","same",""
"","","","","","html-keyboard-response","143","581667","0.0-10.0-0.0-0.0-0.0-1.1","null","<span style='color:GreenYellow; font-size: 70px;'>正确! </span>","null","","","","","","","","","","","","","","","","","","","","","","","feedback_test"
"","","","","","psychophysics","144","583617","0.0-10.0-0.0-0.0-0.0-0.2","946","","f","","","","","","","","","","","","","key","f","16.660913793103177","747","463","f","true","img/H_ambi40.png","朋友","same",""
"","","","","","html-keyboard-response","145","584122","0.0-10.0-0.0-0.0-0.0-1.2","null","<span style='color:GreenYellow; font-size: 70px;'>正确! </span>","null","","","","","","","","","","","","","","","","","","","","","","","feedback_test"
"","","","","","psychophysics","146","586348","0.0-10.0-0.0-0.0-0.0-0.3","1215","","j","","","","","","","","","","","","","key","j","16.66111363636358","747","463","j","true","img/C_ambi40.png","生人","same",""
"","","","","","html-keyboard-response","147","586860","0.0-10.0-0.0-0.0-0.0-1.3","null","<span style='color:GreenYellow; font-size: 70px;'>正确! </span>","null","","","","","","","","","","","","","","","","","","","","","","","feedback_test"
"","","","","","psychophysics","148","588979","0.0-10.0-0.0-0.0-0.0-0.4","1110","","f","","","","","","","","","","","","","key","f","16.661142857142888","747","463","f","true","img/C_ambi40.png","自我","same",""
"","","","","","html-keyboard-response","149","589487","0.0-10.0-0.0-0.0-0.0-1.4","null","<span style='color:GreenYellow; font-size: 70px;'>正确! </span>","null","","","","","","","","","","","","","","","","","","","","","","","feedback_test"
"","","","","","psychophysics","150","591467","0.0-10.0-0.0-0.0-0.0-0.5","967","","f","","","","","","","","","","","","","key","f","16.660965811965678","747","463","j","false","img/H_ambi40.png","自我","same",""
"","","","","","html-keyboard-response","151","591983","0.0-10.0-0.0-0.0-0.0-1.5","null","<span style='color:red; font-size: 70px;'>错误! </span>","null","","","","","","","","","","","","","","","","","","","","","","","feedback_test"
"","","","","","psychophysics","152","594171","0.0-10.0-0.0-0.0-0.0-0.6","1187","","j","","","","","","","","","","","","","key","j","16.55069230769295","747","463","j","true","img/S_ambi40.png","朋友","same",""
"","","","","","html-keyboard-response","153","594681","0.0-10.0-0.0-0.0-0.0-1.6","null","<span style='color:GreenYellow; font-size: 70px;'>正确! </span>","null","","","","","","","","","","","","","","","","","","","","","","","feedback_test"
"","","","","","psychophysics","154","596806","0.0-10.0-0.0-0.0-0.0-0.7","1123","","j","","","","","","","","","","","","","key","j","16.660622047243905","747","463","j","true","img/C_ambi40.png","生人","same",""
"","","","","","html-keyboard-response","155","597312","0.0-10.0-0.0-0.0-0.0-1.7","null","<span style='color:GreenYellow; font-size: 70px;'>正确! </span>","null","","","","","","","","","","","","","","","","","","","","","","","feedback_test"
"","","","","","psychophysics","156","598952","0.0-10.0-0.0-0.0-0.0-0.8","639","","j","","","","","","","","","","","","","key","j","16.66092857142806","747","463","f","false","img/T_ambi40.png","をる","same",""
"","","","","","html-keyboard-response","157","599468","0.0-10.0-0.0-0.0-0.0-1.8","null","<span style='color:red; font-size: 70px;'>错误! </span>","null","","","","","","","","","","","","","","","","","","","","","","","feedback_test"
"","","","","","psychophysics","158","601468","0.0-10.0-0.0-0.0-0.0-0.9","991","","f","","","","","","","","","","","","","key","f","16.66103361344587","747","463","j","false","img/H_ambi40.png","自我","same",""
"","","","","","html-keyboard-response","159","601971","0.0-10.0-0.0-0.0-0.0-1.9","null","<span style='color:red; font-size: 70px;'>错误! </span>","null","","","","","","","","","","","","","","","","","","","","","","","feedback_test"
"","","","","","psychophysics","160","604031","0.0-10.0-0.0-0.0-0.0-0.10","1050","","j","","","","","","","","","","","","","key","j","16.661178861789185","747","463","j","true","img/S_ambi40.png","朋友","same",""
"","","","","","html-keyboard-response","161","604545","0.0-10.0-0.0-0.0-0.0-1.10","null","<span style='color:GreenYellow; font-size: 70px;'>正确! </span>","null","","","","","","","","","","","","","","","","","","","","","","","feedback_test"
"","","","","","psychophysics","162","606421","0.0-10.0-0.0-0.0-0.0-0.11","875","","j","","","","","","","","","","","","","key","j","16.660866071428504","747","463","j","true","img/C_ambi40.png","生人","same",""
"","","","","","html-keyboard-response","163","606935","0.0-10.0-0.0-0.0-0.0-1.11","null","<span style='color:GreenYellow; font-size: 70px;'>正确! </span>","null","","","","","","","","","","","","","","","","","","","","","","","feedback_test"
"","","","","","psychophysics","164","608871","0.0-10.0-0.0-0.0-0.0-0.12","928","","f","","","","","","","","","","","","","key","f","16.660913043478303","747","463","f","true","img/T_ambi40.png","をる","same",""
"","","","","","html-keyboard-response","165","609385","0.0-10.0-0.0-0.0-0.0-1.12","null","<span style='color:GreenYellow; font-size: 70px;'>正确! </span>","null","","","","","","","","","","","","","","","","","","","","","","","feedback_test"
"","","","","","psychophysics","166","611404","0.0-10.0-0.0-0.0-0.0-0.13","1010","","f","","","","","","","","","","","","","key","f","16.661050000000007","747","463","f","true","img/S_ambi40.png","生人","same",""
"","","","","","html-keyboard-response","167","611919","0.0-10.0-0.0-0.0-0.0-1.13","null","<span style='color:GreenYellow; font-size: 70px;'>正确! </span>","null","","","","","","","","","","","","","","","","","","","","","","","feedback_test"
"","","","","","psychophysics","168","613588","0.0-10.0-0.0-0.0-0.0-0.14","661","","f","","","","","","","","","","","","","key","f","16.661151515151786","747","463","f","true","img/T_ambi40.png","をる","same",""
"","","","","","html-keyboard-response","169","614103","0.0-10.0-0.0-0.0-0.0-1.14","null","<span style='color:GreenYellow; font-size: 70px;'>正确! </span>","null","","","","","","","","","","","","","","","","","","","","","","","feedback_test"
"","","","","","psychophysics","170","616091","0.0-10.0-0.0-0.0-0.0-0.15","982","","f","","","","","","","","","","","","","key","f","16.661008474576857","747","463","f","true","img/C_ambi40.png","朋友","same",""
"","","","","","html-keyboard-response","171","616606","0.0-10.0-0.0-0.0-0.0-1.15","null","<span style='color:GreenYellow; font-size: 70px;'>正确! </span>","null","","","","","","","","","","","","","","","","","","","","","","","feedback_test"
"","","","","","psychophysics","172","618373","0.0-10.0-0.0-0.0-0.0-0.16","764","","j","","","","","","","","","","","","","key","j","16.66113333333328","747","463","j","true","img/H_ambi40.png","自我","same",""
"","","","","","html-keyboard-response","173","618882","0.0-10.0-0.0-0.0-0.0-1.16","null","<span style='color:GreenYellow; font-size: 70px;'>正确! </span>","null","","","","","","","","","","","","","","","","","","","","","","","feedback_test"
"","","","","","psychophysics","174","621390","0.0-10.0-0.0-0.0-0.0-0.17","null","","null","","","","","","","","","","","","","key","null","16.661026845637696","747","463","j","false","img/S_ambi40.png","朋友","same",""
"","","","","","html-keyboard-response","175","621893","0.0-10.0-0.0-0.0-0.0-1.17","null","<span class='add_' style='color:yellow; font-size: 70px;'> 太慢! </span>","null","","","","","","","","","","","","","","","","","","","","","","","feedback_test"
"","","","","","psychophysics","176","623711","0.0-10.0-0.0-0.0-0.0-0.18","806","","j","","","","","","","","","","","","","key","j","16.660999999999248","747","463","j","true","img/S_ambi40.png","朋友","same",""
"","","","","","html-keyboard-response","177","624220","0.0-10.0-0.0-0.0-0.0-1.18","null","<span style='color:GreenYellow; font-size: 70px;'>正确! </span>","null","","","","","","","","","","","","","","","","","","","","","","","feedback_test"
"","","","","","psychophysics","178","626177","0.0-10.0-0.0-0.0-0.0-0.19","954","","j","","","","","","","","","","","","","key","j","16.66079487179458","747","463","j","true","img/C_ambi40.png","生人","same",""
"","","","","","html-keyboard-response","179","626681","0.0-10.0-0.0-0.0-0.0-1.19","null","<span style='color:GreenYellow; font-size: 70px;'>正确! </span>","null","","","","","","","","","","","","","","","","","","","","","","","feedback_test"
"","","","","","psychophysics","180","628532","0.0-10.0-0.0-0.0-0.0-0.20","843","","f","","","","","","","","","","","","","key","f","16.661172727273186","747","463","j","false","img/C_ambi40.png","生人","same",""
"","","","","","html-keyboard-response","181","629046","0.0-10.0-0.0-0.0-0.0-1.20","null","<span style='color:red; font-size: 70px;'>错误! </span>","null","","","","","","","","","","","","","","","","","","","","","","","feedback_test"
"","","","","","psychophysics","182","630950","0.0-10.0-0.0-0.0-0.0-0.21","896","","f","","","","","","","","","","","","","key","f","16.66093805309826","747","463","f","true","img/S_ambi40.png","自我","same",""
"","","","","","html-keyboard-response","183","631459","0.0-10.0-0.0-0.0-0.0-1.21","null","<span style='color:GreenYellow; font-size: 70px;'>正确! </span>","null","","","","","","","","","","","","","","","","","","","","","","","feedback_test"
"","","","","","psychophysics","184","633110","0.0-10.0-0.0-0.0-0.0-0.22","646","","f","","","","","","","","","","","","","key","f","16.660948979591105","747","463","f","true","img/T_ambi40.png","をる","same",""
"","","","","","html-keyboard-response","185","633612","0.0-10.0-0.0-0.0-0.0-1.22","null","<span style='color:GreenYellow; font-size: 70px;'>正确! </span>","null","","","","","","","","","","","","","","","","","","","","","","","feedback_test"
"","","","","","psychophysics","186","635542","0.0-10.0-0.0-0.0-0.0-0.23","923","","j","","","","","","","","","","","","","key","j","16.661052173913617","747","463","j","true","img/C_ambi40.png","生人","same",""
"","","","","","html-keyboard-response","187","636045","0.0-10.0-0.0-0.0-0.0-1.23","null","<span style='color:GreenYellow; font-size: 70px;'>正确! </span>","null","","","","","","","","","","","","","","","","","","","","","","","feedback_test"
"","","","","","psychophysics","188","637991","0.0-10.0-0.0-0.0-0.0-0.24","940","","f","","","","","","","","","","","","","key","f","16.66106034482725","747","463","f","true","img/C_ambi40.png","自我","same",""
"","","","","","html-keyboard-response","189","638498","0.0-10.0-0.0-0.0-0.0-1.24","null","<span style='color:GreenYellow; font-size: 70px;'>正确! </span>","null","","","","","","","","","","","","","","","","","","","","","","","feedback_test"
"","","","","","psychophysics","190","640823","0.0-10.0-0.0-0.0-0.0-0.25","1322","","f","","","","","","","","","","","","","key","f","16.661086330935692","747","463","f","true","img/H_ambi40.png","朋友","same",""
"","","","","","html-keyboard-response","191","641337","0.0-10.0-0.0-0.0-0.0-1.25","null","<span style='color:GreenYellow; font-size: 70px;'>正确! </span>","null","","","","","","","","","","","","","","","","","","","","","","","feedback_test"
"","","","","","psychophysics","192","643361","0.0-10.0-0.0-0.0-0.0-0.26","1013","","j","","","","","","","","","","","","","key","j","16.658849999999315","747","463","j","true","img/S_ambi40.png","朋友","same",""
"","","","","","html-keyboard-response","193","643871","0.0-10.0-0.0-0.0-0.0-1.26","null","<span style='color:GreenYellow; font-size: 70px;'>正确! </span>","null","","","","","","","","","","","","","","","","","","","","","","","feedback_test"
"","","","","","psychophysics","194","645625","0.0-10.0-0.0-0.0-0.0-0.27","743","","j","","","","","","","","","","","","","key","j","16.661086538461788","747","463","j","true","img/H_ambi40.png","自我","same",""
"","","","","","html-keyboard-response","195","646130","0.0-10.0-0.0-0.0-0.0-1.27","null","<span style='color:GreenYellow; font-size: 70px;'>正确! </span>","null","","","","","","","","","","","","","","","","","","","","","","","feedback_test"
"","","","","","psychophysics","196","647780","0.0-10.0-0.0-0.0-0.0-0.28","648","","j","","","","","","","","","","","","","key","j","16.66074489795945","747","463","j","true","img/H_ambi40.png","自我","same",""
"","","","","","html-keyboard-response","197","648295","0.0-10.0-0.0-0.0-0.0-1.28","null","<span style='color:GreenYellow; font-size: 70px;'>正确! </span>","null","","","","","","","","","","","","","","","","","","","","","","","feedback_test"
"","","","","","psychophysics","198","649976","0.0-10.0-0.0-0.0-0.0-0.29","679","","f","","","","","","","","","","","","","key","f","16.660840000000317","747","463","f","true","img/H_ambi40.png","生人","same",""
"","","","","","html-keyboard-response","199","650485","0.0-10.0-0.0-0.0-0.0-1.29","null","<span style='color:GreenYellow; font-size: 70px;'>正确! </span>","null","","","","","","","","","","","","","","","","","","","","","","","feedback_test"
"","","","","","psychophysics","200","652839","0.0-10.0-0.0-0.0-0.0-0.30","1344","","j","","","","","","","","","","","","","key","j","16.66106428571428","747","463","j","true","img/H_ambi40.png","自我","same",""
"","","","","","html-keyboard-response","201","653341","0.0-10.0-0.0-0.0-0.0-1.30","null","<span style='color:GreenYellow; font-size: 70px;'>正确! </span>","null","","","","","","","","","","","","","","","","","","","","","","","feedback_test"
"","","","","","psychophysics","202","655018","0.0-10.0-0.0-0.0-0.0-0.31","672","","f","","","","","","","","","","","","","key","f","16.660840000000317","747","463","f","true","img/T_ambi40.png","をる","same",""
"","","","","","html-keyboard-response","203","655534","0.0-10.0-0.0-0.0-0.0-1.31","null","<span style='color:GreenYellow; font-size: 70px;'>正确! </span>","null","","","","","","","","","","","","","","","","","","","","","","","feedback_test"
"","","","","","psychophysics","204","657276","0.0-10.0-0.0-0.0-0.0-0.32","734","","j","","","","","","","","","","","","","key","j","16.661038834952016","747","463","j","true","img/S_ambi40.png","朋友","same",""
"","","","","","html-keyboard-response","205","657790","0.0-10.0-0.0-0.0-0.0-1.32","null","<span style='color:GreenYellow; font-size: 70px;'>正确! </span>","null","","","","","","","","","","","","","","","","","","","","","","","feedback_test"
"","","","","","psychophysics","206","659524","0.0-10.0-0.0-0.0-0.0-0.33","730","","j","","","","","","","","","","","","","key","j","16.66095145631048","747","463","f","false","img/T_ambi40.png","をる","same",""
"","","","","","html-keyboard-response","207","660040","0.0-10.0-0.0-0.0-0.0-1.33","null","<span style='color:red; font-size: 70px;'>错误! </span>","null","","","","","","","","","","","","","","","","","","","","","","","feedback_test"
"","","","","","psychophysics","208","662081","0.0-10.0-0.0-0.0-0.0-0.34","1038","","j","","","","","","","","","","","","","key","j","16.661040983606533","747","463","f","false","img/S_ambi40.png","生人","same",""
"","","","","","html-keyboard-response","209","662596","0.0-10.0-0.0-0.0-0.0-1.34","null","<span style='color:red; font-size: 70px;'>错误! </span>","null","","","","","","","","","","","","","","","","","","","","","","","feedback_test"
"","","","","","psychophysics","210","664400","0.0-10.0-0.0-0.0-0.0-0.35","793","","f","","","","","","","","","","","","","key","f","16.66100934579442","747","463","f","true","img/C_ambi40.png","朋友","same",""
"","","","","","html-keyboard-response","211","664912","0.0-10.0-0.0-0.0-0.0-1.35","null","<span style='color:GreenYellow; font-size: 70px;'>正确! </span>","null","","","","","","","","","","","","","","","","","","","","","","","feedback_test"
"","","","","","psychophysics","212","666936","0.0-10.0-0.0-0.0-0.0-0.36","1017","","j","","","","","","","","","","","","","key","j","16.660983333334055","747","463","j","true","img/C_ambi40.png","生人","same",""
"","","","","","html-keyboard-response","213","667449","0.0-10.0-0.0-0.0-0.0-1.36","null","<span style='color:GreenYellow; font-size: 70px;'>正确! </span>","null","","","","","","","","","","","","","","","","","","","","","","","feedback_test"
"","","","","","psychophysics","214","669490","0.0-10.0-0.0-0.0-0.0-0.37","1033","","j","","","","","","","","","","","","","key","j","16.66096694214839","747","463","j","true","img/C_ambi40.png","生人","same",""
"","","","","","html-keyboard-response","215","670004","0.0-10.0-0.0-0.0-0.0-1.37","null","<span style='color:GreenYellow; font-size: 70px;'>正确! </span>","null","","","","","","","","","","","","","","","","","","","","","","","feedback_test"
"","","","","","psychophysics","216","671862","0.0-10.0-0.0-0.0-0.0-0.38","855","","f","","","","","","","","","","","","","key","f","16.660999999999337","747","463","f","true","img/T_ambi40.png","をる","same",""
"","","","","","html-keyboard-response","217","672376","0.0-10.0-0.0-0.0-0.0-1.38","null","<span style='color:GreenYellow; font-size: 70px;'>正确! </span>","null","","","","","","","","","","","","","","","","","","","","","","","feedback_test"
"","","","","","psychophysics","218","674212","0.0-10.0-0.0-0.0-0.0-0.39","828","","f","","","","","","","","","","","","","key","f","16.66099999999999","747","463","f","true","img/T_ambi40.png","をる","same",""
"","","","","","html-keyboard-response","219","674720","0.0-10.0-0.0-0.0-0.0-1.39","null","<span style='color:GreenYellow; font-size: 70px;'>正确! </span>","null","","","","","","","","","","","","","","","","","","","","","","","feedback_test"
"","","","","","psychophysics","220","676399","0.0-10.0-0.0-0.0-0.0-0.40","678","","j","","","","","","","","","","","","","key","j","16.66057999999961","747","463","f","false","img/H_ambi40.png","朋友","same",""
"","","","","","html-keyboard-response","221","676902","0.0-10.0-0.0-0.0-0.0-1.40","null","<span style='color:red; font-size: 70px;'>错误! </span>","null","","","","","","","","","","","","","","","","","","","","","","","feedback_test"
"","","","","","psychophysics","222","678958","0.0-10.0-0.0-0.0-0.0-0.41","1054","","j","","","","","","","","","","","","","key","j","16.66084552845611","747","463","j","true","img/H_ambi40.png","自我","same",""
"","","","","","html-keyboard-response","223","679469","0.0-10.0-0.0-0.0-0.0-1.41","null","<span style='color:GreenYellow; font-size: 70px;'>正确! </span>","null","","","","","","","","","","","","","","","","","","","","","","","feedback_test"
"","","","","","psychophysics","224","681156","0.0-10.0-0.0-0.0-0.0-0.42","686","","f","","","","","","","","","","","","","key","f","16.52136999999988","747","463","f","true","img/C_ambi40.png","自我","same",""
"","","","","","html-keyboard-response","225","681671","0.0-10.0-0.0-0.0-0.0-1.42","null","<span style='color:GreenYellow; font-size: 70px;'>正确! </span>","null","","","","","","","","","","","","","","","","","","","","","","","feedback_test"
"","","","","","psychophysics","226","683493","0.0-10.0-0.0-0.0-0.0-0.43","812","","f","","","","","","","","","","","","","key","f","16.66099074074063","747","463","f","true","img/H_ambi40.png","生人","same",""
"","","","","","html-keyboard-response","227","684005","0.0-10.0-0.0-0.0-0.0-1.43","null","<span style='color:GreenYellow; font-size: 70px;'>正确! </span>","null","","","","","","","","","","","","","","","","","","","","","","","feedback_test"
"","","","","","psychophysics","228","685711","0.0-10.0-0.0-0.0-0.0-0.44","698","","j","","","","","","","","","","","","","key","j","16.661198019801574","747","463","j","true","img/S_ambi40.png","朋友","same",""
"","","","","","html-keyboard-response","229","686213","0.0-10.0-0.0-0.0-0.0-1.44","null","<span style='color:GreenYellow; font-size: 70px;'>正确! </span>","null","","","","","","","","","","","","","","","","","","","","","","","feedback_test"
"","","","","","psychophysics","230","687933","0.0-10.0-0.0-0.0-0.0-0.45","715","","f","","","","","","","","","","","","","key","f","16.661303921568425","747","463","f","true","img/C_ambi40.png","朋友","same",""
"","","","","","html-keyboard-response","231","688442","0.0-10.0-0.0-0.0-0.0-1.45","null","<span style='color:GreenYellow; font-size: 70px;'>正确! </span>","null","","","","","","","","","","","","","","","","","","","","","","","feedback_test"
"","","","","","psychophysics","232","690156","0.0-10.0-0.0-0.0-0.0-0.46","707","","j","","","","","","","","","","","","","key","j","16.661401960785344","747","463","j","true","img/S_ambi40.png","朋友","same",""
"","","","","","html-keyboard-response","233","690664","0.0-10.0-0.0-0.0-0.0-1.46","null","<span style='color:GreenYellow; font-size: 70px;'>正确! </span>","null","","","","","","","","","","","","","","","","","","","","","","","feedback_test"
"","","","","","psychophysics","234","692431","0.0-10.0-0.0-0.0-0.0-0.47","765","","j","","","","","","","","","","","","","key","j","16.660628571427825","747","463","j","true","img/H_ambi40.png","自我","same",""
"","","","","","html-keyboard-response","235","692935","0.0-10.0-0.0-0.0-0.0-1.47","null","<span style='color:GreenYellow; font-size: 70px;'>正确! </span>","null","","","","","","","","","","","","","","","","","","","","","","","feedback_test"
"","","","","","psychophysics","236","694463","0.0-10.0-0.0-0.0-0.0-0.48","525","","j","","","","","","","","","","","","","key","j","16.661266666666293","747","463","j","true","img/C_ambi40.png","生人","same",""
"","","","","","html-keyboard-response","237","694967","0.0-10.0-0.0-0.0-0.0-1.48","null","<span style='color:GreenYellow; font-size: 70px;'>正确! </span>","null","","","","","","","","","","","","","","","","","","","","","","","feedback_test"
"","","","","","psychophysics","238","696756","0.0-10.0-0.0-0.0-0.0-0.49","779","","j","","","","","","","","","","","","","key","j","16.66371698113255","747","463","j","true","img/H_ambi40.png","自我","same",""
"","","","","","html-keyboard-response","239","697271","0.0-10.0-0.0-0.0-0.0-1.49","null","<span style='color:GreenYellow; font-size: 70px;'>正确! </span>","null","","","","","","","","","","","","","","","","","","","","","","","feedback_test"
"","","","","","psychophysics","240","698934","0.0-10.0-0.0-0.0-0.0-0.50","654","","f","","","","","","","","","","","","","key","f","16.660929292929595","747","463","f","true","img/T_ambi40.png","をる","same",""
"","","","","","html-keyboard-response","241","699447","0.0-10.0-0.0-0.0-0.0-1.50","null","<span style='color:GreenYellow; font-size: 70px;'>正确! </span>","null","","","","","","","","","","","","","","","","","","","","","","","feedback_test"
"","","","","","psychophysics","242","701307","0.0-10.0-0.0-0.0-0.0-0.51","859","","f","","","","","","","","","","","","","key","f","16.661127272726628","747","463","f","true","img/S_ambi40.png","自我","same",""
"","","","","","html-keyboard-response","243","701812","0.0-10.0-0.0-0.0-0.0-1.51","null","<span style='color:GreenYellow; font-size: 70px;'>正确! </span>","null","","","","","","","","","","","","","","","","","","","","","","","feedback_test"
"","","","","","psychophysics","244","703702","0.0-10.0-0.0-0.0-0.0-0.52","890","","j","","","","","","","","","","","","","key","j","16.538214285714535","747","463","j","true","img/S_ambi40.png","朋友","same",""
"","","","","","html-keyboard-response","245","704217","0.0-10.0-0.0-0.0-0.0-1.52","null","<span style='color:GreenYellow; font-size: 70px;'>正确! </span>","null","","","","","","","","","","","","","","","","","","","","","","","feedback_test"
"","","","","","psychophysics","246","706153","0.0-10.0-0.0-0.0-0.0-0.53","924","","f","","","","","","","","","","","","","key","f","16.660904347826726","747","463","f","true","img/S_ambi40.png","生人","same",""
"","","","","","html-keyboard-response","247","706666","0.0-10.0-0.0-0.0-0.0-1.53","null","<span style='color:GreenYellow; font-size: 70px;'>正确! </span>","null","","","","","","","","","","","","","","","","","","","","","","","feedback_test"
"","","","","","psychophysics","248","708755","0.0-10.0-0.0-0.0-0.0-0.54","1080","","j","","","","","","","","","","","","","key","j","16.660983870967268","747","463","j","true","img/H_ambi40.png","自我","same",""
"","","","","","html-keyboard-response","249","709257","0.0-10.0-0.0-0.0-0.0-1.54","null","<span style='color:GreenYellow; font-size: 70px;'>正确! </span>","null","","","","","","","","","","","","","","","","","","","","","","","feedback_test"
"","","","","","psychophysics","250","710964","0.0-10.0-0.0-0.0-0.0-0.55","706","","f","","","","","","","","","","","","","key","f","16.660931372548244","747","463","f","true","img/T_ambi40.png","をる","same",""
"","","","","","html-keyboard-response","251","711476","0.0-10.0-0.0-0.0-0.0-1.55","null","<span style='color:GreenYellow; font-size: 70px;'>正确! </span>","null","","","","","","","","","","","","","","","","","","","","","","","feedback_test"
"","","","","","psychophysics","252","713325","0.0-10.0-0.0-0.0-0.0-0.56","841","","j","","","","","","","","","","","","","key","j","16.6607339449543","747","463","j","true","img/C_ambi40.png","生人","same",""
"","","","","","html-keyboard-response","253","713831","0.0-10.0-0.0-0.0-0.0-1.56","null","<span style='color:GreenYellow; font-size: 70px;'>正确! </span>","null","","","","","","","","","","","","","","","","","","","","","","","feedback_test"
"","","","","","psychophysics","254","715668","0.0-10.0-0.0-0.0-0.0-0.57","827","","f","","","","","","","","","","","","","key","f","16.66125688073439","747","463","f","true","img/H_ambi40.png","朋友","same",""
"","","","","","html-keyboard-response","255","716170","0.0-10.0-0.0-0.0-0.0-1.57","null","<span style='color:GreenYellow; font-size: 70px;'>正确! </span>","null","","","","","","","","","","","","","","","","","","","","","","","feedback_test"
"","","","","","psychophysics","256","718197","0.0-10.0-0.0-0.0-0.0-0.58","1023","","f","","","","","","","","","","","","","key","f","16.661090909090657","747","463","f","true","img/S_ambi40.png","自我","same",""
"","","","","","html-keyboard-response","257","718712","0.0-10.0-0.0-0.0-0.0-1.58","null","<span style='color:GreenYellow; font-size: 70px;'>正确! </span>","null","","","","","","","","","","","","","","","","","","","","","","","feedback_test"
"","","","","","psychophysics","258","720472","0.0-10.0-0.0-0.0-0.0-0.59","749","","f","","","","","","","","","","","","","key","f","16.660971153845402","747","463","f","true","img/S_ambi40.png","生人","same",""
"","","","","","html-keyboard-response","259","720974","0.0-10.0-0.0-0.0-0.0-1.59","null","<span style='color:GreenYellow; font-size: 70px;'>正确! </span>","null","","","","","","","","","","","","","","","","","","","","","","","feedback_test"
"","","","","","psychophysics","260","722747","0.0-10.0-0.0-0.0-0.0-0.60","764","","f","","","","","","","","","","","","","key","f","16.66073333333313","747","463","f","true","img/H_ambi40.png","生人","same",""
"","","","","","html-keyboard-response","261","723258","0.0-10.0-0.0-0.0-0.0-1.60","null","<span style='color:GreenYellow; font-size: 70px;'>正确! </span>","null","","","","","","","","","","","","","","","","","","","","","","","feedback_test"
"","","","","","psychophysics","262","725054","0.0-10.0-0.0-0.0-0.0-0.61","794","","j","","","","","","","","","","","","","key","j","16.661066037735612","747","463","j","true","img/S_ambi40.png","朋友","same",""
"","","","","","html-keyboard-response","263","725557","0.0-10.0-0.0-0.0-0.0-1.61","null","<span style='color:GreenYellow; font-size: 70px;'>正确! </span>","null","","","","","","","","","","","","","","","","","","","","","","","feedback_test"
"","","","","","psychophysics","264","727169","0.0-10.0-0.0-0.0-0.0-0.62","603","","f","","","","","","","","","","","","","key","f","16.661031578946858","747","463","j","false","img/C_ambi40.png","生人","same",""
"","","","","","html-keyboard-response","265","727673","0.0-10.0-0.0-0.0-0.0-1.62","null","<span style='color:red; font-size: 70px;'>错误! </span>","null","","","","","","","","","","","","","","","","","","","","","","","feedback_test"
"","","","","","psychophysics","266","729461","0.0-10.0-0.0-0.0-0.0-0.63","775","","j","","","","","","","","","","","","","key","j","16.661047169811287","747","463","j","true","img/C_ambi40.png","生人","same",""
"","","","","","html-keyboard-response","267","729970","0.0-10.0-0.0-0.0-0.0-1.63","null","<span style='color:GreenYellow; font-size: 70px;'>正确! </span>","null","","","","","","","","","","","","","","","","","","","","","","","feedback_test"
"","","","","","psychophysics","268","731688","0.0-10.0-0.0-0.0-0.0-0.64","708","","j","","","","","","","","","","","","","key","j","16.660990196078167","747","463","j","true","img/H_ambi40.png","自我","same",""
"","","","","","html-keyboard-response","269","732191","0.0-10.0-0.0-0.0-0.0-1.64","null","<span style='color:GreenYellow; font-size: 70px;'>正确! </span>","null","","","","","","","","","","","","","","","","","","","","","","","feedback_test"
"","","","","","psychophysics","270","733834","0.0-10.0-0.0-0.0-0.0-0.65","634","","f","","","","","","","","","","","","","key","f","16.661123711340963","747","463","f","true","img/C_ambi40.png","朋友","same",""
"","","","","","html-keyboard-response","271","734338","0.0-10.0-0.0-0.0-0.0-1.65","null","<span style='color:GreenYellow; font-size: 70px;'>正确! </span>","null","","","","","","","","","","","","","","","","","","","","","","","feedback_test"
"","","","","","psychophysics","272","735945","0.0-10.0-0.0-0.0-0.0-0.66","594","","f","","","","","","","","","","","","","key","f","16.661094736842145","747","463","f","true","img/T_ambi40.png","をる","same",""
"","","","","","html-keyboard-response","273","736457","0.0-10.0-0.0-0.0-0.0-1.66","null","<span style='color:GreenYellow; font-size: 70px;'>正确! </span>","null","","","","","","","","","","","","","","","","","","","","","","","feedback_test"
"","","","","","psychophysics","274","738021","0.0-10.0-0.0-0.0-0.0-0.67","554","","f","","","","","","","","","","","","","key","f","16.66099999999998","747","463","f","true","img/T_ambi40.png","をる","same",""
"","","","","","html-keyboard-response","275","738529","0.0-10.0-0.0-0.0-0.0-1.67","null","<span style='color:GreenYellow; font-size: 70px;'>正确! </span>","null","","","","","","","","","","","","","","","","","","","","","","","feedback_test"
"","","","","","psychophysics","276","740199","0.0-10.0-0.0-0.0-0.0-0.68","666","","j","","","","","","","","","","","","","key","j","16.660939393940176","747","463","j","true","img/S_ambi40.png","朋友","same",""
"","","","","","html-keyboard-response","277","740707","0.0-10.0-0.0-0.0-0.0-1.68","null","<span style='color:GreenYellow; font-size: 70px;'>正确! </span>","null","","","","","","","","","","","","","","","","","","","","","","","feedback_test"
"","","","","","psychophysics","278","742295","0.0-10.0-0.0-0.0-0.0-0.69","580","","j","","","","","","","","","","","","","key","j","16.66103191489349","747","463","j","true","img/H_ambi40.png","自我","same",""
"","","","","","html-keyboard-response","279","742811","0.0-10.0-0.0-0.0-0.0-1.69","null","<span style='color:GreenYellow; font-size: 70px;'>正确! </span>","null","","","","","","","","","","","","","","","","","","","","","","","feedback_test"
"","","","","","psychophysics","280","744771","0.0-10.0-0.0-0.0-0.0-0.70","956","","j","","","","","","","","","","","","","key","j","16.66107692307709","747","463","j","true","img/S_ambi40.png","朋友","same",""
"","","","","","html-keyboard-response","281","745276","0.0-10.0-0.0-0.0-0.0-1.70","null","<span style='color:GreenYellow; font-size: 70px;'>正确! </span>","null","","","","","","","","","","","","","","","","","","","","","","","feedback_test"
"","","","","","psychophysics","282","747091","0.0-10.0-0.0-0.0-0.0-0.71","811","","f","","","","","","","","","","","","","key","f","16.661101851851626","747","463","f","true","img/C_ambi40.png","自我","same",""
"","","","","","html-keyboard-response","283","747600","0.0-10.0-0.0-0.0-0.0-1.71","null","<span style='color:GreenYellow; font-size: 70px;'>正确! </span>","null","","","","","","","","","","","","","","","","","","","","","","","feedback_test"
"","","","","","psychophysics","284","749438","0.0-10.0-0.0-0.0-0.0-0.72","829","","j","","","","","","","","","","","","","key","j","16.661357798165035","747","463","j","true","img/C_ambi40.png","生人","same",""
"","","","","","html-keyboard-response","285","749944","0.0-10.0-0.0-0.0-0.0-1.72","null","<span style='color:GreenYellow; font-size: 70px;'>正确! </span>","null","","","","","","","","","","","","","","","","","","","","","","","feedback_test"
"","","","","","psychophysics","286","751887","0.0-10.0-0.0-0.0-0.0-0.73","941","","j","","","","","","","","","","","","","key","j","16.660965517241557","747","463","j","true","img/H_ambi40.png","自我","same",""
"","","","","","html-keyboard-response","287","752389","0.0-10.0-0.0-0.0-0.0-1.73","null","<span style='color:GreenYellow; font-size: 70px;'>正确! </span>","null","","","","","","","","","","","","","","","","","","","","","","","feedback_test"
"","","","","","psychophysics","288","753943","0.0-10.0-0.0-0.0-0.0-0.74","548","","j","","","","","","","","","","","","","key","j","16.66095652173997","747","463","j","true","img/H_ambi40.png","自我","same",""
"","","","","","html-keyboard-response","289","754447","0.0-10.0-0.0-0.0-0.0-1.74","null","<span style='color:GreenYellow; font-size: 70px;'>正确! </span>","null","","","","","","","","","","","","","","","","","","","","","","","feedback_test"
"","","","","","psychophysics","290","756241","0.0-10.0-0.0-0.0-0.0-0.75","786","","j","","","","","","","","","","","","","key","j","16.661094339621553","747","463","j","true","img/S_ambi40.png","朋友","same",""
"","","","","","html-keyboard-response","291","756744","0.0-10.0-0.0-0.0-0.0-1.75","null","<span style='color:GreenYellow; font-size: 70px;'>正确! </span>","null","","","","","","","","","","","","","","","","","","","","","","","feedback_test"
"","","","","","psychophysics","292","758560","0.0-10.0-0.0-0.0-0.0-0.76","803","","f","","","","","","","","","","","","","key","f","16.661056074766424","747","463","f","true","img/H_ambi40.png","生人","same",""
"","","","","","html-keyboard-response","293","759067","0.0-10.0-0.0-0.0-0.0-1.76","null","<span style='color:GreenYellow; font-size: 70px;'>正确! </span>","null","","","","","","","","","","","","","","","","","","","","","","","feedback_test"
"","","","","","psychophysics","294","761295","0.0-10.0-0.0-0.0-0.0-0.77","1220","","f","","","","","","","","","","","","","key","f","16.661360902255716","747","463","f","true","img/H_ambi40.png","朋友","same",""
"","","","","","html-keyboard-response","295","761804","0.0-10.0-0.0-0.0-0.0-1.77","null","<span style='color:GreenYellow; font-size: 70px;'>正确! </span>","null","","","","","","","","","","","","","","","","","","","","","","","feedback_test"
"","","","","","psychophysics","296","763469","0.0-10.0-0.0-0.0-0.0-0.78","661","","j","","","","","","","","","","","","","key","j","16.661080808081252","747","463","j","true","img/H_ambi40.png","自我","same",""
"","","","","","html-keyboard-response","297","763985","0.0-10.0-0.0-0.0-0.0-1.78","null","<span style='color:GreenYellow; font-size: 70px;'>正确! </span>","null","","","","","","","","","","","","","","","","","","","","","","","feedback_test"
"","","","","","psychophysics","298","765716","0.0-10.0-0.0-0.0-0.0-0.79","724","","j","","","","","","","","","","","","","key","j","16.66089320388279","747","463","f","false","img/T_ambi40.png","をる","same",""
"","","","","","html-keyboard-response","299","766226","0.0-10.0-0.0-0.0-0.0-1.79","null","<span style='color:red; font-size: 70px;'>错误! </span>","null","","","","","","","","","","","","","","","","","","","","","","","feedback_test"
"","","","","","psychophysics","300","768076","0.0-10.0-0.0-0.0-0.0-0.80","839","","j","","","","","","","","","","","","","key","j","16.660818181817675","747","463","j","true","img/C_ambi40.png","生人","same",""
"","","","","","html-keyboard-response","301","768587","0.0-10.0-0.0-0.0-0.0-1.80","null","<span style='color:GreenYellow; font-size: 70px;'>正确! </span>","null","","","","","","","","","","","","","","","","","","","","","","","feedback_test"
"","","","","","psychophysics","302","770418","0.0-10.0-0.0-0.0-0.0-0.81","829","","f","","","","","","","","","","","","","key","f","16.660779816513976","747","463","f","true","img/S_ambi40.png","生人","same",""
"","","","","","html-keyboard-response","303","770923","0.0-10.0-0.0-0.0-0.0-1.81","null","<span style='color:GreenYellow; font-size: 70px;'>正确! </span>","null","","","","","","","","","","","","","","","","","","","","","","","feedback_test"
"","","","","","psychophysics","304","772681","0.0-10.0-0.0-0.0-0.0-0.82","749","","j","","","","","","","","","","","","","key","j","16.660769230768963","747","463","j","true","img/S_ambi40.png","朋友","same",""
"","","","","","html-keyboard-response","305","773192","0.0-10.0-0.0-0.0-0.0-1.82","null","<span style='color:GreenYellow; font-size: 70px;'>正确! </span>","null","","","","","","","","","","","","","","","","","","","","","","","feedback_test"
"","","","","","psychophysics","306","775353","0.0-10.0-0.0-0.0-0.0-0.83","1153","","f","","","","","","","","","","","","","key","f","16.66088281250086","747","463","f","true","img/S_ambi40.png","自我","same",""
"","","","","","html-keyboard-response","307","775869","0.0-10.0-0.0-0.0-0.0-1.83","null","<span style='color:GreenYellow; font-size: 70px;'>正确! </span>","null","","","","","","","","","","","","","","","","","","","","","","","feedback_test"
"","","","","","psychophysics","308","777732","0.0-10.0-0.0-0.0-0.0-0.84","861","","j","","","","","","","","","","","","","key","j","16.6607387387393","747","463","j","true","img/C_ambi40.png","生人","same",""
"","","","","","html-keyboard-response","309","778248","0.0-10.0-0.0-0.0-0.0-1.84","null","<span style='color:GreenYellow; font-size: 70px;'>正确! </span>","null","","","","","","","","","","","","","","","","","","","","","","","feedback_test"
"","","","","","psychophysics","310","779833","0.0-10.0-0.0-0.0-0.0-0.85","580","","f","","","","","","","","","","","","","key","f","16.661287234042167","747","463","f","true","img/T_ambi40.png","をる","same",""
"","","","","","html-keyboard-response","311","780334","0.0-10.0-0.0-0.0-0.0-1.85","null","<span style='color:GreenYellow; font-size: 70px;'>正确! </span>","null","","","","","","","","","","","","","","","","","","","","","","","feedback_test"
"","","","","","psychophysics","312","782377","0.0-10.0-0.0-0.0-0.0-0.86","1041","","j","","","","","","","","","","","","","key","j","16.660885245901852","747","463","f","false","img/C_ambi40.png","朋友","same",""
"","","","","","html-keyboard-response","313","782892","0.0-10.0-0.0-0.0-0.0-1.86","null","<span style='color:red; font-size: 70px;'>错误! </span>","null","","","","","","","","","","","","","","","","","","","","","","","feedback_test"
"","","","","","psychophysics","314","784885","0.0-10.0-0.0-0.0-0.0-0.87","983","","f","","","","","","","","","","","","","key","f","16.661203389830487","747","463","f","true","img/C_ambi40.png","自我","same",""
"","","","","","html-keyboard-response","315","785386","0.0-10.0-0.0-0.0-0.0-1.87","null","<span style='color:GreenYellow; font-size: 70px;'>正确! </span>","null","","","","","","","","","","","","","","","","","","","","","","","feedback_test"
"","","","","","psychophysics","316","787201","0.0-10.0-0.0-0.0-0.0-0.88","804","","j","","","","","","","","","","","","","key","j","16.66099074074063","747","463","j","true","img/S_ambi40.png","朋友","same",""
"","","","","","html-keyboard-response","317","787708","0.0-10.0-0.0-0.0-0.0-1.88","null","<span style='color:GreenYellow; font-size: 70px;'>正确! </span>","null","","","","","","","","","","","","","","","","","","","","","","","feedback_test"
"","","","","","psychophysics","318","789304","0.0-10.0-0.0-0.0-0.0-0.89","587","","f","","","","","","","","","","","","","key","f","16.66108421052708","747","463","f","true","img/T_ambi40.png","をる","same",""
"","","","","","html-keyboard-response","319","789811","0.0-10.0-0.0-0.0-0.0-1.89","null","<span style='color:GreenYellow; font-size: 70px;'>正确! </span>","null","","","","","","","","","","","","","","","","","","","","","","","feedback_test"
"","","","","","psychophysics","320","791483","0.0-10.0-0.0-0.0-0.0-0.90","666","","f","","","","","","","","","","","","","key","f","16.660898989899028","747","463","f","true","img/T_ambi40.png","をる","same",""
"","","","","","html-keyboard-response","321","791991","0.0-10.0-0.0-0.0-0.0-1.90","null","<span style='color:GreenYellow; font-size: 70px;'>正确! </span>","null","","","","","","","","","","","","","","","","","","","","","","","feedback_test"
"","","","","","psychophysics","322","793653","0.0-10.0-0.0-0.0-0.0-0.91","659","","f","","","","","","","","","","","","","key","f","16.66445454545413","747","463","j","false","img/C_ambi40.png","生人","same",""
"","","","","","html-keyboard-response","323","794163","0.0-10.0-0.0-0.0-0.0-1.91","null","<span style='color:red; font-size: 70px;'>错误! </span>","null","","","","","","","","","","","","","","","","","","","","","","","feedback_test"
"","","","","","psychophysics","324","795846","0.0-10.0-0.0-0.0-0.0-0.92","681","","f","","","","","","","","","","","","","key","f","16.660929999999937","747","463","f","true","img/C_ambi40.png","朋友","same",""
"","","","","","html-keyboard-response","325","796353","0.0-10.0-0.0-0.0-0.0-1.92","null","<span style='color:GreenYellow; font-size: 70px;'>正确! </span>","null","","","","","","","","","","","","","","","","","","","","","","","feedback_test"
"","","","","","psychophysics","326","798225","0.0-10.0-0.0-0.0-0.0-0.93","861","","f","","","","","","","","","","","","","key","f","16.66101801801821","747","463","f","true","img/S_ambi40.png","生人","same",""
"","","","","","html-keyboard-response","327","798738","0.0-10.0-0.0-0.0-0.0-1.93","null","<span style='color:GreenYellow; font-size: 70px;'>正确! </span>","null","","","","","","","","","","","","","","","","","","","","","","","feedback_test"
"","","","","","psychophysics","328","800664","0.0-10.0-0.0-0.0-0.0-0.94","917","","j","","","","","","","","","","","","","key","j","16.661191304347923","747","463","j","true","img/S_ambi40.png","朋友","same",""
"","","","","","html-keyboard-response","329","801178","0.0-10.0-0.0-0.0-0.0-1.94","null","<span style='color:GreenYellow; font-size: 70px;'>正确! </span>","null","","","","","","","","","","","","","","","","","","","","","","","feedback_test"
"","","","","","psychophysics","330","802789","0.0-10.0-0.0-0.0-0.0-0.95","610","","f","","","","","","","","","","","","","key","f","16.522810526315958","747","463","j","false","img/C_ambi40.png","生人","same",""
"","","","","","html-keyboard-response","331","803291","0.0-10.0-0.0-0.0-0.0-1.95","null","<span style='color:red; font-size: 70px;'>错误! </span>","null","","","","","","","","","","","","","","","","","","","","","","","feedback_test"
"","","","","","psychophysics","332","805794","0.0-10.0-0.0-0.0-0.0-0.96","null","","null","","","","","","","","","","","","","key","null","16.661093959730938","747","463","f","false","img/H_ambi40.png","生人","same",""
"","","","","","html-keyboard-response","333","806299","0.0-10.0-0.0-0.0-0.0-1.96","null","<span class='add_' style='color:yellow; font-size: 70px;'> 太慢! </span>","null","","","","","","","","","","","","","","","","","","","","","","","feedback_test"
"","","","","","psychophysics","334","808336","0.0-10.0-0.0-0.0-0.0-0.97","1026","","f","","","","","","","","","","","","","key","f","16.661099173552895","747","463","f","true","img/C_ambi40.png","自我","same",""
"","","","","","html-keyboard-response","335","808847","0.0-10.0-0.0-0.0-0.0-1.97","null","<span style='color:GreenYellow; font-size: 70px;'>正确! </span>","null","","","","","","","","","","","","","","","","","","","","","","","feedback_test"
"","","","","","psychophysics","336","810427","0.0-10.0-0.0-0.0-0.0-0.98","572","","f","","","","","","","","","","","","","key","f","16.6609680851057","747","463","f","true","img/T_ambi40.png","をる","same",""
"","","","","","html-keyboard-response","337","810937","0.0-10.0-0.0-0.0-0.0-1.98","null","<span style='color:GreenYellow; font-size: 70px;'>正确! </span>","null","","","","","","","","","","","","","","","","","","","","","","","feedback_test"
"","","","","","psychophysics","338","812694","0.0-10.0-0.0-0.0-0.0-0.99","752","","f","","","","","","","","","","","","","key","f","16.661266666666293","747","463","f","true","img/S_ambi40.png","自我","same",""
"","","","","","html-keyboard-response","339","813206","0.0-10.0-0.0-0.0-0.0-1.99","null","<span style='color:GreenYellow; font-size: 70px;'>正确! </span>","null","","","","","","","","","","","","","","","","","","","","","","","feedback_test"
"","","","","","psychophysics","340","815086","0.0-10.0-0.0-0.0-0.0-0.100","878","","j","","","","","","","","","","","","","key","j","16.660473214285698","747","463","j","true","img/S_ambi40.png","朋友","same",""
"","","","","","html-keyboard-response","341","815596","0.0-10.0-0.0-0.0-0.0-1.100","null","<span style='color:GreenYellow; font-size: 70px;'>正确! </span>","null","","","","","","","","","","","","","","","","","","","","","","","feedback_test"
"","","","","","psychophysics","342","817427","0.0-10.0-0.0-0.0-0.0-0.101","822","","f","","","","","","","","","","","","","key","f","16.661137614679017","747","463","f","true","img/H_ambi40.png","朋友","same",""
"","","","","","html-keyboard-response","343","817929","0.0-10.0-0.0-0.0-0.0-1.101","null","<span style='color:GreenYellow; font-size: 70px;'>正确! </span>","null","","","","","","","","","","","","","","","","","","","","","","","feedback_test"
"","","","","","psychophysics","344","819642","0.0-10.0-0.0-0.0-0.0-0.102","709","","j","","","","","","","","","","","","","key","j","16.661058823530123","747","463","j","true","img/H_ambi40.png","自我","same",""
"","","","","","html-keyboard-response","345","820153","0.0-10.0-0.0-0.0-0.0-1.102","null","<span style='color:GreenYellow; font-size: 70px;'>正确! </span>","null","","","","","","","","","","","","","","","","","","","","","","","feedback_test"
"","","","","","psychophysics","346","821930","0.0-10.0-0.0-0.0-0.0-0.103","774","","j","","","","","","","","","","","","","key","j","16.660858490565825","747","463","j","true","img/H_ambi40.png","自我","same",""
"","","","","","html-keyboard-response","347","822441","0.0-10.0-0.0-0.0-0.0-1.103","null","<span style='color:GreenYellow; font-size: 70px;'>正确! </span>","null","","","","","","","","","","","","","","","","","","","","","","","feedback_test"
"","","","","","psychophysics","348","824061","0.0-10.0-0.0-0.0-0.0-0.104","607","","f","","","","","","","","","","","","","key","f","16.66109374999966","747","463","j","false","img/C_ambi40.png","生人","same",""
"","","","","","html-keyboard-response","349","824571","0.0-10.0-0.0-0.0-0.0-1.104","null","<span style='color:red; font-size: 70px;'>错误! </span>","null","","","","","","","","","","","","","","","","","","","","","","","feedback_test"
"","","","","","psychophysics","350","826507","0.0-10.0-0.0-0.0-0.0-0.105","935","","j","","","","","","","","","","","","","key","j","16.540226086956935","747","463","j","true","img/S_ambi40.png","朋友","same",""
"","","","","","html-keyboard-response","351","827017","0.0-10.0-0.0-0.0-0.0-1.105","null","<span style='color:GreenYellow; font-size: 70px;'>正确! </span>","null","","","","","","","","","","","","","","","","","","","","","","","feedback_test"
"","","","","","psychophysics","352","828858","0.0-10.0-0.0-0.0-0.0-0.106","838","","j","","","","","","","","","","","","","key","j","16.66085454545365","747","463","j","true","img/H_ambi40.png","自我","same",""
"","","","","","html-keyboard-response","353","829361","0.0-10.0-0.0-0.0-0.0-1.106","null","<span style='color:GreenYellow; font-size: 70px;'>正确! </span>","null","","","","","","","","","","","","","","","","","","","","","","","feedback_test"
"","","","","","psychophysics","354","831220","0.0-10.0-0.0-0.0-0.0-0.107","851","","f","","","","","","","","","","","","","key","f","16.66098198198151","747","463","f","true","img/T_ambi40.png","をる","same",""
"","","","","","html-keyboard-response","355","831729","0.0-10.0-0.0-0.0-0.0-1.107","null","<span style='color:GreenYellow; font-size: 70px;'>正确! </span>","null","","","","","","","","","","","","","","","","","","","","","","","feedback_test"
"","","","","","html-keyboard-response","356","838470","0.0-10.0-0.0-0.0-1.0","6740","<style>.context{color:white; font-size: 35px; line-height:40px}</style>                          <div><p class='context'>您正确回答了86% 的试次。</p><p class='context'>您的平均反应时为845毫秒。</p><p class='context'>请按任意键进入休息</p></div>","j","","","","","","","","","","","","","","","","","","","","","","",""
"","","","","","html-button-response","357","901346","0.0-10.0-0.0-0.0-2.0","62874","
                    <p>您当前还剩余5组实验</p>
                    <p>现在是休息时间，当您结束休息后，您可以点击 结束休息 按钮 继续</p>
                    <p>建议休息时间还剩余<span id=""iii"">60</span>秒</p>","0","","","","","","","","","","","","","","","","","","","","","","",""
"","","","","","psychophysics","358","903796","0.0-10.0-0.0-0.0-0.1-0.108","1441","","j","","","","","","","","","","","","","key","j","16.66101369862955","747","463","j","true","img/S_ambi40.png","朋友","same",""
"","","","","","html-keyboard-response","359","904298","0.0-10.0-0.0-0.0-0.1-1.108","null","<span style='color:GreenYellow; font-size: 70px;'>正确! </span>","null","","","","","","","","","","","","","","","","","","","","","","","feedback_test"
"","","","","","psychophysics","360","906001","0.0-10.0-0.0-0.0-0.1-0.109","691","","f","","","","","","","","","","","","","key","f","16.66094059405945","747","463","f","true","img/T_ambi40.png","をる","same",""
"","","","","","html-keyboard-response","361","906509","0.0-10.0-0.0-0.0-0.1-1.109","null","<span style='color:GreenYellow; font-size: 70px;'>正确! </span>","null","","","","","","","","","","","","","","","","","","","","","","","feedback_test"
"","","","","","psychophysics","362","908350","0.0-10.0-0.0-0.0-0.1-0.110","825","","j","","","","","","","","","","","","","key","j","16.523522935779937","747","463","j","true","img/C_ambi40.png","生人","same",""
"","","","","","html-keyboard-response","363","908853","0.0-10.0-0.0-0.0-0.1-1.110","null","<span style='color:GreenYellow; font-size: 70px;'>正确! </span>","null","","","","","","","","","","","","","","","","","","","","","","","feedback_test"
"","","","","","psychophysics","364","910373","0.0-10.0-0.0-0.0-0.1-0.111","514","","f","","","","","","","","","","","","","key","f","16.66123333333267","747","463","f","true","img/T_ambi40.png","をる","same",""
"","","","","","html-keyboard-response","365","910883","0.0-10.0-0.0-0.0-0.1-1.111","null","<span style='color:GreenYellow; font-size: 70px;'>正确! </span>","null","","","","","","","","","","","","","","","","","","","","","","","feedback_test"
"","","","","","psychophysics","366","912430","0.0-10.0-0.0-0.0-0.1-0.112","541","","j","","","","","","","","","","","","","key","j","16.66126086956533","747","463","f","false","img/C_ambi40.png","自我","same",""
"","","","","","html-keyboard-response","367","912931","0.0-10.0-0.0-0.0-0.1-1.112","null","<span style='color:red; font-size: 70px;'>错误! </span>","null","","","","","","","","","","","","","","","","","","","","","","","feedback_test"
"","","","","","psychophysics","368","914605","0.0-10.0-0.0-0.0-0.1-0.113","672","","j","","","","","","","","","","","","","key","j","16.660979797980147","747","463","j","true","img/S_ambi40.png","朋友","same",""
"","","","","","html-keyboard-response","369","915117","0.0-10.0-0.0-0.0-0.1-1.113","null","<span style='color:GreenYellow; font-size: 70px;'>正确! </span>","null","","","","","","","","","","","","","","","","","","","","","","","feedback_test"
"","","","","","psychophysics","370","916724","0.0-10.0-0.0-0.0-0.1-0.114","601","","f","","","","","","","","","","","","","key","f","16.661260416666966","747","463","f","true","img/C_ambi40.png","朋友","same",""
"","","","","","html-keyboard-response","371","917235","0.0-10.0-0.0-0.0-0.1-1.114","null","<span style='color:GreenYellow; font-size: 70px;'>正确! </span>","null","","","","","","","","","","","","","","","","","","","","","","","feedback_test"
"","","","","","psychophysics","372","919289","0.0-10.0-0.0-0.0-0.1-0.115","1049","","j","","","","","","","","","","","","","key","j","16.660934426229197","747","463","j","true","img/C_ambi40.png","生人","same",""
"","","","","","html-keyboard-response","373","919805","0.0-10.0-0.0-0.0-0.1-1.115","null","<span style='color:GreenYellow; font-size: 70px;'>正确! </span>","null","","","","","","","","","","","","","","","","","","","","","","","feedback_test"
"","","","","","psychophysics","374","921700","0.0-10.0-0.0-0.0-0.1-0.116","884","","j","","","","","","","","","","","","","key","j","16.660767857143323","747","463","j","true","img/S_ambi40.png","朋友","same",""
"","","","","","html-keyboard-response","375","922210","0.0-10.0-0.0-0.0-0.1-1.116","null","<span style='color:GreenYellow; font-size: 70px;'>正确! </span>","null","","","","","","","","","","","","","","","","","","","","","","","feedback_test"
"","","","","","psychophysics","376","923861","0.0-10.0-0.0-0.0-0.1-0.117","640","","j","","","","","","","","","","","","","key","j","16.660836734693753","747","463","j","true","img/H_ambi40.png","自我","same",""
"","","","","","html-keyboard-response","377","924376","0.0-10.0-0.0-0.0-0.1-1.117","null","<span style='color:GreenYellow; font-size: 70px;'>正确! </span>","null","","","","","","","","","","","","","","","","","","","","","","","feedback_test"
"","","","","","psychophysics","378","926106","0.0-10.0-0.0-0.0-0.1-0.118","719","","f","","","","","","","","","","","","","key","f","16.661145631067942","747","463","f","true","img/S_ambi40.png","生人","same",""
"","","","","","html-keyboard-response","379","926618","0.0-10.0-0.0-0.0-0.1-1.118","null","<span style='color:GreenYellow; font-size: 70px;'>正确! </span>","null","","","","","","","","","","","","","","","","","","","","","","","feedback_test"
"","","","","","psychophysics","380","928606","0.0-10.0-0.0-0.0-0.1-0.119","987","","f","","","","","","","","","","","","","key","f","16.66064705882425","747","463","f","true","img/H_ambi40.png","朋友","same",""
"","","","","","html-keyboard-response","381","929122","0.0-10.0-0.0-0.0-0.1-1.119","null","<span style='color:GreenYellow; font-size: 70px;'>正确! </span>","null","","","","","","","","","","","","","","","","","","","","","","","feedback_test"
"","","","","","psychophysics","382","930837","0.0-10.0-0.0-0.0-0.1-0.120","701","","j","","","","","","","","","","","","","key","j","16.661088235293946","747","463","j","true","img/H_ambi40.png","自我","same",""
"","","","","","html-keyboard-response","383","931352","0.0-10.0-0.0-0.0-0.1-1.120","null","<span style='color:GreenYellow; font-size: 70px;'>正确! </span>","null","","","","","","","","","","","","","","","","","","","","","","","feedback_test"
"","","","","","psychophysics","384","932941","0.0-10.0-0.0-0.0-0.1-0.121","579","","j","","","","","","","","","","","","","key","j","16.661095744681276","747","463","j","true","img/H_ambi40.png","自我","same",""
"","","","","","html-keyboard-response","385","933450","0.0-10.0-0.0-0.0-0.1-1.121","null","<span style='color:GreenYellow; font-size: 70px;'>正确! </span>","null","","","","","","","","","","","","","","","","","","","","","","","feedback_test"
"","","","","","psychophysics","386","935103","0.0-10.0-0.0-0.0-0.1-0.122","645","","f","","","","","","","","","","","","","key","f","16.660938775510175","747","463","f","true","img/S_ambi40.png","自我","same",""
"","","","","","html-keyboard-response","387","935614","0.0-10.0-0.0-0.0-0.1-1.122","null","<span style='color:GreenYellow; font-size: 70px;'>正确! </span>","null","","","","","","","","","","","","","","","","","","","","","","","feedback_test"
"","","","","","psychophysics","388","937353","0.0-10.0-0.0-0.0-0.1-0.123","737","","j","","","","","","","","","","","","","key","j","16.660730769230913","747","463","j","true","img/C_ambi40.png","生人","same",""
"","","","","","html-keyboard-response","389","937869","0.0-10.0-0.0-0.0-0.1-1.123","null","<span style='color:GreenYellow; font-size: 70px;'>正确! </span>","null","","","","","","","","","","","","","","","","","","","","","","","feedback_test"
"","","","","","psychophysics","390","939469","0.0-10.0-0.0-0.0-0.1-0.124","592","","f","","","","","","","","","","","","","key","f","16.66098947368415","747","463","f","true","img/T_ambi40.png","をる","same",""
"","","","","","html-keyboard-response","391","939971","0.0-10.0-0.0-0.0-0.1-1.124","null","<span style='color:GreenYellow; font-size: 70px;'>正确! </span>","null","","","","","","","","","","","","","","","","","","","","","","","feedback_test"
"","","","","","psychophysics","392","941714","0.0-10.0-0.0-0.0-0.1-0.125","733","","f","","","","","","","","","","","","","key","f","16.660961165048807","747","463","f","true","img/H_ambi40.png","生人","same",""
"","","","","","html-keyboard-response","393","942228","0.0-10.0-0.0-0.0-0.1-1.125","null","<span style='color:GreenYellow; font-size: 70px;'>正确! </span>","null","","","","","","","","","","","","","","","","","","","","","","","feedback_test"
"","","","","","psychophysics","394","943773","0.0-10.0-0.0-0.0-0.1-0.126","543","","f","","","","","","","","","","","","","key","f","16.66065217391335","747","463","f","true","img/T_ambi40.png","をる","same",""
"","","","","","html-keyboard-response","395","944285","0.0-10.0-0.0-0.0-0.1-1.126","null","<span style='color:GreenYellow; font-size: 70px;'>正确! </span>","null","","","","","","","","","","","","","","","","","","","","","","","feedback_test"
"","","","","","psychophysics","396","946060","0.0-10.0-0.0-0.0-0.1-0.127","769","","j","","","","","","","","","","","","","key","j","16.6609523809526","747","463","j","true","img/S_ambi40.png","朋友","same",""
"","","","","","html-keyboard-response","397","946565","0.0-10.0-0.0-0.0-0.1-1.127","null","<span style='color:GreenYellow; font-size: 70px;'>正确! </span>","null","","","","","","","","","","","","","","","","","","","","","","","feedback_test"
"","","","","","psychophysics","398","948083","0.0-10.0-0.0-0.0-0.1-0.128","509","","j","","","","","","","","","","","","","key","j","16.66102222222188","747","463","j","true","img/H_ambi40.png","自我","same",""
"","","","","","html-keyboard-response","399","948592","0.0-10.0-0.0-0.0-0.1-1.128","null","<span style='color:GreenYellow; font-size: 70px;'>正确! </span>","null","","","","","","","","","","","","","","","","","","","","","","","feedback_test"
"","","","","","psychophysics","400","950091","0.0-10.0-0.0-0.0-0.1-0.129","496","","j","","","","","","","","","","","","","key","j","16.660797752808843","747","463","j","true","img/C_ambi40.png","生人","same",""
"","","","","","html-keyboard-response","401","950594","0.0-10.0-0.0-0.0-0.1-1.129","null","<span style='color:GreenYellow; font-size: 70px;'>正确! </span>","null","","","","","","","","","","","","","","","","","","","","","","","feedback_test"
"","","","","","psychophysics","402","952269","0.0-10.0-0.0-0.0-0.1-0.130","675","","j","","","","","","","","","","","","","key","j","16.524656565656482","747","463","j","true","img/H_ambi40.png","自我","same",""
"","","","","","html-keyboard-response","403","952780","0.0-10.0-0.0-0.0-0.1-1.130","null","<span style='color:GreenYellow; font-size: 70px;'>正确! </span>","null","","","","","","","","","","","","","","","","","","","","","","","feedback_test"
"","","","","","psychophysics","404","954491","0.0-10.0-0.0-0.0-0.1-0.131","700","","f","","","","","","","","","","","","","key","f","16.661019801980547","747","463","f","true","img/T_ambi40.png","をる","same",""
"","","","","","html-keyboard-response","405","955001","0.0-10.0-0.0-0.0-0.1-1.131","null","<span style='color:GreenYellow; font-size: 70px;'>正确! </span>","null","","","","","","","","","","","","","","","","","","","","","","","feedback_test"
"","","","","","psychophysics","406","956853","0.0-10.0-0.0-0.0-0.1-0.132","845","","f","","","","","","","","","","","","","key","f","16.661172727272128","747","463","f","true","img/C_ambi40.png","自我","same",""
"","","","","","html-keyboard-response","407","957362","0.0-10.0-0.0-0.0-0.1-1.132","null","<span style='color:GreenYellow; font-size: 70px;'>正确! </span>","null","","","","","","","","","","","","","","","","","","","","","","","feedback_test"
"","","","","","psychophysics","408","959158","0.0-10.0-0.0-0.0-0.1-0.133","788","","j","","","","","","","","","","","","","key","j","16.66099999999992","747","463","j","true","img/C_ambi40.png","生人","same",""
"","","","","","html-keyboard-response","409","959664","0.0-10.0-0.0-0.0-0.1-1.133","null","<span style='color:GreenYellow; font-size: 70px;'>正确! </span>","null","","","","","","","","","","","","","","","","","","","","","","","feedback_test"
"","","","","","psychophysics","410","961434","0.0-10.0-0.0-0.0-0.1-0.134","760","","f","","","","","","","","","","","","","key","f","16.661142857143258","747","463","f","true","img/H_ambi40.png","朋友","same",""
"","","","","","html-keyboard-response","411","961936","0.0-10.0-0.0-0.0-0.1-1.134","null","<span style='color:GreenYellow; font-size: 70px;'>正确! </span>","null","","","","","","","","","","","","","","","","","","","","","","","feedback_test"
"","","","","","psychophysics","412","963864","0.0-10.0-0.0-0.0-0.1-0.135","924","","f","","","","","","","","","","","","","key","f","16.661043478261032","747","463","f","true","img/S_ambi40.png","生人","same",""
"","","","","","html-keyboard-response","413","964365","0.0-10.0-0.0-0.0-0.1-1.135","null","<span style='color:GreenYellow; font-size: 70px;'>正确! </span>","null","","","","","","","","","","","","","","","","","","","","","","","feedback_test"
"","","","","","psychophysics","414","966003","0.0-10.0-0.0-0.0-0.1-0.136","634","","f","","","","","","","","","","","","","key","f","16.661185567010406","747","463","j","false","img/S_ambi40.png","朋友","same",""
"","","","","","html-keyboard-response","415","966506","0.0-10.0-0.0-0.0-0.1-1.136","null","<span style='color:red; font-size: 70px;'>错误! </span>","null","","","","","","","","","","","","","","","","","","","","","","","feedback_test"
"","","","","","psychophysics","416","968144","0.0-10.0-0.0-0.0-0.1-0.137","638","","f","","","","","","","","","","","","","key","f","16.66093814432904","747","463","f","true","img/C_ambi40.png","朋友","same",""
"","","","","","html-keyboard-response","417","968654","0.0-10.0-0.0-0.0-0.1-1.137","null","<span style='color:GreenYellow; font-size: 70px;'>正确! </span>","null","","","","","","","","","","","","","","","","","","","","","","","feedback_test"
"","","","","","psychophysics","418","970219","0.0-10.0-0.0-0.0-0.1-0.138","564","","f","","","","","","","","","","","","","key","f","16.51082608695699","747","463","f","true","img/T_ambi40.png","をる","same",""
"","","","","","html-keyboard-response","419","970728","0.0-10.0-0.0-0.0-0.1-1.138","null","<span style='color:GreenYellow; font-size: 70px;'>正确! </span>","null","","","","","","","","","","","","","","","","","","","","","","","feedback_test"
"","","","","","psychophysics","420","972574","0.0-10.0-0.0-0.0-0.1-0.139","837","","f","","","","","","","","","","","","","key","f","16.66110000000018","747","463","f","true","img/H_ambi40.png","生人","same",""
"","","","","","html-keyboard-response","421","973080","0.0-10.0-0.0-0.0-0.1-1.139","null","<span style='color:GreenYellow; font-size: 70px;'>正确! </span>","null","","","","","","","","","","","","","","","","","","","","","","","feedback_test"
"","","","","","psychophysics","422","974839","0.0-10.0-0.0-0.0-0.1-0.140","753","","j","","","","","","","","","","","","","key","j","16.661038095237952","747","463","j","true","img/H_ambi40.png","自我","same",""
"","","","","","html-keyboard-response","423","975352","0.0-10.0-0.0-0.0-0.1-1.140","null","<span style='color:GreenYellow; font-size: 70px;'>正确! </span>","null","","","","","","","","","","","","","","","","","","","","","","","feedback_test"
"","","","","","psychophysics","424","977045","0.0-10.0-0.0-0.0-0.1-0.141","692","","f","","","","","","","","","","","","","key","f","16.512870000000113","747","463","f","true","img/S_ambi40.png","自我","same",""
"","","","","","html-keyboard-response","425","977560","0.0-10.0-0.0-0.0-0.1-1.141","null","<span style='color:GreenYellow; font-size: 70px;'>正确! </span>","null","","","","","","","","","","","","","","","","","","","","","","","feedback_test"
"","","","","","psychophysics","426","979271","0.0-10.0-0.0-0.0-0.1-0.142","703","","j","","","","","","","","","","","","","key","j","16.661029411765163","747","463","j","true","img/C_ambi40.png","生人","same",""
"","","","","","html-keyboard-response","427","979786","0.0-10.0-0.0-0.0-0.1-1.142","null","<span style='color:GreenYellow; font-size: 70px;'>正确! </span>","null","","","","","","","","","","","","","","","","","","","","","","","feedback_test"
"","","","","","psychophysics","428","981588","0.0-10.0-0.0-0.0-0.1-0.143","787","","j","","","","","","","","","","","","","key","j","16.660999999999582","747","463","j","true","img/S_ambi40.png","朋友","same",""
"","","","","","html-keyboard-response","429","982098","0.0-10.0-0.0-0.0-0.1-1.143","null","<span style='color:GreenYellow; font-size: 70px;'>正确! </span>","null","","","","","","","","","","","","","","","","","","","","","","","feedback_test"
"","","","","","psychophysics","430","984121","0.0-10.0-0.0-0.0-0.1-0.144","1021","","f","","","","","","","","","","","","","key","f","16.66070247933938","747","463","f","true","img/H_ambi40.png","生人","same",""
"","","","","","html-keyboard-response","431","984631","0.0-10.0-0.0-0.0-0.1-1.144","null","<span style='color:GreenYellow; font-size: 70px;'>正确! </span>","null","","","","","","","","","","","","","","","","","","","","","","","feedback_test"
"","","","","","psychophysics","432","986905","0.0-10.0-0.0-0.0-0.1-0.145","1273","","f","","","","","","","","","","","","","key","f","16.558851851852335","747","463","f","true","img/H_ambi40.png","朋友","same",""
"","","","","","html-keyboard-response","433","987416","0.0-10.0-0.0-0.0-0.1-1.145","null","<span style='color:GreenYellow; font-size: 70px;'>正确! </span>","null","","","","","","","","","","","","","","","","","","","","","","","feedback_test"
"","","","","","psychophysics","434","989018","0.0-10.0-0.0-0.0-0.1-0.146","591","","f","","","","","","","","","","","","","key","f","16.660768421053103","747","463","f","true","img/T_ambi40.png","をる","same",""
"","","","","","html-keyboard-response","435","989531","0.0-10.0-0.0-0.0-0.1-1.146","null","<span style='color:GreenYellow; font-size: 70px;'>正确! </span>","null","","","","","","","","","","","","","","","","","","","","","","","feedback_test"
"","","","","","psychophysics","436","991640","0.0-10.0-0.0-0.0-0.1-0.147","1100","","j","","","","","","","","","","","","","key","j","16.661248000000604","747","463","j","true","img/S_ambi40.png","朋友","same",""
"","","","","","html-keyboard-response","437","992150","0.0-10.0-0.0-0.0-0.1-1.147","null","<span style='color:GreenYellow; font-size: 70px;'>正确! </span>","null","","","","","","","","","","","","","","","","","","","","","","","feedback_test"
"","","","","","psychophysics","438","994065","0.0-10.0-0.0-0.0-0.1-0.148","909","","j","","","","","","","","","","","","","key","j","16.661052631578826","747","463","j","true","img/H_ambi40.png","自我","same",""
"","","","","","html-keyboard-response","439","994572","0.0-10.0-0.0-0.0-0.1-1.148","null","<span style='color:GreenYellow; font-size: 70px;'>正确! </span>","null","","","","","","","","","","","","","","","","","","","","","","","feedback_test"
"","","","","","psychophysics","440","996173","0.0-10.0-0.0-0.0-0.1-0.149","594","","f","","","","","","","","","","","","","key","f","16.661021052631796","747","463","f","true","img/S_ambi40.png","自我","same",""
"","","","","","html-keyboard-response","441","996678","0.0-10.0-0.0-0.0-0.1-1.149","null","<span style='color:GreenYellow; font-size: 70px;'>正确! </span>","null","","","","","","","","","","","","","","","","","","","","","","","feedback_test"
