"success","timeout","failed_images","failed_audio","failed_video","trial_type","trial_index","time_elapsed","internal_node_id","rt","stimulus","response","value","item_width_mm","item_height_mm","item_width_px","px2mm","view_dist_mm","item_width_deg","px2deg","scale_factor","win_width_deg","win_height_deg","view_history","response_type","key_press","avg_frame_time","center_x","center_y","correct_response","correct","Image","word","condition","screen_id"
"true","false","[]","[]","[]","preload","0","7","0.0-0.0","","","","","","","","","","","","","","","","","","","","","","","","","",""
"","","","","","html-keyboard-response","1","2674","0.0-1.0","2667","
     <p>您好，欢迎参加本次实验。</p>
     <p>为充分保障您的权利，请确保您已经知晓并同意《参与实验同意书》以及《数据公开知情同意书》。</p>
     <p>如果您未见过上述内容，请咨询实验员。</p>
     <p>如果您选择继续实验，则表示您已经清楚两份知情同意书的内容并同意。</p>
     <p> <div style = ""color: green""><按任意键至下页></div> </p>
     ","arrowdown","","","","","","","","","","","","","","","","","","","","","","",""
"","","","","","html-keyboard-response","2","3293","0.0-2.0","619","
     <p>本实验首先需要您填写一些基本个人信息。</p>
     <p> <div style = ""color: green""><按任意键至下页></div></p>
     ","arrowdown","","","","","","","","","","","","","","","","","","","","","","",""
"","","","","","call-function","3","3294","0.0-3.0-0.0","","","","","","","","","","","","","","","","","","","","","","","","","",""
"","","","","","survey-html-form","4","6709","0.0-3.0-1.0","3414","","{""Q0"":""16""}","","","","","","","","","","","","","","","","","","","","","","",""
"","","","","","html-button-response","5","7581","0.0-3.0-2.0","871","<p style = 'color : white'>您的性别</p>","0","","","","","","","","","","","","","","","","","","","","","","",""
"","","","","","survey-html-form","6","10725","0.0-3.0-3.0","3144","","{""Q0"":""2004""}","","","","","","","","","","","","","","","","","","","","","","",""
"","","","","","survey-html-form","7","13245","0.0-3.0-4.0","2519","","{""Q0"":""5""}","","","","","","","","","","","","","","","","","","","","","","",""
"","","","","","virtual-chinrest","8","156326","0.0-4.0","143079","","","","85.6","53.98","479.08465155729584","5.596783312585232","510.67","9.581693031145916","50","0.8933703023228946","32.04","16.82","","","","","","","","","","","",""
"true","","","","","fullscreen","9","159270","0.0-5.0","","","","","","","","","","","","","","","","","","","","","","","","","",""
"","","","","","instructions","10","260990","0.0-6.0","101719","","","","","","","","","","","","","","[{""page_index"":0,""viewing_time"":12143},{""page_index"":1,""viewing_time"":58984},{""page_index"":2,""viewing_time"":5928},{""page_index"":3,""viewing_time"":11976},{""page_index"":2,""viewing_time"":416},{""page_index"":1,""viewing_time"":8264},{""page_index"":2,""viewing_time"":2640},{""page_index"":3,""viewing_time"":1368}]","","","","","","","","","","",""
"","","","","","psychophysics","11","263501","0.0-7.0-0.0","null","","null","","","","","","","","","","","","","key","null","6.122488943488951","853.3333333333334","476","f","false","img/C_ambi40.png","生人","prac",""
"","","","","","html-keyboard-response","12","264010","0.0-7.0-1.0","null","<span class='add_' style='color:yellow; font-size: 70px;'> 太慢! </span>","null","","","","","","","","","","","","","","","","","","","","","","","feedback_test"
"","","","","","psychophysics","13","266512","0.0-7.0-0.1","null","","null","","","","","","","","","","","","","key","null","6.058338199513415","853.3333333333334","476","j","false","img/H_ambi40.png","自我","prac",""
"","","","","","html-keyboard-response","14","267017","0.0-7.0-1.1","null","<span class='add_' style='color:yellow; font-size: 70px;'> 太慢! </span>","null","","","","","","","","","","","","","","","","","","","","","","","feedback_test"
"","","","","","psychophysics","15","269213","0.0-7.0-0.2","1191","","j","","","","","","","","","","","","","key","j","6.050141274238294","853.3333333333334","476","j","true","img/C_ambi40.png","自我","prac",""
"","","","","","html-keyboard-response","16","269724","0.0-7.0-1.2","null","<span style='color:GreenYellow; font-size: 70px;'>正确! </span>","null","","","","","","","","","","","","","","","","","","","","","","","feedback_test"
"","","","","","psychophysics","17","271798","0.0-7.0-0.3","1068","","f","","","","","","","","","","","","","key","f","6.060026392961997","853.3333333333334","476","j","false","img/H_ambi40.png","生人","prac",""
"","","","","","html-keyboard-response","18","272313","0.0-7.0-1.3","null","<span style='color:red; font-size: 70px;'>错误! </span>","null","","","","","","","","","","","","","","","","","","","","","","","feedback_test"
"","","","","","psychophysics","19","274661","0.0-7.0-0.4","1343","","f","","","","","","","","","","","","","key","f","6.060054404145032","853.3333333333334","476","f","true","img/T_ambi40.png","をる","prac",""
"","","","","","html-keyboard-response","20","275167","0.0-7.0-1.4","null","<span style='color:GreenYellow; font-size: 70px;'>正确! </span>","null","","","","","","","","","","","","","","","","","","","","","","","feedback_test"
"","","","","","psychophysics","21","277670","0.0-7.0-0.5","null","","null","","","","","","","","","","","","","key","null","6.060220873786376","853.3333333333334","476","j","false","img/S_ambi40.png","生人","prac",""
"","","","","","html-keyboard-response","22","278181","0.0-7.0-1.5","null","<span class='add_' style='color:yellow; font-size: 70px;'> 太慢! </span>","null","","","","","","","","","","","","","","","","","","","","","","","feedback_test"
"","","","","","psychophysics","23","280365","0.0-7.0-0.6","1181","","j","","","","","","","","","","","","","key","j","6.06077715877426","853.3333333333334","476","f","false","img/S_ambi40.png","自我","prac",""
"","","","","","html-keyboard-response","24","280874","0.0-7.0-1.6","null","<span style='color:red; font-size: 70px;'>错误! </span>","null","","","","","","","","","","","","","","","","","","","","","","","feedback_test"
"","","","","","psychophysics","25","283377","0.0-7.0-0.7","null","","null","","","","","","","","","","","","","key","null","6.060155339805789","853.3333333333334","476","f","false","img/H_ambi40.png","朋友","prac",""
"","","","","","html-keyboard-response","26","283892","0.0-7.0-1.7","null","<span class='add_' style='color:yellow; font-size: 70px;'> 太慢! </span>","null","","","","","","","","","","","","","","","","","","","","","","","feedback_test"
"","","","","","psychophysics","27","285710","0.0-7.0-0.8","817","","f","","","","","","","","","","","","","key","f","6.0604013377926345","853.3333333333334","476","f","true","img/T_ambi40.png","をる","prac",""
"","","","","","html-keyboard-response","28","286224","0.0-7.0-1.8","null","<span style='color:GreenYellow; font-size: 70px;'>正确! </span>","null","","","","","","","","","","","","","","","","","","","","","","","feedback_test"
"","","","","","psychophysics","29","288730","0.0-7.0-0.9","null","","null","","","","","","","","","","","","","key","null","6.060111380145281","853.3333333333334","476","f","false","img/H_ambi40.png","朋友","prac",""
"","","","","","html-keyboard-response","30","289236","0.0-7.0-1.9","null","<span class='add_' style='color:yellow; font-size: 70px;'> 太慢! </span>","null","","","","","","","","","","","","","","","","","","","","","","","feedback_test"
"","","","","","psychophysics","31","291093","0.0-7.0-0.10","854","","f","","","","","","","","","","","","","key","f","6.060101639344281","853.3333333333334","476","f","true","img/T_ambi40.png","をる","prac",""
"","","","","","html-keyboard-response","32","291605","0.0-7.0-1.10","null","<span style='color:GreenYellow; font-size: 70px;'>正确! </span>","null","","","","","","","","","","","","","","","","","","","","","","","feedback_test"
"","","","","","psychophysics","33","293325","0.0-7.0-0.11","716","","f","","","","","","","","","","","","","key","f","6.061289752650078","853.3333333333334","476","f","true","img/T_ambi40.png","をる","prac",""
"","","","","","html-keyboard-response","34","293831","0.0-7.0-1.11","null","<span style='color:GreenYellow; font-size: 70px;'>正确! </span>","null","","","","","","","","","","","","","","","","","","","","","","","feedback_test"
"","","","","","psychophysics","35","296173","0.0-7.0-0.12","1341","","f","","","","","","","","","","","","","key","f","6.060813471502558","853.3333333333334","476","j","false","img/C_ambi40.png","朋友","prac",""
"","","","","","html-keyboard-response","36","296685","0.0-7.0-1.12","null","<span style='color:red; font-size: 70px;'>错误! </span>","null","","","","","","","","","","","","","","","","","","","","","","","feedback_test"
"","","","","","psychophysics","37","299190","0.0-7.0-0.13","null","","null","","","","","","","","","","","","","key","null","6.1044767726162075","853.3333333333334","476","f","false","img/C_ambi40.png","生人","prac",""
"","","","","","html-keyboard-response","38","299704","0.0-7.0-1.13","null","<span class='add_' style='color:yellow; font-size: 70px;'> 太慢! </span>","null","","","","","","","","","","","","","","","","","","","","","","","feedback_test"
"","","","","","psychophysics","39","301980","0.0-7.0-0.14","1275","","j","","","","","","","","","","","","","key","j","6.086485175202027","853.3333333333334","476","j","true","img/S_ambi40.png","朋友","prac",""
"","","","","","html-keyboard-response","40","302492","0.0-7.0-1.14","null","<span style='color:GreenYellow; font-size: 70px;'>正确! </span>","null","","","","","","","","","","","","","","","","","","","","","","","feedback_test"
"","","","","","psychophysics","41","304877","0.0-7.0-0.15","1384","","f","","","","","","","","","","","","","key","f","6.054102301790231","853.3333333333334","476","f","true","img/S_ambi40.png","自我","prac",""
"","","","","","html-keyboard-response","42","305391","0.0-7.0-1.15","null","<span style='color:GreenYellow; font-size: 70px;'>正确! </span>","null","","","","","","","","","","","","","","","","","","","","","","","feedback_test"
"","","","","","psychophysics","43","307517","0.0-7.0-0.16","1121","","j","","","","","","","","","","","","","key","j","6.060871060171937","853.3333333333334","476","j","true","img/S_ambi40.png","朋友","prac",""
"","","","","","html-keyboard-response","44","308027","0.0-7.0-1.16","null","<span style='color:GreenYellow; font-size: 70px;'>正确! </span>","null","","","","","","","","","","","","","","","","","","","","","","","feedback_test"
"","","","","","psychophysics","45","310100","0.0-7.0-0.17","1068","","f","","","","","","","","","","","","","key","f","6.1494880952381035","853.3333333333334","476","f","true","img/H_ambi40.png","朋友","prac",""
"","","","","","html-keyboard-response","46","310612","0.0-7.0-1.17","null","<span style='color:GreenYellow; font-size: 70px;'>正确! </span>","null","","","","","","","","","","","","","","","","","","","","","","","feedback_test"
"","","","","","psychophysics","47","312909","0.0-7.0-0.18","1295","","f","","","","","","","","","","","","","key","f","6.059994708994747","853.3333333333334","476","j","false","img/H_ambi40.png","自我","prac",""
"","","","","","html-keyboard-response","48","313412","0.0-7.0-1.18","null","<span style='color:red; font-size: 70px;'>错误! </span>","null","","","","","","","","","","","","","","","","","","","","","","","feedback_test"
"","","","","","psychophysics","49","315917","0.0-7.0-0.19","null","","null","","","","","","","","","","","","","key","null","6.060193704600451","853.3333333333334","476","f","false","img/C_ambi40.png","生人","prac",""
"","","","","","html-keyboard-response","50","316421","0.0-7.0-1.19","null","<span class='add_' style='color:yellow; font-size: 70px;'> 太慢! </span>","null","","","","","","","","","","","","","","","","","","","","","","","feedback_test"
"","","","","","psychophysics","51","318189","0.0-7.0-0.20","763","","f","","","","","","","","","","","","","key","f","6.059851724137793","853.3333333333334","476","f","true","img/T_ambi40.png","をる","prac",""
"","","","","","html-keyboard-response","52","318691","0.0-7.0-1.20","null","<span style='color:GreenYellow; font-size: 70px;'>正确! </span>","null","","","","","","","","","","","","","","","","","","","","","","","feedback_test"
"","","","","","psychophysics","53","320653","0.0-7.0-0.21","960","","j","","","","","","","","","","","","","key","j","6.061074303405435","853.3333333333334","476","f","false","img/S_ambi40.png","自我","prac",""
"","","","","","html-keyboard-response","54","321161","0.0-7.0-1.21","null","<span style='color:red; font-size: 70px;'>错误! </span>","null","","","","","","","","","","","","","","","","","","","","","","","feedback_test"
"","","","","","psychophysics","55","323164","0.0-7.0-0.22","999","","f","","","","","","","","","","","","","key","f","6.134698461538467","853.3333333333334","476","f","true","img/T_ambi40.png","をる","prac",""
"","","","","","html-keyboard-response","56","323671","0.0-7.0-1.22","null","<span style='color:GreenYellow; font-size: 70px;'>正确! </span>","null","","","","","","","","","","","","","","","","","","","","","","","feedback_test"
"","","","","","psychophysics","57","325972","0.0-7.0-0.23","1298","","f","","","","","","","","","","","","","key","f","6.0762989417989814","853.3333333333334","476","j","false","img/H_ambi40.png","生人","prac",""
"","","","","","html-keyboard-response","58","326482","0.0-7.0-1.23","null","<span style='color:red; font-size: 70px;'>错误! </span>","null","","","","","","","","","","","","","","","","","","","","","","","feedback_test"
"","","","","","psychophysics","59","328983","0.0-7.0-0.24","null","","null","","","","","","","","","","","","","key","null","6.059555825242746","853.3333333333334","476","j","false","img/S_ambi40.png","生人","prac",""
"","","","","","html-keyboard-response","60","329485","0.0-7.0-1.24","null","<span class='add_' style='color:yellow; font-size: 70px;'> 太慢! </span>","null","","","","","","","","","","","","","","","","","","","","","","","feedback_test"
"","","","","","psychophysics","61","331957","0.0-7.0-0.25","1470","","f","","","","","","","","","","","","","key","f","6.053298765432124","853.3333333333334","476","f","true","img/S_ambi40.png","自我","prac",""
"","","","","","html-keyboard-response","62","332467","0.0-7.0-1.25","null","<span style='color:GreenYellow; font-size: 70px;'>正确! </span>","null","","","","","","","","","","","","","","","","","","","","","","","feedback_test"
"","","","","","psychophysics","63","334725","0.0-7.0-0.26","1256","","f","","","","","","","","","","","","","key","f","6.0515621621621065","853.3333333333334","476","f","true","img/H_ambi40.png","朋友","prac",""
"","","","","","html-keyboard-response","64","335238","0.0-7.0-1.26","null","<span style='color:GreenYellow; font-size: 70px;'>正确! </span>","null","","","","","","","","","","","","","","","","","","","","","","","feedback_test"
"","","","","","psychophysics","65","337745","0.0-7.0-0.27","null","","null","","","","","","","","","","","","","key","null","6.059735436893144","853.3333333333334","476","j","false","img/C_ambi40.png","朋友","prac",""
"","","","","","html-keyboard-response","66","338261","0.0-7.0-1.27","null","<span class='add_' style='color:yellow; font-size: 70px;'> 太慢! </span>","null","","","","","","","","","","","","","","","","","","","","","","","feedback_test"
"","","","","","psychophysics","67","340077","0.0-7.0-0.28","815","","f","","","","","","","","","","","","","key","f","6.078060810810712","853.3333333333334","476","f","true","img/T_ambi40.png","をる","prac",""
"","","","","","html-keyboard-response","68","340582","0.0-7.0-1.28","null","<span style='color:GreenYellow; font-size: 70px;'>正确! </span>","null","","","","","","","","","","","","","","","","","","","","","","","feedback_test"
"","","","","","psychophysics","69","342805","0.0-7.0-0.29","1221","","j","","","","","","","","","","","","","key","j","6.060000000000057","853.3333333333334","476","j","true","img/C_ambi40.png","自我","prac",""
"","","","","","html-keyboard-response","70","343307","0.0-7.0-1.29","null","<span style='color:GreenYellow; font-size: 70px;'>正确! </span>","null","","","","","","","","","","","","","","","","","","","","","","","feedback_test"
"","","","","","psychophysics","71","345557","0.0-7.0-0.30","1246","","j","","","","","","","","","","","","","key","j","6.060445945946078","853.3333333333334","476","f","false","img/C_ambi40.png","生人","prac",""
"","","","","","html-keyboard-response","72","346071","0.0-7.0-1.30","null","<span style='color:red; font-size: 70px;'>错误! </span>","null","","","","","","","","","","","","","","","","","","","","","","","feedback_test"
"","","","","","psychophysics","73","347885","0.0-7.0-0.31","811","","f","","","","","","","","","","","","","key","f","6.060466442952923","853.3333333333334","476","f","true","img/T_ambi40.png","をる","prac",""
"","","","","","html-keyboard-response","74","348387","0.0-7.0-1.31","null","<span style='color:GreenYellow; font-size: 70px;'>正确! </span>","null","","","","","","","","","","","","","","","","","","","","","","","feedback_test"
"","","","","","psychophysics","75","350452","0.0-8.0-0.0-0.0","1063","","f","","","","","","","","","","","","","key","f","6.1325863095238065","853.3333333333334","476","f","true","img/H_ambi40.png","朋友","prac",""
"","","","","","html-keyboard-response","76","350958","0.0-8.0-0.0-1.0","null","<span style='color:GreenYellow; font-size: 70px;'>正确! </span>","null","","","","","","","","","","","","","","","","","","","","","","","feedback_test"
"","","","","","psychophysics","77","352757","0.0-8.0-0.0-0.1","798","","f","","","","","","","","","","","","","key","f","6.05171088435387","853.3333333333334","476","f","true","img/T_ambi40.png","をる","prac",""
"","","","","","html-keyboard-response","78","353268","0.0-8.0-0.0-1.1","null","<span style='color:GreenYellow; font-size: 70px;'>正确! </span>","null","","","","","","","","","","","","","","","","","","","","","","","feedback_test"
"","","","","","psychophysics","79","355557","0.0-8.0-0.0-0.2","1283","","f","","","","","","","","","","","","","key","f","6.05111466666668","853.3333333333334","476","j","false","img/S_ambi40.png","生人","prac",""
"","","","","","html-keyboard-response","80","356074","0.0-8.0-0.0-1.2","null","<span style='color:red; font-size: 70px;'>错误! </span>","null","","","","","","","","","","","","","","","","","","","","","","","feedback_test"
"","","","","","psychophysics","81","358577","0.0-8.0-0.0-0.3","null","","null","","","","","","","","","","","","","key","null","6.055513381995113","853.3333333333334","476","j","false","img/H_ambi40.png","生人","prac",""
"","","","","","html-keyboard-response","82","359085","0.0-8.0-0.0-1.3","null","<span class='add_' style='color:yellow; font-size: 70px;'> 太慢! </span>","null","","","","","","","","","","","","","","","","","","","","","","","feedback_test"
"","","","","","psychophysics","83","360828","0.0-8.0-0.0-0.4","742","","f","","","","","","","","","","","","","key","f","6.050182456140235","853.3333333333334","476","f","true","img/T_ambi40.png","をる","prac",""
"","","","","","html-keyboard-response","84","361339","0.0-8.0-0.0-1.4","null","<span style='color:GreenYellow; font-size: 70px;'>正确! </span>","null","","","","","","","","","","","","","","","","","","","","","","","feedback_test"
"","","","","","psychophysics","85","363590","0.0-8.0-0.0-0.5","1249","","j","","","","","","","","","","","","","key","j","6.059415094339636","853.3333333333334","476","f","false","img/H_ambi40.png","朋友","prac",""
"","","","","","html-keyboard-response","86","364103","0.0-8.0-0.0-1.5","null","<span style='color:red; font-size: 70px;'>错误! </span>","null","","","","","","","","","","","","","","","","","","","","","","","feedback_test"
"","","","","","psychophysics","87","365837","0.0-8.0-0.0-0.6","733","","f","","","","","","","","","","","","","key","f","6.052522968197885","853.3333333333334","476","f","true","img/T_ambi40.png","をる","prac",""
"","","","","","html-keyboard-response","88","366347","0.0-8.0-0.0-1.6","null","<span style='color:GreenYellow; font-size: 70px;'>正确! </span>","null","","","","","","","","","","","","","","","","","","","","","","","feedback_test"
"","","","","","psychophysics","89","368430","0.0-8.0-0.0-0.7","1077","","f","","","","","","","","","","","","","key","f","6.059997076023477","853.3333333333334","476","f","true","img/S_ambi40.png","自我","prac",""
"","","","","","html-keyboard-response","90","368933","0.0-8.0-0.0-1.7","null","<span style='color:GreenYellow; font-size: 70px;'>正确! </span>","null","","","","","","","","","","","","","","","","","","","","","","","feedback_test"
"","","","","","psychophysics","91","370669","0.0-8.0-0.0-0.8","735","","f","","","","","","","","","","","","","key","f","6.10298239436631","853.3333333333334","476","f","true","img/T_ambi40.png","をる","prac",""
"","","","","","html-keyboard-response","92","371172","0.0-8.0-0.0-1.8","null","<span style='color:GreenYellow; font-size: 70px;'>正确! </span>","null","","","","","","","","","","","","","","","","","","","","","","","feedback_test"
"","","","","","psychophysics","93","373674","0.0-8.0-0.0-0.9","null","","null","","","","","","","","","","","","","key","null","6.072697560975708","853.3333333333334","476","j","false","img/S_ambi40.png","朋友","prac",""
"","","","","","html-keyboard-response","94","374176","0.0-8.0-0.0-1.9","null","<span class='add_' style='color:yellow; font-size: 70px;'> 太慢! </span>","null","","","","","","","","","","","","","","","","","","","","","","","feedback_test"
"","","","","","psychophysics","95","376605","0.0-8.0-0.0-0.10","1427","","f","","","","","","","","","","","","","key","f","6.060650000000023","853.3333333333334","476","j","false","img/C_ambi40.png","自我","prac",""
"","","","","","html-keyboard-response","96","377118","0.0-8.0-0.0-1.10","null","<span style='color:red; font-size: 70px;'>错误! </span>","null","","","","","","","","","","","","","","","","","","","","","","","feedback_test"
"","","","","","psychophysics","97","379620","0.0-8.0-0.0-0.11","null","","null","","","","","","","","","","","","","key","null","6.060322815533987","853.3333333333334","476","j","false","img/H_ambi40.png","自我","prac",""
"","","","","","html-keyboard-response","98","380136","0.0-8.0-0.0-1.11","null","<span class='add_' style='color:yellow; font-size: 70px;'> 太慢! </span>","null","","","","","","","","","","","","","","","","","","","","","","","feedback_test"
"","","","","","psychophysics","99","382061","0.0-8.0-0.0-0.12","920","","j","","","","","","","","","","","","","key","j","6.0564177215189225","853.3333333333334","476","f","false","img/S_ambi40.png","自我","prac",""
"","","","","","html-keyboard-response","100","382563","0.0-8.0-0.0-1.12","null","<span style='color:red; font-size: 70px;'>错误! </span>","null","","","","","","","","","","","","","","","","","","","","","","","feedback_test"
"","","","","","psychophysics","101","385069","0.0-8.0-0.0-0.13","null","","null","","","","","","","","","","","","","key","null","6.061266343825701","853.3333333333334","476","f","false","img/C_ambi40.png","生人","prac",""
"","","","","","html-keyboard-response","102","385581","0.0-8.0-0.0-1.13","null","<span class='add_' style='color:yellow; font-size: 70px;'> 太慢! </span>","null","","","","","","","","","","","","","","","","","","","","","","","feedback_test"
"","","","","","psychophysics","103","387581","0.0-8.0-0.0-0.14","998","","f","","","","","","","","","","","","","key","f","6.060492401215811","853.3333333333334","476","f","true","img/C_ambi40.png","生人","prac",""
"","","","","","html-keyboard-response","104","388097","0.0-8.0-0.0-1.14","null","<span style='color:GreenYellow; font-size: 70px;'>正确! </span>","null","","","","","","","","","","","","","","","","","","","","","","","feedback_test"
"","","","","","psychophysics","105","390445","0.0-8.0-0.0-0.15","1346","","f","","","","","","","","","","","","","key","f","6.060839793281612","853.3333333333334","476","j","false","img/C_ambi40.png","朋友","prac",""
"","","","","","html-keyboard-response","106","390955","0.0-8.0-0.0-1.15","null","<span style='color:red; font-size: 70px;'>错误! </span>","null","","","","","","","","","","","","","","","","","","","","","","","feedback_test"
"","","","","","psychophysics","107","393149","0.0-8.0-0.0-0.16","1190","","j","","","","","","","","","","","","","key","j","6.060141274238256","853.3333333333334","476","j","true","img/C_ambi40.png","朋友","prac",""
"","","","","","html-keyboard-response","108","393651","0.0-8.0-0.0-1.16","null","<span style='color:GreenYellow; font-size: 70px;'>正确! </span>","null","","","","","","","","","","","","","","","","","","","","","","","feedback_test"
"","","","","","psychophysics","109","395525","0.0-8.0-0.0-0.17","869","","f","","","","","","","","","","","","","key","f","6.056749999999974","853.3333333333334","476","f","true","img/T_ambi40.png","をる","prac",""
"","","","","","html-keyboard-response","110","396039","0.0-8.0-0.0-1.17","null","<span style='color:GreenYellow; font-size: 70px;'>正确! </span>","null","","","","","","","","","","","","","","","","","","","","","","","feedback_test"
"","","","","","psychophysics","111","398125","0.0-8.0-0.0-0.18","1082","","f","","","","","","","","","","","","","key","f","6.0597026239067135","853.3333333333334","476","j","false","img/S_ambi40.png","朋友","prac",""
"","","","","","html-keyboard-response","112","398638","0.0-8.0-0.0-1.18","null","<span style='color:red; font-size: 70px;'>错误! </span>","null","","","","","","","","","","","","","","","","","","","","","","","feedback_test"
"","","","","","psychophysics","113","401142","0.0-8.0-0.0-0.19","null","","null","","","","","","","","","","","","","key","null","6.105926650366802","853.3333333333334","476","j","false","img/C_ambi40.png","自我","prac",""
"","","","","","html-keyboard-response","114","401644","0.0-8.0-0.0-1.19","null","<span class='add_' style='color:yellow; font-size: 70px;'> 太慢! </span>","null","","","","","","","","","","","","","","","","","","","","","","","feedback_test"
"","","","","","psychophysics","115","404146","0.0-8.0-0.0-0.20","null","","null","","","","","","","","","","","","","key","null","6.059311435523204","853.3333333333334","476","j","false","img/H_ambi40.png","自我","prac",""
"","","","","","html-keyboard-response","116","404659","0.0-8.0-0.0-1.20","null","<span class='add_' style='color:yellow; font-size: 70px;'> 太慢! </span>","null","","","","","","","","","","","","","","","","","","","","","","","feedback_test"
"","","","","","psychophysics","117","406469","0.0-8.0-0.0-0.21","807","","f","","","","","","","","","","","","","key","f","6.061167785234908","853.3333333333334","476","f","true","img/T_ambi40.png","をる","prac",""
"","","","","","html-keyboard-response","118","406982","0.0-8.0-0.0-1.21","null","<span style='color:GreenYellow; font-size: 70px;'>正确! </span>","null","","","","","","","","","","","","","","","","","","","","","","","feedback_test"
"","","","","","psychophysics","119","409118","0.0-8.0-0.0-0.22","1135","","j","","","","","","","","","","","","","key","j","6.052765714285695","853.3333333333334","476","j","true","img/S_ambi40.png","生人","prac",""
"","","","","","html-keyboard-response","120","409627","0.0-8.0-0.0-1.22","null","<span style='color:GreenYellow; font-size: 70px;'>正确! </span>","null","","","","","","","","","","","","","","","","","","","","","","","feedback_test"
"","","","","","psychophysics","121","412077","0.0-8.0-0.0-0.23","1446","","f","","","","","","","","","","","","","key","f","6.058302729528642","853.3333333333334","476","f","true","img/H_ambi40.png","朋友","prac",""
"","","","","","html-keyboard-response","122","412591","0.0-8.0-0.0-1.23","null","<span style='color:GreenYellow; font-size: 70px;'>正确! </span>","null","","","","","","","","","","","","","","","","","","","","","","","feedback_test"
"","","","","","psychophysics","123","414822","0.0-8.0-0.0-0.24","1226","","j","","","","","","","","","","","","","key","j","6.0770300546448865","853.3333333333334","476","f","false","img/C_ambi40.png","生人","prac",""
"","","","","","html-keyboard-response","124","415335","0.0-8.0-0.0-1.24","null","<span style='color:red; font-size: 70px;'>错误! </span>","null","","","","","","","","","","","","","","","","","","","","","","","feedback_test"
"","","","","","psychophysics","125","417093","0.0-8.0-0.0-0.25","752","","f","","","","","","","","","","","","","key","f","6.053325259515646","853.3333333333334","476","f","true","img/T_ambi40.png","をる","prac",""
"","","","","","html-keyboard-response","126","417609","0.0-8.0-0.0-1.25","null","<span style='color:GreenYellow; font-size: 70px;'>正确! </span>","null","","","","","","","","","","","","","","","","","","","","","","","feedback_test"
"","","","","","psychophysics","127","420077","0.0-8.0-0.0-0.26","1464","","f","","","","","","","","","","","","","key","f","6.060859605911408","853.3333333333334","476","f","true","img/S_ambi40.png","自我","prac",""
"","","","","","html-keyboard-response","128","420582","0.0-8.0-0.0-1.26","null","<span style='color:GreenYellow; font-size: 70px;'>正确! </span>","null","","","","","","","","","","","","","","","","","","","","","","","feedback_test"
"","","","","","psychophysics","129","422685","0.0-8.0-0.0-0.27","1102","","j","","","","","","","","","","","","","key","j","6.106120234604207","853.3333333333334","476","f","false","img/C_ambi40.png","生人","prac",""
"","","","","","html-keyboard-response","130","423196","0.0-8.0-0.0-1.27","null","<span style='color:red; font-size: 70px;'>错误! </span>","null","","","","","","","","","","","","","","","","","","","","","","","feedback_test"
"","","","","","psychophysics","131","425245","0.0-8.0-0.0-0.28","1046","","f","","","","","","","","","","","","","key","f","6.057602373887273","853.3333333333334","476","j","false","img/H_ambi40.png","生人","prac",""
"","","","","","html-keyboard-response","132","425758","0.0-8.0-0.0-1.28","null","<span style='color:red; font-size: 70px;'>错误! </span>","null","","","","","","","","","","","","","","","","","","","","","","","feedback_test"
"","","","","","psychophysics","133","427973","0.0-8.0-0.0-0.29","1213","","f","","","","","","","","","","","","","key","f","6.060145604395714","853.3333333333334","476","f","true","img/S_ambi40.png","自我","prac",""
"","","","","","html-keyboard-response","134","428488","0.0-8.0-0.0-1.29","null","<span style='color:GreenYellow; font-size: 70px;'>正确! </span>","null","","","","","","","","","","","","","","","","","","","","","","","feedback_test"
"","","","","","psychophysics","135","430085","0.0-8.0-0.0-0.30","594","","f","","","","","","","","","","","","","key","f","6.060740458015228","853.3333333333334","476","f","true","img/T_ambi40.png","をる","prac",""
"","","","","","html-keyboard-response","136","430595","0.0-8.0-0.0-1.30","null","<span style='color:GreenYellow; font-size: 70px;'>正确! </span>","null","","","","","","","","","","","","","","","","","","","","","","","feedback_test"
"","","","","","psychophysics","137","433097","0.0-8.0-0.0-0.31","null","","null","","","","","","","","","","","","","key","null","6.054661800486654","853.3333333333334","476","f","false","img/H_ambi40.png","朋友","prac",""
"","","","","","html-keyboard-response","138","433607","0.0-8.0-0.0-1.31","null","<span class='add_' style='color:yellow; font-size: 70px;'> 太慢! </span>","null","","","","","","","","","","","","","","","","","","","","","","","feedback_test"
"","","","","","html-keyboard-response","139","447062","0.0-8.0-1.0-0.0","13454","<style>.context{color:white; font-size: 35px; line-height:40px}</style>                          <div><p class='context'>您正确回答了50% 的试次。</p ><p class='context'>您的平均反应时为976毫秒。</p >","f","","","","","","","","","","","","","","","","","","","","","","",""
"","","","","","instructions","140","465733","0.0-8.0-1.0-1.0","18670","","","","","","","","","","","","","","[{""page_index"":0,""viewing_time"":2869},{""page_index"":1,""viewing_time"":14840},{""page_index"":2,""viewing_time"":960}]","","","","","","","","","","",""
"","","","","","psychophysics","141","467732","0.0-8.1-0.1-0.32","993","","f","","","","","","","","","","","","","key","f","6.097895705521441","853.3333333333334","476","f","true","img/H_ambi40.png","朋友","prac",""
"","","","","","html-keyboard-response","142","468242","0.0-8.1-0.1-1.32","null","<span style='color:GreenYellow; font-size: 70px;'>正确! </span>","null","","","","","","","","","","","","","","","","","","","","","","","feedback_test"
"","","","","","psychophysics","143","470085","0.0-8.1-0.1-0.33","842","","f","","","","","","","","","","","","","key","f","6.050649006622427","853.3333333333334","476","f","true","img/C_ambi40.png","生人","prac",""
"","","","","","html-keyboard-response","144","470596","0.0-8.1-0.1-1.33","null","<span style='color:GreenYellow; font-size: 70px;'>正确! </span>","null","","","","","","","","","","","","","","","","","","","","","","","feedback_test"
"","","","","","psychophysics","145","472413","0.0-8.1-0.1-0.34","812","","f","","","","","","","","","","","","","key","f","6.055755852842719","853.3333333333334","476","f","true","img/H_ambi40.png","朋友","prac",""
"","","","","","html-keyboard-response","146","472915","0.0-8.1-0.1-1.34","null","<span style='color:GreenYellow; font-size: 70px;'>正确! </span>","null","","","","","","","","","","","","","","","","","","","","","","","feedback_test"
"","","","","","psychophysics","147","474629","0.0-8.1-0.1-0.35","713","","f","","","","","","","","","","","","","key","f","6.104046594982218","853.3333333333334","476","f","true","img/T_ambi40.png","をる","prac",""
"","","","","","html-keyboard-response","148","475144","0.0-8.1-0.1-1.35","null","<span style='color:GreenYellow; font-size: 70px;'>正确! </span>","null","","","","","","","","","","","","","","","","","","","","","","","feedback_test"
"","","","","","psychophysics","149","477133","0.0-8.1-0.1-0.36","988","","j","","","","","","","","","","","","","key","j","6.060529051987784","853.3333333333334","476","j","true","img/H_ambi40.png","自我","prac",""
"","","","","","html-keyboard-response","150","477645","0.0-8.1-0.1-1.36","null","<span style='color:GreenYellow; font-size: 70px;'>正确! </span>","null","","","","","","","","","","","","","","","","","","","","","","","feedback_test"
"","","","","","psychophysics","151","479573","0.0-8.1-0.1-0.37","925","","f","","","","","","","","","","","","","key","f","6.060526813880052","853.3333333333334","476","j","false","img/C_ambi40.png","朋友","prac",""
"","","","","","html-keyboard-response","152","480087","0.0-8.1-0.1-1.37","null","<span style='color:red; font-size: 70px;'>错误! </span>","null","","","","","","","","","","","","","","","","","","","","","","","feedback_test"
"","","","","","psychophysics","153","482565","0.0-8.1-0.1-0.38","1474","","j","","","","","","","","","","","","","key","j","6.060100490196098","853.3333333333334","476","f","false","img/C_ambi40.png","生人","prac",""
"","","","","","html-keyboard-response","154","483076","0.0-8.1-0.1-1.38","null","<span style='color:red; font-size: 70px;'>错误! </span>","null","","","","","","","","","","","","","","","","","","","","","","","feedback_test"
"","","","","","psychophysics","155","485582","0.0-8.1-0.1-0.39","null","","null","","","","","","","","","","","","","key","null","6.060786407766977","853.3333333333334","476","j","false","img/S_ambi40.png","朋友","prac",""
"","","","","","html-keyboard-response","156","486097","0.0-8.1-0.1-1.39","null","<span class='add_' style='color:yellow; font-size: 70px;'> 太慢! </span>","null","","","","","","","","","","","","","","","","","","","","","","","feedback_test"
"","","","","","psychophysics","157","488478","0.0-8.1-0.1-0.40","1375","","f","","","","","","","","","","","","","key","f","6.059734015345193","853.3333333333334","476","f","true","img/S_ambi40.png","自我","prac",""
"","","","","","html-keyboard-response","158","488989","0.0-8.1-0.1-1.40","null","<span style='color:GreenYellow; font-size: 70px;'>正确! </span>","null","","","","","","","","","","","","","","","","","","","","","","","feedback_test"
"","","","","","psychophysics","159","490989","0.0-8.1-0.1-0.41","995","","j","","","","","","","","","","","","","key","j","6.060203647416504","853.3333333333334","476","j","true","img/S_ambi40.png","生人","prac",""
"","","","","","html-keyboard-response","160","491503","0.0-8.1-0.1-1.41","null","<span style='color:GreenYellow; font-size: 70px;'>正确! </span>","null","","","","","","","","","","","","","","","","","","","","","","","feedback_test"
"","","","","","psychophysics","161","493133","0.0-8.1-0.1-0.42","624","","f","","","","","","","","","","","","","key","f","6.056101123595476","853.3333333333334","476","f","true","img/T_ambi40.png","をる","prac",""
"","","","","","html-keyboard-response","162","493634","0.0-8.1-0.1-1.42","null","<span style='color:GreenYellow; font-size: 70px;'>正确! </span>","null","","","","","","","","","","","","","","","","","","","","","","","feedback_test"
"","","","","","psychophysics","163","495310","0.0-8.1-0.1-0.43","674","","f","","","","","","","","","","","","","key","f","6.060329710144973","853.3333333333334","476","f","true","img/T_ambi40.png","をる","prac",""
"","","","","","html-keyboard-response","164","495812","0.0-8.1-0.1-1.43","null","<span style='color:GreenYellow; font-size: 70px;'>正确! </span>","null","","","","","","","","","","","","","","","","","","","","","","","feedback_test"
"","","","","","psychophysics","165","498021","0.0-8.1-0.1-0.44","1202","","f","","","","","","","","","","","","","key","f","6.060578512396669","853.3333333333334","476","j","false","img/C_ambi40.png","自我","prac",""
"","","","","","html-keyboard-response","166","498535","0.0-8.1-0.1-1.44","null","<span style='color:red; font-size: 70px;'>错误! </span>","null","","","","","","","","","","","","","","","","","","","","","","","feedback_test"
"","","","","","psychophysics","167","500662","0.0-8.1-0.1-0.45","1123","","f","","","","","","","","","","","","","key","f","6.058954285714343","853.3333333333334","476","f","true","img/S_ambi40.png","自我","prac",""
"","","","","","html-keyboard-response","168","501167","0.0-8.1-0.1-1.45","null","<span style='color:GreenYellow; font-size: 70px;'>正确! </span>","null","","","","","","","","","","","","","","","","","","","","","","","feedback_test"
"","","","","","psychophysics","169","503541","0.0-8.1-0.1-0.46","1371","","f","","","","","","","","","","","","","key","f","6.059199488491042","853.3333333333334","476","j","false","img/H_ambi40.png","生人","prac",""
"","","","","","html-keyboard-response","170","504051","0.0-8.1-0.1-1.46","null","<span style='color:red; font-size: 70px;'>错误! </span>","null","","","","","","","","","","","","","","","","","","","","","","","feedback_test"
"","","","","","psychophysics","171","505869","0.0-8.1-0.1-0.47","815","","f","","","","","","","","","","","","","key","f","6.059628762541896","853.3333333333334","476","f","true","img/T_ambi40.png","をる","prac",""
"","","","","","html-keyboard-response","172","506370","0.0-8.1-0.1-1.47","null","<span style='color:GreenYellow; font-size: 70px;'>正确! </span>","null","","","","","","","","","","","","","","","","","","","","","","","feedback_test"
"","","","","","psychophysics","173","508693","0.0-8.1-0.1-0.48","1317","","f","","","","","","","","","","","","","key","f","6.0601020942409205","853.3333333333334","476","f","true","img/S_ambi40.png","自我","prac",""
"","","","","","html-keyboard-response","174","509201","0.0-8.1-0.1-1.48","null","<span style='color:GreenYellow; font-size: 70px;'>正确! </span>","null","","","","","","","","","","","","","","","","","","","","","","","feedback_test"
"","","","","","psychophysics","175","511389","0.0-8.1-0.1-0.49","1184","","j","","","","","","","","","","","","","key","j","6.059505555555613","853.3333333333334","476","f","false","img/H_ambi40.png","朋友","prac",""
"","","","","","html-keyboard-response","176","511893","0.0-8.1-0.1-1.49","null","<span style='color:red; font-size: 70px;'>错误! </span>","null","","","","","","","","","","","","","","","","","","","","","","","feedback_test"
"","","","","","psychophysics","177","513965","0.0-8.1-0.1-0.50","1068","","j","","","","","","","","","","","","","key","j","6.061076246334453","853.3333333333334","476","j","true","img/S_ambi40.png","朋友","prac",""
"","","","","","html-keyboard-response","178","514482","0.0-8.1-0.1-1.50","null","<span style='color:GreenYellow; font-size: 70px;'>正确! </span>","null","","","","","","","","","","","","","","","","","","","","","","","feedback_test"
"","","","","","psychophysics","179","516845","0.0-8.1-0.1-0.51","1360","","f","","","","","","","","","","","","","key","f","6.060827763496173","853.3333333333334","476","j","false","img/C_ambi40.png","自我","prac",""
"","","","","","html-keyboard-response","180","517357","0.0-8.1-0.1-1.51","null","<span style='color:red; font-size: 70px;'>错误! </span>","null","","","","","","","","","","","","","","","","","","","","","","","feedback_test"
"","","","","","psychophysics","181","519125","0.0-8.1-0.1-0.52","762","","f","","","","","","","","","","","","","key","f","6.060403448275836","853.3333333333334","476","f","true","img/T_ambi40.png","をる","prac",""
"","","","","","html-keyboard-response","182","519642","0.0-8.1-0.1-1.52","null","<span style='color:GreenYellow; font-size: 70px;'>正确! </span>","null","","","","","","","","","","","","","","","","","","","","","","","feedback_test"
"","","","","","psychophysics","183","522078","0.0-8.1-0.1-0.53","1435","","f","","","","","","","","","","","","","key","f","6.060599999999977","853.3333333333334","476","f","true","img/C_ambi40.png","生人","prac",""
"","","","","","html-keyboard-response","184","522591","0.0-8.1-0.1-1.53","null","<span style='color:GreenYellow; font-size: 70px;'>正确! </span>","null","","","","","","","","","","","","","","","","","","","","","","","feedback_test"
"","","","","","psychophysics","185","525093","0.0-8.1-0.1-0.54","1499","","j","","","","","","","","","","","","","key","j","6.059820388349393","853.3333333333334","476","j","true","img/S_ambi40.png","生人","prac",""
"","","","","","html-keyboard-response","186","525606","0.0-8.1-0.1-1.54","null","<span style='color:GreenYellow; font-size: 70px;'>正确! </span>","null","","","","","","","","","","","","","","","","","","","","","","","feedback_test"
"","","","","","psychophysics","187","527445","0.0-8.1-0.1-0.55","834","","f","","","","","","","","","","","","","key","f","6.0566821192053535","853.3333333333334","476","f","true","img/T_ambi40.png","をる","prac",""
"","","","","","html-keyboard-response","188","527946","0.0-8.1-0.1-1.55","null","<span style='color:GreenYellow; font-size: 70px;'>正确! </span>","null","","","","","","","","","","","","","","","","","","","","","","","feedback_test"
"","","","","","psychophysics","189","530110","0.0-8.1-0.1-0.56","1159","","j","","","","","","","","","","","","","key","j","6.057384831460684","853.3333333333334","476","j","true","img/H_ambi40.png","生人","prac",""
"","","","","","html-keyboard-response","190","530624","0.0-8.1-0.1-1.56","null","<span style='color:GreenYellow; font-size: 70px;'>正确! </span>","null","","","","","","","","","","","","","","","","","","","","","","","feedback_test"
"","","","","","psychophysics","191","532925","0.0-8.1-0.1-0.57","1295","","f","","","","","","","","","","","","","key","f","6.060354497354532","853.3333333333334","476","f","true","img/S_ambi40.png","自我","prac",""
"","","","","","html-keyboard-response","192","533427","0.0-8.1-0.1-1.57","null","<span style='color:GreenYellow; font-size: 70px;'>正确! </span>","null","","","","","","","","","","","","","","","","","","","","","","","feedback_test"
"","","","","","psychophysics","193","535926","0.0-8.1-0.1-0.58","1496","","f","","","","","","","","","","","","","key","f","6.060476885644839","853.3333333333334","476","f","true","img/H_ambi40.png","朋友","prac",""
"","","","","","html-keyboard-response","194","536429","0.0-8.1-0.1-1.58","null","<span style='color:GreenYellow; font-size: 70px;'>正确! </span>","null","","","","","","","","","","","","","","","","","","","","","","","feedback_test"
"","","","","","psychophysics","195","538197","0.0-8.1-0.1-0.59","768","","f","","","","","","","","","","","","","key","f","6.052633217993115","853.3333333333334","476","f","true","img/T_ambi40.png","をる","prac",""
"","","","","","html-keyboard-response","196","538702","0.0-8.1-0.1-1.59","null","<span style='color:GreenYellow; font-size: 70px;'>正确! </span>","null","","","","","","","","","","","","","","","","","","","","","","","feedback_test"
"","","","","","psychophysics","197","540525","0.0-8.1-0.1-0.60","817","","f","","","","","","","","","","","","","key","f","6.103417508417791","853.3333333333334","476","f","true","img/C_ambi40.png","生人","prac",""
"","","","","","html-keyboard-response","198","541035","0.0-8.1-0.1-1.60","null","<span style='color:GreenYellow; font-size: 70px;'>正确! </span>","null","","","","","","","","","","","","","","","","","","","","","","","feedback_test"
"","","","","","psychophysics","199","542996","0.0-8.1-0.1-0.61","962","","j","","","","","","","","","","","","","key","j","6.053286604361313","853.3333333333334","476","j","true","img/C_ambi40.png","朋友","prac",""
"","","","","","html-keyboard-response","200","543508","0.0-8.1-0.1-1.61","null","<span style='color:GreenYellow; font-size: 70px;'>正确! </span>","null","","","","","","","","","","","","","","","","","","","","","","","feedback_test"
"","","","","","psychophysics","201","545772","0.0-8.1-0.1-0.62","1259","","j","","","","","","","","","","","","","key","j","6.076056603773753","853.3333333333334","476","j","true","img/H_ambi40.png","自我","prac",""
"","","","","","html-keyboard-response","202","546281","0.0-8.1-0.1-1.62","null","<span style='color:GreenYellow; font-size: 70px;'>正确! </span>","null","","","","","","","","","","","","","","","","","","","","","","","feedback_test"
"","","","","","psychophysics","203","548044","0.0-8.1-0.1-0.63","761","","f","","","","","","","","","","","","","key","f","6.059444827586011","853.3333333333334","476","f","true","img/T_ambi40.png","をる","prac",""
"","","","","","html-keyboard-response","204","548554","0.0-8.1-0.1-1.63","null","<span style='color:GreenYellow; font-size: 70px;'>正确! </span>","null","","","","","","","","","","","","","","","","","","","","","","","feedback_test"
"","","","","","html-keyboard-response","205","560421","0.0-9.0","11866","<style>.context{color:white; font-size: 35px; line-height:40px}</style>                          <div><p class='context'>您正确回答了78% 的试次。</p ><p class='context'>您的平均反应时为1015毫秒。</p ><p class='context'>恭喜您完成练习。按任意键进入正式实验。</p ><p class='footer' style='font-size: 35px; line-height:40px;'>请在进入正式实验实验之前将您的<span style='color: lightgreen;'>食指</span>放在电脑键盘的相应键位上进行按键。</p >","j","","","","","","","","","","","","","","","","","","","","","","",""
"","","","","","psychophysics","206","562469","0.0-10.0-0.0-0.0-0.0-0.0","1040","","j","","","","","","","","","","","","","key","j","6.07883630952364","853.3333333333334","476","f","false","img/S_ambi40.png","自我","same",""
"","","","","","html-keyboard-response","207","562972","0.0-10.0-0.0-0.0-0.0-1.0","null","<span style='color:red; font-size: 70px;'>错误! </span>","null","","","","","","","","","","","","","","","","","","","","","","","feedback_test"
"","","","","","psychophysics","208","565332","0.0-10.0-0.0-0.0-0.0-0.1","1358","","f","","","","","","","","","","","","","key","f","6.059856041131367","853.3333333333334","476","f","true","img/S_ambi40.png","自我","same",""
"","","","","","html-keyboard-response","209","565836","0.0-10.0-0.0-0.0-0.0-1.1","null","<span style='color:GreenYellow; font-size: 70px;'>正确! </span>","null","","","","","","","","","","","","","","","","","","","","","","","feedback_test"
"","","","","","psychophysics","210","567981","0.0-10.0-0.0-0.0-0.0-0.2","1141","","j","","","","","","","","","","","","","key","j","6.0571359773370945","853.3333333333334","476","j","true","img/S_ambi40.png","朋友","same",""
"","","","","","html-keyboard-response","211","568495","0.0-10.0-0.0-0.0-0.0-1.2","null","<span style='color:GreenYellow; font-size: 70px;'>正确! </span>","null","","","","","","","","","","","","","","","","","","","","","","","feedback_test"
"","","","","","psychophysics","212","570996","0.0-10.0-0.0-0.0-0.0-0.3","1501","","f","","","","","","","","","","","","","key","f","6.059968369829677","853.3333333333334","476","f","true","img/H_ambi40.png","朋友","same",""
"","","","","","html-keyboard-response","213","571512","0.0-10.0-0.0-0.0-0.0-1.3","null","<span class='add_' style='color:yellow; font-size: 70px;'> 太慢! </span>","null","","","","","","","","","","","","","","","","","","","","","","","feedback_test"
"","","","","","psychophysics","214","573228","0.0-10.0-0.0-0.0-0.0-0.4","715","","f","","","","","","","","","","","","","key","f","6.081032028469817","853.3333333333334","476","f","true","img/T_ambi40.png","をる","same",""
"","","","","","html-keyboard-response","215","573739","0.0-10.0-0.0-0.0-0.0-1.4","null","<span style='color:GreenYellow; font-size: 70px;'>正确! </span>","null","","","","","","","","","","","","","","","","","","","","","","","feedback_test"
"","","","","","psychophysics","216","576012","0.0-10.0-0.0-0.0-0.0-0.5","1269","","f","","","","","","","","","","","","","key","f","6.060415549597943","853.3333333333334","476","j","false","img/C_ambi40.png","朋友","same",""
"","","","","","html-keyboard-response","217","576523","0.0-10.0-0.0-0.0-0.0-1.5","null","<span style='color:red; font-size: 70px;'>错误! </span>","null","","","","","","","","","","","","","","","","","","","","","","","feedback_test"
"","","","","","psychophysics","218","578677","0.0-10.0-0.0-0.0-0.0-0.6","1152","","f","","","","","","","","","","","","","key","f","6.059940677965889","853.3333333333334","476","f","true","img/H_ambi40.png","朋友","same",""
"","","","","","html-keyboard-response","219","579188","0.0-10.0-0.0-0.0-0.0-1.6","null","<span style='color:GreenYellow; font-size: 70px;'>正确! </span>","null","","","","","","","","","","","","","","","","","","","","","","","feedback_test"
"","","","","","psychophysics","220","581357","0.0-10.0-0.0-0.0-0.0-0.7","1165","","f","","","","","","","","","","","","","key","f","6.111053824362414","853.3333333333334","476","f","true","img/C_ambi40.png","生人","same",""
"","","","","","html-keyboard-response","221","581864","0.0-10.0-0.0-0.0-0.0-1.7","null","<span style='color:GreenYellow; font-size: 70px;'>正确! </span>","null","","","","","","","","","","","","","","","","","","","","","","","feedback_test"
"","","","","","psychophysics","222","584356","0.0-10.0-0.0-0.0-0.0-0.8","1492","","j","","","","","","","","","","","","","key","j","6.053833740831394","853.3333333333334","476","j","true","img/C_ambi40.png","自我","same",""
"","","","","","html-keyboard-response","223","584867","0.0-10.0-0.0-0.0-0.0-1.8","null","<span style='color:GreenYellow; font-size: 70px;'>正确! </span>","null","","","","","","","","","","","","","","","","","","","","","","","feedback_test"
"","","","","","psychophysics","224","587253","0.0-10.0-0.0-0.0-0.0-0.9","1384","","f","","","","","","","","","","","","","key","f","6.106694087403489","853.3333333333334","476","f","true","img/C_ambi40.png","生人","same",""
"","","","","","html-keyboard-response","225","587767","0.0-10.0-0.0-0.0-0.0-1.9","null","<span style='color:GreenYellow; font-size: 70px;'>正确! </span>","null","","","","","","","","","","","","","","","","","","","","","","","feedback_test"
"","","","","","psychophysics","226","590084","0.0-10.0-0.0-0.0-0.0-0.10","1317","","j","","","","","","","","","","","","","key","j","6.053042105263357","853.3333333333334","476","j","true","img/H_ambi40.png","生人","same",""
"","","","","","html-keyboard-response","227","590597","0.0-10.0-0.0-0.0-0.0-1.10","null","<span style='color:GreenYellow; font-size: 70px;'>正确! </span>","null","","","","","","","","","","","","","","","","","","","","","","","feedback_test"
"","","","","","psychophysics","228","593101","0.0-10.0-0.0-0.0-0.0-0.11","null","","null","","","","","","","","","","","","","key","null","6.060043795620332","853.3333333333334","476","j","false","img/H_ambi40.png","生人","same",""
"","","","","","html-keyboard-response","229","593616","0.0-10.0-0.0-0.0-0.0-1.11","null","<span class='add_' style='color:yellow; font-size: 70px;'> 太慢! </span>","null","","","","","","","","","","","","","","","","","","","","","","","feedback_test"
"","","","","","psychophysics","230","595748","0.0-10.0-0.0-0.0-0.0-0.12","1126","","f","","","","","","","","","","","","","key","f","6.059788571428507","853.3333333333334","476","j","false","img/H_ambi40.png","自我","same",""
"","","","","","html-keyboard-response","231","596256","0.0-10.0-0.0-0.0-0.0-1.12","null","<span style='color:red; font-size: 70px;'>错误! </span>","null","","","","","","","","","","","","","","","","","","","","","","","feedback_test"
"","","","","","psychophysics","232","598500","0.0-10.0-0.0-0.0-0.0-0.13","1242","","j","","","","","","","","","","","","","key","j","6.059821138211443","853.3333333333334","476","j","true","img/S_ambi40.png","生人","same",""
"","","","","","html-keyboard-response","233","599011","0.0-10.0-0.0-0.0-0.0-1.13","null","<span style='color:GreenYellow; font-size: 70px;'>正确! </span>","null","","","","","","","","","","","","","","","","","","","","","","","feedback_test"
"","","","","","psychophysics","234","601229","0.0-10.0-0.0-0.0-0.0-0.14","1213","","j","","","","","","","","","","","","","key","j","6.059243835616627","853.3333333333334","476","j","true","img/C_ambi40.png","自我","same",""
"","","","","","html-keyboard-response","235","601732","0.0-10.0-0.0-0.0-0.0-1.14","null","<span style='color:GreenYellow; font-size: 70px;'>正确! </span>","null","","","","","","","","","","","","","","","","","","","","","","","feedback_test"
"","","","","","psychophysics","236","603549","0.0-10.0-0.0-0.0-0.0-0.15","812","","f","","","","","","","","","","","","","key","f","6.059936241610851","853.3333333333334","476","f","true","img/T_ambi40.png","をる","same",""
"","","","","","html-keyboard-response","237","604053","0.0-10.0-0.0-0.0-0.0-1.15","null","<span style='color:GreenYellow; font-size: 70px;'>正确! </span>","null","","","","","","","","","","","","","","","","","","","","","","","feedback_test"
"","","","","","psychophysics","238","606365","0.0-10.0-0.0-0.0-0.0-0.16","1306","","j","","","","","","","","","","","","","key","j","6.060152631578967","853.3333333333334","476","j","true","img/S_ambi40.png","朋友","same",""
"","","","","","html-keyboard-response","239","606871","0.0-10.0-0.0-0.0-0.0-1.16","null","<span style='color:GreenYellow; font-size: 70px;'>正确! </span>","null","","","","","","","","","","","","","","","","","","","","","","","feedback_test"
"","","","","","psychophysics","240","608653","0.0-10.0-0.0-0.0-0.0-0.17","776","","f","","","","","","","","","","","","","key","f","6.058703071672196","853.3333333333334","476","f","true","img/T_ambi40.png","をる","same",""
"","","","","","html-keyboard-response","241","609163","0.0-10.0-0.0-0.0-0.0-1.17","null","<span style='color:GreenYellow; font-size: 70px;'>正确! </span>","null","","","","","","","","","","","","","","","","","","","","","","","feedback_test"
"","","","","","psychophysics","242","611397","0.0-10.0-0.0-0.0-0.0-0.18","1229","","f","","","","","","","","","","","","","key","f","6.059623978201906","853.3333333333334","476","f","true","img/T_ambi40.png","をる","same",""
"","","","","","html-keyboard-response","243","611904","0.0-10.0-0.0-0.0-0.0-1.18","null","<span style='color:GreenYellow; font-size: 70px;'>正确! </span>","null","","","","","","","","","","","","","","","","","","","","","","","feedback_test"
"","","","","","psychophysics","244","614245","0.0-10.0-0.0-0.0-0.0-0.19","1338","","f","","","","","","","","","","","","","key","f","6.059579220779131","853.3333333333334","476","j","false","img/S_ambi40.png","朋友","same",""
"","","","","","html-keyboard-response","245","614750","0.0-10.0-0.0-0.0-0.0-1.19","null","<span style='color:red; font-size: 70px;'>错误! </span>","null","","","","","","","","","","","","","","","","","","","","","","","feedback_test"
"","","","","","psychophysics","246","617037","0.0-10.0-0.0-0.0-0.0-0.20","1281","","f","","","","","","","","","","","","","key","f","6.060771276595683","853.3333333333334","476","f","true","img/S_ambi40.png","自我","same",""
"","","","","","html-keyboard-response","247","617544","0.0-10.0-0.0-0.0-0.0-1.20","null","<span style='color:GreenYellow; font-size: 70px;'>正确! </span>","null","","","","","","","","","","","","","","","","","","","","","","","feedback_test"
"","","","","","psychophysics","248","620047","0.0-10.0-0.0-0.0-0.0-0.21","null","","null","","","","","","","","","","","","","key","null","6.059478155339817","853.3333333333334","476","j","false","img/H_ambi40.png","生人","same",""
"","","","","","html-keyboard-response","249","620550","0.0-10.0-0.0-0.0-0.0-1.21","null","<span class='add_' style='color:yellow; font-size: 70px;'> 太慢! </span>","null","","","","","","","","","","","","","","","","","","","","","","","feedback_test"
"","","","","","psychophysics","250","622813","0.0-10.0-0.0-0.0-0.0-0.22","1257","","j","","","","","","","","","","","","","key","j","6.059927419355009","853.3333333333334","476","f","false","img/C_ambi40.png","生人","same",""
"","","","","","html-keyboard-response","251","623325","0.0-10.0-0.0-0.0-0.0-1.22","null","<span style='color:red; font-size: 70px;'>错误! </span>","null","","","","","","","","","","","","","","","","","","","","","","","feedback_test"
"","","","","","psychophysics","252","625613","0.0-10.0-0.0-0.0-0.0-0.23","1282","","f","","","","","","","","","","","","","key","f","6.059856382978553","853.3333333333334","476","f","true","img/H_ambi40.png","朋友","same",""
"","","","","","html-keyboard-response","253","626124","0.0-10.0-0.0-0.0-0.0-1.23","null","<span style='color:GreenYellow; font-size: 70px;'>正确! </span>","null","","","","","","","","","","","","","","","","","","","","","","","feedback_test"
"","","","","","psychophysics","254","627813","0.0-10.0-0.0-0.0-0.0-0.24","688","","f","","","","","","","","","","","","","key","f","6.059553956834887","853.3333333333334","476","f","true","img/H_ambi40.png","朋友","same",""
"","","","","","html-keyboard-response","255","628322","0.0-10.0-0.0-0.0-0.0-1.24","null","<span style='color:GreenYellow; font-size: 70px;'>正确! </span>","null","","","","","","","","","","","","","","","","","","","","","","","feedback_test"
"","","","","","psychophysics","256","630054","0.0-10.0-0.0-0.0-0.0-0.25","728","","f","","","","","","","","","","","","","key","f","6.061214035087707","853.3333333333334","476","f","true","img/T_ambi40.png","をる","same",""
"","","","","","html-keyboard-response","257","630567","0.0-10.0-0.0-0.0-0.0-1.25","null","<span style='color:GreenYellow; font-size: 70px;'>正确! </span>","null","","","","","","","","","","","","","","","","","","","","","","","feedback_test"
"","","","","","psychophysics","258","632797","0.0-10.0-0.0-0.0-0.0-0.26","1229","","j","","","","","","","","","","","","","key","j","6.055520547944925","853.3333333333334","476","j","true","img/H_ambi40.png","自我","same",""
"","","","","","html-keyboard-response","259","633303","0.0-10.0-0.0-0.0-0.0-1.26","null","<span style='color:GreenYellow; font-size: 70px;'>正确! </span>","null","","","","","","","","","","","","","","","","","","","","","","","feedback_test"
"","","","","","psychophysics","260","635453","0.0-10.0-0.0-0.0-0.0-0.27","1146","","j","","","","","","","","","","","","","key","j","6.060104519774017","853.3333333333334","476","j","true","img/S_ambi40.png","朋友","same",""
"","","","","","html-keyboard-response","261","635955","0.0-10.0-0.0-0.0-0.0-1.27","null","<span style='color:GreenYellow; font-size: 70px;'>正确! </span>","null","","","","","","","","","","","","","","","","","","","","","","","feedback_test"
"","","","","","psychophysics","262","637965","0.0-10.0-0.0-0.0-0.0-0.28","1010","","j","","","","","","","","","","","","","key","j","6.106690184049311","853.3333333333334","476","j","true","img/C_ambi40.png","朋友","same",""
"","","","","","html-keyboard-response","263","638479","0.0-10.0-0.0-0.0-0.0-1.28","null","<span style='color:GreenYellow; font-size: 70px;'>正确! </span>","null","","","","","","","","","","","","","","","","","","","","","","","feedback_test"
"","","","","","psychophysics","264","640149","0.0-10.0-0.0-0.0-0.0-0.29","667","","f","","","","","","","","","","","","","key","f","6.061237226277301","853.3333333333334","476","f","true","img/T_ambi40.png","をる","same",""
"","","","","","html-keyboard-response","265","640657","0.0-10.0-0.0-0.0-0.0-1.29","null","<span style='color:GreenYellow; font-size: 70px;'>正确! </span>","null","","","","","","","","","","","","","","","","","","","","","","","feedback_test"
"","","","","","psychophysics","266","642821","0.0-10.0-0.0-0.0-0.0-0.30","1163","","f","","","","","","","","","","","","","key","f","6.054228813559117","853.3333333333334","476","j","false","img/C_ambi40.png","自我","same",""
"","","","","","html-keyboard-response","267","643336","0.0-10.0-0.0-0.0-0.0-1.30","null","<span style='color:red; font-size: 70px;'>错误! </span>","null","","","","","","","","","","","","","","","","","","","","","","","feedback_test"
"","","","","","psychophysics","268","645429","0.0-10.0-0.0-0.0-0.0-0.31","1092","","j","","","","","","","","","","","","","key","j","6.050326530612209","853.3333333333334","476","j","true","img/S_ambi40.png","生人","same",""
"","","","","","html-keyboard-response","269","645931","0.0-10.0-0.0-0.0-0.0-1.31","null","<span style='color:GreenYellow; font-size: 70px;'>正确! </span>","null","","","","","","","","","","","","","","","","","","","","","","","feedback_test"
"","","","","","psychophysics","270","648197","0.0-10.0-0.0-0.0-0.0-0.32","1260","","j","","","","","","","","","","","","","key","j","6.057241935483856","853.3333333333334","476","j","true","img/H_ambi40.png","生人","same",""
"","","","","","html-keyboard-response","271","648707","0.0-10.0-0.0-0.0-0.0-1.32","null","<span style='color:GreenYellow; font-size: 70px;'>正确! </span>","null","","","","","","","","","","","","","","","","","","","","","","","feedback_test"
"","","","","","psychophysics","272","650590","0.0-10.0-0.0-0.0-0.0-0.33","876","","j","","","","","","","","","","","","","key","j","6.061074433656874","853.3333333333334","476","j","true","img/C_ambi40.png","自我","same",""
"","","","","","html-keyboard-response","273","651104","0.0-10.0-0.0-0.0-0.0-1.33","null","<span style='color:GreenYellow; font-size: 70px;'>正确! </span>","null","","","","","","","","","","","","","","","","","","","","","","","feedback_test"
"","","","","","psychophysics","274","653325","0.0-10.0-0.0-0.0-0.0-0.34","1219","","j","","","","","","","","","","","","","key","j","6.060079234972522","853.3333333333334","476","f","false","img/C_ambi40.png","生人","same",""
"","","","","","html-keyboard-response","275","653830","0.0-10.0-0.0-0.0-0.0-1.34","null","<span style='color:red; font-size: 70px;'>错误! </span>","null","","","","","","","","","","","","","","","","","","","","","","","feedback_test"
"","","","","","psychophysics","276","656141","0.0-10.0-0.0-0.0-0.0-0.35","1307","","f","","","","","","","","","","","","","key","f","6.060634210526539","853.3333333333334","476","f","true","img/S_ambi40.png","自我","same",""
"","","","","","html-keyboard-response","277","656643","0.0-10.0-0.0-0.0-0.0-1.35","null","<span style='color:GreenYellow; font-size: 70px;'>正确! </span>","null","","","","","","","","","","","","","","","","","","","","","","","feedback_test"
"","","","","","psychophysics","278","658781","0.0-10.0-0.0-0.0-0.0-0.36","1135","","j","","","","","","","","","","","","","key","j","6.0599971590910915","853.3333333333334","476","j","true","img/S_ambi40.png","朋友","same",""
"","","","","","html-keyboard-response","279","659286","0.0-10.0-0.0-0.0-0.0-1.36","null","<span style='color:GreenYellow; font-size: 70px;'>正确! </span>","null","","","","","","","","","","","","","","","","","","","","","","","feedback_test"
"","","","","","psychophysics","280","661734","0.0-10.0-0.0-0.0-0.0-0.37","1444","","f","","","","","","","","","","","","","key","f","6.060429280397029","853.3333333333334","476","f","true","img/S_ambi40.png","自我","same",""
"","","","","","html-keyboard-response","281","662248","0.0-10.0-0.0-0.0-0.0-1.37","null","<span style='color:GreenYellow; font-size: 70px;'>正确! </span>","null","","","","","","","","","","","","","","","","","","","","","","","feedback_test"
"","","","","","psychophysics","282","664750","0.0-10.0-0.0-0.0-0.0-0.38","null","","null","","","","","","","","","","","","","key","null","6.060092233009501","853.3333333333334","476","j","false","img/C_ambi40.png","朋友","same",""
"","","","","","html-keyboard-response","283","665252","0.0-10.0-0.0-0.0-0.0-1.38","null","<span class='add_' style='color:yellow; font-size: 70px;'> 太慢! </span>","null","","","","","","","","","","","","","","","","","","","","","","","feedback_test"
"","","","","","psychophysics","284","666990","0.0-10.0-0.0-0.0-0.0-0.39","737","","f","","","","","","","","","","","","","key","f","6.060136842105554","853.3333333333334","476","f","true","img/T_ambi40.png","をる","same",""
"","","","","","html-keyboard-response","285","667492","0.0-10.0-0.0-0.0-0.0-1.39","null","<span style='color:GreenYellow; font-size: 70px;'>正确! </span>","null","","","","","","","","","","","","","","","","","","","","","","","feedback_test"
"","","","","","psychophysics","286","669686","0.0-10.0-0.0-0.0-0.0-0.40","1192","","j","","","","","","","","","","","","","key","j","6.059606648199234","853.3333333333334","476","j","true","img/H_ambi40.png","生人","same",""
"","","","","","html-keyboard-response","287","670196","0.0-10.0-0.0-0.0-0.0-1.40","null","<span style='color:GreenYellow; font-size: 70px;'>正确! </span>","null","","","","","","","","","","","","","","","","","","","","","","","feedback_test"
"","","","","","psychophysics","288","671862","0.0-10.0-0.0-0.0-0.0-0.41","663","","f","","","","","","","","","","","","","key","f","6.060777372262954","853.3333333333334","476","f","true","img/T_ambi40.png","をる","same",""
"","","","","","html-keyboard-response","289","672364","0.0-10.0-0.0-0.0-0.0-1.41","null","<span style='color:GreenYellow; font-size: 70px;'>正确! </span>","null","","","","","","","","","","","","","","","","","","","","","","","feedback_test"
"","","","","","psychophysics","290","674867","0.0-10.0-0.0-0.0-0.0-0.42","null","","null","","","","","","","","","","","","","key","null","6.060524271844629","853.3333333333334","476","j","false","img/C_ambi40.png","自我","same",""
"","","","","","html-keyboard-response","291","675382","0.0-10.0-0.0-0.0-0.0-1.42","null","<span class='add_' style='color:yellow; font-size: 70px;'> 太慢! </span>","null","","","","","","","","","","","","","","","","","","","","","","","feedback_test"
"","","","","","psychophysics","292","677733","0.0-10.0-0.0-0.0-0.0-0.43","1348","","j","","","","","","","","","","","","","key","j","6.106916666666621","853.3333333333334","476","f","false","img/C_ambi40.png","生人","same",""
"","","","","","html-keyboard-response","293","678240","0.0-10.0-0.0-0.0-0.0-1.43","null","<span style='color:red; font-size: 70px;'>错误! </span>","null","","","","","","","","","","","","","","","","","","","","","","","feedback_test"
"","","","","","psychophysics","294","680582","0.0-10.0-0.0-0.0-0.0-0.44","1335","","f","","","","","","","","","","","","","key","f","6.071966233766371","853.3333333333334","476","f","true","img/S_ambi40.png","自我","same",""
"","","","","","html-keyboard-response","295","681086","0.0-10.0-0.0-0.0-0.0-1.44","null","<span style='color:GreenYellow; font-size: 70px;'>正确! </span>","null","","","","","","","","","","","","","","","","","","","","","","","feedback_test"
"","","","","","psychophysics","296","683510","0.0-10.0-0.0-0.0-0.0-0.45","1421","","f","","","","","","","","","","","","","key","f","6.060769423558832","853.3333333333334","476","f","true","img/C_ambi40.png","生人","same",""
"","","","","","html-keyboard-response","297","684014","0.0-10.0-0.0-0.0-0.0-1.45","null","<span style='color:GreenYellow; font-size: 70px;'>正确! </span>","null","","","","","","","","","","","","","","","","","","","","","","","feedback_test"
"","","","","","psychophysics","298","686222","0.0-10.0-0.0-0.0-0.0-0.46","1206","","f","","","","","","","","","","","","","key","f","6.06090082644617","853.3333333333334","476","f","true","img/H_ambi40.png","朋友","same",""
"","","","","","html-keyboard-response","299","686730","0.0-10.0-0.0-0.0-0.0-1.46","null","<span style='color:GreenYellow; font-size: 70px;'>正确! </span>","null","","","","","","","","","","","","","","","","","","","","","","","feedback_test"
"","","","","","psychophysics","300","688478","0.0-10.0-0.0-0.0-0.0-0.47","747","","f","","","","","","","","","","","","","key","f","6.048262237762085","853.3333333333334","476","f","true","img/H_ambi40.png","朋友","same",""
"","","","","","html-keyboard-response","301","688980","0.0-10.0-0.0-0.0-0.0-1.47","null","<span style='color:GreenYellow; font-size: 70px;'>正确! </span>","null","","","","","","","","","","","","","","","","","","","","","","","feedback_test"
"","","","","","psychophysics","302","691006","0.0-10.0-0.0-0.0-0.0-0.48","1020","","j","","","","","","","","","","","","","key","j","6.060720720720987","853.3333333333334","476","j","true","img/S_ambi40.png","生人","same",""
"","","","","","html-keyboard-response","303","691515","0.0-10.0-0.0-0.0-0.0-1.48","null","<span style='color:GreenYellow; font-size: 70px;'>正确! </span>","null","","","","","","","","","","","","","","","","","","","","","","","feedback_test"
"","","","","","psychophysics","304","693981","0.0-10.0-0.0-0.0-0.0-0.49","1462","","f","","","","","","","","","","","","","key","f","6.089801980198089","853.3333333333334","476","j","false","img/C_ambi40.png","自我","same",""
"","","","","","html-keyboard-response","305","694492","0.0-10.0-0.0-0.0-0.0-1.49","null","<span style='color:red; font-size: 70px;'>错误! </span>","null","","","","","","","","","","","","","","","","","","","","","","","feedback_test"
"","","","","","psychophysics","306","696278","0.0-10.0-0.0-0.0-0.0-0.50","783","","f","","","","","","","","","","","","","key","f","6.060982993197292","853.3333333333334","476","f","true","img/T_ambi40.png","をる","same",""
"","","","","","html-keyboard-response","307","696783","0.0-10.0-0.0-0.0-0.0-1.50","null","<span style='color:GreenYellow; font-size: 70px;'>正确! </span>","null","","","","","","","","","","","","","","","","","","","","","","","feedback_test"
"","","","","","psychophysics","308","698822","0.0-10.0-0.0-0.0-0.0-0.51","1036","","j","","","","","","","","","","","","","key","j","6.078808383233664","853.3333333333334","476","j","true","img/H_ambi40.png","自我","same",""
"","","","","","html-keyboard-response","309","699333","0.0-10.0-0.0-0.0-0.0-1.51","null","<span style='color:GreenYellow; font-size: 70px;'>正确! </span>","null","","","","","","","","","","","","","","","","","","","","","","","feedback_test"
"","","","","","psychophysics","310","701406","0.0-10.0-0.0-0.0-0.0-0.52","1069","","j","","","","","","","","","","","","","key","j","6.060228739003104","853.3333333333334","476","j","true","img/S_ambi40.png","朋友","same",""
"","","","","","html-keyboard-response","311","701910","0.0-10.0-0.0-0.0-0.0-1.52","null","<span style='color:GreenYellow; font-size: 70px;'>正确! </span>","null","","","","","","","","","","","","","","","","","","","","","","","feedback_test"
"","","","","","psychophysics","312","704094","0.0-10.0-0.0-0.0-0.0-0.53","1181","","j","","","","","","","","","","","","","key","j","6.060598885793885","853.3333333333334","476","j","true","img/H_ambi40.png","生人","same",""
"","","","","","html-keyboard-response","313","704595","0.0-10.0-0.0-0.0-0.0-1.53","null","<span style='color:GreenYellow; font-size: 70px;'>正确! </span>","null","","","","","","","","","","","","","","","","","","","","","","","feedback_test"
"","","","","","psychophysics","314","706806","0.0-10.0-0.0-0.0-0.0-0.54","1208","","j","","","","","","","","","","","","","key","j","6.060656593406668","853.3333333333334","476","j","true","img/H_ambi40.png","自我","same",""
"","","","","","html-keyboard-response","315","707308","0.0-10.0-0.0-0.0-0.0-1.54","null","<span style='color:GreenYellow; font-size: 70px;'>正确! </span>","null","","","","","","","","","","","","","","","","","","","","","","","feedback_test"
"","","","","","psychophysics","316","709366","0.0-10.0-0.0-0.0-0.0-0.55","1055","","j","","","","","","","","","","","","","key","j","6.078456973293948","853.3333333333334","476","j","true","img/S_ambi40.png","朋友","same",""
"","","","","","html-keyboard-response","317","709875","0.0-10.0-0.0-0.0-0.0-1.55","null","<span style='color:GreenYellow; font-size: 70px;'>正确! </span>","null","","","","","","","","","","","","","","","","","","","","","","","feedback_test"
"","","","","","psychophysics","318","711951","0.0-10.0-0.0-0.0-0.0-0.56","1075","","f","","","","","","","","","","","","","key","f","6.06029032258067","853.3333333333334","476","j","false","img/C_ambi40.png","自我","same",""
"","","","","","html-keyboard-response","319","712458","0.0-10.0-0.0-0.0-0.0-1.56","null","<span style='color:red; font-size: 70px;'>错误! </span>","null","","","","","","","","","","","","","","","","","","","","","","","feedback_test"
"","","","","","psychophysics","320","714926","0.0-10.0-0.0-0.0-0.0-0.57","1468","","j","","","","","","","","","","","","","key","j","6.075629629629641","853.3333333333334","476","f","false","img/S_ambi40.png","自我","same",""
"","","","","","html-keyboard-response","321","715439","0.0-10.0-0.0-0.0-0.0-1.57","null","<span style='color:red; font-size: 70px;'>错误! </span>","null","","","","","","","","","","","","","","","","","","","","","","","feedback_test"
"","","","","","psychophysics","322","717943","0.0-10.0-0.0-0.0-0.0-0.58","null","","null","","","","","","","","","","","","","key","null","6.054043902439156","853.3333333333334","476","j","false","img/H_ambi40.png","生人","same",""
"","","","","","html-keyboard-response","323","718450","0.0-10.0-0.0-0.0-0.0-1.58","null","<span class='add_' style='color:yellow; font-size: 70px;'> 太慢! </span>","null","","","","","","","","","","","","","","","","","","","","","","","feedback_test"
"","","","","","psychophysics","324","720494","0.0-10.0-0.0-0.0-0.0-0.59","1042","","f","","","","","","","","","","","","","key","f","6.073978978979007","853.3333333333334","476","f","true","img/S_ambi40.png","自我","same",""
"","","","","","html-keyboard-response","325","721002","0.0-10.0-0.0-0.0-0.0-1.59","null","<span style='color:GreenYellow; font-size: 70px;'>正确! </span>","null","","","","","","","","","","","","","","","","","","","","","","","feedback_test"
"","","","","","psychophysics","326","722733","0.0-10.0-0.0-0.0-0.0-0.60","731","","f","","","","","","","","","","","","","key","f","6.095967971530471","853.3333333333334","476","f","true","img/T_ambi40.png","をる","same",""
"","","","","","html-keyboard-response","327","723249","0.0-10.0-0.0-0.0-0.0-1.60","null","<span style='color:GreenYellow; font-size: 70px;'>正确! </span>","null","","","","","","","","","","","","","","","","","","","","","","","feedback_test"
"","","","","","psychophysics","328","725532","0.0-10.0-0.0-0.0-0.0-0.61","1282","","j","","","","","","","","","","","","","key","j","6.076674666666737","853.3333333333334","476","j","true","img/C_ambi40.png","朋友","same",""
"","","","","","html-keyboard-response","329","726045","0.0-10.0-0.0-0.0-0.0-1.61","null","<span style='color:GreenYellow; font-size: 70px;'>正确! </span>","null","","","","","","","","","","","","","","","","","","","","","","","feedback_test"
"","","","","","psychophysics","330","728325","0.0-10.0-0.0-0.0-0.0-0.62","1274","","j","","","","","","","","","","","","","key","j","6.057399999999752","853.3333333333334","476","j","true","img/S_ambi40.png","朋友","same",""
"","","","","","html-keyboard-response","331","728828","0.0-10.0-0.0-0.0-0.0-1.62","null","<span style='color:GreenYellow; font-size: 70px;'>正确! </span>","null","","","","","","","","","","","","","","","","","","","","","","","feedback_test"
"","","","","","psychophysics","332","730765","0.0-10.0-0.0-0.0-0.0-0.63","932","","f","","","","","","","","","","","","","key","f","6.054226415094176","853.3333333333334","476","f","true","img/T_ambi40.png","をる","same",""
"","","","","","html-keyboard-response","333","731269","0.0-10.0-0.0-0.0-0.0-1.63","null","<span style='color:GreenYellow; font-size: 70px;'>正确! </span>","null","","","","","","","","","","","","","","","","","","","","","","","feedback_test"
"","","","","","psychophysics","334","733189","0.0-10.0-0.0-0.0-0.0-0.64","920","","f","","","","","","","","","","","","","key","f","6.052541401273953","853.3333333333334","476","f","true","img/H_ambi40.png","朋友","same",""
"","","","","","html-keyboard-response","335","733691","0.0-10.0-0.0-0.0-0.0-1.64","null","<span style='color:GreenYellow; font-size: 70px;'>正确! </span>","null","","","","","","","","","","","","","","","","","","","","","","","feedback_test"
"","","","","","psychophysics","336","735622","0.0-10.0-0.0-0.0-0.0-0.65","929","","j","","","","","","","","","","","","","key","j","6.099996835443182","853.3333333333334","476","j","true","img/H_ambi40.png","生人","same",""
"","","","","","html-keyboard-response","337","736134","0.0-10.0-0.0-0.0-0.0-1.65","null","<span style='color:GreenYellow; font-size: 70px;'>正确! </span>","null","","","","","","","","","","","","","","","","","","","","","","","feedback_test"
"","","","","","psychophysics","338","738245","0.0-10.0-0.0-0.0-0.0-0.66","1110","","j","","","","","","","","","","","","","key","j","6.060376436781772","853.3333333333334","476","j","true","img/S_ambi40.png","生人","same",""
"","","","","","html-keyboard-response","339","738748","0.0-10.0-0.0-0.0-0.0-1.66","null","<span style='color:GreenYellow; font-size: 70px;'>正确! </span>","null","","","","","","","","","","","","","","","","","","","","","","","feedback_test"
"","","","","","psychophysics","340","740389","0.0-10.0-0.0-0.0-0.0-0.67","635","","f","","","","","","","","","","","","","key","f","6.056780669144891","853.3333333333334","476","f","true","img/T_ambi40.png","をる","same",""
"","","","","","html-keyboard-response","341","740898","0.0-10.0-0.0-0.0-0.0-1.67","null","<span style='color:GreenYellow; font-size: 70px;'>正确! </span>","null","","","","","","","","","","","","","","","","","","","","","","","feedback_test"
"","","","","","psychophysics","342","742933","0.0-10.0-0.0-0.0-0.0-0.68","1032","","j","","","","","","","","","","","","","key","j","6.054546546546516","853.3333333333334","476","f","false","img/C_ambi40.png","生人","same",""
"","","","","","html-keyboard-response","343","743450","0.0-10.0-0.0-0.0-0.0-1.68","null","<span style='color:red; font-size: 70px;'>错误! </span>","null","","","","","","","","","","","","","","","","","","","","","","","feedback_test"
"","","","","","psychophysics","344","745261","0.0-10.0-0.0-0.0-0.0-0.69","810","","j","","","","","","","","","","","","","key","j","6.053962837837831","853.3333333333334","476","j","true","img/C_ambi40.png","自我","same",""
"","","","","","html-keyboard-response","345","745774","0.0-10.0-0.0-0.0-0.0-1.69","null","<span style='color:GreenYellow; font-size: 70px;'>正确! </span>","null","","","","","","","","","","","","","","","","","","","","","","","feedback_test"
"","","","","","psychophysics","346","747949","0.0-10.0-0.0-0.0-0.0-0.70","1171","","f","","","","","","","","","","","","","key","f","6.059851955307333","853.3333333333334","476","f","true","img/C_ambi40.png","生人","same",""
"","","","","","html-keyboard-response","347","748464","0.0-10.0-0.0-0.0-0.0-1.70","null","<span style='color:GreenYellow; font-size: 70px;'>正确! </span>","null","","","","","","","","","","","","","","","","","","","","","","","feedback_test"
"","","","","","psychophysics","348","750373","0.0-10.0-0.0-0.0-0.0-0.71","904","","j","","","","","","","","","","","","","key","j","6.055143312102103","853.3333333333334","476","f","false","img/H_ambi40.png","朋友","same",""
"","","","","","html-keyboard-response","349","750884","0.0-10.0-0.0-0.0-0.0-1.71","null","<span style='color:red; font-size: 70px;'>错误! </span>","null","","","","","","","","","","","","","","","","","","","","","","","feedback_test"
"","","","","","psychophysics","350","753101","0.0-10.0-0.0-0.0-0.0-0.72","1213","","f","","","","","","","","","","","","","key","f","6.055545205479386","853.3333333333334","476","j","false","img/S_ambi40.png","朋友","same",""
"","","","","","html-keyboard-response","351","753607","0.0-10.0-0.0-0.0-0.0-1.72","null","<span style='color:red; font-size: 70px;'>错误! </span>","null","","","","","","","","","","","","","","","","","","","","","","","feedback_test"
"","","","","","psychophysics","352","755349","0.0-10.0-0.0-0.0-0.0-0.73","741","","f","","","","","","","","","","","","","key","f","6.049375438596236","853.3333333333334","476","f","true","img/T_ambi40.png","をる","same",""
"","","","","","html-keyboard-response","353","755851","0.0-10.0-0.0-0.0-0.0-1.73","null","<span style='color:GreenYellow; font-size: 70px;'>正确! </span>","null","","","","","","","","","","","","","","","","","","","","","","","feedback_test"
"","","","","","psychophysics","354","757909","0.0-10.0-0.0-0.0-0.0-0.74","1052","","j","","","","","","","","","","","","","key","j","6.056931952662771","853.3333333333334","476","f","false","img/C_ambi40.png","生人","same",""
"","","","","","html-keyboard-response","355","758417","0.0-10.0-0.0-0.0-0.0-1.74","null","<span style='color:red; font-size: 70px;'>错误! </span>","null","","","","","","","","","","","","","","","","","","","","","","","feedback_test"
"","","","","","psychophysics","356","760358","0.0-10.0-0.0-0.0-0.0-0.75","937","","j","","","","","","","","","","","","","key","j","6.076342767295603","853.3333333333334","476","j","true","img/H_ambi40.png","生人","same",""
"","","","","","html-keyboard-response","357","760861","0.0-10.0-0.0-0.0-0.0-1.75","null","<span style='color:GreenYellow; font-size: 70px;'>正确! </span>","null","","","","","","","","","","","","","","","","","","","","","","","feedback_test"
"","","","","","psychophysics","358","762661","0.0-10.0-0.0-0.0-0.0-0.76","798","","j","","","","","","","","","","","","","key","j","6.060993243243256","853.3333333333334","476","f","false","img/S_ambi40.png","自我","same",""
"","","","","","html-keyboard-response","359","763177","0.0-10.0-0.0-0.0-0.0-1.76","null","<span style='color:red; font-size: 70px;'>错误! </span>","null","","","","","","","","","","","","","","","","","","","","","","","feedback_test"
"","","","","","psychophysics","360","765681","0.0-10.0-0.0-0.0-0.0-0.77","null","","null","","","","","","","","","","","","","key","null","6.055781021897756","853.3333333333334","476","f","false","img/C_ambi40.png","生人","same",""
"","","","","","html-keyboard-response","361","766190","0.0-10.0-0.0-0.0-0.0-1.77","null","<span class='add_' style='color:yellow; font-size: 70px;'> 太慢! </span>","null","","","","","","","","","","","","","","","","","","","","","","","feedback_test"
"","","","","","psychophysics","362","768405","0.0-10.0-0.0-0.0-0.0-0.78","1209","","f","","","","","","","","","","","","","key","f","6.05776373626393","853.3333333333334","476","f","true","img/S_ambi40.png","自我","same",""
"","","","","","html-keyboard-response","363","768906","0.0-10.0-0.0-0.0-0.0-1.78","null","<span style='color:GreenYellow; font-size: 70px;'>正确! </span>","null","","","","","","","","","","","","","","","","","","","","","","","feedback_test"
"","","","","","psychophysics","364","771157","0.0-10.0-0.0-0.0-0.0-0.79","1246","","f","","","","","","","","","","","","","key","f","6.057908108108048","853.3333333333334","476","f","true","img/H_ambi40.png","朋友","same",""
"","","","","","html-keyboard-response","365","771664","0.0-10.0-0.0-0.0-0.0-1.79","null","<span style='color:GreenYellow; font-size: 70px;'>正确! </span>","null","","","","","","","","","","","","","","","","","","","","","","","feedback_test"
"","","","","","psychophysics","366","773829","0.0-10.0-0.0-0.0-0.0-0.80","1160","","j","","","","","","","","","","","","","key","j","6.060014044943794","853.3333333333334","476","j","true","img/H_ambi40.png","自我","same",""
"","","","","","html-keyboard-response","367","774342","0.0-10.0-0.0-0.0-0.0-1.80","null","<span style='color:GreenYellow; font-size: 70px;'>正确! </span>","null","","","","","","","","","","","","","","","","","","","","","","","feedback_test"
"","","","","","psychophysics","368","776485","0.0-10.0-0.0-0.0-0.0-0.81","1138","","j","","","","","","","","","","","","","key","j","6.057718750000111","853.3333333333334","476","j","true","img/S_ambi40.png","生人","same",""
"","","","","","html-keyboard-response","369","776990","0.0-10.0-0.0-0.0-0.0-1.81","null","<span style='color:GreenYellow; font-size: 70px;'>正确! </span>","null","","","","","","","","","","","","","","","","","","","","","","","feedback_test"
"","","","","","psychophysics","370","778661","0.0-10.0-0.0-0.0-0.0-0.82","665","","f","","","","","","","","","","","","","key","f","6.059660583941426","853.3333333333334","476","f","true","img/T_ambi40.png","をる","same",""
"","","","","","html-keyboard-response","371","779163","0.0-10.0-0.0-0.0-0.0-1.82","null","<span style='color:GreenYellow; font-size: 70px;'>正确! </span>","null","","","","","","","","","","","","","","","","","","","","","","","feedback_test"
"","","","","","psychophysics","372","780997","0.0-10.0-0.0-0.0-0.0-0.83","831","","f","","","","","","","","","","","","","key","f","6.059615894039593","853.3333333333334","476","j","false","img/S_ambi40.png","朋友","same",""
"","","","","","html-keyboard-response","373","781511","0.0-10.0-0.0-0.0-0.0-1.83","null","<span style='color:red; font-size: 70px;'>错误! </span>","null","","","","","","","","","","","","","","","","","","","","","","","feedback_test"
"","","","","","psychophysics","374","783349","0.0-10.0-0.0-0.0-0.0-0.84","835","","j","","","","","","","","","","","","","key","j","6.061218543046397","853.3333333333334","476","j","true","img/C_ambi40.png","自我","same",""
"","","","","","html-keyboard-response","375","783852","0.0-10.0-0.0-0.0-0.0-1.84","null","<span style='color:GreenYellow; font-size: 70px;'>正确! </span>","null","","","","","","","","","","","","","","","","","","","","","","","feedback_test"
"","","","","","psychophysics","376","785637","0.0-10.0-0.0-0.0-0.0-0.85","781","","f","","","","","","","","","","","","","key","f","6.059470989760854","853.3333333333334","476","f","true","img/H_ambi40.png","朋友","same",""
"","","","","","html-keyboard-response","377","786153","0.0-10.0-0.0-0.0-0.0-1.85","null","<span style='color:GreenYellow; font-size: 70px;'>正确! </span>","null","","","","","","","","","","","","","","","","","","","","","","","feedback_test"
"","","","","","psychophysics","378","788213","0.0-10.0-0.0-0.0-0.0-0.86","1060","","j","","","","","","","","","","","","","key","j","6.104919161676488","853.3333333333334","476","j","true","img/C_ambi40.png","自我","same",""
"","","","","","html-keyboard-response","379","788728","0.0-10.0-0.0-0.0-0.0-1.86","null","<span style='color:GreenYellow; font-size: 70px;'>正确! </span>","null","","","","","","","","","","","","","","","","","","","","","","","feedback_test"
"","","","","","psychophysics","380","790517","0.0-10.0-0.0-0.0-0.0-0.87","788","","j","","","","","","","","","","","","","key","j","6.04985273972613","853.3333333333334","476","j","true","img/C_ambi40.png","朋友","same",""
"","","","","","html-keyboard-response","381","791026","0.0-10.0-0.0-0.0-0.0-1.87","null","<span style='color:GreenYellow; font-size: 70px;'>正确! </span>","null","","","","","","","","","","","","","","","","","","","","","","","feedback_test"
"","","","","","psychophysics","382","792949","0.0-10.0-0.0-0.0-0.0-0.88","917","","j","","","","","","","","","","","","","key","j","6.078726984126981","853.3333333333334","476","j","true","img/H_ambi40.png","生人","same",""
"","","","","","html-keyboard-response","383","793462","0.0-10.0-0.0-0.0-0.0-1.88","null","<span style='color:GreenYellow; font-size: 70px;'>正确! </span>","null","","","","","","","","","","","","","","","","","","","","","","","feedback_test"
"","","","","","psychophysics","384","795141","0.0-10.0-0.0-0.0-0.0-0.89","678","","f","","","","","","","","","","","","","key","f","6.049996350365045","853.3333333333334","476","f","true","img/T_ambi40.png","をる","same",""
"","","","","","html-keyboard-response","385","795654","0.0-10.0-0.0-0.0-0.0-1.89","null","<span style='color:GreenYellow; font-size: 70px;'>正确! </span>","null","","","","","","","","","","","","","","","","","","","","","","","feedback_test"
"","","","","","psychophysics","386","797349","0.0-10.0-0.0-0.0-0.0-0.90","692","","f","","","","","","","","","","","","","key","f","6.059655913978391","853.3333333333334","476","f","true","img/T_ambi40.png","をる","same",""
"","","","","","html-keyboard-response","387","797862","0.0-10.0-0.0-0.0-0.0-1.90","null","<span style='color:GreenYellow; font-size: 70px;'>正确! </span>","null","","","","","","","","","","","","","","","","","","","","","","","feedback_test"
"","","","","","psychophysics","388","800221","0.0-10.0-0.0-0.0-0.0-0.91","1359","","j","","","","","","","","","","","","","key","j","6.059654639175428","853.3333333333334","476","j","true","img/S_ambi40.png","朋友","same",""
"","","","","","html-keyboard-response","389","800732","0.0-10.0-0.0-0.0-0.0-1.91","null","<span style='color:GreenYellow; font-size: 70px;'>正确! </span>","null","","","","","","","","","","","","","","","","","","","","","","","feedback_test"
"","","","","","psychophysics","390","803157","0.0-10.0-0.0-0.0-0.0-0.92","1422","","f","","","","","","","","","","","","","key","f","6.060656641604131","853.3333333333334","476","f","true","img/H_ambi40.png","朋友","same",""
"","","","","","html-keyboard-response","391","803670","0.0-10.0-0.0-0.0-0.0-1.92","null","<span style='color:GreenYellow; font-size: 70px;'>正确! </span>","null","","","","","","","","","","","","","","","","","","","","","","","feedback_test"
"","","","","","psychophysics","392","805957","0.0-10.0-0.0-0.0-0.0-0.93","1283","","f","","","","","","","","","","","","","key","f","6.05968617021287","853.3333333333334","476","f","true","img/S_ambi40.png","自我","same",""
"","","","","","html-keyboard-response","393","806471","0.0-10.0-0.0-0.0-0.0-1.93","null","<span style='color:GreenYellow; font-size: 70px;'>正确! </span>","null","","","","","","","","","","","","","","","","","","","","","","","feedback_test"
"","","","","","psychophysics","394","808381","0.0-10.0-0.0-0.0-0.0-0.94","907","","j","","","","","","","","","","","","","key","j","6.060098726114786","853.3333333333334","476","j","true","img/H_ambi40.png","生人","same",""
"","","","","","html-keyboard-response","395","808895","0.0-10.0-0.0-0.0-0.0-1.94","null","<span style='color:GreenYellow; font-size: 70px;'>正确! </span>","null","","","","","","","","","","","","","","","","","","","","","","","feedback_test"
"","","","","","psychophysics","396","811229","0.0-10.0-0.0-0.0-0.0-0.95","1331","","j","","","","","","","","","","","","","key","j","6.060255208333122","853.3333333333334","476","f","false","img/C_ambi40.png","生人","same",""
"","","","","","html-keyboard-response","397","811742","0.0-10.0-0.0-0.0-0.0-1.95","null","<span style='color:red; font-size: 70px;'>错误! </span>","null","","","","","","","","","","","","","","","","","","","","","","","feedback_test"
"","","","","","psychophysics","398","813581","0.0-10.0-0.0-0.0-0.0-0.96","834","","f","","","","","","","","","","","","","key","f","6.0602582781456125","853.3333333333334","476","f","true","img/C_ambi40.png","生人","same",""
"","","","","","html-keyboard-response","399","814087","0.0-10.0-0.0-0.0-0.0-1.96","null","<span style='color:GreenYellow; font-size: 70px;'>正确! </span>","null","","","","","","","","","","","","","","","","","","","","","","","feedback_test"
"","","","","","psychophysics","400","815925","0.0-10.0-0.0-0.0-0.0-0.97","832","","j","","","","","","","","","","","","","key","j","6.0606920529802215","853.3333333333334","476","j","true","img/H_ambi40.png","自我","same",""
"","","","","","html-keyboard-response","401","816439","0.0-10.0-0.0-0.0-0.0-1.97","null","<span style='color:GreenYellow; font-size: 70px;'>正确! </span>","null","","","","","","","","","","","","","","","","","","","","","","","feedback_test"
"","","","","","psychophysics","402","818789","0.0-10.0-0.0-0.0-0.0-0.98","1345","","j","","","","","","","","","","","","","key","j","6.060481865285025","853.3333333333334","476","j","true","img/C_ambi40.png","自我","same",""
"","","","","","html-keyboard-response","403","819294","0.0-10.0-0.0-0.0-0.0-1.98","null","<span style='color:GreenYellow; font-size: 70px;'>正确! </span>","null","","","","","","","","","","","","","","","","","","","","","","","feedback_test"
"","","","","","psychophysics","404","821357","0.0-10.0-0.0-0.0-0.0-0.99","1059","","j","","","","","","","","","","","","","key","j","6.059793510324539","853.3333333333334","476","j","true","img/S_ambi40.png","生人","same",""
"","","","","","html-keyboard-response","405","821867","0.0-10.0-0.0-0.0-0.0-1.99","null","<span style='color:GreenYellow; font-size: 70px;'>正确! </span>","null","","","","","","","","","","","","","","","","","","","","","","","feedback_test"
"","","","","","psychophysics","406","824189","0.0-10.0-0.0-0.0-0.0-0.100","1321","","j","","","","","","","","","","","","","key","j","6.055423684210492","853.3333333333334","476","f","false","img/S_ambi40.png","自我","same",""
"","","","","","html-keyboard-response","407","824702","0.0-10.0-0.0-0.0-0.0-1.100","null","<span style='color:red; font-size: 70px;'>错误! </span>","null","","","","","","","","","","","","","","","","","","","","","","","feedback_test"
"","","","","","psychophysics","408","827109","0.0-10.0-0.0-0.0-0.0-0.101","1405","","f","","","","","","","","","","","","","key","f","6.060664141414255","853.3333333333334","476","j","false","img/H_ambi40.png","生人","same",""
"","","","","","html-keyboard-response","409","827610","0.0-10.0-0.0-0.0-0.0-1.101","null","<span style='color:red; font-size: 70px;'>错误! </span>","null","","","","","","","","","","","","","","","","","","","","","","","feedback_test"
"","","","","","psychophysics","410","829301","0.0-10.0-0.0-0.0-0.0-0.102","687","","f","","","","","","","","","","","","","key","f","6.059870503597438","853.3333333333334","476","f","true","img/T_ambi40.png","をる","same",""
"","","","","","html-keyboard-response","411","829806","0.0-10.0-0.0-0.0-0.0-1.102","null","<span style='color:GreenYellow; font-size: 70px;'>正确! </span>","null","","","","","","","","","","","","","","","","","","","","","","","feedback_test"
"","","","","","psychophysics","412","831981","0.0-10.0-0.0-0.0-0.0-0.103","1174","","j","","","","","","","","","","","","","key","j","6.060625698324098","853.3333333333334","476","j","true","img/C_ambi40.png","朋友","same",""
"","","","","","html-keyboard-response","413","832490","0.0-10.0-0.0-0.0-0.0-1.103","null","<span style='color:GreenYellow; font-size: 70px;'>正确! </span>","null","","","","","","","","","","","","","","","","","","","","","","","feedback_test"
"","","","","","psychophysics","414","834909","0.0-10.0-0.0-0.0-0.0-0.104","1416","","j","","","","","","","","","","","","","key","j","6.121994923857847","853.3333333333334","476","j","true","img/C_ambi40.png","自我","same",""
"","","","","","html-keyboard-response","415","835425","0.0-10.0-0.0-0.0-0.0-1.104","null","<span style='color:GreenYellow; font-size: 70px;'>正确! </span>","null","","","","","","","","","","","","","","","","","","","","","","","feedback_test"
"","","","","","psychophysics","416","837501","0.0-10.0-0.0-0.0-0.0-0.105","1069","","f","","","","","","","","","","","","","key","f","6.057337243401833","853.3333333333334","476","j","false","img/S_ambi40.png","朋友","same",""
"","","","","","html-keyboard-response","417","838006","0.0-10.0-0.0-0.0-0.0-1.105","null","<span style='color:red; font-size: 70px;'>错误! </span>","null","","","","","","","","","","","","","","","","","","","","","","","feedback_test"
"","","","","","psychophysics","418","839613","0.0-10.0-0.0-0.0-0.0-0.106","605","","f","","","","","","","","","","","","","key","f","6.059977272726952","853.3333333333334","476","f","true","img/T_ambi40.png","をる","same",""
"","","","","","html-keyboard-response","419","840128","0.0-10.0-0.0-0.0-0.0-1.106","null","<span style='color:GreenYellow; font-size: 70px;'>正确! </span>","null","","","","","","","","","","","","","","","","","","","","","","","feedback_test"
"","","","","","psychophysics","420","842117","0.0-10.0-0.0-0.0-0.0-0.107","989","","f","","","","","","","","","","","","","key","f","6.052254601226736","853.3333333333334","476","f","true","img/H_ambi40.png","朋友","same",""
"","","","","","html-keyboard-response","421","842622","0.0-10.0-0.0-0.0-0.0-1.107","null","<span style='color:GreenYellow; font-size: 70px;'>正确! </span>","null","","","","","","","","","","","","","","","","","","","","","","","feedback_test"
"","","","","","html-keyboard-response","422","853374","0.0-10.0-0.0-0.0-1.0","10751","<style>.context{color:white; font-size: 35px; line-height:40px}</style>                          <div><p class='context'>您正确回答了75% 的试次。</p><p class='context'>您的平均反应时为1052毫秒。</p><p class='context'>请按任意键进入休息</p></div>"," ","","","","","","","","","","","","","","","","","","","","","","",""
"","","","","","html-button-response","423","915861","0.0-10.0-0.0-0.0-2.0","62486","
                    <p>您当前还剩余5组实验</p>
                    <p>现在是休息时间，当您结束休息后，您可以点击 结束休息 按钮 继续</p>
                    <p>建议休息时间还剩余<span id=""iii"">60</span>秒</p>","0","","","","","","","","","","","","","","","","","","","","","","",""
"","","","","","psychophysics","424","918125","0.0-10.0-0.0-0.0-0.1-0.108","1258","","j","","","","","","","","","","","","","key","j","6.515670520231273","853.3333333333334","476","j","true","img/C_ambi40.png","朋友","same",""
"","","","","","html-keyboard-response","425","918641","0.0-10.0-0.0-0.0-0.1-1.108","null","<span style='color:GreenYellow; font-size: 70px;'>正确! </span>","null","","","","","","","","","","","","","","","","","","","","","","","feedback_test"
"","","","","","psychophysics","426","920501","0.0-10.0-0.0-0.0-0.1-0.109","858","","j","","","","","","","","","","","","","key","j","6.057615131578993","853.3333333333334","476","j","true","img/H_ambi40.png","生人","same",""
"","","","","","html-keyboard-response","427","921008","0.0-10.0-0.0-0.0-0.1-1.109","null","<span style='color:GreenYellow; font-size: 70px;'>正确! </span>","null","","","","","","","","","","","","","","","","","","","","","","","feedback_test"
"","","","","","psychophysics","428","922893","0.0-10.0-0.0-0.0-0.1-0.110","881","","j","","","","","","","","","","","","","key","j","6.060274193548191","853.3333333333334","476","j","true","img/S_ambi40.png","朋友","same",""
"","","","","","html-keyboard-response","429","923393","0.0-10.0-0.0-0.0-0.1-1.110","null","<span style='color:GreenYellow; font-size: 70px;'>正确! </span>","null","","","","","","","","","","","","","","","","","","","","","","","feedback_test"
"","","","","","psychophysics","430","925141","0.0-10.0-0.0-0.0-0.1-0.111","747","","j","","","","","","","","","","","","","key","j","6.05750871080141","853.3333333333334","476","j","true","img/S_ambi40.png","朋友","same",""
"","","","","","html-keyboard-response","431","925654","0.0-10.0-0.0-0.0-0.1-1.111","null","<span style='color:GreenYellow; font-size: 70px;'>正确! </span>","null","","","","","","","","","","","","","","","","","","","","","","","feedback_test"
