"success","timeout","failed_images","failed_audio","failed_video","trial_type","trial_index","time_elapsed","internal_node_id","rt","stimulus","response","value","item_width_mm","item_height_mm","item_width_px","px2mm","view_dist_mm","item_width_deg","px2deg","scale_factor","win_width_deg","win_height_deg","view_history","response_type","key_press","avg_frame_time","center_x","center_y","correct_response","correct","Image","word","condition","screen_id"
"true","false","[]","[]","[]","preload","0","559","0.0-0.0","","","","","","","","","","","","","","","","","","","","","","","","","",""
"","","","","","html-keyboard-response","1","51270","0.0-1.0","50709","
     <p>您好，欢迎参加本次实验。</p>
     <p>为充分保障您的权利，请确保您已经知晓并同意《参与实验同意书》以及《数据公开知情同意书》。</p>
     <p>如果您未见过上述内容，请咨询实验员。</p>
     <p>如果您选择继续实验，则表示您已经清楚两份知情同意书的内容并同意。</p>
     <p> <div style = ""color: green""><按任意键至下页></div> </p>
     ","arrowdown","","","","","","","","","","","","","","","","","","","","","","",""
"","","","","","html-keyboard-response","2","52367","0.0-2.0","1097","
     <p>本实验首先需要您填写一些基本个人信息。</p>
     <p> <div style = ""color: green""><按任意键至下页></div></p>
     ","arrowdown","","","","","","","","","","","","","","","","","","","","","","",""
"","","","","","call-function","3","52369","0.0-3.0-0.0","","","","","","","","","","","","","","","","","","","","","","","","","",""
"","","","","","survey-html-form","4","57078","0.0-3.0-1.0","4704","","{""Q0"":""10""}","","","","","","","","","","","","","","","","","","","","","","",""
"","","","","","html-button-response","5","59044","0.0-3.0-2.0","1964","<p style = 'color : white'>您的性别</p>","0","","","","","","","","","","","","","","","","","","","","","","",""
"","","","","","survey-html-form","6","63500","0.0-3.0-3.0","4455","","{""Q0"":""1999""}","","","","","","","","","","","","","","","","","","","","","","",""
"","","","","","survey-html-form","7","71509","0.0-3.0-4.0","8007","","{""Q0"":""6""}","","","","","","","","","","","","","","","","","","","","","","",""
"","","","","","virtual-chinrest","8","197871","0.0-4.0","126356","","","","85.6","53.98","507.99227101928886","5.9398054606161645","481.47","10.159845420385777","50","0.7559170127323044","30.72","15.08","","","","","","","","","","","",""
"true","","","","","fullscreen","9","201815","0.0-5.0","","","","","","","","","","","","","","","","","","","","","","","","","",""
"","","","","","instructions","10","251741","0.0-6.0","49924","","","","","","","","","","","","","","[{""page_index"":0,""viewing_time"":5644},{""page_index"":1,""viewing_time"":30575},{""page_index"":2,""viewing_time"":7544},{""page_index"":3,""viewing_time"":6160}]","","","","","","","","","","",""
"","","","","","psychophysics","11","254276","0.0-7.0-0.0","null","","null","","","","","","","","","","","","","key","null","16.67672000000001","768","428","f","false","img/C_ambi40.png","生人","prac",""
"","","","","","html-keyboard-response","12","254791","0.0-7.0-1.0","null","<span class='add_' style='color:yellow; font-size: 70px;'> 太慢! </span>","null","","","","","","","","","","","","","","","","","","","","","","","feedback_test"
"","","","","","psychophysics","13","257199","0.0-7.0-0.1","1397","","j","","","","","","","","","","","","","key","j","16.67322377622363","768","428","j","true","img/H_ambi40.png","自我","prac",""
"","","","","","html-keyboard-response","14","257715","0.0-7.0-1.1","null","<span style='color:GreenYellow; font-size: 70px;'>正确! </span>","null","","","","","","","","","","","","","","","","","","","","","","","feedback_test"
"","","","","","psychophysics","15","259447","0.0-7.0-0.2","727","","f","","","","","","","","","","","","","key","f","16.65802912621361","768","428","f","true","img/C_ambi40.png","生人","prac",""
"","","","","","html-keyboard-response","16","259958","0.0-7.0-1.2","null","<span style='color:GreenYellow; font-size: 70px;'>正确! </span>","null","","","","","","","","","","","","","","","","","","","","","","","feedback_test"
"","","","","","psychophysics","17","261934","0.0-7.0-0.3","967","","j","","","","","","","","","","","","","key","j","16.67347863247881","768","428","j","true","img/T_ambi40.png","をる","prac",""
"","","","","","html-keyboard-response","18","262463","0.0-7.0-1.3","null","<span style='color:GreenYellow; font-size: 70px;'>正确! </span>","null","","","","","","","","","","","","","","","","","","","","","","","feedback_test"
"","","","","","psychophysics","19","264045","0.0-7.0-0.4","555","","j","","","","","","","","","","","","","key","j","16.673521276595604","768","428","j","true","img/T_ambi40.png","をる","prac",""
"","","","","","html-keyboard-response","20","264559","0.0-7.0-1.4","null","<span style='color:GreenYellow; font-size: 70px;'>正确! </span>","null","","","","","","","","","","","","","","","","","","","","","","","feedback_test"
"","","","","","psychophysics","21","266318","0.0-7.0-0.5","747","","j","","","","","","","","","","","","","key","j","16.67396153846158","768","428","f","false","img/S_ambi40.png","自我","prac",""
"","","","","","html-keyboard-response","22","266831","0.0-7.0-1.5","null","<span style='color:red; font-size: 70px;'>错误! </span>","null","","","","","","","","","","","","","","","","","","","","","","","feedback_test"
"","","","","","psychophysics","23","269369","0.0-7.0-0.6","null","","null","","","","","","","","","","","","","key","null","16.673821192052806","768","428","j","false","img/H_ambi40.png","生人","prac",""
"","","","","","html-keyboard-response","24","269882","0.0-7.0-1.6","null","<span class='add_' style='color:yellow; font-size: 70px;'> 太慢! </span>","null","","","","","","","","","","","","","","","","","","","","","","","feedback_test"
"","","","","","psychophysics","25","271718","0.0-7.0-0.7","826","","j","","","","","","","","","","","","","key","j","16.672770642201787","768","428","f","false","img/H_ambi40.png","朋友","prac",""
"","","","","","html-keyboard-response","26","272234","0.0-7.0-1.7","null","<span style='color:red; font-size: 70px;'>错误! </span>","null","","","","","","","","","","","","","","","","","","","","","","","feedback_test"
"","","","","","psychophysics","27","274762","0.0-7.0-0.8","null","","null","","","","","","","","","","","","","key","null","16.677205298013448","768","428","j","false","img/T_ambi40.png","をる","prac",""
"","","","","","html-keyboard-response","28","275279","0.0-7.0-1.8","null","<span class='add_' style='color:yellow; font-size: 70px;'> 太慢! </span>","null","","","","","","","","","","","","","","","","","","","","","","","feedback_test"
"","","","","","psychophysics","29","277794","0.0-7.0-0.9","null","","null","","","","","","","","","","","","","key","null","16.672046979865833","768","428","j","false","img/S_ambi40.png","朋友","prac",""
"","","","","","html-keyboard-response","30","278306","0.0-7.0-1.9","null","<span class='add_' style='color:yellow; font-size: 70px;'> 太慢! </span>","null","","","","","","","","","","","","","","","","","","","","","","","feedback_test"
"","","","","","psychophysics","31","280827","0.0-7.0-0.10","null","","null","","","","","","","","","","","","","key","null","16.673079999999995","768","428","f","false","img/S_ambi40.png","自我","prac",""
"","","","","","html-keyboard-response","32","281341","0.0-7.0-1.10","null","<span class='add_' style='color:yellow; font-size: 70px;'> 太慢! </span>","null","","","","","","","","","","","","","","","","","","","","","","","feedback_test"
"","","","","","psychophysics","33","283670","0.0-7.0-0.11","1317","","f","","","","","","","","","","","","","key","f","16.67320863309353","768","428","j","false","img/C_ambi40.png","朋友","prac",""
"","","","","","html-keyboard-response","34","284174","0.0-7.0-1.11","null","<span style='color:red; font-size: 70px;'>错误! </span>","null","","","","","","","","","","","","","","","","","","","","","","","feedback_test"
"","","","","","psychophysics","35","286271","0.0-7.0-0.12","1088","","f","","","","","","","","","","","","","key","f","16.6701120000002","768","428","f","true","img/H_ambi40.png","朋友","prac",""
"","","","","","html-keyboard-response","36","286782","0.0-7.0-1.12","null","<span style='color:GreenYellow; font-size: 70px;'>正确! </span>","null","","","","","","","","","","","","","","","","","","","","","","","feedback_test"
"","","","","","psychophysics","37","288556","0.0-7.0-0.13","762","","j","","","","","","","","","","","","","key","j","16.675209523809496","768","428","j","true","img/T_ambi40.png","をる","prac",""
"","","","","","html-keyboard-response","38","289082","0.0-7.0-1.13","null","<span style='color:GreenYellow; font-size: 70px;'>正确! </span>","null","","","","","","","","","","","","","","","","","","","","","","","feedback_test"
"","","","","","psychophysics","39","290847","0.0-7.0-0.14","754","","f","","","","","","","","","","","","","key","f","16.673403846153704","768","428","j","false","img/S_ambi40.png","生人","prac",""
"","","","","","html-keyboard-response","40","291349","0.0-7.0-1.14","null","<span style='color:red; font-size: 70px;'>错误! </span>","null","","","","","","","","","","","","","","","","","","","","","","","feedback_test"
"","","","","","psychophysics","41","293860","0.0-7.0-0.15","null","","null","","","","","","","","","","","","","key","null","16.674516778523273","768","428","j","false","img/C_ambi40.png","自我","prac",""
"","","","","","html-keyboard-response","42","294377","0.0-7.0-1.15","null","<span class='add_' style='color:yellow; font-size: 70px;'> 太慢! </span>","null","","","","","","","","","","","","","","","","","","","","","","","feedback_test"
"","","","","","psychophysics","43","295881","0.0-7.0-0.16","482","","j","","","","","","","","","","","","","key","j","16.66680898876361","768","428","j","true","img/T_ambi40.png","をる","prac",""
"","","","","","html-keyboard-response","44","296398","0.0-7.0-1.16","null","<span style='color:GreenYellow; font-size: 70px;'>正确! </span>","null","","","","","","","","","","","","","","","","","","","","","","","feedback_test"
"","","","","","psychophysics","45","298380","0.0-7.0-0.17","979","","f","","","","","","","","","","","","","key","f","16.67677966101683","768","428","f","true","img/S_ambi40.png","自我","prac",""
"","","","","","html-keyboard-response","46","298889","0.0-7.0-1.17","null","<span style='color:GreenYellow; font-size: 70px;'>正确! </span>","null","","","","","","","","","","","","","","","","","","","","","","","feedback_test"
"","","","","","psychophysics","47","300876","0.0-7.0-0.18","986","","f","","","","","","","","","","","","","key","f","16.677152542372717","768","428","f","true","img/C_ambi40.png","生人","prac",""
"","","","","","html-keyboard-response","48","301390","0.0-7.0-1.18","null","<span style='color:GreenYellow; font-size: 70px;'>正确! </span>","null","","","","","","","","","","","","","","","","","","","","","","","feedback_test"
"","","","","","psychophysics","49","303035","0.0-7.0-0.19","633","","f","","","","","","","","","","","","","key","f","16.671896907216485","768","428","f","true","img/H_ambi40.png","朋友","prac",""
"","","","","","html-keyboard-response","50","303539","0.0-7.0-1.19","null","<span style='color:GreenYellow; font-size: 70px;'>正确! </span>","null","","","","","","","","","","","","","","","","","","","","","","","feedback_test"
"","","","","","psychophysics","51","305813","0.0-7.0-0.20","1272","","f","","","","","","","","","","","","","key","f","16.681296296296125","768","428","j","false","img/H_ambi40.png","生人","prac",""
"","","","","","html-keyboard-response","52","306328","0.0-7.0-1.20","null","<span style='color:red; font-size: 70px;'>错误! </span>","null","","","","","","","","","","","","","","","","","","","","","","","feedback_test"
"","","","","","psychophysics","53","308843","0.0-7.0-0.21","null","","null","","","","","","","","","","","","","key","null","16.675320000000067","768","428","j","false","img/T_ambi40.png","をる","prac",""
"","","","","","html-keyboard-response","54","309347","0.0-7.0-1.21","null","<span class='add_' style='color:yellow; font-size: 70px;'> 太慢! </span>","null","","","","","","","","","","","","","","","","","","","","","","","feedback_test"
"","","","","","psychophysics","55","311049","0.0-7.0-0.22","692","","j","","","","","","","","","","","","","key","j","16.674732673267194","768","428","j","true","img/T_ambi40.png","をる","prac",""
"","","","","","html-keyboard-response","56","311557","0.0-7.0-1.22","null","<span style='color:GreenYellow; font-size: 70px;'>正确! </span>","null","","","","","","","","","","","","","","","","","","","","","","","feedback_test"
"","","","","","psychophysics","57","313423","0.0-7.0-0.23","864","","f","","","","","","","","","","","","","key","f","16.677163636363748","768","428","f","true","img/C_ambi40.png","生人","prac",""
"","","","","","html-keyboard-response","58","313933","0.0-7.0-1.23","null","<span style='color:GreenYellow; font-size: 70px;'>正确! </span>","null","","","","","","","","","","","","","","","","","","","","","","","feedback_test"
"","","","","","psychophysics","59","315690","0.0-7.0-0.24","729","","f","","","","","","","","","","","","","key","f","16.674634615384722","768","428","j","false","img/C_ambi40.png","自我","prac",""
"","","","","","html-keyboard-response","60","316203","0.0-7.0-1.24","null","<span style='color:red; font-size: 70px;'>错误! </span>","null","","","","","","","","","","","","","","","","","","","","","","","feedback_test"
"","","","","","psychophysics","61","318711","0.0-7.0-0.25","null","","null","","","","","","","","","","","","","key","null","16.672919463086952","768","428","f","false","img/H_ambi40.png","朋友","prac",""
"","","","","","html-keyboard-response","62","319218","0.0-7.0-1.25","null","<span class='add_' style='color:yellow; font-size: 70px;'> 太慢! </span>","null","","","","","","","","","","","","","","","","","","","","","","","feedback_test"
"","","","","","psychophysics","63","320822","0.0-7.0-0.26","595","","j","","","","","","","","","","","","","key","j","16.674484210526327","768","428","j","true","img/T_ambi40.png","をる","prac",""
"","","","","","html-keyboard-response","64","321324","0.0-7.0-1.26","null","<span style='color:GreenYellow; font-size: 70px;'>正确! </span>","null","","","","","","","","","","","","","","","","","","","","","","","feedback_test"
"","","","","","psychophysics","65","323068","0.0-7.0-0.27","740","","f","","","","","","","","","","","","","key","f","16.673769230769093","768","428","j","false","img/H_ambi40.png","自我","prac",""
"","","","","","html-keyboard-response","66","323574","0.0-7.0-1.27","null","<span style='color:red; font-size: 70px;'>错误! </span>","null","","","","","","","","","","","","","","","","","","","","","","","feedback_test"
"","","","","","psychophysics","67","326095","0.0-7.0-0.28","null","","null","","","","","","","","","","","","","key","null","16.673833333333413","768","428","j","false","img/C_ambi40.png","朋友","prac",""
"","","","","","html-keyboard-response","68","326608","0.0-7.0-1.28","null","<span class='add_' style='color:yellow; font-size: 70px;'> 太慢! </span>","null","","","","","","","","","","","","","","","","","","","","","","","feedback_test"
"","","","","","psychophysics","69","329122","0.0-7.0-0.29","null","","null","","","","","","","","","","","","","key","null","16.672860000000025","768","428","j","false","img/S_ambi40.png","朋友","prac",""
"","","","","","html-keyboard-response","70","329636","0.0-7.0-1.29","null","<span class='add_' style='color:yellow; font-size: 70px;'> 太慢! </span>","null","","","","","","","","","","","","","","","","","","","","","","","feedback_test"
"","","","","","psychophysics","71","332151","0.0-7.0-0.30","null","","null","","","","","","","","","","","","","key","null","16.67443333333358","768","428","j","false","img/S_ambi40.png","生人","prac",""
"","","","","","html-keyboard-response","72","332664","0.0-7.0-1.30","null","<span class='add_' style='color:yellow; font-size: 70px;'> 太慢! </span>","null","","","","","","","","","","","","","","","","","","","","","","","feedback_test"
"","","","","","psychophysics","73","335184","0.0-7.0-0.31","null","","null","","","","","","","","","","","","","key","null","16.673173333333494","768","428","f","false","img/S_ambi40.png","自我","prac",""
"","","","","","html-keyboard-response","74","335701","0.0-7.0-1.31","null","<span class='add_' style='color:yellow; font-size: 70px;'> 太慢! </span>","null","","","","","","","","","","","","","","","","","","","","","","","feedback_test"
"","","","","","psychophysics","75","337249","0.0-8.0-0.0-0.0","536","","f","","","","","","","","","","","","","key","f","16.673692307692114","768","428","j","false","img/S_ambi40.png","生人","prac",""
"","","","","","html-keyboard-response","76","337756","0.0-8.0-0.0-1.0","null","<span style='color:red; font-size: 70px;'>错误! </span>","null","","","","","","","","","","","","","","","","","","","","","","","feedback_test"
"","","","","","psychophysics","77","339433","0.0-8.0-0.0-0.1","667","","f","","","","","","","","","","","","","key","f","16.673020202020357","768","428","f","true","img/C_ambi40.png","生人","prac",""
"","","","","","html-keyboard-response","78","339939","0.0-8.0-0.0-1.1","null","<span style='color:GreenYellow; font-size: 70px;'>正确! </span>","null","","","","","","","","","","","","","","","","","","","","","","","feedback_test"
"","","","","","psychophysics","79","341896","0.0-8.0-0.0-0.2","943","","j","","","","","","","","","","","","","key","j","16.67133620689655","768","428","j","true","img/S_ambi40.png","朋友","prac",""
"","","","","","html-keyboard-response","80","342418","0.0-8.0-0.0-1.2","null","<span style='color:GreenYellow; font-size: 70px;'>正确! </span>","null","","","","","","","","","","","","","","","","","","","","","","","feedback_test"
"","","","","","psychophysics","81","344048","0.0-8.0-0.0-0.3","611","","j","","","","","","","","","","","","","key","j","16.6722083333334","768","428","j","true","img/T_ambi40.png","をる","prac",""
"","","","","","html-keyboard-response","82","344562","0.0-8.0-0.0-1.3","null","<span style='color:GreenYellow; font-size: 70px;'>正确! </span>","null","","","","","","","","","","","","","","","","","","","","","","","feedback_test"
"","","","","","psychophysics","83","346336","0.0-8.0-0.0-0.4","766","","f","","","","","","","","","","","","","key","f","16.673742857143015","768","428","j","false","img/H_ambi40.png","自我","prac",""
"","","","","","html-keyboard-response","84","346842","0.0-8.0-0.0-1.4","null","<span style='color:red; font-size: 70px;'>错误! </span>","null","","","","","","","","","","","","","","","","","","","","","","","feedback_test"
"","","","","","psychophysics","85","348509","0.0-8.0-0.0-0.5","655","","j","","","","","","","","","","","","","key","j","16.67332323232308","768","428","j","true","img/T_ambi40.png","をる","prac",""
"","","","","","html-keyboard-response","86","349026","0.0-8.0-0.0-1.5","null","<span style='color:GreenYellow; font-size: 70px;'>正确! </span>","null","","","","","","","","","","","","","","","","","","","","","","","feedback_test"
"","","","","","psychophysics","87","350798","0.0-8.0-0.0-0.6","763","","j","","","","","","","","","","","","","key","j","16.673790476190682","768","428","j","true","img/C_ambi40.png","自我","prac",""
"","","","","","html-keyboard-response","88","351315","0.0-8.0-0.0-1.6","null","<span style='color:GreenYellow; font-size: 70px;'>正确! </span>","null","","","","","","","","","","","","","","","","","","","","","","","feedback_test"
"","","","","","psychophysics","89","353279","0.0-8.0-0.0-0.7","954","","j","","","","","","","","","","","","","key","j","16.67027350427368","768","428","f","false","img/S_ambi40.png","自我","prac",""
"","","","","","html-keyboard-response","90","353789","0.0-8.0-0.0-1.7","null","<span style='color:red; font-size: 70px;'>错误! </span>","null","","","","","","","","","","","","","","","","","","","","","","","feedback_test"
"","","","","","psychophysics","91","355778","0.0-8.0-0.0-0.8","986","","j","","","","","","","","","","","","","key","j","16.673025423728454","768","428","f","false","img/S_ambi40.png","自我","prac",""
"","","","","","html-keyboard-response","92","356294","0.0-8.0-0.0-1.8","null","<span style='color:red; font-size: 70px;'>错误! </span>","null","","","","","","","","","","","","","","","","","","","","","","","feedback_test"
"","","","","","psychophysics","93","358804","0.0-8.0-0.0-0.9","null","","null","","","","","","","","","","","","","key","null","16.672812080536985","768","428","j","false","img/T_ambi40.png","をる","prac",""
"","","","","","html-keyboard-response","94","359319","0.0-8.0-0.0-1.9","null","<span class='add_' style='color:yellow; font-size: 70px;'> 太慢! </span>","null","","","","","","","","","","","","","","","","","","","","","","","feedback_test"
"","","","","","psychophysics","95","361859","0.0-8.0-0.0-0.10","null","","null","","","","","","","","","","","","","key","null","16.67207284768217","768","428","f","false","img/C_ambi40.png","生人","prac",""
"","","","","","html-keyboard-response","96","362405","0.0-8.0-0.0-1.10","null","<span class='add_' style='color:yellow; font-size: 70px;'> 太慢! </span>","null","","","","","","","","","","","","","","","","","","","","","","","feedback_test"
"","","","","","psychophysics","97","364634","0.0-8.0-0.0-0.11","1222","","j","","","","","","","","","","","","","key","j","16.673090225563968","768","428","f","false","img/H_ambi40.png","朋友","prac",""
"","","","","","html-keyboard-response","98","365150","0.0-8.0-0.0-1.11","null","<span style='color:red; font-size: 70px;'>错误! </span>","null","","","","","","","","","","","","","","","","","","","","","","","feedback_test"
"","","","","","psychophysics","99","366770","0.0-8.0-0.0-0.12","609","","f","","","","","","","","","","","","","key","f","16.673791666666755","768","428","j","false","img/T_ambi40.png","をる","prac",""
"","","","","","html-keyboard-response","100","367287","0.0-8.0-0.0-1.12","null","<span style='color:red; font-size: 70px;'>错误! </span>","null","","","","","","","","","","","","","","","","","","","","","","","feedback_test"
"","","","","","psychophysics","101","369807","0.0-8.0-0.0-0.13","null","","null","","","","","","","","","","","","","key","null","16.675753333333414","768","428","j","false","img/C_ambi40.png","朋友","prac",""
"","","","","","html-keyboard-response","102","370322","0.0-8.0-0.0-1.13","null","<span class='add_' style='color:yellow; font-size: 70px;'> 太慢! </span>","null","","","","","","","","","","","","","","","","","","","","","","","feedback_test"
"","","","","","psychophysics","103","371933","0.0-8.0-0.0-0.14","603","","f","","","","","","","","","","","","","key","f","16.66914583333346","768","428","j","false","img/H_ambi40.png","生人","prac",""
"","","","","","html-keyboard-response","104","372449","0.0-8.0-0.0-1.14","null","<span style='color:red; font-size: 70px;'>错误! </span>","null","","","","","","","","","","","","","","","","","","","","","","","feedback_test"
"","","","","","psychophysics","105","374957","0.0-8.0-0.0-0.15","null","","null","","","","","","","","","","","","","key","null","16.674355704697934","768","428","f","false","img/H_ambi40.png","朋友","prac",""
"","","","","","html-keyboard-response","106","375467","0.0-8.0-0.0-1.15","null","<span class='add_' style='color:yellow; font-size: 70px;'> 太慢! </span>","null","","","","","","","","","","","","","","","","","","","","","","","feedback_test"
"","","","","","psychophysics","107","376966","0.0-8.0-0.0-0.16","484","","j","","","","","","","","","","","","","key","j","16.67243820224729","768","428","f","false","img/S_ambi40.png","自我","prac",""
"","","","","","html-keyboard-response","108","377481","0.0-8.0-0.0-1.16","null","<span style='color:red; font-size: 70px;'>错误! </span>","null","","","","","","","","","","","","","","","","","","","","","","","feedback_test"
"","","","","","psychophysics","109","379558","0.0-8.0-0.0-0.17","1075","","f","","","","","","","","","","","","","key","f","16.672422764227512","768","428","j","false","img/C_ambi40.png","自我","prac",""
"","","","","","html-keyboard-response","110","380072","0.0-8.0-0.0-1.17","null","<span style='color:red; font-size: 70px;'>错误! </span>","null","","","","","","","","","","","","","","","","","","","","","","","feedback_test"
"","","","","","psychophysics","111","381870","0.0-8.0-0.0-0.18","787","","j","","","","","","","","","","","","","key","j","16.673448598130918","768","428","f","false","img/H_ambi40.png","朋友","prac",""
"","","","","","html-keyboard-response","112","382414","0.0-8.0-0.0-1.18","null","<span style='color:red; font-size: 70px;'>错误! </span>","null","","","","","","","","","","","","","","","","","","","","","","","feedback_test"
"","","","","","psychophysics","113","384115","0.0-8.0-0.0-0.19","688","","j","","","","","","","","","","","","","key","j","16.673009900989975","768","428","j","true","img/T_ambi40.png","をる","prac",""
"","","","","","html-keyboard-response","114","384629","0.0-8.0-0.0-1.19","null","<span style='color:GreenYellow; font-size: 70px;'>正确! </span>","null","","","","","","","","","","","","","","","","","","","","","","","feedback_test"
"","","","","","psychophysics","115","386752","0.0-8.0-0.0-0.20","1116","","j","","","","","","","","","","","","","key","j","16.672690476190635","768","428","f","false","img/H_ambi40.png","朋友","prac",""
"","","","","","html-keyboard-response","116","387262","0.0-8.0-0.0-1.20","null","<span style='color:red; font-size: 70px;'>错误! </span>","null","","","","","","","","","","","","","","","","","","","","","","","feedback_test"
"","","","","","psychophysics","117","389056","0.0-8.0-0.0-0.21","787","","f","","","","","","","","","","","","","key","f","16.673233644859472","768","428","j","false","img/S_ambi40.png","生人","prac",""
"","","","","","html-keyboard-response","118","389563","0.0-8.0-0.0-1.21","null","<span style='color:red; font-size: 70px;'>错误! </span>","null","","","","","","","","","","","","","","","","","","","","","","","feedback_test"
"","","","","","psychophysics","119","391245","0.0-8.0-0.0-0.22","675","","f","","","","","","","","","","","","","key","f","16.679309999999823","768","428","j","false","img/H_ambi40.png","自我","prac",""
"","","","","","html-keyboard-response","120","391759","0.0-8.0-0.0-1.22","null","<span style='color:red; font-size: 70px;'>错误! </span>","null","","","","","","","","","","","","","","","","","","","","","","","feedback_test"
"","","","","","psychophysics","121","393652","0.0-8.0-0.0-0.23","879","","j","","","","","","","","","","","","","key","j","16.67517857142853","768","428","j","true","img/T_ambi40.png","をる","prac",""
"","","","","","html-keyboard-response","122","394163","0.0-8.0-0.0-1.23","null","<span style='color:GreenYellow; font-size: 70px;'>正确! </span>","null","","","","","","","","","","","","","","","","","","","","","","","feedback_test"
"","","","","","psychophysics","123","396116","0.0-8.0-0.0-0.24","927","","f","","","","","","","","","","","","","key","f","16.673620689655294","768","428","j","false","img/T_ambi40.png","をる","prac",""
"","","","","","html-keyboard-response","124","396626","0.0-8.0-0.0-1.24","null","<span style='color:red; font-size: 70px;'>错误! </span>","null","","","","","","","","","","","","","","","","","","","","","","","feedback_test"
"","","","","","psychophysics","125","398986","0.0-8.0-0.0-0.25","1347","","j","","","","","","","","","","","","","key","j","16.672007142857183","768","428","j","true","img/H_ambi40.png","生人","prac",""
"","","","","","html-keyboard-response","126","399496","0.0-8.0-0.0-1.25","null","<span style='color:GreenYellow; font-size: 70px;'>正确! </span>","null","","","","","","","","","","","","","","","","","","","","","","","feedback_test"
"","","","","","psychophysics","127","401445","0.0-8.0-0.0-0.26","938","","j","","","","","","","","","","","","","key","j","16.673103448276002","768","428","j","true","img/C_ambi40.png","朋友","prac",""
"","","","","","html-keyboard-response","128","401959","0.0-8.0-0.0-1.26","null","<span style='color:GreenYellow; font-size: 70px;'>正确! </span>","null","","","","","","","","","","","","","","","","","","","","","","","feedback_test"
"","","","","","psychophysics","129","403757","0.0-8.0-0.0-0.27","797","","f","","","","","","","","","","","","","key","f","16.674188679245077","768","428","f","true","img/C_ambi40.png","生人","prac",""
"","","","","","html-keyboard-response","130","404269","0.0-8.0-0.0-1.27","null","<span style='color:GreenYellow; font-size: 70px;'>正确! </span>","null","","","","","","","","","","","","","","","","","","","","","","","feedback_test"
"","","","","","psychophysics","131","406226","0.0-8.0-0.0-0.28","948","","f","","","","","","","","","","","","","key","f","16.67899999999971","768","428","f","true","img/C_ambi40.png","生人","prac",""
"","","","","","html-keyboard-response","132","406737","0.0-8.0-0.0-1.28","null","<span style='color:GreenYellow; font-size: 70px;'>正确! </span>","null","","","","","","","","","","","","","","","","","","","","","","","feedback_test"
"","","","","","psychophysics","133","408348","0.0-8.0-0.0-0.29","586","","j","","","","","","","","","","","","","key","j","16.67653124999985","768","428","j","true","img/T_ambi40.png","をる","prac",""
"","","","","","html-keyboard-response","134","408862","0.0-8.0-0.0-1.29","null","<span style='color:GreenYellow; font-size: 70px;'>正确! </span>","null","","","","","","","","","","","","","","","","","","","","","","","feedback_test"
"","","","","","psychophysics","135","410580","0.0-8.0-0.0-0.30","716","","f","","","","","","","","","","","","","key","f","16.673666666666453","768","428","f","true","img/S_ambi40.png","自我","prac",""
"","","","","","html-keyboard-response","136","411087","0.0-8.0-0.0-1.30","null","<span style='color:GreenYellow; font-size: 70px;'>正确! </span>","null","","","","","","","","","","","","","","","","","","","","","","","feedback_test"
"","","","","","psychophysics","137","412922","0.0-8.0-0.0-0.31","827","","j","","","","","","","","","","","","","key","j","16.673018348623824","768","428","j","true","img/S_ambi40.png","朋友","prac",""
"","","","","","html-keyboard-response","138","413455","0.0-8.0-0.0-1.31","null","<span style='color:GreenYellow; font-size: 70px;'>正确! </span>","null","","","","","","","","","","","","","","","","","","","","","","","feedback_test"
"","","","","","html-keyboard-response","139","421549","0.0-8.0-1.0-0.0","8088","<style>.context{color:white; font-size: 35px; line-height:40px}</style>                          <div><p class='context'>您正确回答了44% 的试次。</p ><p class='context'>您的平均反应时为812毫秒。</p >","j","","","","","","","","","","","","","","","","","","","","","","",""
"","","","","","instructions","140","432196","0.0-8.0-1.0-1.0","10640","","","","","","","","","","","","","","[{""page_index"":0,""viewing_time"":5085},{""page_index"":1,""viewing_time"":4636},{""page_index"":2,""viewing_time"":920}]","","","","","","","","","","",""
"","","","","","psychophysics","141","434248","0.0-8.1-0.1-0.32","1044","","j","","","","","","","","","","","","","key","j","16.67807438016498","768","428","j","true","img/H_ambi40.png","自我","prac",""
"","","","","","html-keyboard-response","142","434761","0.0-8.1-0.1-1.32","null","<span style='color:GreenYellow; font-size: 70px;'>正确! </span>","null","","","","","","","","","","","","","","","","","","","","","","","feedback_test"
"","","","","","psychophysics","143","436783","0.0-8.1-0.1-0.33","1010","","j","","","","","","","","","","","","","key","j","16.67402499999977","768","428","j","true","img/C_ambi40.png","朋友","prac",""
"","","","","","html-keyboard-response","144","437299","0.0-8.1-0.1-1.33","null","<span style='color:GreenYellow; font-size: 70px;'>正确! </span>","null","","","","","","","","","","","","","","","","","","","","","","","feedback_test"
"","","","","","psychophysics","145","438861","0.0-8.1-0.1-0.34","552","","j","","","","","","","","","","","","","key","j","16.67241935483906","768","428","j","true","img/T_ambi40.png","をる","prac",""
"","","","","","html-keyboard-response","146","439371","0.0-8.1-0.1-1.34","null","<span style='color:GreenYellow; font-size: 70px;'>正确! </span>","null","","","","","","","","","","","","","","","","","","","","","","","feedback_test"
"","","","","","psychophysics","147","441096","0.0-8.1-0.1-0.35","722","","f","","","","","","","","","","","","","key","f","16.671352941176497","768","428","f","true","img/C_ambi40.png","生人","prac",""
"","","","","","html-keyboard-response","148","441599","0.0-8.1-0.1-1.35","null","<span style='color:GreenYellow; font-size: 70px;'>正确! </span>","null","","","","","","","","","","","","","","","","","","","","","","","feedback_test"
"","","","","","psychophysics","149","443298","0.0-8.1-0.1-0.36","673","","f","","","","","","","","","","","","","key","f","16.671158415841695","768","428","f","true","img/S_ambi40.png","自我","prac",""
"","","","","","html-keyboard-response","150","443811","0.0-8.1-0.1-1.36","null","<span style='color:GreenYellow; font-size: 70px;'>正确! </span>","null","","","","","","","","","","","","","","","","","","","","","","","feedback_test"
"","","","","","psychophysics","151","445397","0.0-8.1-0.1-0.37","576","","f","","","","","","","","","","","","","key","f","16.674936170212955","768","428","f","true","img/S_ambi40.png","自我","prac",""
"","","","","","html-keyboard-response","152","445904","0.0-8.1-0.1-1.37","null","<span style='color:GreenYellow; font-size: 70px;'>正确! </span>","null","","","","","","","","","","","","","","","","","","","","","","","feedback_test"
"","","","","","psychophysics","153","447469","0.0-8.1-0.1-0.38","561","","j","","","","","","","","","","","","","key","j","16.67993548387156","768","428","j","true","img/T_ambi40.png","をる","prac",""
"","","","","","html-keyboard-response","154","447977","0.0-8.1-0.1-1.38","null","<span style='color:GreenYellow; font-size: 70px;'>正确! </span>","null","","","","","","","","","","","","","","","","","","","","","","","feedback_test"
"","","","","","psychophysics","155","449635","0.0-8.1-0.1-0.39","629","","f","","","","","","","","","","","","","key","f","16.672673469387963","768","428","f","true","img/H_ambi40.png","朋友","prac",""
"","","","","","html-keyboard-response","156","450140","0.0-8.1-0.1-1.39","null","<span style='color:GreenYellow; font-size: 70px;'>正确! </span>","null","","","","","","","","","","","","","","","","","","","","","","","feedback_test"
"","","","","","psychophysics","157","452013","0.0-8.1-0.1-0.40","868","","f","","","","","","","","","","","","","key","f","16.565387387387663","768","428","f","true","img/C_ambi40.png","生人","prac",""
"","","","","","html-keyboard-response","158","452519","0.0-8.1-0.1-1.40","null","<span style='color:GreenYellow; font-size: 70px;'>正确! </span>","null","","","","","","","","","","","","","","","","","","","","","","","feedback_test"
"","","","","","psychophysics","159","454120","0.0-8.1-0.1-0.41","590","","j","","","","","","","","","","","","","key","j","16.665926315789847","768","428","j","true","img/T_ambi40.png","をる","prac",""
"","","","","","html-keyboard-response","160","454626","0.0-8.1-0.1-1.41","null","<span style='color:GreenYellow; font-size: 70px;'>正确! </span>","null","","","","","","","","","","","","","","","","","","","","","","","feedback_test"
"","","","","","psychophysics","161","456689","0.0-8.1-0.1-0.42","1052","","j","","","","","","","","","","","","","key","j","16.67626829268278","768","428","j","true","img/H_ambi40.png","生人","prac",""
"","","","","","html-keyboard-response","162","457194","0.0-8.1-0.1-1.42","null","<span style='color:GreenYellow; font-size: 70px;'>正确! </span>","null","","","","","","","","","","","","","","","","","","","","","","","feedback_test"
"","","","","","psychophysics","163","458967","0.0-8.1-0.1-0.43","771","","f","","","","","","","","","","","","","key","f","16.674142857142613","768","428","j","false","img/S_ambi40.png","朋友","prac",""
"","","","","","html-keyboard-response","164","459471","0.0-8.1-0.1-1.43","null","<span style='color:red; font-size: 70px;'>错误! </span>","null","","","","","","","","","","","","","","","","","","","","","","","feedback_test"
"","","","","","psychophysics","165","461005","0.0-8.1-0.1-0.44","523","","f","","","","","","","","","","","","","key","f","16.672274725275003","768","428","f","true","img/H_ambi40.png","朋友","prac",""
"","","","","","html-keyboard-response","166","461516","0.0-8.1-0.1-1.44","null","<span style='color:GreenYellow; font-size: 70px;'>正确! </span>","null","","","","","","","","","","","","","","","","","","","","","","","feedback_test"
"","","","","","psychophysics","167","463268","0.0-8.1-0.1-0.45","735","","f","","","","","","","","","","","","","key","f","16.671375000000317","768","428","j","false","img/C_ambi40.png","自我","prac",""
"","","","","","html-keyboard-response","168","463779","0.0-8.1-0.1-1.45","null","<span style='color:red; font-size: 70px;'>错误! </span>","null","","","","","","","","","","","","","","","","","","","","","","","feedback_test"
"","","","","","psychophysics","169","466031","0.0-8.1-0.1-0.46","1249","","j","","","","","","","","","","","","","key","j","16.580338345864643","768","428","j","true","img/S_ambi40.png","生人","prac",""
"","","","","","html-keyboard-response","170","466538","0.0-8.1-0.1-1.46","null","<span style='color:GreenYellow; font-size: 70px;'>正确! </span>","null","","","","","","","","","","","","","","","","","","","","","","","feedback_test"
"","","","","","psychophysics","171","468098","0.0-8.1-0.1-0.47","549","","j","","","","","","","","","","","","","key","j","16.680239130434728","768","428","j","true","img/T_ambi40.png","をる","prac",""
"","","","","","html-keyboard-response","172","468625","0.0-8.1-0.1-1.47","null","<span style='color:GreenYellow; font-size: 70px;'>正确! </span>","null","","","","","","","","","","","","","","","","","","","","","","","feedback_test"
"","","","","","psychophysics","173","470483","0.0-8.1-0.1-0.48","832","","j","","","","","","","","","","","","","key","j","16.672945454545765","768","428","j","true","img/C_ambi40.png","朋友","prac",""
"","","","","","html-keyboard-response","174","470987","0.0-8.1-0.1-1.48","null","<span style='color:GreenYellow; font-size: 70px;'>正确! </span>","null","","","","","","","","","","","","","","","","","","","","","","","feedback_test"
"","","","","","psychophysics","175","472842","0.0-8.1-0.1-0.49","843","","f","","","","","","","","","","","","","key","f","16.672890909091272","768","428","f","true","img/H_ambi40.png","朋友","prac",""
"","","","","","html-keyboard-response","176","473353","0.0-8.1-0.1-1.49","null","<span style='color:GreenYellow; font-size: 70px;'>正确! </span>","null","","","","","","","","","","","","","","","","","","","","","","","feedback_test"
"","","","","","psychophysics","177","475338","0.0-8.1-0.1-0.50","982","","j","","","","","","","","","","","","","key","j","16.673059322034163","768","428","j","true","img/H_ambi40.png","生人","prac",""
"","","","","","html-keyboard-response","178","475864","0.0-8.1-0.1-1.50","null","<span style='color:GreenYellow; font-size: 70px;'>正确! </span>","null","","","","","","","","","","","","","","","","","","","","","","","feedback_test"
"","","","","","psychophysics","179","477463","0.0-8.1-0.1-0.51","590","","j","","","","","","","","","","","","","key","j","16.673231578947316","768","428","j","true","img/T_ambi40.png","をる","prac",""
"","","","","","html-keyboard-response","180","477972","0.0-8.1-0.1-1.51","null","<span style='color:GreenYellow; font-size: 70px;'>正确! </span>","null","","","","","","","","","","","","","","","","","","","","","","","feedback_test"
"","","","","","psychophysics","181","479899","0.0-8.1-0.1-0.52","917","","f","","","","","","","","","","","","","key","f","16.67119298245617","768","428","f","true","img/H_ambi40.png","朋友","prac",""
"","","","","","html-keyboard-response","182","480402","0.0-8.1-0.1-1.52","null","<span style='color:GreenYellow; font-size: 70px;'>正确! </span>","null","","","","","","","","","","","","","","","","","","","","","","","feedback_test"
"","","","","","psychophysics","183","482044","0.0-8.1-0.1-0.53","638","","j","","","","","","","","","","","","","key","j","16.558092783505252","768","428","j","true","img/T_ambi40.png","をる","prac",""
"","","","","","html-keyboard-response","184","482583","0.0-8.1-0.1-1.53","null","<span style='color:GreenYellow; font-size: 70px;'>正确! </span>","null","","","","","","","","","","","","","","","","","","","","","","","feedback_test"
"","","","","","psychophysics","185","484168","0.0-8.1-0.1-0.54","577","","j","","","","","","","","","","","","","key","j","16.674585106383212","768","428","j","true","img/T_ambi40.png","をる","prac",""
"","","","","","html-keyboard-response","186","484669","0.0-8.1-0.1-1.54","null","<span style='color:GreenYellow; font-size: 70px;'>正确! </span>","null","","","","","","","","","","","","","","","","","","","","","","","feedback_test"
"","","","","","psychophysics","187","486642","0.0-8.1-0.1-0.55","969","","j","","","","","","","","","","","","","key","j","16.671000000000124","768","428","j","true","img/S_ambi40.png","朋友","prac",""
"","","","","","html-keyboard-response","188","487146","0.0-8.1-0.1-1.55","null","<span style='color:GreenYellow; font-size: 70px;'>正确! </span>","null","","","","","","","","","","","","","","","","","","","","","","","feedback_test"
"","","","","","psychophysics","189","488887","0.0-8.1-0.1-0.56","729","","f","","","","","","","","","","","","","key","f","16.67288349514592","768","428","f","true","img/C_ambi40.png","生人","prac",""
"","","","","","html-keyboard-response","190","489416","0.0-8.1-0.1-1.56","null","<span style='color:GreenYellow; font-size: 70px;'>正确! </span>","null","","","","","","","","","","","","","","","","","","","","","","","feedback_test"
"","","","","","psychophysics","191","491253","0.0-8.1-0.1-0.57","812","","f","","","","","","","","","","","","","key","f","16.672944954128127","768","428","f","true","img/S_ambi40.png","自我","prac",""
"","","","","","html-keyboard-response","192","491763","0.0-8.1-0.1-1.57","null","<span style='color:GreenYellow; font-size: 70px;'>正确! </span>","null","","","","","","","","","","","","","","","","","","","","","","","feedback_test"
"","","","","","psychophysics","193","493717","0.0-8.1-0.1-0.58","946","","f","","","","","","","","","","","","","key","f","16.66742241379337","768","428","f","true","img/C_ambi40.png","生人","prac",""
"","","","","","html-keyboard-response","194","494229","0.0-8.1-0.1-1.58","null","<span style='color:GreenYellow; font-size: 70px;'>正确! </span>","null","","","","","","","","","","","","","","","","","","","","","","","feedback_test"
"","","","","","psychophysics","195","496109","0.0-8.1-0.1-0.59","868","","j","","","","","","","","","","","","","key","j","16.67408108108138","768","428","j","true","img/C_ambi40.png","自我","prac",""
"","","","","","html-keyboard-response","196","496655","0.0-8.1-0.1-1.59","null","<span style='color:GreenYellow; font-size: 70px;'>正确! </span>","null","","","","","","","","","","","","","","","","","","","","","","","feedback_test"
"","","","","","psychophysics","197","498252","0.0-8.1-0.1-0.60","588","","f","","","","","","","","","","","","","key","f","16.672126315789615","768","428","f","true","img/S_ambi40.png","自我","prac",""
"","","","","","html-keyboard-response","198","498762","0.0-8.1-0.1-1.60","null","<span style='color:GreenYellow; font-size: 70px;'>正确! </span>","null","","","","","","","","","","","","","","","","","","","","","","","feedback_test"
"","","","","","psychophysics","199","500798","0.0-8.1-0.1-0.61","1034","","j","","","","","","","","","","","","","key","j","16.672727272727464","768","428","j","true","img/H_ambi40.png","自我","prac",""
"","","","","","html-keyboard-response","200","501312","0.0-8.1-0.1-1.61","null","<span style='color:GreenYellow; font-size: 70px;'>正确! </span>","null","","","","","","","","","","","","","","","","","","","","","","","feedback_test"
"","","","","","psychophysics","201","503225","0.0-8.1-0.1-0.62","911","","f","","","","","","","","","","","","","key","f","16.672495575221483","768","428","j","false","img/S_ambi40.png","生人","prac",""
"","","","","","html-keyboard-response","202","503729","0.0-8.1-0.1-1.62","null","<span style='color:red; font-size: 70px;'>错误! </span>","null","","","","","","","","","","","","","","","","","","","","","","","feedback_test"
"","","","","","psychophysics","203","505249","0.0-8.1-0.1-0.63","518","","j","","","","","","","","","","","","","key","j","16.673755555555303","768","428","j","true","img/T_ambi40.png","をる","prac",""
"","","","","","html-keyboard-response","204","505755","0.0-8.1-0.1-1.63","null","<span style='color:GreenYellow; font-size: 70px;'>正确! </span>","null","","","","","","","","","","","","","","","","","","","","","","","feedback_test"
"","","","","","html-keyboard-response","205","511459","0.0-9.0","5701","<style>.context{color:white; font-size: 35px; line-height:40px}</style>                          <div><p class='context'>您正确回答了91% 的试次。</p ><p class='context'>您的平均反应时为774毫秒。</p ><p class='context'>恭喜您完成练习。按任意键进入正式实验。</p ><p class='footer' style='font-size: 35px; line-height:40px;'>请在进入正式实验实验之前将您的<span style='color: lightgreen;'>食指</span>放在电脑键盘的相应键位上进行按键。</p >","j","","","","","","","","","","","","","","","","","","","","","","",""
"","","","","","psychophysics","206","513290","0.0-10.0-0.0-0.0-0.0-0.0","818","","j","","","","","","","","","","","","","key","j","16.685761467890107","768","428","f","false","img/S_ambi40.png","自我","same",""
"","","","","","html-keyboard-response","207","513805","0.0-10.0-0.0-0.0-0.0-1.0","null","<span style='color:red; font-size: 70px;'>错误! </span>","null","","","","","","","","","","","","","","","","","","","","","","","feedback_test"
"","","","","","psychophysics","208","515599","0.0-10.0-0.0-0.0-0.0-0.1","784","","j","","","","","","","","","","","","","key","j","16.67026415094349","768","428","j","true","img/H_ambi40.png","自我","same",""
"","","","","","html-keyboard-response","209","516109","0.0-10.0-0.0-0.0-0.0-1.1","null","<span style='color:GreenYellow; font-size: 70px;'>正确! </span>","null","","","","","","","","","","","","","","","","","","","","","","","feedback_test"
"","","","","","psychophysics","210","517670","0.0-10.0-0.0-0.0-0.0-0.2","535","","j","","","","","","","","","","","","","key","j","16.673806451612794","768","428","j","true","img/T_ambi40.png","をる","same",""
"","","","","","html-keyboard-response","211","518187","0.0-10.0-0.0-0.0-0.0-1.2","null","<span style='color:GreenYellow; font-size: 70px;'>正确! </span>","null","","","","","","","","","","","","","","","","","","","","","","","feedback_test"
"","","","","","psychophysics","212","519865","0.0-10.0-0.0-0.0-0.0-0.3","677","","f","","","","","","","","","","","","","key","f","16.673161616161433","768","428","j","false","img/S_ambi40.png","生人","same",""
"","","","","","html-keyboard-response","213","520376","0.0-10.0-0.0-0.0-0.0-1.3","null","<span style='color:red; font-size: 70px;'>错误! </span>","null","","","","","","","","","","","","","","","","","","","","","","","feedback_test"
"","","","","","psychophysics","214","522064","0.0-10.0-0.0-0.0-0.0-0.4","678","","f","","","","","","","","","","","","","key","f","16.67282999999996","768","428","f","true","img/S_ambi40.png","自我","same",""
"","","","","","html-keyboard-response","215","522574","0.0-10.0-0.0-0.0-0.0-1.4","null","<span style='color:GreenYellow; font-size: 70px;'>正确! </span>","null","","","","","","","","","","","","","","","","","","","","","","","feedback_test"
"","","","","","psychophysics","216","524118","0.0-10.0-0.0-0.0-0.0-0.5","534","","j","","","","","","","","","","","","","key","j","16.673450549450386","768","428","j","true","img/T_ambi40.png","をる","same",""
"","","","","","html-keyboard-response","217","524626","0.0-10.0-0.0-0.0-0.0-1.5","null","<span style='color:GreenYellow; font-size: 70px;'>正确! </span>","null","","","","","","","","","","","","","","","","","","","","","","","feedback_test"
"","","","","","psychophysics","218","526383","0.0-10.0-0.0-0.0-0.0-0.6","750","","j","","","","","","","","","","","","","key","j","16.67290384615458","768","428","j","true","img/S_ambi40.png","朋友","same",""
"","","","","","html-keyboard-response","219","526897","0.0-10.0-0.0-0.0-0.0-1.6","null","<span style='color:GreenYellow; font-size: 70px;'>正确! </span>","null","","","","","","","","","","","","","","","","","","","","","","","feedback_test"
"","","","","","psychophysics","220","528499","0.0-10.0-0.0-0.0-0.0-0.7","593","","f","","","","","","","","","","","","","key","f","16.673105263157357","768","428","f","true","img/H_ambi40.png","朋友","same",""
"","","","","","html-keyboard-response","221","529002","0.0-10.0-0.0-0.0-0.0-1.7","null","<span style='color:GreenYellow; font-size: 70px;'>正确! </span>","null","","","","","","","","","","","","","","","","","","","","","","","feedback_test"
"","","","","","psychophysics","222","530603","0.0-10.0-0.0-0.0-0.0-0.8","568","","j","","","","","","","","","","","","","key","j","16.6729894736843","768","428","j","true","img/H_ambi40.png","生人","same",""
"","","","","","html-keyboard-response","223","531115","0.0-10.0-0.0-0.0-0.0-1.8","null","<span style='color:GreenYellow; font-size: 70px;'>正确! </span>","null","","","","","","","","","","","","","","","","","","","","","","","feedback_test"
"","","","","","psychophysics","224","532862","0.0-10.0-0.0-0.0-0.0-0.9","742","","f","","","","","","","","","","","","","key","f","16.673250000000387","768","428","f","true","img/H_ambi40.png","朋友","same",""
"","","","","","html-keyboard-response","225","533378","0.0-10.0-0.0-0.0-0.0-1.9","null","<span style='color:GreenYellow; font-size: 70px;'>正确! </span>","null","","","","","","","","","","","","","","","","","","","","","","","feedback_test"
"","","","","","psychophysics","226","535005","0.0-10.0-0.0-0.0-0.0-0.10","614","","f","","","","","","","","","","","","","key","f","16.674197916666646","768","428","f","true","img/C_ambi40.png","生人","same",""
"","","","","","html-keyboard-response","227","535514","0.0-10.0-0.0-0.0-0.0-1.10","null","<span style='color:GreenYellow; font-size: 70px;'>正确! </span>","null","","","","","","","","","","","","","","","","","","","","","","","feedback_test"
"","","","","","psychophysics","228","537127","0.0-10.0-0.0-0.0-0.0-0.11","583","","j","","","","","","","","","","","","","key","j","16.673864583333245","768","428","j","true","img/C_ambi40.png","自我","same",""
"","","","","","html-keyboard-response","229","537631","0.0-10.0-0.0-0.0-0.0-1.11","null","<span style='color:GreenYellow; font-size: 70px;'>正确! </span>","null","","","","","","","","","","","","","","","","","","","","","","","feedback_test"
"","","","","","psychophysics","230","539144","0.0-10.0-0.0-0.0-0.0-0.12","499","","j","","","","","","","","","","","","","key","j","16.675786516852835","768","428","j","true","img/T_ambi40.png","をる","same",""
"","","","","","html-keyboard-response","231","539653","0.0-10.0-0.0-0.0-0.0-1.12","null","<span style='color:GreenYellow; font-size: 70px;'>正确! </span>","null","","","","","","","","","","","","","","","","","","","","","","","feedback_test"
"","","","","","psychophysics","232","541299","0.0-10.0-0.0-0.0-0.0-0.13","641","","f","","","","","","","","","","","","","key","f","16.67253061224545","768","428","f","true","img/S_ambi40.png","自我","same",""
"","","","","","html-keyboard-response","233","541814","0.0-10.0-0.0-0.0-0.0-1.13","null","<span style='color:GreenYellow; font-size: 70px;'>正确! </span>","null","","","","","","","","","","","","","","","","","","","","","","","feedback_test"
"","","","","","psychophysics","234","543565","0.0-10.0-0.0-0.0-0.0-0.14","725","","f","","","","","","","","","","","","","key","f","16.67658653846145","768","428","f","true","img/C_ambi40.png","生人","same",""
"","","","","","html-keyboard-response","235","544072","0.0-10.0-0.0-0.0-0.0-1.14","null","<span style='color:GreenYellow; font-size: 70px;'>正确! </span>","null","","","","","","","","","","","","","","","","","","","","","","","feedback_test"
"","","","","","psychophysics","236","545535","0.0-10.0-0.0-0.0-0.0-0.15","456","","f","","","","","","","","","","","","","key","f","16.682862068965346","768","428","f","true","img/C_ambi40.png","生人","same",""
"","","","","","html-keyboard-response","237","546042","0.0-10.0-0.0-0.0-0.0-1.15","null","<span style='color:GreenYellow; font-size: 70px;'>正确! </span>","null","","","","","","","","","","","","","","","","","","","","","","","feedback_test"
"","","","","","psychophysics","238","547577","0.0-10.0-0.0-0.0-0.0-0.16","532","","f","","","","","","","","","","","","","key","f","16.67321978022017","768","428","f","true","img/H_ambi40.png","朋友","same",""
"","","","","","html-keyboard-response","239","548088","0.0-10.0-0.0-0.0-0.0-1.16","null","<span style='color:GreenYellow; font-size: 70px;'>正确! </span>","null","","","","","","","","","","","","","","","","","","","","","","","feedback_test"
"","","","","","psychophysics","240","549577","0.0-10.0-0.0-0.0-0.0-0.17","463","","f","","","","","","","","","","","","","key","f","16.694340909091725","768","428","j","false","img/C_ambi40.png","朋友","same",""
"","","","","","html-keyboard-response","241","550084","0.0-10.0-0.0-0.0-0.0-1.17","null","<span style='color:red; font-size: 70px;'>错误! </span>","null","","","","","","","","","","","","","","","","","","","","","","","feedback_test"
"","","","","","psychophysics","242","551643","0.0-10.0-0.0-0.0-0.0-0.18","544","","j","","","","","","","","","","","","","key","j","16.674521739130242","768","428","j","true","img/T_ambi40.png","をる","same",""
"","","","","","html-keyboard-response","243","552144","0.0-10.0-0.0-0.0-0.0-1.18","null","<span style='color:GreenYellow; font-size: 70px;'>正确! </span>","null","","","","","","","","","","","","","","","","","","","","","","","feedback_test"
"","","","","","psychophysics","244","553743","0.0-10.0-0.0-0.0-0.0-0.19","593","","f","","","","","","","","","","","","","key","f","16.67325263157928","768","428","f","true","img/S_ambi40.png","自我","same",""
"","","","","","html-keyboard-response","245","554254","0.0-10.0-0.0-0.0-0.0-1.19","null","<span style='color:GreenYellow; font-size: 70px;'>正确! </span>","null","","","","","","","","","","","","","","","","","","","","","","","feedback_test"
"","","","","","psychophysics","246","556014","0.0-10.0-0.0-0.0-0.0-0.20","747","","f","","","","","","","","","","","","","key","f","16.674144230768434","768","428","f","true","img/H_ambi40.png","朋友","same",""
"","","","","","html-keyboard-response","247","556527","0.0-10.0-0.0-0.0-0.0-1.20","null","<span style='color:GreenYellow; font-size: 70px;'>正确! </span>","null","","","","","","","","","","","","","","","","","","","","","","","feedback_test"
"","","","","","psychophysics","248","558128","0.0-10.0-0.0-0.0-0.0-0.21","594","","f","","","","","","","","","","","","","key","f","16.672863157893726","768","428","f","true","img/S_ambi40.png","自我","same",""
"","","","","","html-keyboard-response","249","558630","0.0-10.0-0.0-0.0-0.0-1.21","null","<span style='color:GreenYellow; font-size: 70px;'>正确! </span>","null","","","","","","","","","","","","","","","","","","","","","","","feedback_test"
"","","","","","psychophysics","250","560245","0.0-10.0-0.0-0.0-0.0-0.22","607","","f","","","","","","","","","","","","","key","f","16.673645833332557","768","428","j","false","img/S_ambi40.png","朋友","same",""
"","","","","","html-keyboard-response","251","560748","0.0-10.0-0.0-0.0-0.0-1.22","null","<span style='color:red; font-size: 70px;'>错误! </span>","null","","","","","","","","","","","","","","","","","","","","","","","feedback_test"
"","","","","","psychophysics","252","562375","0.0-10.0-0.0-0.0-0.0-0.23","604","","f","","","","","","","","","","","","","key","f","16.66793814432908","768","428","j","false","img/S_ambi40.png","生人","same",""
"","","","","","html-keyboard-response","253","562881","0.0-10.0-0.0-0.0-0.0-1.23","null","<span style='color:red; font-size: 70px;'>错误! </span>","null","","","","","","","","","","","","","","","","","","","","","","","feedback_test"
"","","","","","psychophysics","254","564561","0.0-10.0-0.0-0.0-0.0-0.24","677","","f","","","","","","","","","","","","","key","f","16.67295000000042","768","428","f","true","img/C_ambi40.png","生人","same",""
"","","","","","html-keyboard-response","255","565065","0.0-10.0-0.0-0.0-0.0-1.24","null","<span style='color:GreenYellow; font-size: 70px;'>正确! </span>","null","","","","","","","","","","","","","","","","","","","","","","","feedback_test"
"","","","","","psychophysics","256","566719","0.0-10.0-0.0-0.0-0.0-0.25","646","","f","","","","","","","","","","","","","key","f","16.67178571428652","768","428","f","true","img/C_ambi40.png","生人","same",""
"","","","","","html-keyboard-response","257","567230","0.0-10.0-0.0-0.0-0.0-1.25","null","<span style='color:GreenYellow; font-size: 70px;'>正确! </span>","null","","","","","","","","","","","","","","","","","","","","","","","feedback_test"
"","","","","","psychophysics","258","568696","0.0-10.0-0.0-0.0-0.0-0.26","441","","f","","","","","","","","","","","","","key","f","16.672988505746325","768","428","j","false","img/C_ambi40.png","自我","same",""
"","","","","","html-keyboard-response","259","569204","0.0-10.0-0.0-0.0-0.0-1.26","null","<span style='color:red; font-size: 70px;'>错误! </span>","null","","","","","","","","","","","","","","","","","","","","","","","feedback_test"
"","","","","","psychophysics","260","570695","0.0-10.0-0.0-0.0-0.0-0.27","488","","j","","","","","","","","","","","","","key","j","16.670409090909576","768","428","j","true","img/T_ambi40.png","をる","same",""
"","","","","","html-keyboard-response","261","571198","0.0-10.0-0.0-0.0-0.0-1.27","null","<span style='color:GreenYellow; font-size: 70px;'>正确! </span>","null","","","","","","","","","","","","","","","","","","","","","","","feedback_test"
"","","","","","psychophysics","262","573046","0.0-10.0-0.0-0.0-0.0-0.28","840","","f","","","","","","","","","","","","","key","f","16.66668181818148","768","428","j","false","img/C_ambi40.png","朋友","same",""
"","","","","","html-keyboard-response","263","573554","0.0-10.0-0.0-0.0-0.0-1.28","null","<span style='color:red; font-size: 70px;'>错误! </span>","null","","","","","","","","","","","","","","","","","","","","","","","feedback_test"
"","","","","","psychophysics","264","575527","0.0-10.0-0.0-0.0-0.0-0.29","944","","j","","","","","","","","","","","","","key","j","16.672550847457913","768","428","j","true","img/H_ambi40.png","自我","same",""
"","","","","","html-keyboard-response","265","576030","0.0-10.0-0.0-0.0-0.0-1.29","null","<span style='color:GreenYellow; font-size: 70px;'>正确! </span>","null","","","","","","","","","","","","","","","","","","","","","","","feedback_test"
"","","","","","psychophysics","266","577975","0.0-10.0-0.0-0.0-0.0-0.30","934","","j","","","","","","","","","","","","","key","j","16.674165217391135","768","428","j","true","img/H_ambi40.png","生人","same",""
"","","","","","html-keyboard-response","267","578489","0.0-10.0-0.0-0.0-0.0-1.30","null","<span style='color:GreenYellow; font-size: 70px;'>正确! </span>","null","","","","","","","","","","","","","","","","","","","","","","","feedback_test"
"","","","","","psychophysics","268","580392","0.0-10.0-0.0-0.0-0.0-0.31","900","","f","","","","","","","","","","","","","key","f","16.559026785713545","768","428","f","true","img/C_ambi40.png","生人","same",""
"","","","","","html-keyboard-response","269","580921","0.0-10.0-0.0-0.0-0.0-1.31","null","<span style='color:GreenYellow; font-size: 70px;'>正确! </span>","null","","","","","","","","","","","","","","","","","","","","","","","feedback_test"
"","","","","","psychophysics","270","582442","0.0-10.0-0.0-0.0-0.0-0.32","499","","j","","","","","","","","","","","","","key","j","16.67353333333352","768","428","j","true","img/T_ambi40.png","をる","same",""
"","","","","","html-keyboard-response","271","582959","0.0-10.0-0.0-0.0-0.0-1.32","null","<span style='color:GreenYellow; font-size: 70px;'>正确! </span>","null","","","","","","","","","","","","","","","","","","","","","","","feedback_test"
"","","","","","psychophysics","272","584799","0.0-10.0-0.0-0.0-0.0-0.33","838","","f","","","","","","","","","","","","","key","f","16.674899082568928","768","428","f","true","img/H_ambi40.png","朋友","same",""
"","","","","","html-keyboard-response","273","585314","0.0-10.0-0.0-0.0-0.0-1.33","null","<span style='color:GreenYellow; font-size: 70px;'>正确! </span>","null","","","","","","","","","","","","","","","","","","","","","","","feedback_test"
"","","","","","psychophysics","274","587127","0.0-10.0-0.0-0.0-0.0-0.34","803","","f","","","","","","","","","","","","","key","f","16.669401869158236","768","428","f","true","img/S_ambi40.png","自我","same",""
"","","","","","html-keyboard-response","275","587637","0.0-10.0-0.0-0.0-0.0-1.34","null","<span style='color:GreenYellow; font-size: 70px;'>正确! </span>","null","","","","","","","","","","","","","","","","","","","","","","","feedback_test"
"","","","","","psychophysics","276","589238","0.0-10.0-0.0-0.0-0.0-0.35","574","","f","","","","","","","","","","","","","key","f","16.679926315789405","768","428","f","true","img/H_ambi40.png","朋友","same",""
"","","","","","html-keyboard-response","277","589741","0.0-10.0-0.0-0.0-0.0-1.35","null","<span style='color:GreenYellow; font-size: 70px;'>正确! </span>","null","","","","","","","","","","","","","","","","","","","","","","","feedback_test"
"","","","","","psychophysics","278","591283","0.0-10.0-0.0-0.0-0.0-0.36","537","","j","","","","","","","","","","","","","key","j","16.67318478260827","768","428","j","true","img/T_ambi40.png","をる","same",""
"","","","","","html-keyboard-response","279","591798","0.0-10.0-0.0-0.0-0.0-1.36","null","<span style='color:GreenYellow; font-size: 70px;'>正确! </span>","null","","","","","","","","","","","","","","","","","","","","","","","feedback_test"
"","","","","","psychophysics","280","593476","0.0-10.0-0.0-0.0-0.0-0.37","676","","f","","","","","","","","","","","","","key","f","16.680121212121747","768","428","f","true","img/S_ambi40.png","自我","same",""
"","","","","","html-keyboard-response","281","593991","0.0-10.0-0.0-0.0-0.0-1.37","null","<span style='color:GreenYellow; font-size: 70px;'>正确! </span>","null","","","","","","","","","","","","","","","","","","","","","","","feedback_test"
"","","","","","psychophysics","282","595774","0.0-10.0-0.0-0.0-0.0-0.38","759","","f","","","","","","","","","","","","","key","f","16.68046226415054","768","428","f","true","img/H_ambi40.png","朋友","same",""
"","","","","","html-keyboard-response","283","596284","0.0-10.0-0.0-0.0-0.0-1.38","null","<span style='color:GreenYellow; font-size: 70px;'>正确! </span>","null","","","","","","","","","","","","","","","","","","","","","","","feedback_test"
"","","","","","psychophysics","284","597896","0.0-10.0-0.0-0.0-0.0-0.39","602","","f","","","","","","","","","","","","","key","f","16.668705263157914","768","428","f","true","img/H_ambi40.png","朋友","same",""
"","","","","","html-keyboard-response","285","598408","0.0-10.0-0.0-0.0-0.0-1.39","null","<span style='color:GreenYellow; font-size: 70px;'>正确! </span>","null","","","","","","","","","","","","","","","","","","","","","","","feedback_test"
"","","","","","psychophysics","286","600061","0.0-10.0-0.0-0.0-0.0-0.40","645","","f","","","","","","","","","","","","","key","f","16.672275510203207","768","428","f","true","img/C_ambi40.png","生人","same",""
"","","","","","html-keyboard-response","287","600576","0.0-10.0-0.0-0.0-0.0-1.40","null","<span style='color:GreenYellow; font-size: 70px;'>正确! </span>","null","","","","","","","","","","","","","","","","","","","","","","","feedback_test"
"","","","","","psychophysics","288","602373","0.0-10.0-0.0-0.0-0.0-0.41","787","","j","","","","","","","","","","","","","key","j","16.66585046729012","768","428","j","true","img/T_ambi40.png","をる","same",""
"","","","","","html-keyboard-response","289","602878","0.0-10.0-0.0-0.0-0.0-1.41","null","<span style='color:GreenYellow; font-size: 70px;'>正确! </span>","null","","","","","","","","","","","","","","","","","","","","","","","feedback_test"
"","","","","","psychophysics","290","604446","0.0-10.0-0.0-0.0-0.0-0.42","560","","f","","","","","","","","","","","","","key","f","16.67274193548327","768","428","f","true","img/C_ambi40.png","生人","same",""
"","","","","","html-keyboard-response","291","604949","0.0-10.0-0.0-0.0-0.0-1.42","null","<span style='color:GreenYellow; font-size: 70px;'>正确! </span>","null","","","","","","","","","","","","","","","","","","","","","","","feedback_test"
"","","","","","psychophysics","292","606667","0.0-10.0-0.0-0.0-0.0-0.43","712","","f","","","","","","","","","","","","","key","f","16.550346534653098","768","428","f","true","img/S_ambi40.png","自我","same",""
"","","","","","html-keyboard-response","293","607174","0.0-10.0-0.0-0.0-0.0-1.43","null","<span style='color:GreenYellow; font-size: 70px;'>正确! </span>","null","","","","","","","","","","","","","","","","","","","","","","","feedback_test"
"","","","","","psychophysics","294","608845","0.0-10.0-0.0-0.0-0.0-0.44","657","","f","","","","","","","","","","","","","key","f","16.677141414141527","768","428","j","false","img/H_ambi40.png","自我","same",""
"","","","","","html-keyboard-response","295","609360","0.0-10.0-0.0-0.0-0.0-1.44","null","<span style='color:red; font-size: 70px;'>错误! </span>","null","","","","","","","","","","","","","","","","","","","","","","","feedback_test"
"","","","","","psychophysics","296","611296","0.0-10.0-0.0-0.0-0.0-0.45","925","","j","","","","","","","","","","","","","key","j","16.673991304347496","768","428","j","true","img/S_ambi40.png","生人","same",""
"","","","","","html-keyboard-response","297","611802","0.0-10.0-0.0-0.0-0.0-1.45","null","<span style='color:GreenYellow; font-size: 70px;'>正确! </span>","null","","","","","","","","","","","","","","","","","","","","","","","feedback_test"
"","","","","","psychophysics","298","613995","0.0-10.0-0.0-0.0-0.0-0.46","1187","","f","","","","","","","","","","","","","key","f","16.585169230769566","768","428","j","false","img/C_ambi40.png","自我","same",""
"","","","","","html-keyboard-response","299","614496","0.0-10.0-0.0-0.0-0.0-1.46","null","<span style='color:red; font-size: 70px;'>错误! </span>","null","","","","","","","","","","","","","","","","","","","","","","","feedback_test"
"","","","","","psychophysics","300","616130","0.0-10.0-0.0-0.0-0.0-0.47","624","","f","","","","","","","","","","","","","key","f","16.674618556700675","768","428","f","true","img/C_ambi40.png","生人","same",""
"","","","","","html-keyboard-response","301","616641","0.0-10.0-0.0-0.0-0.0-1.47","null","<span style='color:GreenYellow; font-size: 70px;'>正确! </span>","null","","","","","","","","","","","","","","","","","","","","","","","feedback_test"
"","","","","","psychophysics","302","618189","0.0-10.0-0.0-0.0-0.0-0.48","545","","j","","","","","","","","","","","","","key","j","16.672846153845427","768","428","j","true","img/T_ambi40.png","をる","same",""
"","","","","","html-keyboard-response","303","618703","0.0-10.0-0.0-0.0-0.0-1.48","null","<span style='color:GreenYellow; font-size: 70px;'>正确! </span>","null","","","","","","","","","","","","","","","","","","","","","","","feedback_test"
"","","","","","psychophysics","304","620518","0.0-10.0-0.0-0.0-0.0-0.49","784","","j","","","","","","","","","","","","","key","j","16.673175925925737","768","428","j","true","img/C_ambi40.png","朋友","same",""
"","","","","","html-keyboard-response","305","621031","0.0-10.0-0.0-0.0-0.0-1.49","null","<span style='color:GreenYellow; font-size: 70px;'>正确! </span>","null","","","","","","","","","","","","","","","","","","","","","","","feedback_test"
"","","","","","psychophysics","306","622980","0.0-10.0-0.0-0.0-0.0-0.50","935","","f","","","","","","","","","","","","","key","f","16.67846551724079","768","428","j","false","img/S_ambi40.png","朋友","same",""
"","","","","","html-keyboard-response","307","623493","0.0-10.0-0.0-0.0-0.0-1.50","null","<span style='color:red; font-size: 70px;'>错误! </span>","null","","","","","","","","","","","","","","","","","","","","","","","feedback_test"
"","","","","","psychophysics","308","625064","0.0-10.0-0.0-0.0-0.0-0.51","569","","f","","","","","","","","","","","","","key","f","16.674752688171814","768","428","f","true","img/H_ambi40.png","朋友","same",""
"","","","","","html-keyboard-response","309","625590","0.0-10.0-0.0-0.0-0.0-1.51","null","<span style='color:GreenYellow; font-size: 70px;'>正确! </span>","null","","","","","","","","","","","","","","","","","","","","","","","feedback_test"
"","","","","","psychophysics","310","628103","0.0-10.0-0.0-0.0-0.0-0.52","null","","null","","","","","","","","","","","","","key","null","16.672926666666754","768","428","j","false","img/H_ambi40.png","生人","same",""
"","","","","","html-keyboard-response","311","628606","0.0-10.0-0.0-0.0-0.0-1.52","null","<span class='add_' style='color:yellow; font-size: 70px;'> 太慢! </span>","null","","","","","","","","","","","","","","","","","","","","","","","feedback_test"
"","","","","","psychophysics","312","630300","0.0-10.0-0.0-0.0-0.0-0.53","686","","f","","","","","","","","","","","","","key","f","16.67390099009914","768","428","f","true","img/S_ambi40.png","自我","same",""
"","","","","","html-keyboard-response","313","630815","0.0-10.0-0.0-0.0-0.0-1.53","null","<span style='color:GreenYellow; font-size: 70px;'>正确! </span>","null","","","","","","","","","","","","","","","","","","","","","","","feedback_test"
"","","","","","psychophysics","314","632691","0.0-10.0-0.0-0.0-0.0-0.54","862","","j","","","","","","","","","","","","","key","j","16.673171171171774","768","428","j","true","img/H_ambi40.png","生人","same",""
"","","","","","html-keyboard-response","315","633202","0.0-10.0-0.0-0.0-0.0-1.54","null","<span style='color:GreenYellow; font-size: 70px;'>正确! </span>","null","","","","","","","","","","","","","","","","","","","","","","","feedback_test"
"","","","","","psychophysics","316","634869","0.0-10.0-0.0-0.0-0.0-0.55","636","","f","","","","","","","","","","","","","key","f","16.686292929292627","768","428","f","true","img/C_ambi40.png","生人","same",""
"","","","","","html-keyboard-response","317","635384","0.0-10.0-0.0-0.0-0.0-1.55","null","<span style='color:GreenYellow; font-size: 70px;'>正确! </span>","null","","","","","","","","","","","","","","","","","","","","","","","feedback_test"
"","","","","","psychophysics","318","637174","0.0-10.0-0.0-0.0-0.0-0.56","776","","j","","","","","","","","","","","","","key","j","16.6684150943403","768","428","j","true","img/C_ambi40.png","自我","same",""
"","","","","","html-keyboard-response","319","637688","0.0-10.0-0.0-0.0-0.0-1.56","null","<span style='color:GreenYellow; font-size: 70px;'>正确! </span>","null","","","","","","","","","","","","","","","","","","","","","","","feedback_test"
"","","","","","psychophysics","320","639278","0.0-10.0-0.0-0.0-0.0-0.57","578","","j","","","","","","","","","","","","","key","j","16.672436170213103","768","428","j","true","img/T_ambi40.png","をる","same",""
"","","","","","html-keyboard-response","321","639783","0.0-10.0-0.0-0.0-0.0-1.57","null","<span style='color:GreenYellow; font-size: 70px;'>正确! </span>","null","","","","","","","","","","","","","","","","","","","","","","","feedback_test"
"","","","","","psychophysics","322","641556","0.0-10.0-0.0-0.0-0.0-0.58","762","","j","","","","","","","","","","","","","key","j","16.674933333332383","768","428","f","false","img/H_ambi40.png","朋友","same",""
"","","","","","html-keyboard-response","323","642058","0.0-10.0-0.0-0.0-0.0-1.58","null","<span style='color:red; font-size: 70px;'>错误! </span>","null","","","","","","","","","","","","","","","","","","","","","","","feedback_test"
"","","","","","psychophysics","324","643627","0.0-10.0-0.0-0.0-0.0-0.59","560","","f","","","","","","","","","","","","","key","f","16.67920430107618","768","428","f","true","img/H_ambi40.png","朋友","same",""
"","","","","","html-keyboard-response","325","644133","0.0-10.0-0.0-0.0-0.0-1.59","null","<span style='color:GreenYellow; font-size: 70px;'>正确! </span>","null","","","","","","","","","","","","","","","","","","","","","","","feedback_test"
"","","","","","psychophysics","326","645871","0.0-10.0-0.0-0.0-0.0-0.60","736","","f","","","","","","","","","","","","","key","f","16.54221359223299","768","428","f","true","img/S_ambi40.png","自我","same",""
"","","","","","html-keyboard-response","327","646387","0.0-10.0-0.0-0.0-0.0-1.60","null","<span style='color:GreenYellow; font-size: 70px;'>正确! </span>","null","","","","","","","","","","","","","","","","","","","","","","","feedback_test"
"","","","","","psychophysics","328","648251","0.0-10.0-0.0-0.0-0.0-0.61","851","","j","","","","","","","","","","","","","key","j","16.67912727272646","768","428","j","true","img/C_ambi40.png","朋友","same",""
"","","","","","html-keyboard-response","329","648761","0.0-10.0-0.0-0.0-0.0-1.61","null","<span style='color:GreenYellow; font-size: 70px;'>正确! </span>","null","","","","","","","","","","","","","","","","","","","","","","","feedback_test"
"","","","","","psychophysics","330","650390","0.0-10.0-0.0-0.0-0.0-0.62","619","","f","","","","","","","","","","","","","key","f","16.673154639174978","768","428","f","true","img/C_ambi40.png","生人","same",""
"","","","","","html-keyboard-response","331","650899","0.0-10.0-0.0-0.0-0.0-1.62","null","<span style='color:GreenYellow; font-size: 70px;'>正确! </span>","null","","","","","","","","","","","","","","","","","","","","","","","feedback_test"
"","","","","","psychophysics","332","652560","0.0-10.0-0.0-0.0-0.0-0.63","658","","f","","","","","","","","","","","","","key","f","16.632474747474653","768","428","f","true","img/H_ambi40.png","朋友","same",""
"","","","","","html-keyboard-response","333","653072","0.0-10.0-0.0-0.0-0.0-1.63","null","<span style='color:GreenYellow; font-size: 70px;'>正确! </span>","null","","","","","","","","","","","","","","","","","","","","","","","feedback_test"
"","","","","","psychophysics","334","654783","0.0-10.0-0.0-0.0-0.0-0.64","698","","j","","","","","","","","","","","","","key","j","16.672861386138926","768","428","j","true","img/S_ambi40.png","朋友","same",""
"","","","","","html-keyboard-response","335","655286","0.0-10.0-0.0-0.0-0.0-1.64","null","<span style='color:GreenYellow; font-size: 70px;'>正确! </span>","null","","","","","","","","","","","","","","","","","","","","","","","feedback_test"
"","","","","","psychophysics","336","657004","0.0-10.0-0.0-0.0-0.0-0.65","714","","f","","","","","","","","","","","","","key","f","16.55314851485165","768","428","f","true","img/S_ambi40.png","自我","same",""
"","","","","","html-keyboard-response","337","657511","0.0-10.0-0.0-0.0-0.0-1.65","null","<span style='color:GreenYellow; font-size: 70px;'>正确! </span>","null","","","","","","","","","","","","","","","","","","","","","","","feedback_test"
"","","","","","psychophysics","338","659311","0.0-10.0-0.0-0.0-0.0-0.66","791","","j","","","","","","","","","","","","","key","j","16.672345794392445","768","428","j","true","img/H_ambi40.png","自我","same",""
"","","","","","html-keyboard-response","339","659845","0.0-10.0-0.0-0.0-0.0-1.66","null","<span style='color:GreenYellow; font-size: 70px;'>正确! </span>","null","","","","","","","","","","","","","","","","","","","","","","","feedback_test"
"","","","","","psychophysics","340","661390","0.0-10.0-0.0-0.0-0.0-0.67","516","","j","","","","","","","","","","","","","key","j","16.66707692307722","768","428","j","true","img/T_ambi40.png","をる","same",""
"","","","","","html-keyboard-response","341","661901","0.0-10.0-0.0-0.0-0.0-1.67","null","<span style='color:GreenYellow; font-size: 70px;'>正确! </span>","null","","","","","","","","","","","","","","","","","","","","","","","feedback_test"
"","","","","","psychophysics","342","663769","0.0-10.0-0.0-0.0-0.0-0.68","862","","j","","","","","","","","","","","","","key","j","16.67350450450416","768","428","j","true","img/S_ambi40.png","生人","same",""
"","","","","","html-keyboard-response","343","664282","0.0-10.0-0.0-0.0-0.0-1.68","null","<span style='color:GreenYellow; font-size: 70px;'>正确! </span>","null","","","","","","","","","","","","","","","","","","","","","","","feedback_test"
"","","","","","psychophysics","344","665916","0.0-10.0-0.0-0.0-0.0-0.69","627","","f","","","","","","","","","","","","","key","f","16.67416494845331","768","428","f","true","img/S_ambi40.png","自我","same",""
"","","","","","html-keyboard-response","345","666443","0.0-10.0-0.0-0.0-0.0-1.69","null","<span style='color:GreenYellow; font-size: 70px;'>正确! </span>","null","","","","","","","","","","","","","","","","","","","","","","","feedback_test"
"","","","","","psychophysics","346","667972","0.0-10.0-0.0-0.0-0.0-0.70","509","","j","","","","","","","","","","","","","key","j","16.673255555555482","768","428","j","true","img/T_ambi40.png","をる","same",""
"","","","","","html-keyboard-response","347","668478","0.0-10.0-0.0-0.0-0.0-1.70","null","<span style='color:GreenYellow; font-size: 70px;'>正确! </span>","null","","","","","","","","","","","","","","","","","","","","","","","feedback_test"
"","","","","","psychophysics","348","670085","0.0-10.0-0.0-0.0-0.0-0.71","600","","f","","","","","","","","","","","","","key","f","16.67330526315705","768","428","f","true","img/C_ambi40.png","生人","same",""
"","","","","","html-keyboard-response","349","670596","0.0-10.0-0.0-0.0-0.0-1.71","null","<span style='color:GreenYellow; font-size: 70px;'>正确! </span>","null","","","","","","","","","","","","","","","","","","","","","","","feedback_test"
"","","","","","psychophysics","350","672107","0.0-10.0-0.0-0.0-0.0-0.72","498","","f","","","","","","","","","","","","","key","f","16.671348314606742","768","428","f","true","img/C_ambi40.png","生人","same",""
"","","","","","html-keyboard-response","351","672623","0.0-10.0-0.0-0.0-0.0-1.72","null","<span style='color:GreenYellow; font-size: 70px;'>正确! </span>","null","","","","","","","","","","","","","","","","","","","","","","","feedback_test"
"","","","","","psychophysics","352","674209","0.0-10.0-0.0-0.0-0.0-0.73","562","","j","","","","","","","","","","","","","key","j","16.660989361702455","768","428","j","true","img/T_ambi40.png","をる","same",""
"","","","","","html-keyboard-response","353","674725","0.0-10.0-0.0-0.0-0.0-1.73","null","<span style='color:GreenYellow; font-size: 70px;'>正确! </span>","null","","","","","","","","","","","","","","","","","","","","","","","feedback_test"
"","","","","","psychophysics","354","676293","0.0-10.0-0.0-0.0-0.0-0.74","563","","f","","","","","","","","","","","","","key","f","16.672440860215175","768","428","f","true","img/S_ambi40.png","自我","same",""
"","","","","","html-keyboard-response","355","676805","0.0-10.0-0.0-0.0-0.0-1.74","null","<span style='color:GreenYellow; font-size: 70px;'>正确! </span>","null","","","","","","","","","","","","","","","","","","","","","","","feedback_test"
"","","","","","psychophysics","356","678434","0.0-10.0-0.0-0.0-0.0-0.75","620","","f","","","","","","","","","","","","","key","f","16.674680412371316","768","428","f","true","img/S_ambi40.png","自我","same",""
"","","","","","html-keyboard-response","357","678941","0.0-10.0-0.0-0.0-0.0-1.75","null","<span style='color:GreenYellow; font-size: 70px;'>正确! </span>","null","","","","","","","","","","","","","","","","","","","","","","","feedback_test"
"","","","","","psychophysics","358","680727","0.0-10.0-0.0-0.0-0.0-0.76","754","","j","","","","","","","","","","","","","key","j","16.67199999999962","768","428","j","true","img/S_ambi40.png","朋友","same",""
"","","","","","html-keyboard-response","359","681238","0.0-10.0-0.0-0.0-0.0-1.76","null","<span style='color:GreenYellow; font-size: 70px;'>正确! </span>","null","","","","","","","","","","","","","","","","","","","","","","","feedback_test"
"","","","","","psychophysics","360","682763","0.0-10.0-0.0-0.0-0.0-0.77","515","","j","","","","","","","","","","","","","key","j","16.672322222221798","768","428","j","true","img/T_ambi40.png","をる","same",""
"","","","","","html-keyboard-response","361","683267","0.0-10.0-0.0-0.0-0.0-1.77","null","<span style='color:GreenYellow; font-size: 70px;'>正确! </span>","null","","","","","","","","","","","","","","","","","","","","","","","feedback_test"
"","","","","","psychophysics","362","684899","0.0-10.0-0.0-0.0-0.0-0.78","630","","f","","","","","","","","","","","","","key","f","16.676520833333296","768","428","f","true","img/S_ambi40.png","自我","same",""
"","","","","","html-keyboard-response","363","685415","0.0-10.0-0.0-0.0-0.0-1.78","null","<span style='color:GreenYellow; font-size: 70px;'>正确! </span>","null","","","","","","","","","","","","","","","","","","","","","","","feedback_test"
"","","","","","psychophysics","364","687205","0.0-10.0-0.0-0.0-0.0-0.79","784","","f","","","","","","","","","","","","","key","f","16.53986792452853","768","428","f","true","img/C_ambi40.png","生人","same",""
"","","","","","html-keyboard-response","365","687717","0.0-10.0-0.0-0.0-0.0-1.79","null","<span style='color:GreenYellow; font-size: 70px;'>正确! </span>","null","","","","","","","","","","","","","","","","","","","","","","","feedback_test"
"","","","","","psychophysics","366","689361","0.0-10.0-0.0-0.0-0.0-0.80","642","","j","","","","","","","","","","","","","key","j","16.669051546391014","768","428","j","true","img/S_ambi40.png","生人","same",""
"","","","","","html-keyboard-response","367","689866","0.0-10.0-0.0-0.0-0.0-1.80","null","<span style='color:GreenYellow; font-size: 70px;'>正确! </span>","null","","","","","","","","","","","","","","","","","","","","","","","feedback_test"
"","","","","","psychophysics","368","691490","0.0-10.0-0.0-0.0-0.0-0.81","620","","f","","","","","","","","","","","","","key","f","16.543125000000146","768","428","f","true","img/C_ambi40.png","生人","same",""
"","","","","","html-keyboard-response","369","691997","0.0-10.0-0.0-0.0-0.0-1.81","null","<span style='color:GreenYellow; font-size: 70px;'>正确! </span>","null","","","","","","","","","","","","","","","","","","","","","","","feedback_test"
"","","","","","psychophysics","370","693541","0.0-10.0-0.0-0.0-0.0-0.82","521","","j","","","","","","","","","","","","","key","j","16.672913043477582","768","428","j","true","img/T_ambi40.png","をる","same",""
"","","","","","html-keyboard-response","371","694057","0.0-10.0-0.0-0.0-0.0-1.82","null","<span style='color:GreenYellow; font-size: 70px;'>正确! </span>","null","","","","","","","","","","","","","","","","","","","","","","","feedback_test"
"","","","","","psychophysics","372","695626","0.0-10.0-0.0-0.0-0.0-0.83","558","","f","","","","","","","","","","","","","key","f","16.667655913979164","768","428","j","false","img/H_ambi40.png","自我","same",""
"","","","","","html-keyboard-response","373","696130","0.0-10.0-0.0-0.0-0.0-1.83","null","<span style='color:red; font-size: 70px;'>错误! </span>","null","","","","","","","","","","","","","","","","","","","","","","","feedback_test"
"","","","","","psychophysics","374","697764","0.0-10.0-0.0-0.0-0.0-0.84","626","","f","","","","","","","","","","","","","key","f","16.6749587628856","768","428","f","true","img/H_ambi40.png","朋友","same",""
"","","","","","html-keyboard-response","375","698267","0.0-10.0-0.0-0.0-0.0-1.84","null","<span style='color:GreenYellow; font-size: 70px;'>正确! </span>","null","","","","","","","","","","","","","","","","","","","","","","","feedback_test"
"","","","","","psychophysics","376","699753","0.0-10.0-0.0-0.0-0.0-0.85","463","","f","","","","","","","","","","","","","key","f","16.67372727272794","768","428","j","false","img/C_ambi40.png","自我","same",""
"","","","","","html-keyboard-response","377","700268","0.0-10.0-0.0-0.0-0.0-1.85","null","<span style='color:red; font-size: 70px;'>错误! </span>","null","","","","","","","","","","","","","","","","","","","","","","","feedback_test"
"","","","","","psychophysics","378","702060","0.0-10.0-0.0-0.0-0.0-0.86","788","","j","","","","","","","","","","","","","key","j","16.67283177570109","768","428","j","true","img/C_ambi40.png","朋友","same",""
"","","","","","html-keyboard-response","379","702580","0.0-10.0-0.0-0.0-0.0-1.86","null","<span style='color:GreenYellow; font-size: 70px;'>正确! </span>","null","","","","","","","","","","","","","","","","","","","","","","","feedback_test"
"","","","","","psychophysics","380","704222","0.0-10.0-0.0-0.0-0.0-0.87","631","","f","","","","","","","","","","","","","key","f","16.67503092783508","768","428","f","true","img/H_ambi40.png","朋友","same",""
"","","","","","html-keyboard-response","381","704723","0.0-10.0-0.0-0.0-0.0-1.87","null","<span style='color:GreenYellow; font-size: 70px;'>正确! </span>","null","","","","","","","","","","","","","","","","","","","","","","","feedback_test"
"","","","","","psychophysics","382","706476","0.0-10.0-0.0-0.0-0.0-0.88","735","","j","","","","","","","","","","","","","key","j","16.67482692307721","768","428","j","true","img/H_ambi40.png","生人","same",""
"","","","","","html-keyboard-response","383","706991","0.0-10.0-0.0-0.0-0.0-1.88","null","<span style='color:GreenYellow; font-size: 70px;'>正确! </span>","null","","","","","","","","","","","","","","","","","","","","","","","feedback_test"
"","","","","","psychophysics","384","708490","0.0-10.0-0.0-0.0-0.0-0.89","496","","f","","","","","","","","","","","","","key","f","16.673147727272326","768","428","f","true","img/H_ambi40.png","朋友","same",""
"","","","","","html-keyboard-response","385","708998","0.0-10.0-0.0-0.0-0.0-1.89","null","<span style='color:GreenYellow; font-size: 70px;'>正确! </span>","null","","","","","","","","","","","","","","","","","","","","","","","feedback_test"
"","","","","","psychophysics","386","710687","0.0-10.0-0.0-0.0-0.0-0.90","678","","j","","","","","","","","","","","","","key","j","16.67576000000001","768","428","j","true","img/H_ambi40.png","自我","same",""
"","","","","","html-keyboard-response","387","711203","0.0-10.0-0.0-0.0-0.0-1.90","null","<span style='color:GreenYellow; font-size: 70px;'>正确! </span>","null","","","","","","","","","","","","","","","","","","","","","","","feedback_test"
"","","","","","psychophysics","388","713032","0.0-10.0-0.0-0.0-0.0-0.91","806","","f","","","","","","","","","","","","","key","f","16.67359633027435","768","428","j","false","img/H_ambi40.png","生人","same",""
"","","","","","html-keyboard-response","389","713533","0.0-10.0-0.0-0.0-0.0-1.91","null","<span style='color:red; font-size: 70px;'>错误! </span>","null","","","","","","","","","","","","","","","","","","","","","","","feedback_test"
"","","","","","psychophysics","390","715403","0.0-10.0-0.0-0.0-0.0-0.92","857","","j","","","","","","","","","","","","","key","j","16.673621621621596","768","428","j","true","img/C_ambi40.png","朋友","same",""
"","","","","","html-keyboard-response","391","715913","0.0-10.0-0.0-0.0-0.0-1.92","null","<span style='color:GreenYellow; font-size: 70px;'>正确! </span>","null","","","","","","","","","","","","","","","","","","","","","","","feedback_test"
"","","","","","psychophysics","392","717578","0.0-10.0-0.0-0.0-0.0-0.93","653","","f","","","","","","","","","","","","","key","f","16.673775510204365","768","428","f","true","img/C_ambi40.png","生人","same",""
"","","","","","html-keyboard-response","393","718114","0.0-10.0-0.0-0.0-0.0-1.93","null","<span style='color:GreenYellow; font-size: 70px;'>正确! </span>","null","","","","","","","","","","","","","","","","","","","","","","","feedback_test"
"","","","","","psychophysics","394","719668","0.0-10.0-0.0-0.0-0.0-0.94","544","","j","","","","","","","","","","","","","key","j","16.6705760869562","768","428","j","true","img/T_ambi40.png","をる","same",""
"","","","","","html-keyboard-response","395","720179","0.0-10.0-0.0-0.0-0.0-1.94","null","<span style='color:GreenYellow; font-size: 70px;'>正确! </span>","null","","","","","","","","","","","","","","","","","","","","","","","feedback_test"
"","","","","","psychophysics","396","721705","0.0-10.0-0.0-0.0-0.0-0.95","524","","f","","","","","","","","","","","","","key","f","16.679899999999908","768","428","f","true","img/H_ambi40.png","朋友","same",""
"","","","","","html-keyboard-response","397","722211","0.0-10.0-0.0-0.0-0.0-1.95","null","<span style='color:GreenYellow; font-size: 70px;'>正确! </span>","null","","","","","","","","","","","","","","","","","","","","","","","feedback_test"
"","","","","","psychophysics","398","723919","0.0-10.0-0.0-0.0-0.0-0.96","705","","f","","","","","","","","","","","","","key","f","16.552603960395697","768","428","f","true","img/S_ambi40.png","自我","same",""
"","","","","","html-keyboard-response","399","724435","0.0-10.0-0.0-0.0-0.0-1.96","null","<span style='color:GreenYellow; font-size: 70px;'>正确! </span>","null","","","","","","","","","","","","","","","","","","","","","","","feedback_test"
"","","","","","psychophysics","400","725980","0.0-10.0-0.0-0.0-0.0-0.97","529","","j","","","","","","","","","","","","","key","j","16.675450549450712","768","428","j","true","img/T_ambi40.png","をる","same",""
"","","","","","html-keyboard-response","401","726495","0.0-10.0-0.0-0.0-0.0-1.97","null","<span style='color:GreenYellow; font-size: 70px;'>正确! </span>","null","","","","","","","","","","","","","","","","","","","","","","","feedback_test"
"","","","","","psychophysics","402","728040","0.0-10.0-0.0-0.0-0.0-0.98","543","","j","","","","","","","","","","","","","key","j","16.67367391304351","768","428","j","true","img/T_ambi40.png","をる","same",""
"","","","","","html-keyboard-response","403","728552","0.0-10.0-0.0-0.0-0.0-1.98","null","<span style='color:GreenYellow; font-size: 70px;'>正确! </span>","null","","","","","","","","","","","","","","","","","","","","","","","feedback_test"
"","","","","","psychophysics","404","730234","0.0-10.0-0.0-0.0-0.0-0.99","671","","f","","","","","","","","","","","","","key","f","16.67924242424238","768","428","f","true","img/C_ambi40.png","生人","same",""
"","","","","","html-keyboard-response","405","730748","0.0-10.0-0.0-0.0-0.0-1.99","null","<span style='color:GreenYellow; font-size: 70px;'>正确! </span>","null","","","","","","","","","","","","","","","","","","","","","","","feedback_test"
"","","","","","psychophysics","406","732278","0.0-10.0-0.0-0.0-0.0-0.100","526","","f","","","","","","","","","","","","","key","f","16.534211111110118","768","428","f","true","img/C_ambi40.png","生人","same",""
"","","","","","html-keyboard-response","407","732782","0.0-10.0-0.0-0.0-0.0-1.100","null","<span style='color:GreenYellow; font-size: 70px;'>正确! </span>","null","","","","","","","","","","","","","","","","","","","","","","","feedback_test"
"","","","","","psychophysics","408","734900","0.0-10.0-0.0-0.0-0.0-0.101","1116","","f","","","","","","","","","","","","","key","f","16.56843200000003","768","428","j","false","img/C_ambi40.png","自我","same",""
"","","","","","html-keyboard-response","409","735402","0.0-10.0-0.0-0.0-0.0-1.101","null","<span style='color:red; font-size: 70px;'>错误! </span>","null","","","","","","","","","","","","","","","","","","","","","","","feedback_test"
"","","","","","psychophysics","410","736989","0.0-10.0-0.0-0.0-0.0-0.102","585","","f","","","","","","","","","","","","","key","f","16.673393617021265","768","428","j","false","img/S_ambi40.png","朋友","same",""
"","","","","","html-keyboard-response","411","737525","0.0-10.0-0.0-0.0-0.0-1.102","null","<span style='color:red; font-size: 70px;'>错误! </span>","null","","","","","","","","","","","","","","","","","","","","","","","feedback_test"
"","","","","","psychophysics","412","739026","0.0-10.0-0.0-0.0-0.0-0.103","489","","f","","","","","","","","","","","","","key","f","16.674483146067196","768","428","f","true","img/S_ambi40.png","自我","same",""
"","","","","","html-keyboard-response","413","739535","0.0-10.0-0.0-0.0-0.0-1.103","null","<span style='color:GreenYellow; font-size: 70px;'>正确! </span>","null","","","","","","","","","","","","","","","","","","","","","","","feedback_test"
"","","","","","psychophysics","414","741014","0.0-10.0-0.0-0.0-0.0-0.104","474","","f","","","","","","","","","","","","","key","f","16.53287356321823","768","428","f","true","img/H_ambi40.png","朋友","same",""
"","","","","","html-keyboard-response","415","741517","0.0-10.0-0.0-0.0-0.0-1.104","null","<span style='color:GreenYellow; font-size: 70px;'>正确! </span>","null","","","","","","","","","","","","","","","","","","","","","","","feedback_test"
"","","","","","psychophysics","416","743047","0.0-10.0-0.0-0.0-0.0-0.105","523","","f","","","","","","","","","","","","","key","f","16.67347252747213","768","428","f","true","img/S_ambi40.png","自我","same",""
"","","","","","html-keyboard-response","417","743554","0.0-10.0-0.0-0.0-0.0-1.105","null","<span style='color:GreenYellow; font-size: 70px;'>正确! </span>","null","","","","","","","","","","","","","","","","","","","","","","","feedback_test"
"","","","","","psychophysics","418","745298","0.0-10.0-0.0-0.0-0.0-0.106","726","","j","","","","","","","","","","","","","key","j","16.673990291263003","768","428","j","true","img/S_ambi40.png","生人","same",""
"","","","","","html-keyboard-response","419","745799","0.0-10.0-0.0-0.0-0.0-1.106","null","<span style='color:GreenYellow; font-size: 70px;'>正确! </span>","null","","","","","","","","","","","","","","","","","","","","","","","feedback_test"
"","","","","","psychophysics","420","747476","0.0-10.0-0.0-0.0-0.0-0.107","667","","f","","","","","","","","","","","","","key","f","16.670779999999795","768","428","f","true","img/H_ambi40.png","朋友","same",""
"","","","","","html-keyboard-response","421","747984","0.0-10.0-0.0-0.0-0.0-1.107","null","<span style='color:GreenYellow; font-size: 70px;'>正确! </span>","null","","","","","","","","","","","","","","","","","","","","","","","feedback_test"
"","","","","","html-keyboard-response","422","750900","0.0-10.0-0.0-0.0-1.0","2912","<style>.context{color:white; font-size: 35px; line-height:40px}</style>                          <div><p class='context'>您正确回答了84% 的试次。</p><p class='context'>您的平均反应时为650毫秒。</p><p class='context'>请按任意键进入休息</p></div>","j","","","","","","","","","","","","","","","","","","","","","","",""
"","","","","","html-button-response","423","807351","0.0-10.0-0.0-0.0-2.0","56444","
                    <p>您当前还剩余5组实验</p>
                    <p>现在是休息时间，当您结束休息后，您可以点击 结束休息 按钮 继续</p>
                    <p>建议休息时间还剩余<span id=""iii"">60</span>秒</p>","0","","","","","","","","","","","","","","","","","","","","","","",""
"","","","","","psychophysics","424","809866","0.0-10.0-0.0-0.0-0.1-0.108","null","","null","","","","","","","","","","","","","key","null","16.67374666666612","768","428","f","false","img/H_ambi40.png","朋友","same",""
"","","","","","html-keyboard-response","425","810376","0.0-10.0-0.0-0.0-0.1-1.108","null","<span class='add_' style='color:yellow; font-size: 70px;'> 太慢! </span>","null","","","","","","","","","","","","","","","","","","","","","","","feedback_test"
"","","","","","psychophysics","426","812806","0.0-10.0-0.0-0.0-0.1-0.109","1424","","j","","","","","","","","","","","","","key","j","16.673648275862096","768","428","f","false","img/S_ambi40.png","自我","same",""
"","","","","","html-keyboard-response","427","813317","0.0-10.0-0.0-0.0-0.1-1.109","null","<span style='color:red; font-size: 70px;'>错误! </span>","null","","","","","","","","","","","","","","","","","","","","","","","feedback_test"
"","","","","","psychophysics","428","814845","0.0-10.0-0.0-0.0-0.1-0.110","526","","f","","","","","","","","","","","","","key","f","16.67184444444461","768","428","f","true","img/S_ambi40.png","自我","same",""
"","","","","","html-keyboard-response","429","815356","0.0-10.0-0.0-0.0-0.1-1.110","null","<span style='color:GreenYellow; font-size: 70px;'>正确! </span>","null","","","","","","","","","","","","","","","","","","","","","","","feedback_test"
"","","","","","psychophysics","430","817026","0.0-10.0-0.0-0.0-0.1-0.111","660","","f","","","","","","","","","","","","","key","f","16.67953535353511","768","428","f","true","img/H_ambi40.png","朋友","same",""
"","","","","","html-keyboard-response","431","817562","0.0-10.0-0.0-0.0-0.1-1.111","null","<span style='color:GreenYellow; font-size: 70px;'>正确! </span>","null","","","","","","","","","","","","","","","","","","","","","","","feedback_test"
"","","","","","psychophysics","432","819396","0.0-10.0-0.0-0.0-0.1-0.112","820","","f","","","","","","","","","","","","","key","f","16.65824770642265","768","428","j","false","img/H_ambi40.png","自我","same",""
"","","","","","html-keyboard-response","433","819911","0.0-10.0-0.0-0.0-0.1-1.112","null","<span style='color:red; font-size: 70px;'>错误! </span>","null","","","","","","","","","","","","","","","","","","","","","","","feedback_test"
"","","","","","psychophysics","434","821495","0.0-10.0-0.0-0.0-0.1-0.113","576","","f","","","","","","","","","","","","","key","f","16.673723404256112","768","428","f","true","img/C_ambi40.png","生人","same",""
"","","","","","html-keyboard-response","435","821999","0.0-10.0-0.0-0.0-0.1-1.113","null","<span style='color:GreenYellow; font-size: 70px;'>正确! </span>","null","","","","","","","","","","","","","","","","","","","","","","","feedback_test"
"","","","","","psychophysics","436","823474","0.0-10.0-0.0-0.0-0.1-0.114","469","","f","","","","","","","","","","","","","key","f","16.866329545455468","768","428","f","true","img/C_ambi40.png","生人","same",""
"","","","","","html-keyboard-response","437","823977","0.0-10.0-0.0-0.0-0.1-1.114","null","<span style='color:GreenYellow; font-size: 70px;'>正确! </span>","null","","","","","","","","","","","","","","","","","","","","","","","feedback_test"
"","","","","","psychophysics","438","825514","0.0-10.0-0.0-0.0-0.1-0.115","510","","j","","","","","","","","","","","","","key","j","16.67217582417524","768","428","j","true","img/T_ambi40.png","をる","same",""
"","","","","","html-keyboard-response","439","826025","0.0-10.0-0.0-0.0-0.1-1.115","null","<span style='color:GreenYellow; font-size: 70px;'>正确! </span>","null","","","","","","","","","","","","","","","","","","","","","","","feedback_test"
"","","","","","psychophysics","440","827834","0.0-10.0-0.0-0.0-0.1-0.116","799","","f","","","","","","","","","","","","","key","f","16.673495327101836","768","428","j","false","img/S_ambi40.png","朋友","same",""
"","","","","","html-keyboard-response","441","828343","0.0-10.0-0.0-0.0-0.1-1.116","null","<span style='color:red; font-size: 70px;'>错误! </span>","null","","","","","","","","","","","","","","","","","","","","","","","feedback_test"
"","","","","","psychophysics","442","829892","0.0-10.0-0.0-0.0-0.1-0.117","542","","f","","","","","","","","","","","","","key","f","16.669554347826583","768","428","f","true","img/C_ambi40.png","生人","same",""
"","","","","","html-keyboard-response","443","830406","0.0-10.0-0.0-0.0-0.1-1.117","null","<span style='color:GreenYellow; font-size: 70px;'>正确! </span>","null","","","","","","","","","","","","","","","","","","","","","","","feedback_test"
"","","","","","psychophysics","444","832020","0.0-10.0-0.0-0.0-0.1-0.118","599","","f","","","","","","","","","","","","","key","f","16.673273684210635","768","428","f","true","img/S_ambi40.png","自我","same",""
"","","","","","html-keyboard-response","445","832532","0.0-10.0-0.0-0.0-0.1-1.118","null","<span style='color:GreenYellow; font-size: 70px;'>正确! </span>","null","","","","","","","","","","","","","","","","","","","","","","","feedback_test"
