"success","timeout","failed_images","failed_audio","failed_video","trial_type","trial_index","time_elapsed","internal_node_id","rt","stimulus","response","value","item_width_mm","item_height_mm","item_width_px","px2mm","view_dist_mm","item_width_deg","px2deg","scale_factor","win_width_deg","win_height_deg","view_history","response_type","key_press","avg_frame_time","center_x","center_y","correct_response","correct","Image","word","condition","screen_id"
"true","false","[]","[]","[]","preload","0","30979","0.0-0.0","","","","","","","","","","","","","","","","","","","","","","","","","",""
"","","","","","html-keyboard-response","1","67196","0.0-1.0","36215","
     <p>您好，欢迎参加本次实验。</p>
     <p>为充分保障您的权利，请确保您已经知晓并同意《参与实验同意书》以及《数据公开知情同意书》。</p>
     <p>如果您未见过上述内容，请咨询实验员。</p>
     <p>如果您选择继续实验，则表示您已经清楚两份知情同意书的内容并同意。</p>
     <p> <div style = ""color: green""><按任意键至下页></div> </p>
     ","d","","","","","","","","","","","","","","","","","","","","","","",""
"","","","","","html-keyboard-response","2","69014","0.0-2.0","1818","
     <p>本实验首先需要您填写一些基本个人信息。</p>
     <p> <div style = ""color: green""><按任意键至下页></div></p>
     ","d","","","","","","","","","","","","","","","","","","","","","","",""
"","","","","","call-function","3","69017","0.0-3.0-0.0","","","","","","","","","","","","","","","","","","","","","","","","","",""
"","","","","","survey-html-form","4","75237","0.0-3.0-1.0","6196","","{""Q0"":""19""}","","","","","","","","","","","","","","","","","","","","","","",""
"","","","","","html-button-response","5","76700","0.0-3.0-2.0","1461","<p style = 'color : white'>您的性别</p>","0","","","","","","","","","","","","","","","","","","","","","","",""
"","","","","","survey-html-form","6","84004","0.0-3.0-3.0","7303","","{""Q0"":""2000""}","","","","","","","","","","","","","","","","","","","","","","",""
"","","","","","survey-html-form","7","92004","0.0-3.0-4.0","7999","","{""Q0"":""5""}","","","","","","","","","","","","","","","","","","","","","","",""
"","","","","","virtual-chinrest","8","279836","0.0-4.0","187830","","","","85.6","53.98","495.70143564655683","5.790039590643391","493.47","9.914028712931136","50","0.9723594997688767","37.26","19.22","","","","","","","","","","","",""
"true","","","","","fullscreen","9","283151","0.0-5.0","","","","","","","","","","","","","","","","","","","","","","","","","",""
"","","","","","instructions","10","354875","0.0-6.0","71722","","","","","","","","","","","","","","[{""page_index"":0,""viewing_time"":12146},{""page_index"":1,""viewing_time"":48617},{""page_index"":2,""viewing_time"":4903},{""page_index"":3,""viewing_time"":6056}]","","","","","","","","","","",""
"","","","","","psychophysics","11","357396","0.0-7.0-0.0","null","","null","","","","","","","","","","","","","key","null","16.764000000000294","960","536","j","false","img/T_ambi40.png","をる","prac",""
"","","","","","html-keyboard-response","12","357910","0.0-7.0-1.0","null","<span class='add_' style='color:yellow; font-size: 70px;'> 太慢! </span>","null","","","","","","","","","","","","","","","","","","","","","","","feedback_test"
"","","","","","psychophysics","13","360426","0.0-7.0-0.1","null","","null","","","","","","","","","","","","","key","null","16.566979865771685","960","536","f","false","img/C_ambi40.png","朋友","prac",""
"","","","","","html-keyboard-response","14","360949","0.0-7.0-1.1","null","<span class='add_' style='color:yellow; font-size: 70px;'> 太慢! </span>","null","","","","","","","","","","","","","","","","","","","","","","","feedback_test"
"","","","","","psychophysics","15","363457","0.0-7.0-0.2","null","","null","","","","","","","","","","","","","key","null","16.65148993288581","960","536","j","false","img/C_ambi40.png","自我","prac",""
"","","","","","html-keyboard-response","16","363972","0.0-7.0-1.2","null","<span class='add_' style='color:yellow; font-size: 70px;'> 太慢! </span>","null","","","","","","","","","","","","","","","","","","","","","","","feedback_test"
"","","","","","psychophysics","17","365797","0.0-7.0-0.3","808","","f","","","","","","","","","","","","","key","f","16.53034259259261","960","536","f","true","img/C_ambi40.png","生人","prac",""
"","","","","","html-keyboard-response","18","366312","0.0-7.0-1.3","null","<span style='color:GreenYellow; font-size: 70px;'>正确! </span>","null","","","","","","","","","","","","","","","","","","","","","","","feedback_test"
"","","","","","psychophysics","19","368002","0.0-7.0-0.4","684","","j","","","","","","","","","","","","","key","j","16.64857000000018","960","536","f","false","img/H_ambi40.png","生人","prac",""
"","","","","","html-keyboard-response","20","368507","0.0-7.0-1.4","null","<span style='color:red; font-size: 70px;'>错误! </span>","null","","","","","","","","","","","","","","","","","","","","","","","feedback_test"
"","","","","","psychophysics","21","370492","0.0-7.0-0.5","982","","j","","","","","","","","","","","","","key","j","16.6508559322032","960","536","j","true","img/S_ambi40.png","生人","prac",""
"","","","","","html-keyboard-response","22","371026","0.0-7.0-1.5","null","<span style='color:GreenYellow; font-size: 70px;'>正确! </span>","null","","","","","","","","","","","","","","","","","","","","","","","feedback_test"
"","","","","","psychophysics","23","372614","0.0-7.0-0.6","580","","f","","","","","","","","","","","","","key","f","16.651744680851326","960","536","j","false","img/C_ambi40.png","自我","prac",""
"","","","","","html-keyboard-response","24","373124","0.0-7.0-1.6","null","<span style='color:red; font-size: 70px;'>错误! </span>","null","","","","","","","","","","","","","","","","","","","","","","","feedback_test"
"","","","","","psychophysics","25","374775","0.0-7.0-0.7","646","","f","","","","","","","","","","","","","key","f","16.651693877550816","960","536","f","true","img/S_ambi40.png","自我","prac",""
"","","","","","html-keyboard-response","26","375285","0.0-7.0-1.7","null","<span style='color:GreenYellow; font-size: 70px;'>正确! </span>","null","","","","","","","","","","","","","","","","","","","","","","","feedback_test"
"","","","","","psychophysics","27","376893","0.0-7.0-0.8","598","","j","","","","","","","","","","","","","key","j","16.651357894737004","960","536","j","true","img/T_ambi40.png","をる","prac",""
"","","","","","html-keyboard-response","28","377396","0.0-7.0-1.8","null","<span style='color:GreenYellow; font-size: 70px;'>正确! </span>","null","","","","","","","","","","","","","","","","","","","","","","","feedback_test"
"","","","","","psychophysics","29","379069","0.0-7.0-0.9","643","","j","","","","","","","","","","","","","key","j","16.65165656565623","960","536","j","true","img/H_ambi40.png","朋友","prac",""
"","","","","","html-keyboard-response","30","379579","0.0-7.0-1.9","null","<span style='color:GreenYellow; font-size: 70px;'>正确! </span>","null","","","","","","","","","","","","","","","","","","","","","","","feedback_test"
"","","","","","psychophysics","31","381103","0.0-7.0-0.10","518","","j","","","","","","","","","","","","","key","j","16.651255555555043","960","536","j","true","img/H_ambi40.png","朋友","prac",""
"","","","","","html-keyboard-response","32","381606","0.0-7.0-1.10","null","<span style='color:GreenYellow; font-size: 70px;'>正确! </span>","null","","","","","","","","","","","","","","","","","","","","","","","feedback_test"
"","","","","","psychophysics","33","383276","0.0-7.0-0.11","660","","f","","","","","","","","","","","","","key","f","16.650757575757456","960","536","j","false","img/S_ambi40.png","生人","prac",""
"","","","","","html-keyboard-response","34","383791","0.0-7.0-1.11","null","<span style='color:red; font-size: 70px;'>错误! </span>","null","","","","","","","","","","","","","","","","","","","","","","","feedback_test"
"","","","","","psychophysics","35","385616","0.0-7.0-0.12","802","","j","","","","","","","","","","","","","key","j","16.656972222222034","960","536","f","false","img/S_ambi40.png","朋友","prac",""
"","","","","","html-keyboard-response","36","386117","0.0-7.0-1.12","null","<span style='color:red; font-size: 70px;'>错误! </span>","null","","","","","","","","","","","","","","","","","","","","","","","feedback_test"
"","","","","","psychophysics","37","388135","0.0-7.0-0.13","1016","","j","","","","","","","","","","","","","key","j","16.545150000000042","960","536","f","false","img/H_ambi40.png","自我","prac",""
"","","","","","html-keyboard-response","38","388643","0.0-7.0-1.13","null","<span style='color:red; font-size: 70px;'>错误! </span>","null","","","","","","","","","","","","","","","","","","","","","","","feedback_test"
"","","","","","psychophysics","39","390630","0.0-7.0-0.14","981","","j","","","","","","","","","","","","","key","j","16.651915254237593","960","536","j","true","img/T_ambi40.png","をる","prac",""
"","","","","","html-keyboard-response","40","391131","0.0-7.0-1.14","null","<span style='color:GreenYellow; font-size: 70px;'>正确! </span>","null","","","","","","","","","","","","","","","","","","","","","","","feedback_test"
"","","","","","psychophysics","41","392810","0.0-7.0-0.15","678","","j","","","","","","","","","","","","","key","j","16.650707070706908","960","536","j","true","img/T_ambi40.png","をる","prac",""
"","","","","","html-keyboard-response","42","393315","0.0-7.0-1.15","null","<span style='color:GreenYellow; font-size: 70px;'>正确! </span>","null","","","","","","","","","","","","","","","","","","","","","","","feedback_test"
"","","","","","psychophysics","43","394975","0.0-7.0-0.16","657","","j","","","","","","","","","","","","","key","j","16.651479591837045","960","536","j","true","img/T_ambi40.png","をる","prac",""
"","","","","","html-keyboard-response","44","395478","0.0-7.0-1.16","null","<span style='color:GreenYellow; font-size: 70px;'>正确! </span>","null","","","","","","","","","","","","","","","","","","","","","","","feedback_test"
"","","","","","psychophysics","45","397175","0.0-7.0-0.17","684","","f","","","","","","","","","","","","","key","f","16.64832999999984","960","536","f","true","img/C_ambi40.png","朋友","prac",""
"","","","","","html-keyboard-response","46","397684","0.0-7.0-1.17","null","<span style='color:GreenYellow; font-size: 70px;'>正确! </span>","null","","","","","","","","","","","","","","","","","","","","","","","feedback_test"
"","","","","","psychophysics","47","399080","0.0-7.0-0.18","389","","j","","","","","","","","","","","","","key","j","16.65136144578342","960","536","j","true","img/H_ambi40.png","朋友","prac",""
"","","","","","html-keyboard-response","48","399590","0.0-7.0-1.18","null","<span style='color:GreenYellow; font-size: 70px;'>正确! </span>","null","","","","","","","","","","","","","","","","","","","","","","","feedback_test"
"","","","","","psychophysics","49","401093","0.0-7.0-0.19","502","","f","","","","","","","","","","","","","key","f","16.651651685392967","960","536","j","false","img/C_ambi40.png","自我","prac",""
"","","","","","html-keyboard-response","50","401607","0.0-7.0-1.19","null","<span style='color:red; font-size: 70px;'>错误! </span>","null","","","","","","","","","","","","","","","","","","","","","","","feedback_test"
"","","","","","psychophysics","51","402991","0.0-7.0-0.20","354","","j","","","","","","","","","","","","","key","j","16.652097560975008","960","536","j","true","img/T_ambi40.png","をる","prac",""
"","","","","","html-keyboard-response","52","403499","0.0-7.0-1.20","null","<span style='color:GreenYellow; font-size: 70px;'>正确! </span>","null","","","","","","","","","","","","","","","","","","","","","","","feedback_test"
"","","","","","psychophysics","53","404871","0.0-7.0-0.21","369","","j","","","","","","","","","","","","","key","j","16.656268292683087","960","536","f","false","img/H_ambi40.png","生人","prac",""
"","","","","","html-keyboard-response","54","405381","0.0-7.0-1.21","null","<span style='color:red; font-size: 70px;'>错误! </span>","null","","","","","","","","","","","","","","","","","","","","","","","feedback_test"
"","","","","","psychophysics","55","406713","0.0-7.0-0.22","330","","f","","","","","","","","","","","","","key","f","16.648759493670614","960","536","j","false","img/S_ambi40.png","生人","prac",""
"","","","","","html-keyboard-response","56","407224","0.0-7.0-1.22","null","<span style='color:red; font-size: 70px;'>错误! </span>","null","","","","","","","","","","","","","","","","","","","","","","","feedback_test"
"","","","","","psychophysics","57","408534","0.0-7.0-0.23","285","","j","","","","","","","","","","","","","key","j","16.651769230769087","960","536","f","false","img/S_ambi40.png","自我","prac",""
"","","","","","html-keyboard-response","58","409039","0.0-7.0-1.23","null","<span style='color:red; font-size: 70px;'>错误! </span>","null","","","","","","","","","","","","","","","","","","","","","","","feedback_test"
"","","","","","psychophysics","59","410981","0.0-7.0-0.24","934","","j","","","","","","","","","","","","","key","j","16.650715517240943","960","536","f","false","img/S_ambi40.png","朋友","prac",""
"","","","","","html-keyboard-response","60","411483","0.0-7.0-1.24","null","<span style='color:red; font-size: 70px;'>错误! </span>","null","","","","","","","","","","","","","","","","","","","","","","","feedback_test"
"","","","","","psychophysics","61","413015","0.0-7.0-0.25","526","","f","","","","","","","","","","","","","key","f","16.64994505494526","960","536","j","false","img/H_ambi40.png","朋友","prac",""
"","","","","","html-keyboard-response","62","413523","0.0-7.0-1.25","null","<span style='color:red; font-size: 70px;'>错误! </span>","null","","","","","","","","","","","","","","","","","","","","","","","feedback_test"
"","","","","","psychophysics","63","415158","0.0-7.0-0.26","614","","j","","","","","","","","","","","","","key","j","16.65160824742274","960","536","j","true","img/T_ambi40.png","をる","prac",""
"","","","","","html-keyboard-response","64","415661","0.0-7.0-1.26","null","<span style='color:GreenYellow; font-size: 70px;'>正确! </span>","null","","","","","","","","","","","","","","","","","","","","","","","feedback_test"
"","","","","","psychophysics","65","417263","0.0-7.0-0.27","598","","j","","","","","","","","","","","","","key","j","16.644810526315613","960","536","j","true","img/S_ambi40.png","生人","prac",""
"","","","","","html-keyboard-response","66","417767","0.0-7.0-1.27","null","<span style='color:GreenYellow; font-size: 70px;'>正确! </span>","null","","","","","","","","","","","","","","","","","","","","","","","feedback_test"
"","","","","","psychophysics","67","419251","0.0-7.0-0.28","479","","j","","","","","","","","","","","","","key","j","16.650704545454406","960","536","j","true","img/T_ambi40.png","をる","prac",""
"","","","","","html-keyboard-response","68","419761","0.0-7.0-1.28","null","<span style='color:GreenYellow; font-size: 70px;'>正确! </span>","null","","","","","","","","","","","","","","","","","","","","","","","feedback_test"
"","","","","","psychophysics","69","421108","0.0-7.0-0.29","321","","j","","","","","","","","","","","","","key","j","16.652750000000378","960","536","f","false","img/H_ambi40.png","自我","prac",""
"","","","","","html-keyboard-response","70","421620","0.0-7.0-1.29","null","<span style='color:red; font-size: 70px;'>错误! </span>","null","","","","","","","","","","","","","","","","","","","","","","","feedback_test"
"","","","","","psychophysics","71","423012","0.0-7.0-0.30","387","","j","","","","","","","","","","","","","key","j","16.649951219511866","960","536","f","false","img/C_ambi40.png","生人","prac",""
"","","","","","html-keyboard-response","72","423527","0.0-7.0-1.30","null","<span style='color:red; font-size: 70px;'>错误! </span>","null","","","","","","","","","","","","","","","","","","","","","","","feedback_test"
"","","","","","psychophysics","73","425062","0.0-7.0-0.31","529","","j","","","","","","","","","","","","","key","j","16.651296703296502","960","536","j","true","img/C_ambi40.png","自我","prac",""
"","","","","","html-keyboard-response","74","425576","0.0-7.0-1.31","null","<span style='color:GreenYellow; font-size: 70px;'>正确! </span>","null","","","","","","","","","","","","","","","","","","","","","","","feedback_test"
"","","","","","psychophysics","75","426980","0.0-8.0-0.0-0.0","369","","j","","","","","","","","","","","","","key","j","16.652518072288977","960","536","f","false","img/C_ambi40.png","生人","prac",""
"","","","","","html-keyboard-response","76","427494","0.0-8.0-0.0-1.0","null","<span style='color:red; font-size: 70px;'>错误! </span>","null","","","","","","","","","","","","","","","","","","","","","","","feedback_test"
"","","","","","psychophysics","77","429170","0.0-8.0-0.0-0.1","674","","f","","","","","","","","","","","","","key","f","16.650019999999785","960","536","j","false","img/S_ambi40.png","生人","prac",""
"","","","","","html-keyboard-response","78","429687","0.0-8.0-0.0-1.1","null","<span style='color:red; font-size: 70px;'>错误! </span>","null","","","","","","","","","","","","","","","","","","","","","","","feedback_test"
"","","","","","psychophysics","79","431115","0.0-8.0-0.0-0.2","421","","j","","","","","","","","","","","","","key","j","16.65229411764714","960","536","j","true","img/T_ambi40.png","をる","prac",""
"","","","","","html-keyboard-response","80","431624","0.0-8.0-0.0-1.2","null","<span style='color:GreenYellow; font-size: 70px;'>正确! </span>","null","","","","","","","","","","","","","","","","","","","","","","","feedback_test"
"","","","","","psychophysics","81","433004","0.0-8.0-0.0-0.3","364","","j","","","","","","","","","","","","","key","j","16.650329268292563","960","536","f","false","img/C_ambi40.png","朋友","prac",""
"","","","","","html-keyboard-response","82","433511","0.0-8.0-0.0-1.3","null","<span style='color:red; font-size: 70px;'>错误! </span>","null","","","","","","","","","","","","","","","","","","","","","","","feedback_test"
"","","","","","psychophysics","83","434896","0.0-8.0-0.0-0.4","381","","j","","","","","","","","","","","","","key","j","16.654560975609744","960","536","j","true","img/C_ambi40.png","自我","prac",""
"","","","","","html-keyboard-response","84","435411","0.0-8.0-0.0-1.4","null","<span style='color:GreenYellow; font-size: 70px;'>正确! </span>","null","","","","","","","","","","","","","","","","","","","","","","","feedback_test"
"","","","","","psychophysics","85","436747","0.0-8.0-0.0-0.5","328","","j","","","","","","","","","","","","","key","j","16.651354430379683","960","536","f","false","img/H_ambi40.png","生人","prac",""
"","","","","","html-keyboard-response","86","437254","0.0-8.0-0.0-1.5","null","<span style='color:red; font-size: 70px;'>错误! </span>","null","","","","","","","","","","","","","","","","","","","","","","","feedback_test"
"","","","","","psychophysics","87","438745","0.0-8.0-0.0-0.6","457","","f","","","","","","","","","","","","","key","f","16.650829545454393","960","536","j","false","img/T_ambi40.png","をる","prac",""
"","","","","","html-keyboard-response","88","439248","0.0-8.0-0.0-1.6","null","<span style='color:red; font-size: 70px;'>错误! </span>","null","","","","","","","","","","","","","","","","","","","","","","","feedback_test"
"","","","","","psychophysics","89","440557","0.0-8.0-0.0-0.7","305","","j","","","","","","","","","","","","","key","j","16.651397435897543","960","536","f","false","img/S_ambi40.png","自我","prac",""
"","","","","","html-keyboard-response","90","441067","0.0-8.0-0.0-1.7","null","<span style='color:red; font-size: 70px;'>错误! </span>","null","","","","","","","","","","","","","","","","","","","","","","","feedback_test"
"","","","","","psychophysics","91","442622","0.0-8.0-0.0-0.8","554","","f","","","","","","","","","","","","","key","f","16.492739130434728","960","536","j","false","img/H_ambi40.png","朋友","prac",""
"","","","","","html-keyboard-response","92","443128","0.0-8.0-0.0-1.8","null","<span style='color:red; font-size: 70px;'>错误! </span>","null","","","","","","","","","","","","","","","","","","","","","","","feedback_test"
"","","","","","psychophysics","93","444503","0.0-8.0-0.0-0.9","339","","j","","","","","","","","","","","","","key","j","16.643170731707205","960","536","j","true","img/S_ambi40.png","生人","prac",""
"","","","","","html-keyboard-response","94","445005","0.0-8.0-0.0-1.9","null","<span style='color:GreenYellow; font-size: 70px;'>正确! </span>","null","","","","","","","","","","","","","","","","","","","","","","","feedback_test"
"","","","","","psychophysics","95","446332","0.0-8.0-0.0-0.10","319","","j","","","","","","","","","","","","","key","j","16.652329113923862","960","536","j","true","img/T_ambi40.png","をる","prac",""
"","","","","","html-keyboard-response","96","446838","0.0-8.0-0.0-1.10","null","<span style='color:GreenYellow; font-size: 70px;'>正确! </span>","null","","","","","","","","","","","","","","","","","","","","","","","feedback_test"
"","","","","","psychophysics","97","448399","0.0-8.0-0.0-0.11","555","","j","","","","","","","","","","","","","key","j","16.652236559140366","960","536","j","true","img/C_ambi40.png","自我","prac",""
"","","","","","html-keyboard-response","98","448900","0.0-8.0-0.0-1.11","null","<span style='color:GreenYellow; font-size: 70px;'>正确! </span>","null","","","","","","","","","","","","","","","","","","","","","","","feedback_test"
"","","","","","psychophysics","99","450227","0.0-8.0-0.0-0.12","302","","j","","","","","","","","","","","","","key","j","16.64878481012604","960","536","j","true","img/T_ambi40.png","をる","prac",""
"","","","","","html-keyboard-response","100","450739","0.0-8.0-0.0-1.12","null","<span style='color:GreenYellow; font-size: 70px;'>正确! </span>","null","","","","","","","","","","","","","","","","","","","","","","","feedback_test"
"","","","","","psychophysics","101","452040","0.0-8.0-0.0-0.13","299","","j","","","","","","","","","","","","","key","j","16.65102597402542","960","536","f","false","img/S_ambi40.png","朋友","prac",""
"","","","","","html-keyboard-response","102","452542","0.0-8.0-0.0-1.13","null","<span style='color:red; font-size: 70px;'>错误! </span>","null","","","","","","","","","","","","","","","","","","","","","","","feedback_test"
"","","","","","psychophysics","103","454068","0.0-8.0-0.0-0.14","518","","j","","","","","","","","","","","","","key","j","16.65134444444492","960","536","j","true","img/H_ambi40.png","朋友","prac",""
"","","","","","html-keyboard-response","104","454574","0.0-8.0-0.0-1.14","null","<span style='color:GreenYellow; font-size: 70px;'>正确! </span>","null","","","","","","","","","","","","","","","","","","","","","","","feedback_test"
"","","","","","psychophysics","105","455929","0.0-8.0-0.0-0.15","342","","j","","","","","","","","","","","","","key","j","16.650862499999494","960","536","f","false","img/H_ambi40.png","自我","prac",""
"","","","","","html-keyboard-response","106","456434","0.0-8.0-0.0-1.15","null","<span style='color:red; font-size: 70px;'>错误! </span>","null","","","","","","","","","","","","","","","","","","","","","","","feedback_test"
"","","","","","psychophysics","107","457744","0.0-8.0-0.0-0.16","309","","j","","","","","","","","","","","","","key","j","16.650256410256798","960","536","f","false","img/C_ambi40.png","朋友","prac",""
"","","","","","html-keyboard-response","108","458248","0.0-8.0-0.0-1.16","null","<span style='color:red; font-size: 70px;'>错误! </span>","null","","","","","","","","","","","","","","","","","","","","","","","feedback_test"
"","","","","","psychophysics","109","459512","0.0-8.0-0.0-0.17","263","","j","","","","","","","","","","","","","key","j","16.63541333333279","960","536","j","true","img/S_ambi40.png","生人","prac",""
"","","","","","html-keyboard-response","110","460017","0.0-8.0-0.0-1.17","null","<span style='color:GreenYellow; font-size: 70px;'>正确! </span>","null","","","","","","","","","","","","","","","","","","","","","","","feedback_test"
"","","","","","psychophysics","111","461316","0.0-8.0-0.0-0.18","268","","f","","","","","","","","","","","","","key","f","16.647636363636583","960","536","j","false","img/T_ambi40.png","をる","prac",""
"","","","","","html-keyboard-response","112","461818","0.0-8.0-0.0-1.18","null","<span style='color:red; font-size: 70px;'>错误! </span>","null","","","","","","","","","","","","","","","","","","","","","","","feedback_test"
"","","","","","psychophysics","113","463130","0.0-8.0-0.0-0.19","301","","j","","","","","","","","","","","","","key","j","16.651192307692373","960","536","j","true","img/H_ambi40.png","朋友","prac",""
"","","","","","html-keyboard-response","114","463631","0.0-8.0-0.0-1.19","null","<span style='color:GreenYellow; font-size: 70px;'>正确! </span>","null","","","","","","","","","","","","","","","","","","","","","","","feedback_test"
"","","","","","psychophysics","115","464928","0.0-8.0-0.0-0.20","290","","j","","","","","","","","","","","","","key","j","16.6512631578953","960","536","f","false","img/C_ambi40.png","生人","prac",""
"","","","","","html-keyboard-response","116","465444","0.0-8.0-0.0-1.20","null","<span style='color:red; font-size: 70px;'>错误! </span>","null","","","","","","","","","","","","","","","","","","","","","","","feedback_test"
"","","","","","psychophysics","117","466704","0.0-8.0-0.0-0.21","228","","f","","","","","","","","","","","","","key","f","16.649864864864423","960","536","f","true","img/H_ambi40.png","自我","prac",""
"","","","","","html-keyboard-response","118","467218","0.0-8.0-0.0-1.21","null","<span style='color:GreenYellow; font-size: 70px;'>正确! </span>","null","","","","","","","","","","","","","","","","","","","","","","","feedback_test"
"","","","","","psychophysics","119","468525","0.0-8.0-0.0-0.22","303","","f","","","","","","","","","","","","","key","f","16.651717948717607","960","536","j","false","img/H_ambi40.png","朋友","prac",""
"","","","","","html-keyboard-response","120","469026","0.0-8.0-0.0-1.22","null","<span style='color:red; font-size: 70px;'>错误! </span>","null","","","","","","","","","","","","","","","","","","","","","","","feedback_test"
"","","","","","psychophysics","121","470262","0.0-8.0-0.0-0.23","229","","j","","","","","","","","","","","","","key","j","16.651575342465787","960","536","f","false","img/S_ambi40.png","自我","prac",""
"","","","","","html-keyboard-response","122","470776","0.0-8.0-0.0-1.23","null","<span style='color:red; font-size: 70px;'>错误! </span>","null","","","","","","","","","","","","","","","","","","","","","","","feedback_test"
"","","","","","psychophysics","123","471878","0.0-8.0-0.0-0.24","90","","f","","","","","","","","","","","","","key","f","16.650261538461425","960","536","j","false","img/C_ambi40.png","自我","prac",""
"","","","","","html-keyboard-response","124","472389","0.0-8.0-0.0-1.24","null","<span style='color:yellow; font-size: 70px;'>过快! </span>","null","","","","","","","","","","","","","","","","","","","","","","","feedback_test"
"","","","","","psychophysics","125","473744","0.0-8.0-0.0-0.25","353","","j","","","","","","","","","","","","","key","j","16.651512499999807","960","536","j","true","img/T_ambi40.png","をる","prac",""
"","","","","","html-keyboard-response","126","474247","0.0-8.0-0.0-1.25","null","<span style='color:GreenYellow; font-size: 70px;'>正确! </span>","null","","","","","","","","","","","","","","","","","","","","","","","feedback_test"
"","","","","","psychophysics","127","475522","0.0-8.0-0.0-0.26","271","","j","","","","","","","","","","","","","key","j","16.65151315789492","960","536","f","false","img/H_ambi40.png","生人","prac",""
"","","","","","html-keyboard-response","128","476028","0.0-8.0-0.0-1.26","null","<span style='color:red; font-size: 70px;'>错误! </span>","null","","","","","","","","","","","","","","","","","","","","","","","feedback_test"
"","","","","","psychophysics","129","477226","0.0-8.0-0.0-0.27","193","","f","","","","","","","","","","","","","key","f","16.651577464788563","960","536","j","false","img/C_ambi40.png","自我","prac",""
"","","","","","html-keyboard-response","130","477734","0.0-8.0-0.0-1.27","null","<span style='color:yellow; font-size: 70px;'>过快! </span>","null","","","","","","","","","","","","","","","","","","","","","","","feedback_test"
"","","","","","psychophysics","131","479095","0.0-8.0-0.0-0.28","351","","f","","","","","","","","","","","","","key","f","16.651637499999925","960","536","j","false","img/T_ambi40.png","をる","prac",""
"","","","","","html-keyboard-response","132","479610","0.0-8.0-0.0-1.28","null","<span style='color:red; font-size: 70px;'>错误! </span>","null","","","","","","","","","","","","","","","","","","","","","","","feedback_test"
"","","","","","psychophysics","133","480935","0.0-8.0-0.0-0.29","322","","f","","","","","","","","","","","","","key","f","16.651392405063557","960","536","f","true","img/S_ambi40.png","朋友","prac",""
"","","","","","html-keyboard-response","134","481439","0.0-8.0-0.0-1.29","null","<span style='color:GreenYellow; font-size: 70px;'>正确! </span>","null","","","","","","","","","","","","","","","","","","","","","","","feedback_test"
"","","","","","psychophysics","135","482739","0.0-8.0-0.0-0.30","274","","f","","","","","","","","","","","","","key","f","16.641805194805123","960","536","j","false","img/S_ambi40.png","生人","prac",""
"","","","","","html-keyboard-response","136","483242","0.0-8.0-0.0-1.30","null","<span style='color:red; font-size: 70px;'>错误! </span>","null","","","","","","","","","","","","","","","","","","","","","","","feedback_test"
"","","","","","psychophysics","137","484396","0.0-8.0-0.0-0.31","152","","j","","","","","","","","","","","","","key","j","16.650217391304214","960","536","j","true","img/T_ambi40.png","をる","prac",""
"","","","","","html-keyboard-response","138","484899","0.0-8.0-0.0-1.31","null","<span style='color:yellow; font-size: 70px;'>过快! </span>","null","","","","","","","","","","","","","","","","","","","","","","","feedback_test"
"","","","","","html-keyboard-response","139","498982","0.0-8.0-1.0-0.0","14080","<style>.context{color:white; font-size: 35px; line-height:40px}</style>                          <div><p class='context'>您正确回答了41% 的试次。</p ><p class='context'>您的平均反应时为343毫秒。</p >","j","","","","","","","","","","","","","","","","","","","","","","",""
"","","","","","instructions","140","559962","0.0-8.0-1.0-1.0","60977","","","","","","","","","","","","","","[{""page_index"":0,""viewing_time"":2137},{""page_index"":1,""viewing_time"":54799},{""page_index"":2,""viewing_time"":4040}]","","","","","","","","","","",""
"","","","","","psychophysics","141","561620","0.0-8.1-0.1-0.32","639","","f","","","","","","","","","","","","","key","f","16.652387755102126","960","536","f","true","img/C_ambi40.png","朋友","prac",""
"","","","","","html-keyboard-response","142","562130","0.0-8.1-0.1-1.32","null","<span style='color:GreenYellow; font-size: 70px;'>正确! </span>","null","","","","","","","","","","","","","","","","","","","","","","","feedback_test"
"","","","","","psychophysics","143","563555","0.0-8.1-0.1-0.33","421","","f","","","","","","","","","","","","","key","f","16.650058823529466","960","536","f","true","img/H_ambi40.png","自我","prac",""
"","","","","","html-keyboard-response","144","564063","0.0-8.1-0.1-1.33","null","<span style='color:GreenYellow; font-size: 70px;'>正确! </span>","null","","","","","","","","","","","","","","","","","","","","","","","feedback_test"
"","","","","","psychophysics","145","565387","0.0-8.1-0.1-0.34","320","","f","","","","","","","","","","","","","key","f","16.651113924050197","960","536","j","false","img/T_ambi40.png","をる","prac",""
"","","","","","html-keyboard-response","146","565899","0.0-8.1-0.1-1.34","null","<span style='color:red; font-size: 70px;'>错误! </span>","null","","","","","","","","","","","","","","","","","","","","","","","feedback_test"
"","","","","","psychophysics","147","567291","0.0-8.1-0.1-0.35","376","","j","","","","","","","","","","","","","key","j","16.656109756097287","960","536","j","true","img/S_ambi40.png","生人","prac",""
"","","","","","html-keyboard-response","148","567797","0.0-8.1-0.1-1.35","null","<span style='color:GreenYellow; font-size: 70px;'>正确! </span>","null","","","","","","","","","","","","","","","","","","","","","","","feedback_test"
"","","","","","psychophysics","149","569200","0.0-8.1-0.1-0.36","402","","j","","","","","","","","","","","","","key","j","16.486674698794832","960","536","j","true","img/T_ambi40.png","をる","prac",""
"","","","","","html-keyboard-response","150","569708","0.0-8.1-0.1-1.36","null","<span style='color:GreenYellow; font-size: 70px;'>正确! </span>","null","","","","","","","","","","","","","","","","","","","","","","","feedback_test"
"","","","","","psychophysics","151","571611","0.0-8.1-0.1-0.37","897","","f","","","","","","","","","","","","","key","f","16.64794690265584","960","536","j","false","img/H_ambi40.png","朋友","prac",""
"","","","","","html-keyboard-response","152","572118","0.0-8.1-0.1-1.37","null","<span style='color:red; font-size: 70px;'>错误! </span>","null","","","","","","","","","","","","","","","","","","","","","","","feedback_test"
"","","","","","psychophysics","153","573474","0.0-8.1-0.1-0.38","347","","j","","","","","","","","","","","","","key","j","16.650599999999393","960","536","j","true","img/T_ambi40.png","をる","prac",""
"","","","","","html-keyboard-response","154","573982","0.0-8.1-0.1-1.38","null","<span style='color:GreenYellow; font-size: 70px;'>正确! </span>","null","","","","","","","","","","","","","","","","","","","","","","","feedback_test"
"","","","","","psychophysics","155","575699","0.0-8.1-0.1-0.39","709","","f","","","","","","","","","","","","","key","f","16.651421568626947","960","536","j","false","img/C_ambi40.png","自我","prac",""
"","","","","","html-keyboard-response","156","576207","0.0-8.1-0.1-1.39","null","<span style='color:red; font-size: 70px;'>错误! </span>","null","","","","","","","","","","","","","","","","","","","","","","","feedback_test"
"","","","","","psychophysics","157","577584","0.0-8.1-0.1-0.40","368","","j","","","","","","","","","","","","","key","j","16.650962962962996","960","536","f","false","img/C_ambi40.png","生人","prac",""
"","","","","","html-keyboard-response","158","578086","0.0-8.1-0.1-1.40","null","<span style='color:red; font-size: 70px;'>错误! </span>","null","","","","","","","","","","","","","","","","","","","","","","","feedback_test"
"","","","","","psychophysics","159","580062","0.0-8.1-0.1-0.41","965","","f","","","","","","","","","","","","","key","f","16.651296610169513","960","536","j","false","img/S_ambi40.png","生人","prac",""
"","","","","","html-keyboard-response","160","580573","0.0-8.1-0.1-1.41","null","<span style='color:red; font-size: 70px;'>错误! </span>","null","","","","","","","","","","","","","","","","","","","","","","","feedback_test"
"","","","","","psychophysics","161","581987","0.0-8.1-0.1-0.42","401","","j","","","","","","","","","","","","","key","j","16.650785714285337","960","536","j","true","img/C_ambi40.png","自我","prac",""
"","","","","","html-keyboard-response","162","582501","0.0-8.1-0.1-1.42","null","<span style='color:GreenYellow; font-size: 70px;'>正确! </span>","null","","","","","","","","","","","","","","","","","","","","","","","feedback_test"
"","","","","","psychophysics","163","584197","0.0-8.1-0.1-0.43","695","","f","","","","","","","","","","","","","key","f","16.649760000000242","960","536","f","true","img/S_ambi40.png","朋友","prac",""
"","","","","","html-keyboard-response","164","584700","0.0-8.1-0.1-1.43","null","<span style='color:GreenYellow; font-size: 70px;'>正确! </span>","null","","","","","","","","","","","","","","","","","","","","","","","feedback_test"
"","","","","","psychophysics","165","586255","0.0-8.1-0.1-0.44","520","","j","","","","","","","","","","","","","key","j","16.64577173913004","960","536","j","true","img/H_ambi40.png","朋友","prac",""
"","","","","","html-keyboard-response","166","586759","0.0-8.1-0.1-1.44","null","<span style='color:GreenYellow; font-size: 70px;'>正确! </span>","null","","","","","","","","","","","","","","","","","","","","","","","feedback_test"
"","","","","","psychophysics","167","588151","0.0-8.1-0.1-0.45","387","","j","","","","","","","","","","","","","key","j","16.652542168674263","960","536","j","true","img/T_ambi40.png","をる","prac",""
"","","","","","html-keyboard-response","168","588653","0.0-8.1-0.1-1.45","null","<span style='color:GreenYellow; font-size: 70px;'>正确! </span>","null","","","","","","","","","","","","","","","","","","","","","","","feedback_test"
"","","","","","psychophysics","169","590180","0.0-8.1-0.1-0.46","517","","f","","","","","","","","","","","","","key","f","16.65161538461433","960","536","f","true","img/S_ambi40.png","自我","prac",""
"","","","","","html-keyboard-response","170","590687","0.0-8.1-0.1-1.46","null","<span style='color:GreenYellow; font-size: 70px;'>正确! </span>","null","","","","","","","","","","","","","","","","","","","","","","","feedback_test"
"","","","","","psychophysics","171","592102","0.0-8.1-0.1-0.47","407","","j","","","","","","","","","","","","","key","j","16.648571428571206","960","536","f","false","img/H_ambi40.png","生人","prac",""
"","","","","","html-keyboard-response","172","592615","0.0-8.1-0.1-1.47","null","<span style='color:red; font-size: 70px;'>错误! </span>","null","","","","","","","","","","","","","","","","","","","","","","","feedback_test"
"","","","","","psychophysics","173","594176","0.0-8.1-0.1-0.48","559","","j","","","","","","","","","","","","","key","j","16.651591397849444","960","536","j","true","img/S_ambi40.png","生人","prac",""
"","","","","","html-keyboard-response","174","594686","0.0-8.1-0.1-1.48","null","<span style='color:GreenYellow; font-size: 70px;'>正确! </span>","null","","","","","","","","","","","","","","","","","","","","","","","feedback_test"
"","","","","","psychophysics","175","596110","0.0-8.1-0.1-0.49","421","","j","","","","","","","","","","","","","key","j","16.651729411764673","960","536","f","false","img/H_ambi40.png","自我","prac",""
"","","","","","html-keyboard-response","176","596623","0.0-8.1-0.1-1.49","null","<span style='color:red; font-size: 70px;'>错误! </span>","null","","","","","","","","","","","","","","","","","","","","","","","feedback_test"
"","","","","","psychophysics","177","598158","0.0-8.1-0.1-0.50","521","","j","","","","","","","","","","","","","key","j","16.650626373625677","960","536","j","true","img/T_ambi40.png","をる","prac",""
"","","","","","html-keyboard-response","178","598673","0.0-8.1-0.1-1.50","null","<span style='color:GreenYellow; font-size: 70px;'>正确! </span>","null","","","","","","","","","","","","","","","","","","","","","","","feedback_test"
"","","","","","psychophysics","179","600300","0.0-8.1-0.1-0.51","620","","f","","","","","","","","","","","","","key","f","16.650437499999196","960","536","j","false","img/S_ambi40.png","生人","prac",""
"","","","","","html-keyboard-response","180","600813","0.0-8.1-0.1-1.51","null","<span style='color:red; font-size: 70px;'>错误! </span>","null","","","","","","","","","","","","","","","","","","","","","","","feedback_test"
"","","","","","psychophysics","181","602107","0.0-8.1-0.1-0.52","289","","j","","","","","","","","","","","","","key","j","16.651922077923263","960","536","j","true","img/C_ambi40.png","自我","prac",""
"","","","","","html-keyboard-response","182","602622","0.0-8.1-0.1-1.52","null","<span style='color:GreenYellow; font-size: 70px;'>正确! </span>","null","","","","","","","","","","","","","","","","","","","","","","","feedback_test"
"","","","","","psychophysics","183","604001","0.0-8.1-0.1-0.53","355","","j","","","","","","","","","","","","","key","j","16.659682926829767","960","536","f","false","img/C_ambi40.png","朋友","prac",""
"","","","","","html-keyboard-response","184","604514","0.0-8.1-0.1-1.53","null","<span style='color:red; font-size: 70px;'>错误! </span>","null","","","","","","","","","","","","","","","","","","","","","","","feedback_test"
"","","","","","psychophysics","185","605869","0.0-8.1-0.1-0.54","344","","j","","","","","","","","","","","","","key","j","16.654362499999117","960","536","f","false","img/S_ambi40.png","朋友","prac",""
"","","","","","html-keyboard-response","186","606382","0.0-8.1-0.1-1.54","null","<span style='color:red; font-size: 70px;'>错误! </span>","null","","","","","","","","","","","","","","","","","","","","","","","feedback_test"
"","","","","","psychophysics","187","607849","0.0-8.1-0.1-0.55","462","","f","","","","","","","","","","","","","key","f","16.651195402298626","960","536","j","false","img/H_ambi40.png","朋友","prac",""
"","","","","","html-keyboard-response","188","608362","0.0-8.1-0.1-1.55","null","<span style='color:red; font-size: 70px;'>错误! </span>","null","","","","","","","","","","","","","","","","","","","","","","","feedback_test"
"","","","","","psychophysics","189","609591","0.0-8.1-0.1-0.56","223","","j","","","","","","","","","","","","","key","j","16.650097222222637","960","536","f","false","img/H_ambi40.png","生人","prac",""
"","","","","","html-keyboard-response","190","610096","0.0-8.1-0.1-1.56","null","<span style='color:red; font-size: 70px;'>错误! </span>","null","","","","","","","","","","","","","","","","","","","","","","","feedback_test"
"","","","","","psychophysics","191","611344","0.0-8.1-0.1-0.57","241","","j","","","","","","","","","","","","","key","j","16.650459459458943","960","536","j","true","img/T_ambi40.png","をる","prac",""
"","","","","","html-keyboard-response","192","611858","0.0-8.1-0.1-1.57","null","<span style='color:GreenYellow; font-size: 70px;'>正确! </span>","null","","","","","","","","","","","","","","","","","","","","","","","feedback_test"
"","","","","","psychophysics","193","613291","0.0-8.1-0.1-0.58","424","","f","","","","","","","","","","","","","key","f","16.648764705882574","960","536","j","false","img/C_ambi40.png","自我","prac",""
"","","","","","html-keyboard-response","194","613796","0.0-8.1-0.1-1.58","null","<span style='color:red; font-size: 70px;'>错误! </span>","null","","","","","","","","","","","","","","","","","","","","","","","feedback_test"
"","","","","","psychophysics","195","614994","0.0-8.1-0.1-0.59","161","","j","","","","","","","","","","","","","key","j","16.65176056338061","960","536","j","true","img/T_ambi40.png","をる","prac",""
"","","","","","html-keyboard-response","196","615501","0.0-8.1-0.1-1.59","null","<span style='color:yellow; font-size: 70px;'>过快! </span>","null","","","","","","","","","","","","","","","","","","","","","","","feedback_test"
"","","","","","psychophysics","197","617004","0.0-8.1-0.1-0.60","502","","j","","","","","","","","","","","","","key","j","16.65216666666739","960","536","f","false","img/C_ambi40.png","生人","prac",""
"","","","","","html-keyboard-response","198","617520","0.0-8.1-0.1-1.60","null","<span style='color:red; font-size: 70px;'>错误! </span>","null","","","","","","","","","","","","","","","","","","","","","","","feedback_test"
"","","","","","psychophysics","199","619120","0.0-8.1-0.1-0.61","594","","f","","","","","","","","","","","","","key","f","16.65080000000001","960","536","j","false","img/H_ambi40.png","朋友","prac",""
"","","","","","html-keyboard-response","200","619631","0.0-8.1-0.1-1.61","null","<span style='color:red; font-size: 70px;'>错误! </span>","null","","","","","","","","","","","","","","","","","","","","","","","feedback_test"
"","","","","","psychophysics","201","620872","0.0-8.1-0.1-0.62","223","","j","","","","","","","","","","","","","key","j","16.650756756757776","960","536","j","true","img/T_ambi40.png","をる","prac",""
"","","","","","html-keyboard-response","202","621384","0.0-8.1-0.1-1.62","null","<span style='color:GreenYellow; font-size: 70px;'>正确! </span>","null","","","","","","","","","","","","","","","","","","","","","","","feedback_test"
"","","","","","psychophysics","203","622633","0.0-8.1-0.1-0.63","237","","j","","","","","","","","","","","","","key","j","16.65002702702642","960","536","f","false","img/S_ambi40.png","自我","prac",""
"","","","","","html-keyboard-response","204","623139","0.0-8.1-0.1-1.63","null","<span style='color:red; font-size: 70px;'>错误! </span>","null","","","","","","","","","","","","","","","","","","","","","","","feedback_test"
"","","","","","html-keyboard-response","205","661980","0.0-8.1-1.1-0.1","38838","<style>.context{color:white; font-size: 35px; line-height:40px}</style>                          <div><p class='context'>您正确回答了50% 的试次。</p ><p class='context'>您的平均反应时为419毫秒。</p >","j","","","","","","","","","","","","","","","","","","","","","","",""
"","","","","","instructions","206","684139","0.0-8.1-1.1-1.1","22156","","","","","","","","","","","","","","[{""page_index"":0,""viewing_time"":1915},{""page_index"":1,""viewing_time"":18584},{""page_index"":2,""viewing_time"":1656}]","","","","","","","","","","",""
"","","","","","psychophysics","207","686645","0.0-8.2-0.2-0.64","null","","null","","","","","","","","","","","","","key","null","16.650912751678078","960","536","j","false","img/S_ambi40.png","生人","prac",""
"","","","","","html-keyboard-response","208","687153","0.0-8.2-0.2-1.64","null","<span class='add_' style='color:yellow; font-size: 70px;'> 太慢! </span>","null","","","","","","","","","","","","","","","","","","","","","","","feedback_test"
"","","","","","psychophysics","209","689082","0.0-8.2-0.2-0.65","897","","f","","","","","","","","","","","","","key","f","16.65103508771924","960","536","j","false","img/C_ambi40.png","自我","prac",""
"","","","","","html-keyboard-response","210","689595","0.0-8.2-0.2-1.65","null","<span style='color:red; font-size: 70px;'>错误! </span>","null","","","","","","","","","","","","","","","","","","","","","","","feedback_test"
"","","","","","psychophysics","211","691669","0.0-8.2-0.2-0.66","1069","","f","","","","","","","","","","","","","key","f","16.65106451612871","960","536","f","true","img/H_ambi40.png","自我","prac",""
"","","","","","html-keyboard-response","212","692172","0.0-8.2-0.2-1.66","null","<span style='color:GreenYellow; font-size: 70px;'>正确! </span>","null","","","","","","","","","","","","","","","","","","","","","","","feedback_test"
"","","","","","psychophysics","213","694377","0.0-8.2-0.2-0.67","1196","","j","","","","","","","","","","","","","key","j","16.65093893129805","960","536","j","true","img/T_ambi40.png","をる","prac",""
"","","","","","html-keyboard-response","214","694887","0.0-8.2-0.2-1.67","null","<span style='color:GreenYellow; font-size: 70px;'>正确! </span>","null","","","","","","","","","","","","","","","","","","","","","","","feedback_test"
"","","","","","psychophysics","215","696949","0.0-8.2-0.2-0.68","1056","","f","","","","","","","","","","","","","key","f","16.651235772358305","960","536","f","true","img/S_ambi40.png","自我","prac",""
"","","","","","html-keyboard-response","216","697455","0.0-8.2-0.2-1.68","null","<span style='color:GreenYellow; font-size: 70px;'>正确! </span>","null","","","","","","","","","","","","","","","","","","","","","","","feedback_test"
"","","","","","psychophysics","217","699615","0.0-8.2-0.2-0.69","1156","","j","","","","","","","","","","","","","key","j","16.651317829457508","960","536","j","true","img/H_ambi40.png","朋友","prac",""
"","","","","","html-keyboard-response","218","700125","0.0-8.2-0.2-1.69","null","<span style='color:GreenYellow; font-size: 70px;'>正确! </span>","null","","","","","","","","","","","","","","","","","","","","","","","feedback_test"
"","","","","","psychophysics","219","702372","0.0-8.2-0.2-0.70","1240","","j","","","","","","","","","","","","","key","j","16.650812030074896","960","536","j","true","img/H_ambi40.png","朋友","prac",""
"","","","","","html-keyboard-response","220","702878","0.0-8.2-0.2-1.70","null","<span style='color:GreenYellow; font-size: 70px;'>正确! </span>","null","","","","","","","","","","","","","","","","","","","","","","","feedback_test"
"","","","","","psychophysics","221","704846","0.0-8.2-0.2-0.71","961","","j","","","","","","","","","","","","","key","j","16.650777777778302","960","536","j","true","img/T_ambi40.png","をる","prac",""
"","","","","","html-keyboard-response","222","705353","0.0-8.2-0.2-1.71","null","<span style='color:GreenYellow; font-size: 70px;'>正确! </span>","null","","","","","","","","","","","","","","","","","","","","","","","feedback_test"
"","","","","","psychophysics","223","707457","0.0-8.2-0.2-0.72","1097","","f","","","","","","","","","","","","","key","f","16.65027199999988","960","536","f","true","img/H_ambi40.png","生人","prac",""
"","","","","","html-keyboard-response","224","707969","0.0-8.2-0.2-1.72","null","<span style='color:GreenYellow; font-size: 70px;'>正确! </span>","null","","","","","","","","","","","","","","","","","","","","","","","feedback_test"
"","","","","","psychophysics","225","709906","0.0-8.2-0.2-0.73","931","","j","","","","","","","","","","","","","key","j","16.650895652173936","960","536","j","true","img/T_ambi40.png","をる","prac",""
"","","","","","html-keyboard-response","226","710408","0.0-8.2-0.2-1.73","null","<span style='color:GreenYellow; font-size: 70px;'>正确! </span>","null","","","","","","","","","","","","","","","","","","","","","","","feedback_test"
"","","","","","psychophysics","227","712490","0.0-8.2-0.2-0.74","1076","","f","","","","","","","","","","","","","key","f","16.650919354838063","960","536","f","true","img/S_ambi40.png","朋友","prac",""
"","","","","","html-keyboard-response","228","712995","0.0-8.2-0.2-1.74","null","<span style='color:GreenYellow; font-size: 70px;'>正确! </span>","null","","","","","","","","","","","","","","","","","","","","","","","feedback_test"
"","","","","","psychophysics","229","715448","0.0-8.2-0.2-0.75","1452","","f","","","","","","","","","","","","","key","f","16.651212328767453","960","536","j","false","img/S_ambi40.png","生人","prac",""
"","","","","","html-keyboard-response","230","715952","0.0-8.2-0.2-1.75","null","<span style='color:red; font-size: 70px;'>错误! </span>","null","","","","","","","","","","","","","","","","","","","","","","","feedback_test"
"","","","","","psychophysics","231","717847","0.0-8.2-0.2-0.76","888","","f","","","","","","","","","","","","","key","f","16.6511769911503","960","536","f","true","img/C_ambi40.png","生人","prac",""
"","","","","","html-keyboard-response","232","718361","0.0-8.2-0.2-1.76","null","<span style='color:GreenYellow; font-size: 70px;'>正确! </span>","null","","","","","","","","","","","","","","","","","","","","","","","feedback_test"
"","","","","","psychophysics","233","720072","0.0-8.2-0.2-0.77","704","","j","","","","","","","","","","","","","key","j","16.650970297029914","960","536","j","true","img/T_ambi40.png","をる","prac",""
"","","","","","html-keyboard-response","234","720584","0.0-8.2-0.2-1.77","null","<span style='color:GreenYellow; font-size: 70px;'>正确! </span>","null","","","","","","","","","","","","","","","","","","","","","","","feedback_test"
"","","","","","psychophysics","235","723012","0.0-8.2-0.2-0.78","1417","","f","","","","","","","","","","","","","key","f","16.651903448275547","960","536","f","true","img/C_ambi40.png","朋友","prac",""
"","","","","","html-keyboard-response","236","723521","0.0-8.2-0.2-1.78","null","<span style='color:GreenYellow; font-size: 70px;'>正确! </span>","null","","","","","","","","","","","","","","","","","","","","","","","feedback_test"
"","","","","","psychophysics","237","725976","0.0-8.2-0.2-0.79","1442","","j","","","","","","","","","","","","","key","j","16.651253424657426","960","536","j","true","img/C_ambi40.png","自我","prac",""
"","","","","","html-keyboard-response","238","726479","0.0-8.2-0.2-1.79","null","<span style='color:GreenYellow; font-size: 70px;'>正确! </span>","null","","","","","","","","","","","","","","","","","","","","","","","feedback_test"
"","","","","","psychophysics","239","728383","0.0-8.2-0.2-0.80","901","","j","","","","","","","","","","","","","key","j","16.654026315789547","960","536","j","true","img/C_ambi40.png","自我","prac",""
"","","","","","html-keyboard-response","240","728897","0.0-8.2-0.2-1.80","null","<span style='color:GreenYellow; font-size: 70px;'>正确! </span>","null","","","","","","","","","","","","","","","","","","","","","","","feedback_test"
"","","","","","psychophysics","241","731411","0.0-8.2-0.2-0.81","null","","null","","","","","","","","","","","","","key","null","16.652651006711377","960","536","j","false","img/S_ambi40.png","生人","prac",""
"","","","","","html-keyboard-response","242","731921","0.0-8.2-0.2-1.81","null","<span class='add_' style='color:yellow; font-size: 70px;'> 太慢! </span>","null","","","","","","","","","","","","","","","","","","","","","","","feedback_test"
"","","","","","psychophysics","243","734269","0.0-8.2-0.2-0.82","1341","","f","","","","","","","","","","","","","key","f","16.651507142857216","960","536","j","false","img/S_ambi40.png","生人","prac",""
"","","","","","html-keyboard-response","244","734770","0.0-8.2-0.2-1.82","null","<span style='color:red; font-size: 70px;'>错误! </span>","null","","","","","","","","","","","","","","","","","","","","","","","feedback_test"
"","","","","","psychophysics","245","736862","0.0-8.2-0.2-0.83","1087","","f","","","","","","","","","","","","","key","f","16.65183999999985","960","536","j","false","img/C_ambi40.png","自我","prac",""
"","","","","","html-keyboard-response","246","737371","0.0-8.2-0.2-1.83","null","<span style='color:red; font-size: 70px;'>错误! </span>","null","","","","","","","","","","","","","","","","","","","","","","","feedback_test"
"","","","","","psychophysics","247","739191","0.0-8.2-0.2-0.84","819","","j","","","","","","","","","","","","","key","j","16.52938888888888","960","536","j","true","img/T_ambi40.png","をる","prac",""
"","","","","","html-keyboard-response","248","739694","0.0-8.2-0.2-1.84","null","<span style='color:GreenYellow; font-size: 70px;'>正确! </span>","null","","","","","","","","","","","","","","","","","","","","","","","feedback_test"
"","","","","","psychophysics","249","741358","0.0-8.2-0.2-0.85","659","","j","","","","","","","","","","","","","key","j","16.651131313131895","960","536","j","true","img/T_ambi40.png","をる","prac",""
"","","","","","html-keyboard-response","250","741861","0.0-8.2-0.2-1.85","null","<span style='color:GreenYellow; font-size: 70px;'>正确! </span>","null","","","","","","","","","","","","","","","","","","","","","","","feedback_test"
"","","","","","psychophysics","251","743655","0.0-8.2-0.2-0.86","787","","j","","","","","","","","","","","","","key","j","16.65154205607446","960","536","f","false","img/C_ambi40.png","朋友","prac",""
"","","","","","html-keyboard-response","252","744169","0.0-8.2-0.2-1.86","null","<span style='color:red; font-size: 70px;'>错误! </span>","null","","","","","","","","","","","","","","","","","","","","","","","feedback_test"
"","","","","","psychophysics","253","745820","0.0-8.2-0.2-0.87","643","","j","","","","","","","","","","","","","key","j","16.65117346938837","960","536","j","true","img/T_ambi40.png","をる","prac",""
"","","","","","html-keyboard-response","254","746325","0.0-8.2-0.2-1.87","null","<span style='color:GreenYellow; font-size: 70px;'>正确! </span>","null","","","","","","","","","","","","","","","","","","","","","","","feedback_test"
"","","","","","psychophysics","255","748196","0.0-8.2-0.2-0.88","866","","f","","","","","","","","","","","","","key","f","16.651441441441946","960","536","f","true","img/S_ambi40.png","朋友","prac",""
"","","","","","html-keyboard-response","256","748707","0.0-8.2-0.2-1.88","null","<span style='color:GreenYellow; font-size: 70px;'>正确! </span>","null","","","","","","","","","","","","","","","","","","","","","","","feedback_test"
"","","","","","psychophysics","257","750219","0.0-8.2-0.2-0.89","507","","j","","","","","","","","","","","","","key","j","16.6519555555566","960","536","j","true","img/T_ambi40.png","をる","prac",""
"","","","","","html-keyboard-response","258","750725","0.0-8.2-0.2-1.89","null","<span style='color:GreenYellow; font-size: 70px;'>正确! </span>","null","","","","","","","","","","","","","","","","","","","","","","","feedback_test"
"","","","","","psychophysics","259","752936","0.0-8.2-0.2-0.90","1188","","f","","","","","","","","","","","","","key","f","16.651446969696376","960","536","f","true","img/H_ambi40.png","生人","prac",""
"","","","","","html-keyboard-response","260","753440","0.0-8.2-0.2-1.90","null","<span style='color:GreenYellow; font-size: 70px;'>正确! </span>","null","","","","","","","","","","","","","","","","","","","","","","","feedback_test"
"","","","","","psychophysics","261","755619","0.0-8.2-0.2-0.91","1178","","j","","","","","","","","","","","","","key","j","16.54944186046532","960","536","f","false","img/S_ambi40.png","自我","prac",""
"","","","","","html-keyboard-response","262","756124","0.0-8.2-0.2-1.91","null","<span style='color:red; font-size: 70px;'>错误! </span>","null","","","","","","","","","","","","","","","","","","","","","","","feedback_test"
"","","","","","psychophysics","263","757905","0.0-8.2-0.2-0.92","775","","j","","","","","","","","","","","","","key","j","16.65032075471706","960","536","j","true","img/H_ambi40.png","朋友","prac",""
"","","","","","html-keyboard-response","264","758417","0.0-8.2-0.2-1.92","null","<span style='color:GreenYellow; font-size: 70px;'>正确! </span>","null","","","","","","","","","","","","","","","","","","","","","","","feedback_test"
"","","","","","psychophysics","265","760649","0.0-8.2-0.2-0.93","1230","","j","","","","","","","","","","","","","key","j","16.650902255639586","960","536","f","false","img/H_ambi40.png","自我","prac",""
"","","","","","html-keyboard-response","266","761160","0.0-8.2-0.2-1.93","null","<span style='color:red; font-size: 70px;'>错误! </span>","null","","","","","","","","","","","","","","","","","","","","","","","feedback_test"
"","","","","","psychophysics","267","763253","0.0-8.2-0.2-0.94","1086","","f","","","","","","","","","","","","","key","f","16.64989600000065","960","536","f","true","img/C_ambi40.png","生人","prac",""
"","","","","","html-keyboard-response","268","763767","0.0-8.2-0.2-1.94","null","<span style='color:GreenYellow; font-size: 70px;'>正确! </span>","null","","","","","","","","","","","","","","","","","","","","","","","feedback_test"
"","","","","","psychophysics","269","765408","0.0-8.2-0.2-0.95","634","","f","","","","","","","","","","","","","key","f","16.651216494846015","960","536","j","false","img/H_ambi40.png","朋友","prac",""
"","","","","","html-keyboard-response","270","765920","0.0-8.2-0.2-1.95","null","<span style='color:red; font-size: 70px;'>错误! </span>","null","","","","","","","","","","","","","","","","","","","","","","","feedback_test"
"","","","","","html-keyboard-response","271","784509","0.0-8.2-1.2-0.2","18587","<style>.context{color:white; font-size: 35px; line-height:40px}</style>                          <div><p class='context'>您正确回答了69% 的试次。</p ><p class='context'>您的平均反应时为985毫秒。</p >","j","","","","","","","","","","","","","","","","","","","","","","",""
"","","","","","instructions","272","856442","0.0-8.2-1.2-1.2","71931","","","","","","","","","","","","","","[{""page_index"":0,""viewing_time"":1331},{""page_index"":1,""viewing_time"":69313},{""page_index"":2,""viewing_time"":1287}]","","","","","","","","","","",""
"","","","","","psychophysics","273","858640","0.0-8.3-0.3-0.96","1180","","f","","","","","","","","","","","","","key","f","16.65101538461615","960","536","j","false","img/S_ambi40.png","生人","prac",""
"","","","","","html-keyboard-response","274","859143","0.0-8.3-0.3-1.96","null","<span style='color:red; font-size: 70px;'>错误! </span>","null","","","","","","","","","","","","","","","","","","","","","","","feedback_test"
"","","","","","psychophysics","275","861175","0.0-8.3-0.3-0.97","1011","","j","","","","","","","","","","","","","key","j","16.651545454545932","960","536","j","true","img/T_ambi40.png","をる","prac",""
"","","","","","html-keyboard-response","276","861683","0.0-8.3-0.3-1.97","null","<span style='color:GreenYellow; font-size: 70px;'>正确! </span>","null","","","","","","","","","","","","","","","","","","","","","","","feedback_test"
"","","","","","psychophysics","277","863183","0.0-8.3-0.3-0.98","495","","j","","","","","","","","","","","","","key","j","16.654033707865523","960","536","j","true","img/T_ambi40.png","をる","prac",""
"","","","","","html-keyboard-response","278","863688","0.0-8.3-0.3-1.98","null","<span style='color:GreenYellow; font-size: 70px;'>正确! </span>","null","","","","","","","","","","","","","","","","","","","","","","","feedback_test"
"","","","","","psychophysics","279","866200","0.0-8.3-0.3-0.99","null","","null","","","","","","","","","","","","","key","null","16.6505838926169","960","536","j","false","img/C_ambi40.png","自我","prac",""
"","","","","","html-keyboard-response","280","866710","0.0-8.3-0.3-1.99","null","<span class='add_' style='color:yellow; font-size: 70px;'> 太慢! </span>","null","","","","","","","","","","","","","","","","","","","","","","","feedback_test"
"","","","","","psychophysics","281","868880","0.0-8.3-0.3-0.100","1166","","j","","","","","","","","","","","","","key","j","16.65023255813957","960","536","f","false","img/H_ambi40.png","生人","prac",""
"","","","","","html-keyboard-response","282","869390","0.0-8.3-0.3-1.100","null","<span style='color:red; font-size: 70px;'>错误! </span>","null","","","","","","","","","","","","","","","","","","","","","","","feedback_test"
"","","","","","psychophysics","283","871030","0.0-8.3-0.3-0.101","634","","j","","","","","","","","","","","","","key","j","16.651567010309776","960","536","f","false","img/H_ambi40.png","自我","prac",""
"","","","","","html-keyboard-response","284","871541","0.0-8.3-0.3-1.101","null","<span style='color:red; font-size: 70px;'>错误! </span>","null","","","","","","","","","","","","","","","","","","","","","","","feedback_test"
"","","","","","psychophysics","285","872942","0.0-8.3-0.3-0.102","381","","f","","","","","","","","","","","","","key","f","16.6517831325301","960","536","f","true","img/S_ambi40.png","自我","prac",""
"","","","","","html-keyboard-response","286","873447","0.0-8.3-0.3-1.102","null","<span style='color:GreenYellow; font-size: 70px;'>正确! </span>","null","","","","","","","","","","","","","","","","","","","","","","","feedback_test"
"","","","","","psychophysics","287","875579","0.0-8.3-0.3-0.103","1125","","f","","","","","","","","","","","","","key","f","16.651551181102157","960","536","j","false","img/S_ambi40.png","生人","prac",""
"","","","","","html-keyboard-response","288","876080","0.0-8.3-0.3-1.103","null","<span style='color:red; font-size: 70px;'>错误! </span>","null","","","","","","","","","","","","","","","","","","","","","","","feedback_test"
"","","","","","psychophysics","289","877584","0.0-8.3-0.3-0.104","499","","j","","","","","","","","","","","","","key","j","16.65092134831494","960","536","f","false","img/C_ambi40.png","生人","prac",""
"","","","","","html-keyboard-response","290","878109","0.0-8.3-0.3-1.104","null","<span style='color:red; font-size: 70px;'>错误! </span>","null","","","","","","","","","","","","","","","","","","","","","","","feedback_test"
"","","","","","psychophysics","291","879362","0.0-8.3-0.3-0.105","238","","f","","","","","","","","","","","","","key","f","16.651891891891765","960","536","f","true","img/S_ambi40.png","朋友","prac",""
"","","","","","html-keyboard-response","292","879872","0.0-8.3-0.3-1.105","null","<span style='color:GreenYellow; font-size: 70px;'>正确! </span>","null","","","","","","","","","","","","","","","","","","","","","","","feedback_test"
"","","","","","psychophysics","293","881571","0.0-8.3-0.3-0.106","695","","j","","","","","","","","","","","","","key","j","16.649000000000232","960","536","j","true","img/T_ambi40.png","をる","prac",""
"","","","","","html-keyboard-response","294","882073","0.0-8.3-0.3-1.106","null","<span style='color:GreenYellow; font-size: 70px;'>正确! </span>","null","","","","","","","","","","","","","","","","","","","","","","","feedback_test"
"","","","","","psychophysics","295","883651","0.0-8.3-0.3-0.107","569","","j","","","","","","","","","","","","","key","j","16.651247311827866","960","536","j","true","img/T_ambi40.png","をる","prac",""
"","","","","","html-keyboard-response","296","884166","0.0-8.3-0.3-1.107","null","<span style='color:GreenYellow; font-size: 70px;'>正确! </span>","null","","","","","","","","","","","","","","","","","","","","","","","feedback_test"
"","","","","","psychophysics","297","886278","0.0-8.3-0.3-0.108","1094","","j","","","","","","","","","","","","","key","j","16.64619047619081","960","536","j","true","img/H_ambi40.png","朋友","prac",""
"","","","","","html-keyboard-response","298","886793","0.0-8.3-0.3-1.108","null","<span style='color:GreenYellow; font-size: 70px;'>正确! </span>","null","","","","","","","","","","","","","","","","","","","","","","","feedback_test"
"","","","","","psychophysics","299","888194","0.0-8.3-0.3-0.109","395","","j","","","","","","","","","","","","","key","j","16.6523253012039","960","536","f","false","img/C_ambi40.png","朋友","prac",""
"","","","","","html-keyboard-response","300","888707","0.0-8.3-0.3-1.109","null","<span style='color:red; font-size: 70px;'>错误! </span>","null","","","","","","","","","","","","","","","","","","","","","","","feedback_test"
"","","","","","psychophysics","301","890100","0.0-8.3-0.3-0.110","389","","j","","","","","","","","","","","","","key","j","16.649626506024028","960","536","j","true","img/C_ambi40.png","自我","prac",""
"","","","","","html-keyboard-response","302","890606","0.0-8.3-0.3-1.110","null","<span style='color:GreenYellow; font-size: 70px;'>正确! </span>","null","","","","","","","","","","","","","","","","","","","","","","","feedback_test"
"","","","","","psychophysics","303","892443","0.0-8.3-0.3-0.111","809","","f","","","","","","","","","","","","","key","f","16.651788990826073","960","536","j","false","img/H_ambi40.png","朋友","prac",""
"","","","","","html-keyboard-response","304","892959","0.0-8.3-0.3-1.111","null","<span style='color:red; font-size: 70px;'>错误! </span>","null","","","","","","","","","","","","","","","","","","","","","","","feedback_test"
"","","","","","psychophysics","305","894314","0.0-8.3-0.3-0.112","353","","j","","","","","","","","","","","","","key","j","16.484162500000092","960","536","j","true","img/T_ambi40.png","をる","prac",""
"","","","","","html-keyboard-response","306","894815","0.0-8.3-0.3-1.112","null","<span style='color:GreenYellow; font-size: 70px;'>正确! </span>","null","","","","","","","","","","","","","","","","","","","","","","","feedback_test"
"","","","","","psychophysics","307","896483","0.0-8.3-0.3-0.113","662","","j","","","","","","","","","","","","","key","j","16.658434343433733","960","536","j","true","img/C_ambi40.png","自我","prac",""
"","","","","","html-keyboard-response","308","896997","0.0-8.3-0.3-1.113","null","<span style='color:GreenYellow; font-size: 70px;'>正确! </span>","null","","","","","","","","","","","","","","","","","","","","","","","feedback_test"
"","","","","","psychophysics","309","898665","0.0-8.3-0.3-0.114","629","","j","","","","","","","","","","","","","key","j","16.651707070707953","960","536","j","true","img/T_ambi40.png","をる","prac",""
"","","","","","html-keyboard-response","310","899168","0.0-8.3-0.3-1.114","null","<span style='color:GreenYellow; font-size: 70px;'>正确! </span>","null","","","","","","","","","","","","","","","","","","","","","","","feedback_test"
"","","","","","psychophysics","311","900948","0.0-8.3-0.3-0.115","778","","j","","","","","","","","","","","","","key","j","16.650820754716648","960","536","j","true","img/C_ambi40.png","自我","prac",""
"","","","","","html-keyboard-response","312","901461","0.0-8.3-0.3-1.115","null","<span style='color:GreenYellow; font-size: 70px;'>正确! </span>","null","","","","","","","","","","","","","","","","","","","","","","","feedback_test"
"","","","","","psychophysics","313","903327","0.0-8.3-0.3-0.116","859","","f","","","","","","","","","","","","","key","f","16.651333333332897","960","536","f","true","img/C_ambi40.png","朋友","prac",""
"","","","","","html-keyboard-response","314","903847","0.0-8.3-0.3-1.116","null","<span style='color:GreenYellow; font-size: 70px;'>正确! </span>","null","","","","","","","","","","","","","","","","","","","","","","","feedback_test"
"","","","","","psychophysics","315","905539","0.0-8.3-0.3-0.117","674","","j","","","","","","","","","","","","","key","j","16.651346534653104","960","536","j","true","img/S_ambi40.png","生人","prac",""
"","","","","","html-keyboard-response","316","906046","0.0-8.3-0.3-1.117","null","<span style='color:GreenYellow; font-size: 70px;'>正确! </span>","null","","","","","","","","","","","","","","","","","","","","","","","feedback_test"
"","","","","","psychophysics","317","908081","0.0-8.3-0.3-0.118","1034","","f","","","","","","","","","","","","","key","f","16.551289256198395","960","536","f","true","img/S_ambi40.png","自我","prac",""
"","","","","","html-keyboard-response","318","908586","0.0-8.3-0.3-1.118","null","<span style='color:GreenYellow; font-size: 70px;'>正确! </span>","null","","","","","","","","","","","","","","","","","","","","","","","feedback_test"
"","","","","","psychophysics","319","910193","0.0-8.3-0.3-0.119","599","","j","","","","","","","","","","","","","key","j","16.651147368421633","960","536","j","true","img/H_ambi40.png","朋友","prac",""
"","","","","","html-keyboard-response","320","910725","0.0-8.3-0.3-1.119","null","<span style='color:GreenYellow; font-size: 70px;'>正确! </span>","null","","","","","","","","","","","","","","","","","","","","","","","feedback_test"
"","","","","","psychophysics","321","912418","0.0-8.3-0.3-0.120","675","","j","","","","","","","","","","","","","key","j","16.513519999999552","960","536","j","true","img/T_ambi40.png","をる","prac",""
"","","","","","html-keyboard-response","322","912930","0.0-8.3-0.3-1.120","null","<span style='color:GreenYellow; font-size: 70px;'>正确! </span>","null","","","","","","","","","","","","","","","","","","","","","","","feedback_test"
"","","","","","psychophysics","323","914861","0.0-8.3-0.3-0.121","922","","j","","","","","","","","","","","","","key","j","16.651373913042935","960","536","f","false","img/S_ambi40.png","朋友","prac",""
"","","","","","html-keyboard-response","324","915365","0.0-8.3-0.3-1.121","null","<span style='color:red; font-size: 70px;'>错误! </span>","null","","","","","","","","","","","","","","","","","","","","","","","feedback_test"
"","","","","","psychophysics","325","917440","0.0-8.3-0.3-0.122","1068","","f","","","","","","","","","","","","","key","f","16.65100806451688","960","536","j","false","img/S_ambi40.png","生人","prac",""
"","","","","","html-keyboard-response","326","917948","0.0-8.3-0.3-1.122","null","<span style='color:red; font-size: 70px;'>错误! </span>","null","","","","","","","","","","","","","","","","","","","","","","","feedback_test"
"","","","","","psychophysics","327","919342","0.0-8.3-0.3-0.123","389","","j","","","","","","","","","","","","","key","j","16.65078313253029","960","536","f","false","img/H_ambi40.png","自我","prac",""
"","","","","","html-keyboard-response","328","919855","0.0-8.3-0.3-1.123","null","<span style='color:red; font-size: 70px;'>错误! </span>","null","","","","","","","","","","","","","","","","","","","","","","","feedback_test"
"","","","","","psychophysics","329","921489","0.0-8.3-0.3-0.124","622","","j","","","","","","","","","","","","","key","j","16.65189690721586","960","536","j","true","img/T_ambi40.png","をる","prac",""
"","","","","","html-keyboard-response","330","922000","0.0-8.3-0.3-1.124","null","<span style='color:GreenYellow; font-size: 70px;'>正确! </span>","null","","","","","","","","","","","","","","","","","","","","","","","feedback_test"
"","","","","","psychophysics","331","923918","0.0-8.3-0.3-0.125","903","","j","","","","","","","","","","","","","key","j","16.653000000000343","960","536","f","false","img/C_ambi40.png","生人","prac",""
"","","","","","html-keyboard-response","332","924434","0.0-8.3-0.3-1.125","null","<span style='color:red; font-size: 70px;'>错误! </span>","null","","","","","","","","","","","","","","","","","","","","","","","feedback_test"
"","","","","","psychophysics","333","926644","0.0-8.3-0.3-0.126","1201","","j","","","","","","","","","","","","","key","j","16.650977099237018","960","536","j","true","img/H_ambi40.png","朋友","prac",""
"","","","","","html-keyboard-response","334","927147","0.0-8.3-0.3-1.126","null","<span style='color:GreenYellow; font-size: 70px;'>正确! </span>","null","","","","","","","","","","","","","","","","","","","","","","","feedback_test"
"","","","","","psychophysics","335","929204","0.0-8.3-0.3-0.127","1046","","j","","","","","","","","","","","","","key","j","16.65106557376996","960","536","f","false","img/H_ambi40.png","生人","prac",""
"","","","","","html-keyboard-response","336","929706","0.0-8.3-0.3-1.127","null","<span style='color:red; font-size: 70px;'>错误! </span>","null","","","","","","","","","","","","","","","","","","","","","","","feedback_test"
"","","","","","html-keyboard-response","337","965200","0.0-8.3-1.3-0.3","35491","<style>.context{color:white; font-size: 35px; line-height:40px}</style>                          <div><p class='context'>您正确回答了59% 的试次。</p ><p class='context'>您的平均反应时为682毫秒。</p >","j","","","","","","","","","","","","","","","","","","","","","","",""
"","","","","","instructions","338","1007394","0.0-8.3-1.3-1.3","42193","","","","","","","","","","","","","","[{""page_index"":0,""viewing_time"":1458},{""page_index"":1,""viewing_time"":39527},{""page_index"":2,""viewing_time"":1207}]","","","","","","","","","","",""
"","","","","","psychophysics","339","1009709","0.0-8.4-0.4-0.128","1307","","j","","","","","","","","","","","","","key","j","16.651318840579588","960","536","j","true","img/C_ambi40.png","自我","prac",""
"","","","","","html-keyboard-response","340","1010218","0.0-8.4-0.4-1.128","null","<span style='color:GreenYellow; font-size: 70px;'>正确! </span>","null","","","","","","","","","","","","","","","","","","","","","","","feedback_test"
"","","","","","psychophysics","341","1012142","0.0-8.4-0.4-0.129","894","","j","","","","","","","","","","","","","key","j","16.65068421052593","960","536","f","false","img/S_ambi40.png","朋友","prac",""
"","","","","","html-keyboard-response","342","1012649","0.0-8.4-0.4-1.129","null","<span style='color:red; font-size: 70px;'>错误! </span>","null","","","","","","","","","","","","","","","","","","","","","","","feedback_test"
"","","","","","psychophysics","343","1014622","0.0-8.4-0.4-0.130","961","","j","","","","","","","","","","","","","key","j","16.653059829059295","960","536","f","false","img/C_ambi40.png","朋友","prac",""
"","","","","","html-keyboard-response","344","1015127","0.0-8.4-0.4-1.130","null","<span style='color:red; font-size: 70px;'>错误! </span>","null","","","","","","","","","","","","","","","","","","","","","","","feedback_test"
"","","","","","psychophysics","345","1017317","0.0-8.4-0.4-0.131","1186","","j","","","","","","","","","","","","","key","j","16.550246153846203","960","536","j","true","img/S_ambi40.png","生人","prac",""
"","","","","","html-keyboard-response","346","1017820","0.0-8.4-0.4-1.131","null","<span style='color:GreenYellow; font-size: 70px;'>正确! </span>","null","","","","","","","","","","","","","","","","","","","","","","","feedback_test"
"","","","","","psychophysics","347","1019525","0.0-8.4-0.4-0.132","700","","j","","","","","","","","","","","","","key","j","16.65093137254806","960","536","j","true","img/T_ambi40.png","をる","prac",""
"","","","","","html-keyboard-response","348","1020031","0.0-8.4-0.4-1.132","null","<span style='color:GreenYellow; font-size: 70px;'>正确! </span>","null","","","","","","","","","","","","","","","","","","","","","","","feedback_test"
"","","","","","psychophysics","349","1022382","0.0-8.4-0.4-0.133","1343","","f","","","","","","","","","","","","","key","f","16.65182142857063","960","536","f","true","img/S_ambi40.png","自我","prac",""
"","","","","","html-keyboard-response","350","1022895","0.0-8.4-0.4-1.133","null","<span style='color:GreenYellow; font-size: 70px;'>正确! </span>","null","","","","","","","","","","","","","","","","","","","","","","","feedback_test"
"","","","","","psychophysics","351","1025272","0.0-8.4-0.4-0.134","1369","","j","","","","","","","","","","","","","key","j","16.6514154929589","960","536","j","true","img/H_ambi40.png","朋友","prac",""
"","","","","","html-keyboard-response","352","1025778","0.0-8.4-0.4-1.134","null","<span style='color:GreenYellow; font-size: 70px;'>正确! </span>","null","","","","","","","","","","","","","","","","","","","","","","","feedback_test"
"","","","","","psychophysics","353","1027512","0.0-8.4-0.4-0.135","728","","j","","","","","","","","","","","","","key","j","16.65184466019544","960","536","j","true","img/T_ambi40.png","をる","prac",""
"","","","","","html-keyboard-response","354","1028014","0.0-8.4-0.4-1.135","null","<span style='color:GreenYellow; font-size: 70px;'>正确! </span>","null","","","","","","","","","","","","","","","","","","","","","","","feedback_test"
"","","","","","psychophysics","355","1029686","0.0-8.4-0.4-0.136","671","","j","","","","","","","","","","","","","key","j","16.65162000000011","960","536","j","true","img/T_ambi40.png","をる","prac",""
"","","","","","html-keyboard-response","356","1030200","0.0-8.4-0.4-1.136","null","<span style='color:GreenYellow; font-size: 70px;'>正确! </span>","null","","","","","","","","","","","","","","","","","","","","","","","feedback_test"
"","","","","","psychophysics","357","1032193","0.0-8.4-0.4-0.137","983","","j","","","","","","","","","","","","","key","j","16.651093220338225","960","536","f","false","img/H_ambi40.png","自我","prac",""
"","","","","","html-keyboard-response","358","1032731","0.0-8.4-0.4-1.137","null","<span style='color:red; font-size: 70px;'>错误! </span>","null","","","","","","","","","","","","","","","","","","","","","","","feedback_test"
"","","","","","psychophysics","359","1034982","0.0-8.4-0.4-0.138","1238","","j","","","","","","","","","","","","","key","j","16.65105970149318","960","536","j","true","img/H_ambi40.png","朋友","prac",""
"","","","","","html-keyboard-response","360","1035492","0.0-8.4-0.4-1.138","null","<span style='color:GreenYellow; font-size: 70px;'>正确! </span>","null","","","","","","","","","","","","","","","","","","","","","","","feedback_test"
"","","","","","psychophysics","361","1037175","0.0-8.4-0.4-0.139","680","","j","","","","","","","","","","","","","key","j","16.65070000000065","960","536","j","true","img/T_ambi40.png","をる","prac",""
"","","","","","html-keyboard-response","362","1037689","0.0-8.4-0.4-1.139","null","<span style='color:GreenYellow; font-size: 70px;'>正确! </span>","null","","","","","","","","","","","","","","","","","","","","","","","feedback_test"
"","","","","","psychophysics","363","1040091","0.0-8.4-0.4-0.140","1401","","f","","","","","","","","","","","","","key","f","16.55718181818281","960","536","f","true","img/H_ambi40.png","生人","prac",""
"","","","","","html-keyboard-response","364","1040603","0.0-8.4-0.4-1.140","null","<span style='color:GreenYellow; font-size: 70px;'>正确! </span>","null","","","","","","","","","","","","","","","","","","","","","","","feedback_test"
"","","","","","psychophysics","365","1043111","0.0-8.4-0.4-0.141","1507","","j","","","","","","","","","","","","","key","j","16.561476510068115","960","536","j","true","img/S_ambi40.png","生人","prac",""
"","","","","","html-keyboard-response","366","1043624","0.0-8.4-0.4-1.141","null","<span class='add_' style='color:yellow; font-size: 70px;'> 太慢! </span>","null","","","","","","","","","","","","","","","","","","","","","","","feedback_test"
"","","","","","psychophysics","367","1045976","0.0-8.4-0.4-0.142","1345","","f","","","","","","","","","","","","","key","f","16.650507142857116","960","536","f","true","img/C_ambi40.png","生人","prac",""
"","","","","","html-keyboard-response","368","1046490","0.0-8.4-0.4-1.142","null","<span style='color:GreenYellow; font-size: 70px;'>正确! </span>","null","","","","","","","","","","","","","","","","","","","","","","","feedback_test"
"","","","","","psychophysics","369","1048656","0.0-8.4-0.4-0.143","1159","","j","","","","","","","","","","","","","key","j","16.65199224806261","960","536","j","true","img/C_ambi40.png","自我","prac",""
"","","","","","html-keyboard-response","370","1049157","0.0-8.4-0.4-1.143","null","<span style='color:GreenYellow; font-size: 70px;'>正确! </span>","null","","","","","","","","","","","","","","","","","","","","","","","feedback_test"
"","","","","","psychophysics","371","1051687","0.0-8.4-0.4-0.144","1525","","f","","","","","","","","","","","","","key","f","16.65145033112548","960","536","f","true","img/H_ambi40.png","自我","prac",""
"","","","","","html-keyboard-response","372","1052188","0.0-8.4-0.4-1.144","null","<span class='add_' style='color:yellow; font-size: 70px;'> 太慢! </span>","null","","","","","","","","","","","","","","","","","","","","","","","feedback_test"
"","","","","","psychophysics","373","1053870","0.0-8.4-0.4-0.145","681","","j","","","","","","","","","","","","","key","j","16.652060000000056","960","536","j","true","img/T_ambi40.png","をる","prac",""
"","","","","","html-keyboard-response","374","1054382","0.0-8.4-0.4-1.145","null","<span style='color:GreenYellow; font-size: 70px;'>正确! </span>","null","","","","","","","","","","","","","","","","","","","","","","","feedback_test"
"","","","","","psychophysics","375","1056014","0.0-8.4-0.4-0.146","627","","j","","","","","","","","","","","","","key","j","16.65174226804166","960","536","j","true","img/T_ambi40.png","をる","prac",""
"","","","","","html-keyboard-response","376","1056516","0.0-8.4-0.4-1.146","null","<span style='color:GreenYellow; font-size: 70px;'>正确! </span>","null","","","","","","","","","","","","","","","","","","","","","","","feedback_test"
"","","","","","psychophysics","377","1058536","0.0-8.4-0.4-0.147","998","","f","","","","","","","","","","","","","key","f","16.651516666664975","960","536","j","false","img/S_ambi40.png","生人","prac",""
"","","","","","html-keyboard-response","378","1059045","0.0-8.4-0.4-1.147","null","<span style='color:red; font-size: 70px;'>错误! </span>","null","","","","","","","","","","","","","","","","","","","","","","","feedback_test"
"","","","","","psychophysics","379","1061475","0.0-8.4-0.4-0.148","1421","","f","","","","","","","","","","","","","key","f","16.651662068966584","960","536","f","true","img/S_ambi40.png","自我","prac",""
"","","","","","html-keyboard-response","380","1061987","0.0-8.4-0.4-1.148","null","<span style='color:GreenYellow; font-size: 70px;'>正确! </span>","null","","","","","","","","","","","","","","","","","","","","","","","feedback_test"
"","","","","","psychophysics","381","1064072","0.0-8.4-0.4-0.149","1078","","j","","","","","","","","","","","","","key","j","16.650677419355844","960","536","j","true","img/H_ambi40.png","朋友","prac",""
"","","","","","html-keyboard-response","382","1064578","0.0-8.4-0.4-1.149","null","<span style='color:GreenYellow; font-size: 70px;'>正确! </span>","null","","","","","","","","","","","","","","","","","","","","","","","feedback_test"
"","","","","","psychophysics","383","1066805","0.0-8.4-0.4-0.150","1224","","f","","","","","","","","","","","","","key","f","16.650827067669592","960","536","f","true","img/H_ambi40.png","生人","prac",""
"","","","","","html-keyboard-response","384","1067316","0.0-8.4-0.4-1.150","null","<span style='color:GreenYellow; font-size: 70px;'>正确! </span>","null","","","","","","","","","","","","","","","","","","","","","","","feedback_test"
"","","","","","psychophysics","385","1069571","0.0-8.4-0.4-0.151","1245","","f","","","","","","","","","","","","","key","f","16.65096268656754","960","536","f","true","img/C_ambi40.png","朋友","prac",""
"","","","","","html-keyboard-response","386","1070077","0.0-8.4-0.4-1.151","null","<span style='color:GreenYellow; font-size: 70px;'>正确! </span>","null","","","","","","","","","","","","","","","","","","","","","","","feedback_test"
"","","","","","psychophysics","387","1072200","0.0-8.4-0.4-0.152","1111","","j","","","","","","","","","","","","","key","j","16.650722222221603","960","536","j","true","img/H_ambi40.png","朋友","prac",""
"","","","","","html-keyboard-response","388","1072704","0.0-8.4-0.4-1.152","null","<span style='color:GreenYellow; font-size: 70px;'>正确! </span>","null","","","","","","","","","","","","","","","","","","","","","","","feedback_test"
"","","","","","psychophysics","389","1074756","0.0-8.4-0.4-0.153","1049","","j","","","","","","","","","","","","","key","j","16.65099999999826","960","536","j","true","img/C_ambi40.png","自我","prac",""
"","","","","","html-keyboard-response","390","1075261","0.0-8.4-0.4-1.153","null","<span style='color:GreenYellow; font-size: 70px;'>正确! </span>","null","","","","","","","","","","","","","","","","","","","","","","","feedback_test"
"","","","","","psychophysics","391","1077503","0.0-8.4-0.4-0.154","1233","","f","","","","","","","","","","","","","key","f","16.650105263159045","960","536","j","false","img/S_ambi40.png","生人","prac",""
"","","","","","html-keyboard-response","392","1078008","0.0-8.4-0.4-1.154","null","<span style='color:red; font-size: 70px;'>错误! </span>","null","","","","","","","","","","","","","","","","","","","","","","","feedback_test"
"","","","","","psychophysics","393","1079754","0.0-8.4-0.4-0.155","736","","j","","","","","","","","","","","","","key","j","16.64938461538315","960","536","f","false","img/C_ambi40.png","生人","prac",""
"","","","","","html-keyboard-response","394","1080263","0.0-8.4-0.4-1.155","null","<span style='color:red; font-size: 70px;'>错误! </span>","null","","","","","","","","","","","","","","","","","","","","","","","feedback_test"
"","","","","","psychophysics","395","1081963","0.0-8.4-0.4-0.156","697","","j","","","","","","","","","","","","","key","j","16.650900990098236","960","536","j","true","img/T_ambi40.png","をる","prac",""
"","","","","","html-keyboard-response","396","1082477","0.0-8.4-0.4-1.156","null","<span style='color:GreenYellow; font-size: 70px;'>正确! </span>","null","","","","","","","","","","","","","","","","","","","","","","","feedback_test"
"","","","","","psychophysics","397","1084134","0.0-8.4-0.4-0.157","654","","j","","","","","","","","","","","","","key","j","16.651282828282376","960","536","j","true","img/T_ambi40.png","をる","prac",""
"","","","","","html-keyboard-response","398","1084649","0.0-8.4-0.4-1.157","null","<span style='color:GreenYellow; font-size: 70px;'>正确! </span>","null","","","","","","","","","","","","","","","","","","","","","","","feedback_test"
"","","","","","psychophysics","399","1086380","0.0-8.4-0.4-0.158","705","","j","","","","","","","","","","","","","key","j","16.651485436892102","960","536","j","true","img/C_ambi40.png","自我","prac",""
"","","","","","html-keyboard-response","400","1086886","0.0-8.4-0.4-1.158","null","<span style='color:GreenYellow; font-size: 70px;'>正确! </span>","null","","","","","","","","","","","","","","","","","","","","","","","feedback_test"
"","","","","","psychophysics","401","1088767","0.0-8.4-0.4-0.159","874","","f","","","","","","","","","","","","","key","f","16.652160714284815","960","536","f","true","img/S_ambi40.png","朋友","prac",""
"","","","","","html-keyboard-response","402","1089279","0.0-8.4-0.4-1.159","null","<span style='color:GreenYellow; font-size: 70px;'>正确! </span>","null","","","","","","","","","","","","","","","","","","","","","","","feedback_test"
"","","","","","html-keyboard-response","403","1106002","0.0-9.0","16719","<style>.context{color:white; font-size: 35px; line-height:40px}</style>                          <div><p class='context'>您正确回答了81% 的试次。</p ><p class='context'>您的平均反应时为1059毫秒。</p ><p class='context'>恭喜您完成练习。按任意键进入正式实验。</p ><p class='footer' style='font-size: 35px; line-height:40px;'>请在进入正式实验实验之前将您的<span style='color: lightgreen;'>食指</span>放在电脑键盘的相应键位上进行按键。</p >","j","","","","","","","","","","","","","","","","","","","","","","",""
"","","","","","psychophysics","404","1108525","0.0-10.0-0.0-0.0-0.0-0.0","null","","null","","","","","","","","","","","","","key","null","16.64486666666654","960","536","j","false","img/S_ambi40.png","生人","same",""
"","","","","","html-keyboard-response","405","1109035","0.0-10.0-0.0-0.0-0.0-1.0","null","<span class='add_' style='color:yellow; font-size: 70px;'> 太慢! </span>","null","","","","","","","","","","","","","","","","","","","","","","","feedback_test"
"","","","","","psychophysics","406","1110926","0.0-10.0-0.0-0.0-0.0-0.1","886","","f","","","","","","","","","","","","","key","f","16.65146017699107","960","536","j","false","img/C_ambi40.png","自我","same",""
"","","","","","html-keyboard-response","407","1111435","0.0-10.0-0.0-0.0-0.0-1.1","null","<span style='color:red; font-size: 70px;'>错误! </span>","null","","","","","","","","","","","","","","","","","","","","","","","feedback_test"
"","","","","","psychophysics","408","1113268","0.0-10.0-0.0-0.0-0.0-0.2","831","","j","","","","","","","","","","","","","key","j","16.65332110091796","960","536","j","true","img/C_ambi40.png","自我","same",""
"","","","","","html-keyboard-response","409","1113778","0.0-10.0-0.0-0.0-0.0-1.2","null","<span style='color:GreenYellow; font-size: 70px;'>正确! </span>","null","","","","","","","","","","","","","","","","","","","","","","","feedback_test"
"","","","","","psychophysics","410","1115564","0.0-10.0-0.0-0.0-0.0-0.3","780","","f","","","","","","","","","","","","","key","f","16.651575471698482","960","536","f","true","img/S_ambi40.png","朋友","same",""
"","","","","","html-keyboard-response","411","1116101","0.0-10.0-0.0-0.0-0.0-1.3","null","<span style='color:GreenYellow; font-size: 70px;'>正确! </span>","null","","","","","","","","","","","","","","","","","","","","","","","feedback_test"
"","","","","","psychophysics","412","1117857","0.0-10.0-0.0-0.0-0.0-0.4","741","","f","","","","","","","","","","","","","key","f","16.648711538461683","960","536","f","true","img/C_ambi40.png","生人","same",""
"","","","","","html-keyboard-response","413","1118366","0.0-10.0-0.0-0.0-0.0-1.4","null","<span style='color:GreenYellow; font-size: 70px;'>正确! </span>","null","","","","","","","","","","","","","","","","","","","","","","","feedback_test"
"","","","","","psychophysics","414","1120384","0.0-10.0-0.0-0.0-0.0-0.5","1004","","f","","","","","","","","","","","","","key","f","16.65148333333394","960","536","f","true","img/H_ambi40.png","自我","same",""
"","","","","","html-keyboard-response","415","1120893","0.0-10.0-0.0-0.0-0.0-1.5","null","<span style='color:GreenYellow; font-size: 70px;'>正确! </span>","null","","","","","","","","","","","","","","","","","","","","","","","feedback_test"
"","","","","","psychophysics","416","1122769","0.0-10.0-0.0-0.0-0.0-0.6","874","","j","","","","","","","","","","","","","key","j","16.648553571428888","960","536","f","false","img/S_ambi40.png","朋友","same",""
"","","","","","html-keyboard-response","417","1123276","0.0-10.0-0.0-0.0-0.0-1.6","null","<span style='color:red; font-size: 70px;'>错误! </span>","null","","","","","","","","","","","","","","","","","","","","","","","feedback_test"
"","","","","","psychophysics","418","1124861","0.0-10.0-0.0-0.0-0.0-0.7","581","","j","","","","","","","","","","","","","key","j","16.650542553192242","960","536","j","true","img/T_ambi40.png","をる","same",""
"","","","","","html-keyboard-response","419","1125373","0.0-10.0-0.0-0.0-0.0-1.7","null","<span style='color:GreenYellow; font-size: 70px;'>正确! </span>","null","","","","","","","","","","","","","","","","","","","","","","","feedback_test"
"","","","","","psychophysics","420","1127065","0.0-10.0-0.0-0.0-0.0-0.8","690","","f","","","","","","","","","","","","","key","f","16.52215000000084","960","536","f","true","img/H_ambi40.png","自我","same",""
"","","","","","html-keyboard-response","421","1127577","0.0-10.0-0.0-0.0-0.0-1.8","null","<span style='color:GreenYellow; font-size: 70px;'>正确! </span>","null","","","","","","","","","","","","","","","","","","","","","","","feedback_test"
"","","","","","psychophysics","422","1129861","0.0-10.0-0.0-0.0-0.0-0.9","1256","","j","","","","","","","","","","","","","key","j","16.650985294117536","960","536","j","true","img/S_ambi40.png","生人","same",""
"","","","","","html-keyboard-response","423","1130369","0.0-10.0-0.0-0.0-0.0-1.9","null","<span style='color:GreenYellow; font-size: 70px;'>正确! </span>","null","","","","","","","","","","","","","","","","","","","","","","","feedback_test"
"","","","","","psychophysics","424","1132605","0.0-10.0-0.0-0.0-0.0-0.10","1231","","j","","","","","","","","","","","","","key","j","16.547052631580055","960","536","f","false","img/S_ambi40.png","自我","same",""
"","","","","","html-keyboard-response","425","1133120","0.0-10.0-0.0-0.0-0.0-1.10","null","<span style='color:red; font-size: 70px;'>错误! </span>","null","","","","","","","","","","","","","","","","","","","","","","","feedback_test"
"","","","","","psychophysics","426","1135435","0.0-10.0-0.0-0.0-0.0-0.11","1307","","f","","","","","","","","","","","","","key","f","16.651934782608304","960","536","f","true","img/C_ambi40.png","朋友","same",""
"","","","","","html-keyboard-response","427","1135942","0.0-10.0-0.0-0.0-0.0-1.11","null","<span style='color:GreenYellow; font-size: 70px;'>正确! </span>","null","","","","","","","","","","","","","","","","","","","","","","","feedback_test"
"","","","","","psychophysics","428","1137995","0.0-10.0-0.0-0.0-0.0-0.12","1048","","j","","","","","","","","","","","","","key","j","16.6516065573774","960","536","j","true","img/H_ambi40.png","朋友","same",""
"","","","","","html-keyboard-response","429","1138500","0.0-10.0-0.0-0.0-0.0-1.12","null","<span style='color:GreenYellow; font-size: 70px;'>正确! </span>","null","","","","","","","","","","","","","","","","","","","","","","","feedback_test"
"","","","","","psychophysics","430","1140089","0.0-10.0-0.0-0.0-0.0-0.13","581","","j","","","","","","","","","","","","","key","j","16.652531914893498","960","536","j","true","img/T_ambi40.png","をる","same",""
"","","","","","html-keyboard-response","431","1140609","0.0-10.0-0.0-0.0-0.0-1.13","null","<span style='color:GreenYellow; font-size: 70px;'>正确! </span>","null","","","","","","","","","","","","","","","","","","","","","","","feedback_test"
"","","","","","psychophysics","432","1142485","0.0-10.0-0.0-0.0-0.0-0.14","859","","j","","","","","","","","","","","","","key","j","16.634580357143673","960","536","f","false","img/C_ambi40.png","生人","same",""
"","","","","","html-keyboard-response","433","1142996","0.0-10.0-0.0-0.0-0.0-1.14","null","<span style='color:red; font-size: 70px;'>错误! </span>","null","","","","","","","","","","","","","","","","","","","","","","","feedback_test"
"","","","","","psychophysics","434","1144780","0.0-10.0-0.0-0.0-0.0-0.15","778","","j","","","","","","","","","","","","","key","j","16.650283018869505","960","536","j","true","img/T_ambi40.png","をる","same",""
"","","","","","html-keyboard-response","435","1145283","0.0-10.0-0.0-0.0-0.0-1.15","null","<span style='color:GreenYellow; font-size: 70px;'>正确! </span>","null","","","","","","","","","","","","","","","","","","","","","","","feedback_test"
"","","","","","psychophysics","436","1147375","0.0-10.0-0.0-0.0-0.0-0.16","1086","","f","","","","","","","","","","","","","key","f","16.651775999998673","960","536","j","false","img/H_ambi40.png","朋友","same",""
"","","","","","html-keyboard-response","437","1147906","0.0-10.0-0.0-0.0-0.0-1.16","null","<span style='color:red; font-size: 70px;'>错误! </span>","null","","","","","","","","","","","","","","","","","","","","","","","feedback_test"
"","","","","","psychophysics","438","1149614","0.0-10.0-0.0-0.0-0.0-0.17","695","","f","","","","","","","","","","","","","key","f","16.651029702969872","960","536","f","true","img/H_ambi40.png","生人","same",""
"","","","","","html-keyboard-response","439","1150118","0.0-10.0-0.0-0.0-0.0-1.17","null","<span style='color:GreenYellow; font-size: 70px;'>正确! </span>","null","","","","","","","","","","","","","","","","","","","","","","","feedback_test"
"","","","","","psychophysics","440","1152104","0.0-10.0-0.0-0.0-0.0-0.18","977","","f","","","","","","","","","","","","","key","f","16.651059322033504","960","536","f","true","img/C_ambi40.png","朋友","same",""
"","","","","","html-keyboard-response","441","1152609","0.0-10.0-0.0-0.0-0.0-1.18","null","<span style='color:GreenYellow; font-size: 70px;'>正确! </span>","null","","","","","","","","","","","","","","","","","","","","","","","feedback_test"
"","","","","","psychophysics","442","1154228","0.0-10.0-0.0-0.0-0.0-0.19","613","","f","","","","","","","","","","","","","key","f","16.651114583333158","960","536","j","false","img/H_ambi40.png","朋友","same",""
"","","","","","html-keyboard-response","443","1154746","0.0-10.0-0.0-0.0-0.0-1.19","null","<span style='color:red; font-size: 70px;'>错误! </span>","null","","","","","","","","","","","","","","","","","","","","","","","feedback_test"
"","","","","","psychophysics","444","1156856","0.0-10.0-0.0-0.0-0.0-0.20","1093","","j","","","","","","","","","","","","","key","j","16.54072000000067","960","536","j","true","img/S_ambi40.png","生人","same",""
"","","","","","html-keyboard-response","445","1157367","0.0-10.0-0.0-0.0-0.0-1.20","null","<span style='color:GreenYellow; font-size: 70px;'>正确! </span>","null","","","","","","","","","","","","","","","","","","","","","","","feedback_test"
"","","","","","psychophysics","446","1158959","0.0-10.0-0.0-0.0-0.0-0.21","584","","j","","","","","","","","","","","","","key","j","16.65097872340467","960","536","j","true","img/T_ambi40.png","をる","same",""
"","","","","","html-keyboard-response","447","1159470","0.0-10.0-0.0-0.0-0.0-1.21","null","<span style='color:GreenYellow; font-size: 70px;'>正确! </span>","null","","","","","","","","","","","","","","","","","","","","","","","feedback_test"
"","","","","","psychophysics","448","1161265","0.0-10.0-0.0-0.0-0.0-0.22","790","","f","","","","","","","","","","","","","key","f","16.651467289719033","960","536","f","true","img/S_ambi40.png","朋友","same",""
"","","","","","html-keyboard-response","449","1161780","0.0-10.0-0.0-0.0-0.0-1.22","null","<span style='color:GreenYellow; font-size: 70px;'>正确! </span>","null","","","","","","","","","","","","","","","","","","","","","","","feedback_test"
"","","","","","psychophysics","450","1163862","0.0-10.0-0.0-0.0-0.0-0.23","1055","","f","","","","","","","","","","","","","key","f","16.651233870967953","960","536","f","true","img/S_ambi40.png","朋友","same",""
"","","","","","html-keyboard-response","451","1164366","0.0-10.0-0.0-0.0-0.0-1.23","null","<span style='color:GreenYellow; font-size: 70px;'>正确! </span>","null","","","","","","","","","","","","","","","","","","","","","","","feedback_test"
"","","","","","psychophysics","452","1166082","0.0-10.0-0.0-0.0-0.0-0.24","712","","j","","","","","","","","","","","","","key","j","16.651715686275423","960","536","j","true","img/C_ambi40.png","自我","same",""
