"success","timeout","failed_images","failed_audio","failed_video","trial_type","trial_index","time_elapsed","internal_node_id","rt","stimulus","response","value","item_width_mm","item_height_mm","item_width_px","px2mm","view_dist_mm","item_width_deg","px2deg","scale_factor","win_width_deg","win_height_deg","view_history","response_type","key_press","avg_frame_time","center_x","center_y","correct_response","correct","Image","word","condition","screen_id"
"true","false","[]","[]","[]","preload","0","29295","0.0-0.0","","","","","","","","","","","","","","","","","","","","","","","","","",""
"","","","","","html-keyboard-response","1","92248","0.0-1.0","62953","
     <p>您好，欢迎参加本次实验。</p>
     <p>为充分保障您的权利，请确保您已经知晓并同意《参与实验同意书》以及《数据公开知情同意书》。</p>
     <p>如果您未见过上述内容，请咨询实验员。</p>
     <p>如果您选择继续实验，则表示您已经清楚两份知情同意书的内容并同意。</p>
     <p> <div style = ""color: green""><按任意键至下页></div> </p>
     "," ","","","","","","","","","","","","","","","","","","","","","","",""
"","","","","","html-keyboard-response","2","93871","0.0-2.0","1622","
     <p>本实验首先需要您填写一些基本个人信息。</p>
     <p> <div style = ""color: green""><按任意键至下页></div></p>
     "," ","","","","","","","","","","","","","","","","","","","","","","",""
"","","","","","call-function","3","93872","0.0-3.0-0.0","","","","","","","","","","","","","","","","","","","","","","","","","",""
"","","","","","survey-html-form","4","99739","0.0-3.0-1.0","5865","","{""Q0"":""15""}","","","","","","","","","","","","","","","","","","","","","","",""
"","","","","","html-button-response","5","100952","0.0-3.0-2.0","1211","<p style = 'color : white'>您的性别</p>","1","","","","","","","","","","","","","","","","","","","","","","",""
"","","","","","survey-html-form","6","106295","0.0-3.0-3.0","5342","","{""Q0"":""2004""}","","","","","","","","","","","","","","","","","","","","","","",""
"","","","","","survey-html-form","7","115003","0.0-3.0-4.0","8708","","{""Q0"":""5""}","","","","","","","","","","","","","","","","","","","","","","",""
"","","","","","virtual-chinrest","8","351012","0.0-4.0","236007","","","","85.6","53.98","491.54846006722244","5.746270730363305","497.66","9.830969201344448","50","0.8666490379030823","28.74","16.3","","","","","","","","","","","",""
"true","","","","","fullscreen","9","355229","0.0-5.0","","","","","","","","","","","","","","","","","","","","","","","","","",""
"","","","","","instructions","10","427204","0.0-6.0","71974","","","","","","","","","","","","","","[{""page_index"":0,""viewing_time"":6506},{""page_index"":1,""viewing_time"":33622},{""page_index"":2,""viewing_time"":11370},{""page_index"":3,""viewing_time"":5123},{""page_index"":2,""viewing_time"":480},{""page_index"":1,""viewing_time"":12585},{""page_index"":2,""viewing_time"":1057},{""page_index"":3,""viewing_time"":1230}]","","","","","","","","","","",""
"","","","","","psychophysics","11","429718","0.0-7.0-0.0","null","","null","","","","","","","","","","","","","key","null","16.666080000000076","747","463","j","false","img/S_ambi40.png","生人","prac",""
"","","","","","html-keyboard-response","12","430220","0.0-7.0-1.0","null","<span class='add_' style='color:yellow; font-size: 70px;'> 太慢! </span>","null","","","","","","","","","","","","","","","","","","","","","","","feedback_test"
"","","","","","psychophysics","13","431611","0.0-7.0-0.1","389","","f","","","","","","","","","","","","","key","f","16.66537804878104","747","463","f","true","img/C_ambi40.png","自我","prac",""
"","","","","","html-keyboard-response","14","432112","0.0-7.0-1.1","null","<span style='color:GreenYellow; font-size: 70px;'>正确! </span>","null","","","","","","","","","","","","","","","","","","","","","","","feedback_test"
"","","","","","psychophysics","15","434616","0.0-7.0-0.2","null","","null","","","","","","","","","","","","","key","null","16.666993333333327","747","463","f","false","img/S_ambi40.png","自我","prac",""
"","","","","","html-keyboard-response","16","435117","0.0-7.0-1.2","null","<span class='add_' style='color:yellow; font-size: 70px;'> 太慢! </span>","null","","","","","","","","","","","","","","","","","","","","","","","feedback_test"
"","","","","","psychophysics","17","436402","0.0-7.0-0.3","284","","j","","","","","","","","","","","","","key","j","16.667710526315588","747","463","f","false","img/S_ambi40.png","朋友","prac",""
"","","","","","html-keyboard-response","18","436903","0.0-7.0-1.3","null","<span style='color:red; font-size: 70px;'>错误! </span>","null","","","","","","","","","","","","","","","","","","","","","","","feedback_test"
"","","","","","psychophysics","19","439407","0.0-7.0-0.4","null","","null","","","","","","","","","","","","","key","null","16.664953020134483","747","463","f","false","img/H_ambi40.png","朋友","prac",""
"","","","","","html-keyboard-response","20","439908","0.0-7.0-1.4","null","<span class='add_' style='color:yellow; font-size: 70px;'> 太慢! </span>","null","","","","","","","","","","","","","","","","","","","","","","","feedback_test"
"","","","","","psychophysics","21","441196","0.0-7.0-0.5","286","","f","","","","","","","","","","","","","key","f","16.66481578947385","747","463","j","false","img/H_ambi40.png","自我","prac",""
"","","","","","html-keyboard-response","22","441697","0.0-7.0-1.5","null","<span style='color:red; font-size: 70px;'>错误! </span>","null","","","","","","","","","","","","","","","","","","","","","","","feedback_test"
"","","","","","psychophysics","23","444201","0.0-7.0-0.6","null","","null","","","","","","","","","","","","","key","null","16.665483221476553","747","463","j","false","img/C_ambi40.png","朋友","prac",""
"","","","","","html-keyboard-response","24","444704","0.0-7.0-1.6","null","<span class='add_' style='color:yellow; font-size: 70px;'> 太慢! </span>","null","","","","","","","","","","","","","","","","","","","","","","","feedback_test"
"","","","","","psychophysics","25","446546","0.0-7.0-0.7","841","","j","","","","","","","","","","","","","key","j","16.66583486238533","747","463","j","true","img/T_ambi40.png","をる","prac",""
"","","","","","html-keyboard-response","26","447047","0.0-7.0-1.7","null","<span style='color:GreenYellow; font-size: 70px;'>正确! </span>","null","","","","","","","","","","","","","","","","","","","","","","","feedback_test"
"","","","","","psychophysics","27","448471","0.0-7.0-0.8","423","","f","","","","","","","","","","","","","key","f","16.668476190476213","747","463","j","false","img/S_ambi40.png","生人","prac",""
"","","","","","html-keyboard-response","28","448972","0.0-7.0-1.8","null","<span style='color:red; font-size: 70px;'>错误! </span>","null","","","","","","","","","","","","","","","","","","","","","","","feedback_test"
"","","","","","psychophysics","29","450617","0.0-7.0-0.9","644","","j","","","","","","","","","","","","","key","j","16.66445918367375","747","463","j","true","img/H_ambi40.png","自我","prac",""
"","","","","","html-keyboard-response","30","451118","0.0-7.0-1.9","null","<span style='color:GreenYellow; font-size: 70px;'>正确! </span>","null","","","","","","","","","","","","","","","","","","","","","","","feedback_test"
"","","","","","psychophysics","31","452562","0.0-7.0-0.10","442","","f","","","","","","","","","","","","","key","f","16.667364705883323","747","463","j","false","img/C_ambi40.png","朋友","prac",""
"","","","","","html-keyboard-response","32","453064","0.0-7.0-1.10","null","<span style='color:red; font-size: 70px;'>错误! </span>","null","","","","","","","","","","","","","","","","","","","","","","","feedback_test"
"","","","","","psychophysics","33","455565","0.0-7.0-0.11","null","","null","","","","","","","","","","","","","key","null","16.665657718120542","747","463","f","false","img/H_ambi40.png","生人","prac",""
"","","","","","html-keyboard-response","34","456066","0.0-7.0-1.11","null","<span class='add_' style='color:yellow; font-size: 70px;'> 太慢! </span>","null","","","","","","","","","","","","","","","","","","","","","","","feedback_test"
"","","","","","psychophysics","35","457950","0.0-7.0-0.12","883","","j","","","","","","","","","","","","","key","j","16.666151785713737","747","463","j","true","img/T_ambi40.png","をる","prac",""
"","","","","","html-keyboard-response","36","458451","0.0-7.0-1.12","null","<span style='color:GreenYellow; font-size: 70px;'>正确! </span>","null","","","","","","","","","","","","","","","","","","","","","","","feedback_test"
"","","","","","psychophysics","37","459826","0.0-7.0-0.13","373","","j","","","","","","","","","","","","","key","j","16.666370370370668","747","463","j","true","img/T_ambi40.png","をる","prac",""
"","","","","","html-keyboard-response","38","460328","0.0-7.0-1.13","null","<span style='color:GreenYellow; font-size: 70px;'>正确! </span>","null","","","","","","","","","","","","","","","","","","","","","","","feedback_test"
"","","","","","psychophysics","39","461726","0.0-7.0-0.14","396","","j","","","","","","","","","","","","","key","j","16.667903614457675","747","463","f","false","img/C_ambi40.png","生人","prac",""
"","","","","","html-keyboard-response","40","462227","0.0-7.0-1.14","null","<span style='color:red; font-size: 70px;'>错误! </span>","null","","","","","","","","","","","","","","","","","","","","","","","feedback_test"
"","","","","","psychophysics","41","463849","0.0-7.0-0.15","621","","j","","","","","","","","","","","","","key","j","16.66599999999954","747","463","j","true","img/T_ambi40.png","をる","prac",""
"","","","","","html-keyboard-response","42","464350","0.0-7.0-1.15","null","<span style='color:GreenYellow; font-size: 70px;'>正确! </span>","null","","","","","","","","","","","","","","","","","","","","","","","feedback_test"
"","","","","","psychophysics","43","465736","0.0-7.0-0.16","385","","f","","","","","","","","","","","","","key","f","16.664939024390527","747","463","f","true","img/S_ambi40.png","朋友","prac",""
"","","","","","html-keyboard-response","44","466237","0.0-7.0-1.16","null","<span style='color:GreenYellow; font-size: 70px;'>正确! </span>","null","","","","","","","","","","","","","","","","","","","","","","","feedback_test"
"","","","","","psychophysics","45","467906","0.0-7.0-0.17","667","","f","","","","","","","","","","","","","key","f","16.66734343434383","747","463","j","false","img/H_ambi40.png","自我","prac",""
"","","","","","html-keyboard-response","46","468407","0.0-7.0-1.17","null","<span style='color:red; font-size: 70px;'>错误! </span>","null","","","","","","","","","","","","","","","","","","","","","","","feedback_test"
"","","","","","psychophysics","47","469969","0.0-7.0-0.18","561","","j","","","","","","","","","","","","","key","j","16.66633333333252","747","463","f","false","img/H_ambi40.png","朋友","prac",""
"","","","","","html-keyboard-response","48","470470","0.0-7.0-1.18","null","<span style='color:red; font-size: 70px;'>错误! </span>","null","","","","","","","","","","","","","","","","","","","","","","","feedback_test"
"","","","","","psychophysics","49","471801","0.0-7.0-0.19","330","","f","","","","","","","","","","","","","key","f","16.671518987342363","747","463","f","true","img/C_ambi40.png","自我","prac",""
"","","","","","html-keyboard-response","50","472302","0.0-7.0-1.19","null","<span style='color:GreenYellow; font-size: 70px;'>正确! </span>","null","","","","","","","","","","","","","","","","","","","","","","","feedback_test"
"","","","","","psychophysics","51","473876","0.0-7.0-0.20","574","","f","","","","","","","","","","","","","key","f","16.665043010751926","747","463","j","false","img/C_ambi40.png","朋友","prac",""
"","","","","","html-keyboard-response","52","474377","0.0-7.0-1.20","null","<span style='color:red; font-size: 70px;'>错误! </span>","null","","","","","","","","","","","","","","","","","","","","","","","feedback_test"
"","","","","","psychophysics","53","476309","0.0-7.0-0.21","931","","j","","","","","","","","","","","","","key","j","16.667608695652376","747","463","f","false","img/C_ambi40.png","生人","prac",""
"","","","","","html-keyboard-response","54","476810","0.0-7.0-1.21","null","<span style='color:red; font-size: 70px;'>错误! </span>","null","","","","","","","","","","","","","","","","","","","","","","","feedback_test"
"","","","","","psychophysics","55","478386","0.0-7.0-0.22","574","","j","","","","","","","","","","","","","key","j","16.666180851064286","747","463","j","true","img/T_ambi40.png","をる","prac",""
"","","","","","html-keyboard-response","56","478887","0.0-7.0-1.22","null","<span style='color:GreenYellow; font-size: 70px;'>正确! </span>","null","","","","","","","","","","","","","","","","","","","","","","","feedback_test"
"","","","","","psychophysics","57","480322","0.0-7.0-0.23","435","","j","","","","","","","","","","","","","key","j","16.665776470588412","747","463","j","true","img/T_ambi40.png","をる","prac",""
"","","","","","html-keyboard-response","58","480823","0.0-7.0-1.23","null","<span style='color:GreenYellow; font-size: 70px;'>正确! </span>","null","","","","","","","","","","","","","","","","","","","","","","","feedback_test"
"","","","","","psychophysics","59","482645","0.0-7.0-0.24","820","","f","","","","","","","","","","","","","key","f","16.66430555555551","747","463","j","false","img/C_ambi40.png","朋友","prac",""
"","","","","","html-keyboard-response","60","483147","0.0-7.0-1.24","null","<span style='color:red; font-size: 70px;'>错误! </span>","null","","","","","","","","","","","","","","","","","","","","","","","feedback_test"
"","","","","","psychophysics","61","484781","0.0-7.0-0.25","633","","j","","","","","","","","","","","","","key","j","16.663793814432154","747","463","f","false","img/S_ambi40.png","自我","prac",""
"","","","","","html-keyboard-response","62","485283","0.0-7.0-1.25","null","<span style='color:red; font-size: 70px;'>错误! </span>","null","","","","","","","","","","","","","","","","","","","","","","","feedback_test"
"","","","","","psychophysics","63","487452","0.0-7.0-0.26","1167","","j","","","","","","","","","","","","","key","j","16.66850387596962","747","463","j","true","img/T_ambi40.png","をる","prac",""
"","","","","","html-keyboard-response","64","487952","0.0-7.0-1.26","null","<span style='color:GreenYellow; font-size: 70px;'>正确! </span>","null","","","","","","","","","","","","","","","","","","","","","","","feedback_test"
"","","","","","psychophysics","65","489627","0.0-7.0-0.27","673","","j","","","","","","","","","","","","","key","j","16.665525252526304","747","463","j","true","img/H_ambi40.png","自我","prac",""
"","","","","","html-keyboard-response","66","490128","0.0-7.0-1.27","null","<span style='color:GreenYellow; font-size: 70px;'>正确! </span>","null","","","","","","","","","","","","","","","","","","","","","","","feedback_test"
"","","","","","psychophysics","67","492208","0.0-7.0-0.28","1079","","j","","","","","","","","","","","","","key","j","16.666691056909833","747","463","j","true","img/S_ambi40.png","生人","prac",""
"","","","","","html-keyboard-response","68","492708","0.0-7.0-1.28","null","<span style='color:GreenYellow; font-size: 70px;'>正确! </span>","null","","","","","","","","","","","","","","","","","","","","","","","feedback_test"
"","","","","","psychophysics","69","494106","0.0-7.0-0.29","395","","j","","","","","","","","","","","","","key","j","16.66540963855342","747","463","j","true","img/T_ambi40.png","をる","prac",""
"","","","","","html-keyboard-response","70","494607","0.0-7.0-1.29","null","<span style='color:GreenYellow; font-size: 70px;'>正确! </span>","null","","","","","","","","","","","","","","","","","","","","","","","feedback_test"
"","","","","","psychophysics","71","496558","0.0-7.0-0.30","950","","f","","","","","","","","","","","","","key","f","16.66772413793108","747","463","f","true","img/H_ambi40.png","生人","prac",""
"","","","","","html-keyboard-response","72","497059","0.0-7.0-1.30","null","<span style='color:GreenYellow; font-size: 70px;'>正确! </span>","null","","","","","","","","","","","","","","","","","","","","","","","feedback_test"
"","","","","","psychophysics","73","499197","0.0-7.0-0.31","1136","","f","","","","","","","","","","","","","key","f","16.666304687500087","747","463","j","false","img/S_ambi40.png","生人","prac",""
"","","","","","html-keyboard-response","74","499698","0.0-7.0-1.31","null","<span style='color:red; font-size: 70px;'>错误! </span>","null","","","","","","","","","","","","","","","","","","","","","","","feedback_test"
"","","","","","psychophysics","75","501265","0.0-8.0-0.0-0.0","565","","j","","","","","","","","","","","","","key","j","16.6659569892474","747","463","j","true","img/H_ambi40.png","自我","prac",""
"","","","","","html-keyboard-response","76","501766","0.0-8.0-0.0-1.0","null","<span style='color:GreenYellow; font-size: 70px;'>正确! </span>","null","","","","","","","","","","","","","","","","","","","","","","","feedback_test"
"","","","","","psychophysics","77","503487","0.0-8.0-0.0-0.1","719","","f","","","","","","","","","","","","","key","f","16.665901960784513","747","463","f","true","img/C_ambi40.png","生人","prac",""
"","","","","","html-keyboard-response","78","503988","0.0-8.0-0.0-1.1","null","<span style='color:GreenYellow; font-size: 70px;'>正确! </span>","null","","","","","","","","","","","","","","","","","","","","","","","feedback_test"
"","","","","","psychophysics","79","505577","0.0-8.0-0.0-0.2","588","","f","","","","","","","","","","","","","key","f","16.665574468085246","747","463","j","false","img/C_ambi40.png","朋友","prac",""
"","","","","","html-keyboard-response","80","506079","0.0-8.0-0.0-1.2","null","<span style='color:red; font-size: 70px;'>错误! </span>","null","","","","","","","","","","","","","","","","","","","","","","","feedback_test"
"","","","","","psychophysics","81","507643","0.0-8.0-0.0-0.3","563","","j","","","","","","","","","","","","","key","j","16.66746236559164","747","463","f","false","img/H_ambi40.png","生人","prac",""
"","","","","","html-keyboard-response","82","508144","0.0-8.0-0.0-1.3","null","<span style='color:red; font-size: 70px;'>错误! </span>","null","","","","","","","","","","","","","","","","","","","","","","","feedback_test"
"","","","","","psychophysics","83","510290","0.0-8.0-0.0-0.4","1145","","j","","","","","","","","","","","","","key","j","16.612173228346794","747","463","f","false","img/H_ambi40.png","朋友","prac",""
"","","","","","html-keyboard-response","84","510791","0.0-8.0-0.0-1.4","null","<span style='color:red; font-size: 70px;'>错误! </span>","null","","","","","","","","","","","","","","","","","","","","","","","feedback_test"
"","","","","","psychophysics","85","512416","0.0-8.0-0.0-0.5","623","","j","","","","","","","","","","","","","key","j","16.66801030927856","747","463","f","false","img/C_ambi40.png","自我","prac",""
"","","","","","html-keyboard-response","86","512917","0.0-8.0-0.0-1.5","null","<span style='color:red; font-size: 70px;'>错误! </span>","null","","","","","","","","","","","","","","","","","","","","","","","feedback_test"
"","","","","","psychophysics","87","514522","0.0-8.0-0.0-0.6","603","","j","","","","","","","","","","","","","key","j","16.66375789473593","747","463","j","true","img/T_ambi40.png","をる","prac",""
"","","","","","html-keyboard-response","88","515023","0.0-8.0-0.0-1.6","null","<span style='color:GreenYellow; font-size: 70px;'>正确! </span>","null","","","","","","","","","","","","","","","","","","","","","","","feedback_test"
"","","","","","psychophysics","89","517005","0.0-8.0-0.0-0.7","981","","f","","","","","","","","","","","","","key","f","16.66471186440667","747","463","f","true","img/S_ambi40.png","自我","prac",""
"","","","","","html-keyboard-response","90","517506","0.0-8.0-0.0-1.7","null","<span style='color:GreenYellow; font-size: 70px;'>正确! </span>","null","","","","","","","","","","","","","","","","","","","","","","","feedback_test"
"","","","","","psychophysics","91","519149","0.0-8.0-0.0-0.8","642","","j","","","","","","","","","","","","","key","j","16.663928571428002","747","463","j","true","img/T_ambi40.png","をる","prac",""
"","","","","","html-keyboard-response","92","519650","0.0-8.0-0.0-1.8","null","<span style='color:GreenYellow; font-size: 70px;'>正确! </span>","null","","","","","","","","","","","","","","","","","","","","","","","feedback_test"
"","","","","","psychophysics","93","521399","0.0-8.0-0.0-0.9","747","","f","","","","","","","","","","","","","key","f","16.66330769230822","747","463","j","false","img/S_ambi40.png","生人","prac",""
"","","","","","html-keyboard-response","94","521901","0.0-8.0-0.0-1.9","null","<span style='color:red; font-size: 70px;'>错误! </span>","null","","","","","","","","","","","","","","","","","","","","","","","feedback_test"
"","","","","","psychophysics","95","523849","0.0-8.0-0.0-0.10","947","","j","","","","","","","","","","","","","key","j","16.665094827586817","747","463","j","true","img/H_ambi40.png","自我","prac",""
"","","","","","html-keyboard-response","96","524349","0.0-8.0-0.0-1.10","null","<span style='color:GreenYellow; font-size: 70px;'>正确! </span>","null","","","","","","","","","","","","","","","","","","","","","","","feedback_test"
"","","","","","psychophysics","97","526245","0.0-8.0-0.0-0.11","894","","f","","","","","","","","","","","","","key","f","16.667464285713713","747","463","f","true","img/S_ambi40.png","朋友","prac",""
"","","","","","html-keyboard-response","98","526746","0.0-8.0-0.0-1.11","null","<span style='color:GreenYellow; font-size: 70px;'>正确! </span>","null","","","","","","","","","","","","","","","","","","","","","","","feedback_test"
"","","","","","psychophysics","99","528733","0.0-8.0-0.0-0.12","987","","j","","","","","","","","","","","","","key","j","16.66607627118602","747","463","j","true","img/C_ambi40.png","朋友","prac",""
"","","","","","html-keyboard-response","100","529235","0.0-8.0-0.0-1.12","null","<span style='color:GreenYellow; font-size: 70px;'>正确! </span>","null","","","","","","","","","","","","","","","","","","","","","","","feedback_test"
"","","","","","psychophysics","101","530822","0.0-8.0-0.0-0.13","586","","j","","","","","","","","","","","","","key","j","16.665563829788105","747","463","j","true","img/T_ambi40.png","をる","prac",""
"","","","","","html-keyboard-response","102","531323","0.0-8.0-0.0-1.13","null","<span style='color:GreenYellow; font-size: 70px;'>正确! </span>","null","","","","","","","","","","","","","","","","","","","","","","","feedback_test"
"","","","","","psychophysics","103","532846","0.0-8.0-0.0-0.14","522","","j","","","","","","","","","","","","","key","j","16.667307692307435","747","463","j","true","img/T_ambi40.png","をる","prac",""
"","","","","","html-keyboard-response","104","533347","0.0-8.0-0.0-1.14","null","<span style='color:GreenYellow; font-size: 70px;'>正确! </span>","null","","","","","","","","","","","","","","","","","","","","","","","feedback_test"
"","","","","","psychophysics","105","534969","0.0-8.0-0.0-0.15","621","","f","","","","","","","","","","","","","key","f","16.66627083333272","747","463","j","false","img/S_ambi40.png","生人","prac",""
"","","","","","html-keyboard-response","106","535474","0.0-8.0-0.0-1.15","null","<span style='color:red; font-size: 70px;'>错误! </span>","null","","","","","","","","","","","","","","","","","","","","","","","feedback_test"
"","","","","","psychophysics","107","537093","0.0-8.0-0.0-0.16","617","","j","","","","","","","","","","","","","key","j","16.667958333332837","747","463","j","true","img/H_ambi40.png","自我","prac",""
"","","","","","html-keyboard-response","108","537594","0.0-8.0-0.0-1.16","null","<span style='color:GreenYellow; font-size: 70px;'>正确! </span>","null","","","","","","","","","","","","","","","","","","","","","","","feedback_test"
"","","","","","psychophysics","109","539064","0.0-8.0-0.0-0.17","469","","f","","","","","","","","","","","","","key","f","16.666540229885744","747","463","j","false","img/C_ambi40.png","朋友","prac",""
"","","","","","html-keyboard-response","110","539565","0.0-8.0-0.0-1.17","null","<span style='color:red; font-size: 70px;'>错误! </span>","null","","","","","","","","","","","","","","","","","","","","","","","feedback_test"
"","","","","","psychophysics","111","541005","0.0-8.0-0.0-0.18","437","","f","","","","","","","","","","","","","key","f","16.664270588236533","747","463","j","false","img/T_ambi40.png","をる","prac",""
"","","","","","html-keyboard-response","112","541512","0.0-8.0-0.0-1.18","null","<span style='color:red; font-size: 70px;'>错误! </span>","null","","","","","","","","","","","","","","","","","","","","","","","feedback_test"
"","","","","","psychophysics","113","542806","0.0-8.0-0.0-0.19","292","","j","","","","","","","","","","","","","key","j","16.666368421053782","747","463","j","true","img/C_ambi40.png","朋友","prac",""
"","","","","","html-keyboard-response","114","543307","0.0-8.0-0.0-1.19","null","<span style='color:GreenYellow; font-size: 70px;'>正确! </span>","null","","","","","","","","","","","","","","","","","","","","","","","feedback_test"
"","","","","","psychophysics","115","545171","0.0-8.0-0.0-0.20","863","","f","","","","","","","","","","","","","key","f","16.66647747747793","747","463","f","true","img/C_ambi40.png","生人","prac",""
"","","","","","html-keyboard-response","116","545671","0.0-8.0-0.0-1.20","null","<span style='color:GreenYellow; font-size: 70px;'>正确! </span>","null","","","","","","","","","","","","","","","","","","","","","","","feedback_test"
"","","","","","psychophysics","117","547316","0.0-8.0-0.0-0.21","644","","j","","","","","","","","","","","","","key","j","16.66565306122505","747","463","f","false","img/C_ambi40.png","自我","prac",""
"","","","","","html-keyboard-response","118","547824","0.0-8.0-0.0-1.21","null","<span style='color:red; font-size: 70px;'>错误! </span>","null","","","","","","","","","","","","","","","","","","","","","","","feedback_test"
"","","","","","psychophysics","119","549648","0.0-8.0-0.0-0.22","822","","f","","","","","","","","","","","","","key","f","16.66622018348639","747","463","f","true","img/H_ambi40.png","朋友","prac",""
"","","","","","html-keyboard-response","120","550149","0.0-8.0-0.0-1.22","null","<span style='color:GreenYellow; font-size: 70px;'>正确! </span>","null","","","","","","","","","","","","","","","","","","","","","","","feedback_test"
"","","","","","psychophysics","121","552098","0.0-8.0-0.0-0.23","948","","f","","","","","","","","","","","","","key","f","16.665344827586647","747","463","f","true","img/S_ambi40.png","自我","prac",""
"","","","","","html-keyboard-response","122","552599","0.0-8.0-0.0-1.23","null","<span style='color:GreenYellow; font-size: 70px;'>正确! </span>","null","","","","","","","","","","","","","","","","","","","","","","","feedback_test"
"","","","","","psychophysics","123","554580","0.0-8.0-0.0-0.24","979","","f","","","","","","","","","","","","","key","f","16.66662711864416","747","463","f","true","img/S_ambi40.png","朋友","prac",""
"","","","","","html-keyboard-response","124","555081","0.0-8.0-0.0-1.24","null","<span style='color:GreenYellow; font-size: 70px;'>正确! </span>","null","","","","","","","","","","","","","","","","","","","","","","","feedback_test"
"","","","","","psychophysics","125","556907","0.0-8.0-0.0-0.25","825","","f","","","","","","","","","","","","","key","f","16.665129629629924","747","463","f","true","img/H_ambi40.png","生人","prac",""
"","","","","","html-keyboard-response","126","557408","0.0-8.0-0.0-1.25","null","<span style='color:GreenYellow; font-size: 70px;'>正确! </span>","null","","","","","","","","","","","","","","","","","","","","","","","feedback_test"
"","","","","","psychophysics","127","559122","0.0-8.0-0.0-0.26","713","","j","","","","","","","","","","","","","key","j","16.66957843137275","747","463","j","true","img/H_ambi40.png","自我","prac",""
"","","","","","html-keyboard-response","128","559623","0.0-8.0-0.0-1.26","null","<span style='color:GreenYellow; font-size: 70px;'>正确! </span>","null","","","","","","","","","","","","","","","","","","","","","","","feedback_test"
"","","","","","psychophysics","129","561668","0.0-8.0-0.0-0.27","1044","","f","","","","","","","","","","","","","key","f","16.665696721311207","747","463","j","false","img/S_ambi40.png","生人","prac",""
"","","","","","html-keyboard-response","130","562169","0.0-8.0-0.0-1.27","null","<span style='color:red; font-size: 70px;'>错误! </span>","null","","","","","","","","","","","","","","","","","","","","","","","feedback_test"
"","","","","","psychophysics","131","563942","0.0-8.0-0.0-0.28","772","","j","","","","","","","","","","","","","key","j","16.66734285714282","747","463","j","true","img/S_ambi40.png","生人","prac",""
"","","","","","html-keyboard-response","132","564444","0.0-8.0-0.0-1.28","null","<span style='color:GreenYellow; font-size: 70px;'>正确! </span>","null","","","","","","","","","","","","","","","","","","","","","","","feedback_test"
"","","","","","psychophysics","133","565983","0.0-8.0-0.0-0.29","538","","j","","","","","","","","","","","","","key","j","16.665901098900555","747","463","j","true","img/T_ambi40.png","をる","prac",""
"","","","","","html-keyboard-response","134","566484","0.0-8.0-0.0-1.29","null","<span style='color:GreenYellow; font-size: 70px;'>正确! </span>","null","","","","","","","","","","","","","","","","","","","","","","","feedback_test"
"","","","","","psychophysics","135","568043","0.0-8.0-0.0-0.30","558","","j","","","","","","","","","","","","","key","j","16.667228260869667","747","463","j","true","img/T_ambi40.png","をる","prac",""
"","","","","","html-keyboard-response","136","568545","0.0-8.0-0.0-1.30","null","<span style='color:GreenYellow; font-size: 70px;'>正确! </span>","null","","","","","","","","","","","","","","","","","","","","","","","feedback_test"
"","","","","","psychophysics","137","570080","0.0-8.0-0.0-0.31","534","","j","","","","","","","","","","","","","key","j","16.66584615384556","747","463","j","true","img/T_ambi40.png","をる","prac",""
"","","","","","html-keyboard-response","138","570582","0.0-8.0-0.0-1.31","null","<span style='color:GreenYellow; font-size: 70px;'>正确! </span>","null","","","","","","","","","","","","","","","","","","","","","","","feedback_test"
"","","","","","html-keyboard-response","139","582270","0.0-8.0-1.0-0.0","11688","<style>.context{color:white; font-size: 35px; line-height:40px}</style>                          <div><p class='context'>您正确回答了69% 的试次。</p ><p class='context'>您的平均反应时为723毫秒。</p >"," ","","","","","","","","","","","","","","","","","","","","","","",""
"","","","","","instructions","140","600147","0.0-8.0-1.0-1.0","17875","","","","","","","","","","","","","","[{""page_index"":0,""viewing_time"":3354},{""page_index"":1,""viewing_time"":13065},{""page_index"":2,""viewing_time"":1456}]","","","","","","","","","","",""
"","","","","","psychophysics","141","602652","0.0-8.1-0.1-0.32","null","","null","","","","","","","","","","","","","key","null","16.66547651006684","747","463","j","false","img/H_ambi40.png","自我","prac",""
"","","","","","html-keyboard-response","142","603153","0.0-8.1-0.1-1.32","null","<span class='add_' style='color:yellow; font-size: 70px;'> 太慢! </span>","null","","","","","","","","","","","","","","","","","","","","","","","feedback_test"
"","","","","","psychophysics","143","605114","0.0-8.1-0.1-0.33","960","","f","","","","","","","","","","","","","key","f","16.666555555555252","747","463","f","true","img/H_ambi40.png","生人","prac",""
"","","","","","html-keyboard-response","144","605616","0.0-8.1-0.1-1.33","null","<span style='color:GreenYellow; font-size: 70px;'>正确! </span>","null","","","","","","","","","","","","","","","","","","","","","","","feedback_test"
"","","","","","psychophysics","145","607147","0.0-8.1-0.1-0.34","530","","j","","","","","","","","","","","","","key","j","16.66664835164748","747","463","j","true","img/T_ambi40.png","をる","prac",""
"","","","","","html-keyboard-response","146","607649","0.0-8.1-0.1-1.34","null","<span style='color:GreenYellow; font-size: 70px;'>正确! </span>","null","","","","","","","","","","","","","","","","","","","","","","","feedback_test"
"","","","","","psychophysics","147","609126","0.0-8.1-0.1-0.35","476","","j","","","","","","","","","","","","","key","j","16.66958620689606","747","463","j","true","img/T_ambi40.png","をる","prac",""
"","","","","","html-keyboard-response","148","609627","0.0-8.1-0.1-1.35","null","<span style='color:GreenYellow; font-size: 70px;'>正确! </span>","null","","","","","","","","","","","","","","","","","","","","","","","feedback_test"
"","","","","","psychophysics","149","611020","0.0-8.1-0.1-0.36","391","","j","","","","","","","","","","","","","key","j","16.66707317073114","747","463","j","true","img/T_ambi40.png","をる","prac",""
"","","","","","html-keyboard-response","150","611521","0.0-8.1-0.1-1.36","null","<span style='color:GreenYellow; font-size: 70px;'>正确! </span>","null","","","","","","","","","","","","","","","","","","","","","","","feedback_test"
"","","","","","psychophysics","151","613113","0.0-8.1-0.1-0.37","591","","f","","","","","","","","","","","","","key","f","16.66572631579015","747","463","j","false","img/C_ambi40.png","朋友","prac",""
"","","","","","html-keyboard-response","152","613615","0.0-8.1-0.1-1.37","null","<span style='color:red; font-size: 70px;'>错误! </span>","null","","","","","","","","","","","","","","","","","","","","","","","feedback_test"
"","","","","","psychophysics","153","615251","0.0-8.1-0.1-0.38","634","","j","","","","","","","","","","","","","key","j","16.660783505153642","747","463","f","false","img/C_ambi40.png","生人","prac",""
"","","","","","html-keyboard-response","154","615753","0.0-8.1-0.1-1.38","null","<span style='color:red; font-size: 70px;'>错误! </span>","null","","","","","","","","","","","","","","","","","","","","","","","feedback_test"
"","","","","","psychophysics","155","617525","0.0-8.1-0.1-0.39","771","","f","","","","","","","","","","","","","key","f","16.664726415094435","747","463","j","false","img/S_ambi40.png","生人","prac",""
"","","","","","html-keyboard-response","156","618026","0.0-8.1-0.1-1.39","null","<span style='color:red; font-size: 70px;'>错误! </span>","null","","","","","","","","","","","","","","","","","","","","","","","feedback_test"
"","","","","","psychophysics","157","619477","0.0-8.1-0.1-0.40","449","","j","","","","","","","","","","","","","key","j","16.664406976743795","747","463","j","true","img/T_ambi40.png","をる","prac",""
"","","","","","html-keyboard-response","158","619979","0.0-8.1-0.1-1.40","null","<span style='color:GreenYellow; font-size: 70px;'>正确! </span>","null","","","","","","","","","","","","","","","","","","","","","","","feedback_test"
"","","","","","psychophysics","159","621260","0.0-8.1-0.1-0.41","280","","j","","","","","","","","","","","","","key","j","16.663894736842177","747","463","j","true","img/S_ambi40.png","生人","prac",""
"","","","","","html-keyboard-response","160","621761","0.0-8.1-0.1-1.41","null","<span style='color:GreenYellow; font-size: 70px;'>正确! </span>","null","","","","","","","","","","","","","","","","","","","","","","","feedback_test"
"","","","","","psychophysics","161","623137","0.0-8.1-0.1-0.42","375","","f","","","","","","","","","","","","","key","f","16.666037037035874","747","463","f","true","img/S_ambi40.png","朋友","prac",""
"","","","","","html-keyboard-response","162","623638","0.0-8.1-0.1-1.42","null","<span style='color:GreenYellow; font-size: 70px;'>正确! </span>","null","","","","","","","","","","","","","","","","","","","","","","","feedback_test"
"","","","","","psychophysics","163","625429","0.0-8.1-0.1-0.43","790","","j","","","","","","","","","","","","","key","j","16.66612149532732","747","463","j","true","img/H_ambi40.png","自我","prac",""
"","","","","","html-keyboard-response","164","625930","0.0-8.1-0.1-1.43","null","<span style='color:GreenYellow; font-size: 70px;'>正确! </span>","null","","","","","","","","","","","","","","","","","","","","","","","feedback_test"
"","","","","","psychophysics","165","627594","0.0-8.1-0.1-0.44","661","","j","","","","","","","","","","","","","key","j","16.665111111111308","747","463","f","false","img/H_ambi40.png","朋友","prac",""
"","","","","","html-keyboard-response","166","628096","0.0-8.1-0.1-1.44","null","<span style='color:red; font-size: 70px;'>错误! </span>","null","","","","","","","","","","","","","","","","","","","","","","","feedback_test"
"","","","","","psychophysics","167","629624","0.0-8.1-0.1-0.45","526","","j","","","","","","","","","","","","","key","j","16.66587777777782","747","463","f","false","img/C_ambi40.png","自我","prac",""
"","","","","","html-keyboard-response","168","630125","0.0-8.1-0.1-1.45","null","<span style='color:red; font-size: 70px;'>错误! </span>","null","","","","","","","","","","","","","","","","","","","","","","","feedback_test"
"","","","","","psychophysics","169","631705","0.0-8.1-0.1-0.46","578","","f","","","","","","","","","","","","","key","f","16.664655913978123","747","463","f","true","img/S_ambi40.png","自我","prac",""
"","","","","","html-keyboard-response","170","632206","0.0-8.1-0.1-1.46","null","<span style='color:GreenYellow; font-size: 70px;'>正确! </span>","null","","","","","","","","","","","","","","","","","","","","","","","feedback_test"
"","","","","","psychophysics","171","633911","0.0-8.1-0.1-0.47","704","","j","","","","","","","","","","","","","key","j","16.666764705882443","747","463","j","true","img/C_ambi40.png","朋友","prac",""
"","","","","","html-keyboard-response","172","634412","0.0-8.1-0.1-1.47","null","<span style='color:GreenYellow; font-size: 70px;'>正确! </span>","null","","","","","","","","","","","","","","","","","","","","","","","feedback_test"
"","","","","","psychophysics","173","636128","0.0-8.1-0.1-0.48","714","","j","","","","","","","","","","","","","key","j","16.66554901960726","747","463","f","false","img/C_ambi40.png","自我","prac",""
"","","","","","html-keyboard-response","174","636630","0.0-8.1-0.1-1.48","null","<span style='color:red; font-size: 70px;'>错误! </span>","null","","","","","","","","","","","","","","","","","","","","","","","feedback_test"
"","","","","","psychophysics","175","638181","0.0-8.1-0.1-0.49","543","","j","","","","","","","","","","","","","key","j","16.66377173913086","747","463","j","true","img/T_ambi40.png","をる","prac",""
"","","","","","html-keyboard-response","176","638682","0.0-8.1-0.1-1.49","null","<span style='color:GreenYellow; font-size: 70px;'>正确! </span>","null","","","","","","","","","","","","","","","","","","","","","","","feedback_test"
"","","","","","psychophysics","177","640443","0.0-8.1-0.1-0.50","760","","j","","","","","","","","","","","","","key","j","16.666219047618853","747","463","f","false","img/H_ambi40.png","生人","prac",""
"","","","","","html-keyboard-response","178","640944","0.0-8.1-0.1-1.50","null","<span style='color:red; font-size: 70px;'>错误! </span>","null","","","","","","","","","","","","","","","","","","","","","","","feedback_test"
"","","","","","psychophysics","179","642552","0.0-8.1-0.1-0.51","607","","j","","","","","","","","","","","","","key","j","16.66575789473657","747","463","j","true","img/T_ambi40.png","をる","prac",""
"","","","","","html-keyboard-response","180","643054","0.0-8.1-0.1-1.51","null","<span style='color:GreenYellow; font-size: 70px;'>正确! </span>","null","","","","","","","","","","","","","","","","","","","","","","","feedback_test"
"","","","","","psychophysics","181","644847","0.0-8.1-0.1-0.52","792","","f","","","","","","","","","","","","","key","f","16.66368224299034","747","463","j","false","img/S_ambi40.png","生人","prac",""
"","","","","","html-keyboard-response","182","645347","0.0-8.1-0.1-1.52","null","<span style='color:red; font-size: 70px;'>错误! </span>","null","","","","","","","","","","","","","","","","","","","","","","","feedback_test"
"","","","","","psychophysics","183","647047","0.0-8.1-0.1-0.53","699","","f","","","","","","","","","","","","","key","f","16.666227722772177","747","463","f","true","img/S_ambi40.png","自我","prac",""
"","","","","","html-keyboard-response","184","647548","0.0-8.1-0.1-1.53","null","<span style='color:GreenYellow; font-size: 70px;'>正确! </span>","null","","","","","","","","","","","","","","","","","","","","","","","feedback_test"
"","","","","","psychophysics","185","648909","0.0-8.1-0.1-0.54","360","","j","","","","","","","","","","","","","key","j","16.665864197530116","747","463","j","true","img/T_ambi40.png","をる","prac",""
"","","","","","html-keyboard-response","186","649410","0.0-8.1-0.1-1.54","null","<span style='color:GreenYellow; font-size: 70px;'>正确! </span>","null","","","","","","","","","","","","","","","","","","","","","","","feedback_test"
"","","","","","psychophysics","187","651084","0.0-8.1-0.1-0.55","673","","f","","","","","","","","","","","","","key","f","16.666040404040057","747","463","f","true","img/S_ambi40.png","朋友","prac",""
"","","","","","html-keyboard-response","188","651585","0.0-8.1-0.1-1.55","null","<span style='color:GreenYellow; font-size: 70px;'>正确! </span>","null","","","","","","","","","","","","","","","","","","","","","","","feedback_test"
"","","","","","psychophysics","189","653688","0.0-8.1-0.1-0.56","1102","","f","","","","","","","","","","","","","key","f","16.667688000000084","747","463","j","false","img/C_ambi40.png","朋友","prac",""
"","","","","","html-keyboard-response","190","654189","0.0-8.1-0.1-1.56","null","<span style='color:red; font-size: 70px;'>错误! </span>","null","","","","","","","","","","","","","","","","","","","","","","","feedback_test"
"","","","","","psychophysics","191","656176","0.0-8.1-0.1-0.57","986","","f","","","","","","","","","","","","","key","f","16.602338983050856","747","463","j","false","img/C_ambi40.png","朋友","prac",""
"","","","","","html-keyboard-response","192","656678","0.0-8.1-0.1-1.57","null","<span style='color:red; font-size: 70px;'>错误! </span>","null","","","","","","","","","","","","","","","","","","","","","","","feedback_test"
"","","","","","psychophysics","193","658266","0.0-8.1-0.1-0.58","587","","j","","","","","","","","","","","","","key","j","16.666265957446353","747","463","j","true","img/S_ambi40.png","生人","prac",""
"","","","","","html-keyboard-response","194","658767","0.0-8.1-0.1-1.58","null","<span style='color:GreenYellow; font-size: 70px;'>正确! </span>","null","","","","","","","","","","","","","","","","","","","","","","","feedback_test"
"","","","","","psychophysics","195","660485","0.0-8.1-0.1-0.59","717","","f","","","","","","","","","","","","","key","f","16.66790196078478","747","463","f","true","img/C_ambi40.png","生人","prac",""
"","","","","","html-keyboard-response","196","660987","0.0-8.1-0.1-1.59","null","<span style='color:GreenYellow; font-size: 70px;'>正确! </span>","null","","","","","","","","","","","","","","","","","","","","","","","feedback_test"
"","","","","","psychophysics","197","662612","0.0-8.1-0.1-0.60","624","","j","","","","","","","","","","","","","key","j","16.666402061856303","747","463","j","true","img/H_ambi40.png","自我","prac",""
"","","","","","html-keyboard-response","198","663113","0.0-8.1-0.1-1.60","null","<span style='color:GreenYellow; font-size: 70px;'>正确! </span>","null","","","","","","","","","","","","","","","","","","","","","","","feedback_test"
"","","","","","psychophysics","199","664782","0.0-8.1-0.1-0.61","667","","j","","","","","","","","","","","","","key","j","16.666030303030652","747","463","j","true","img/H_ambi40.png","自我","prac",""
"","","","","","html-keyboard-response","200","665282","0.0-8.1-0.1-1.61","null","<span style='color:GreenYellow; font-size: 70px;'>正确! </span>","null","","","","","","","","","","","","","","","","","","","","","","","feedback_test"
"","","","","","psychophysics","201","666936","0.0-8.1-0.1-0.62","651","","f","","","","","","","","","","","","","key","f","16.667040816326484","747","463","f","true","img/H_ambi40.png","朋友","prac",""
"","","","","","html-keyboard-response","202","667437","0.0-8.1-0.1-1.62","null","<span style='color:GreenYellow; font-size: 70px;'>正确! </span>","null","","","","","","","","","","","","","","","","","","","","","","","feedback_test"
"","","","","","psychophysics","203","668923","0.0-8.1-0.1-0.63","485","","j","","","","","","","","","","","","","key","j","16.66625000000005","747","463","j","true","img/T_ambi40.png","をる","prac",""
"","","","","","html-keyboard-response","204","669423","0.0-8.1-0.1-1.63","null","<span style='color:GreenYellow; font-size: 70px;'>正确! </span>","null","","","","","","","","","","","","","","","","","","","","","","","feedback_test"
"","","","","","html-keyboard-response","205","675146","0.0-8.1-1.1-0.1","5722","<style>.context{color:white; font-size: 35px; line-height:40px}</style>                          <div><p class='context'>您正确回答了66% 的试次。</p ><p class='context'>您的平均反应时为578毫秒。</p >"," ","","","","","","","","","","","","","","","","","","","","","","",""
"","","","","","instructions","206","693356","0.0-8.1-1.1-1.1","18209","","","","","","","","","","","","","","[{""page_index"":0,""viewing_time"":1304},{""page_index"":1,""viewing_time"":15877},{""page_index"":2,""viewing_time"":1028}]","","","","","","","","","","",""
"","","","","","psychophysics","207","695859","0.0-8.2-0.2-0.64","null","","null","","","","","","","","","","","","","key","null","16.665120805369146","747","463","j","false","img/H_ambi40.png","自我","prac",""
"","","","","","html-keyboard-response","208","696360","0.0-8.2-0.2-1.64","null","<span class='add_' style='color:yellow; font-size: 70px;'> 太慢! </span>","null","","","","","","","","","","","","","","","","","","","","","","","feedback_test"
"","","","","","psychophysics","209","698128","0.0-8.2-0.2-0.65","767","","f","","","","","","","","","","","","","key","f","16.667009523810286","747","463","f","true","img/S_ambi40.png","自我","prac",""
"","","","","","html-keyboard-response","210","698630","0.0-8.2-0.2-1.65","null","<span style='color:GreenYellow; font-size: 70px;'>正确! </span>","null","","","","","","","","","","","","","","","","","","","","","","","feedback_test"
"","","","","","psychophysics","211","700080","0.0-8.2-0.2-0.66","450","","j","","","","","","","","","","","","","key","j","16.666127906976875","747","463","j","true","img/T_ambi40.png","をる","prac",""
"","","","","","html-keyboard-response","212","700581","0.0-8.2-0.2-1.66","null","<span style='color:GreenYellow; font-size: 70px;'>正确! </span>","null","","","","","","","","","","","","","","","","","","","","","","","feedback_test"
"","","","","","psychophysics","213","702330","0.0-8.2-0.2-0.67","748","","j","","","","","","","","","","","","","key","j","16.666692307692408","747","463","f","false","img/C_ambi40.png","自我","prac",""
"","","","","","html-keyboard-response","214","702831","0.0-8.2-0.2-1.67","null","<span style='color:red; font-size: 70px;'>错误! </span>","null","","","","","","","","","","","","","","","","","","","","","","","feedback_test"
"","","","","","psychophysics","215","704527","0.0-8.2-0.2-0.68","695","","f","","","","","","","","","","","","","key","f","16.66543564356467","747","463","j","false","img/C_ambi40.png","朋友","prac",""
"","","","","","html-keyboard-response","216","705029","0.0-8.2-0.2-1.68","null","<span style='color:red; font-size: 70px;'>错误! </span>","null","","","","","","","","","","","","","","","","","","","","","","","feedback_test"
"","","","","","psychophysics","217","706607","0.0-8.2-0.2-0.69","577","","j","","","","","","","","","","","","","key","j","16.665925531915608","747","463","f","false","img/H_ambi40.png","朋友","prac",""
"","","","","","html-keyboard-response","218","707110","0.0-8.2-0.2-1.69","null","<span style='color:red; font-size: 70px;'>错误! </span>","null","","","","","","","","","","","","","","","","","","","","","","","feedback_test"
"","","","","","psychophysics","219","708913","0.0-8.2-0.2-0.70","801","","f","","","","","","","","","","","","","key","f","16.6663644859811","747","463","f","true","img/S_ambi40.png","朋友","prac",""
"","","","","","html-keyboard-response","220","709414","0.0-8.2-0.2-1.70","null","<span style='color:GreenYellow; font-size: 70px;'>正确! </span>","null","","","","","","","","","","","","","","","","","","","","","","","feedback_test"
"","","","","","psychophysics","221","710947","0.0-8.2-0.2-0.71","533","","f","","","","","","","","","","","","","key","f","16.665120879121655","747","463","j","false","img/H_ambi40.png","自我","prac",""
"","","","","","html-keyboard-response","222","711448","0.0-8.2-0.2-1.71","null","<span style='color:red; font-size: 70px;'>错误! </span>","null","","","","","","","","","","","","","","","","","","","","","","","feedback_test"
"","","","","","psychophysics","223","712815","0.0-8.2-0.2-0.72","365","","j","","","","","","","","","","","","","key","j","16.666506172840506","747","463","f","false","img/C_ambi40.png","生人","prac",""
"","","","","","html-keyboard-response","224","713318","0.0-8.2-0.2-1.72","null","<span style='color:red; font-size: 70px;'>错误! </span>","null","","","","","","","","","","","","","","","","","","","","","","","feedback_test"
"","","","","","psychophysics","225","714986","0.0-8.2-0.2-0.73","667","","f","","","","","","","","","","","","","key","f","16.664757575757445","747","463","j","false","img/C_ambi40.png","朋友","prac",""
"","","","","","html-keyboard-response","226","715487","0.0-8.2-0.2-1.73","null","<span style='color:red; font-size: 70px;'>错误! </span>","null","","","","","","","","","","","","","","","","","","","","","","","feedback_test"
"","","","","","psychophysics","227","717041","0.0-8.2-0.2-0.74","553","","j","","","","","","","","","","","","","key","j","16.50613043478275","747","463","j","true","img/T_ambi40.png","をる","prac",""
"","","","","","html-keyboard-response","228","717542","0.0-8.2-0.2-1.74","null","<span style='color:GreenYellow; font-size: 70px;'>正确! </span>","null","","","","","","","","","","","","","","","","","","","","","","","feedback_test"
"","","","","","psychophysics","229","719588","0.0-8.2-0.2-0.75","1043","","j","","","","","","","","","","","","","key","j","16.664305785123435","747","463","j","true","img/S_ambi40.png","生人","prac",""
"","","","","","html-keyboard-response","230","720089","0.0-8.2-0.2-1.75","null","<span style='color:GreenYellow; font-size: 70px;'>正确! </span>","null","","","","","","","","","","","","","","","","","","","","","","","feedback_test"
"","","","","","psychophysics","231","721687","0.0-8.2-0.2-0.76","598","","j","","","","","","","","","","","","","key","j","16.668042553191203","747","463","j","true","img/T_ambi40.png","をる","prac",""
"","","","","","html-keyboard-response","232","722187","0.0-8.2-0.2-1.76","null","<span style='color:GreenYellow; font-size: 70px;'>正确! </span>","null","","","","","","","","","","","","","","","","","","","","","","","feedback_test"
"","","","","","psychophysics","233","724523","0.0-8.2-0.2-0.77","1335","","f","","","","","","","","","","","","","key","f","16.624338129496792","747","463","j","false","img/S_ambi40.png","生人","prac",""
"","","","","","html-keyboard-response","234","725025","0.0-8.2-0.2-1.77","null","<span style='color:red; font-size: 70px;'>错误! </span>","null","","","","","","","","","","","","","","","","","","","","","","","feedback_test"
"","","","","","psychophysics","235","726795","0.0-8.2-0.2-0.78","768","","f","","","","","","","","","","","","","key","f","16.666533333333653","747","463","f","true","img/H_ambi40.png","生人","prac",""
"","","","","","html-keyboard-response","236","727296","0.0-8.2-0.2-1.78","null","<span style='color:GreenYellow; font-size: 70px;'>正确! </span>","null","","","","","","","","","","","","","","","","","","","","","","","feedback_test"
"","","","","","psychophysics","237","728801","0.0-8.2-0.2-0.79","504","","j","","","","","","","","","","","","","key","j","16.666011235955317","747","463","j","true","img/T_ambi40.png","をる","prac",""
"","","","","","html-keyboard-response","238","729303","0.0-8.2-0.2-1.79","null","<span style='color:GreenYellow; font-size: 70px;'>正确! </span>","null","","","","","","","","","","","","","","","","","","","","","","","feedback_test"
"","","","","","psychophysics","239","731096","0.0-8.2-0.2-0.80","791","","f","","","","","","","","","","","","","key","f","16.667037383176684","747","463","j","false","img/C_ambi40.png","朋友","prac",""
"","","","","","html-keyboard-response","240","731596","0.0-8.2-0.2-1.80","null","<span style='color:red; font-size: 70px;'>错误! </span>","null","","","","","","","","","","","","","","","","","","","","","","","feedback_test"
"","","","","","psychophysics","241","733083","0.0-8.2-0.2-0.81","486","","j","","","","","","","","","","","","","key","j","16.665693181818245","747","463","j","true","img/T_ambi40.png","をる","prac",""
"","","","","","html-keyboard-response","242","733583","0.0-8.2-0.2-1.81","null","<span style='color:GreenYellow; font-size: 70px;'>正确! </span>","null","","","","","","","","","","","","","","","","","","","","","","","feedback_test"
"","","","","","psychophysics","243","734991","0.0-8.2-0.2-0.82","407","","j","","","","","","","","","","","","","key","j","16.670797619047033","747","463","j","true","img/T_ambi40.png","をる","prac",""
"","","","","","html-keyboard-response","244","735493","0.0-8.2-0.2-1.82","null","<span style='color:GreenYellow; font-size: 70px;'>正确! </span>","null","","","","","","","","","","","","","","","","","","","","","","","feedback_test"
"","","","","","psychophysics","245","737885","0.0-8.2-0.2-0.83","1391","","f","","","","","","","","","","","","","key","f","16.66429577464759","747","463","f","true","img/C_ambi40.png","自我","prac",""
"","","","","","html-keyboard-response","246","738386","0.0-8.2-0.2-1.83","null","<span style='color:GreenYellow; font-size: 70px;'>正确! </span>","null","","","","","","","","","","","","","","","","","","","","","","","feedback_test"
"","","","","","psychophysics","247","740021","0.0-8.2-0.2-0.84","635","","f","","","","","","","","","","","","","key","f","16.50811458333313","747","463","j","false","img/T_ambi40.png","をる","prac",""
"","","","","","html-keyboard-response","248","740522","0.0-8.2-0.2-1.84","null","<span style='color:red; font-size: 70px;'>错误! </span>","null","","","","","","","","","","","","","","","","","","","","","","","feedback_test"
"","","","","","psychophysics","249","742345","0.0-8.2-0.2-0.85","822","","f","","","","","","","","","","","","","key","f","16.66365740740784","747","463","f","true","img/S_ambi40.png","朋友","prac",""
"","","","","","html-keyboard-response","250","742847","0.0-8.2-0.2-1.85","null","<span style='color:GreenYellow; font-size: 70px;'>正确! </span>","null","","","","","","","","","","","","","","","","","","","","","","","feedback_test"
"","","","","","psychophysics","251","744742","0.0-8.2-0.2-0.86","894","","j","","","","","","","","","","","","","key","j","16.666530973452094","747","463","j","true","img/H_ambi40.png","自我","prac",""
"","","","","","html-keyboard-response","252","745243","0.0-8.2-0.2-1.86","null","<span style='color:GreenYellow; font-size: 70px;'>正确! </span>","null","","","","","","","","","","","","","","","","","","","","","","","feedback_test"
"","","","","","psychophysics","253","746870","0.0-8.2-0.2-0.87","626","","j","","","","","","","","","","","","","key","j","16.659604166667123","747","463","j","true","img/S_ambi40.png","生人","prac",""
"","","","","","html-keyboard-response","254","747372","0.0-8.2-0.2-1.87","null","<span style='color:GreenYellow; font-size: 70px;'>正确! </span>","null","","","","","","","","","","","","","","","","","","","","","","","feedback_test"
"","","","","","psychophysics","255","748758","0.0-8.2-0.2-0.88","385","","j","","","","","","","","","","","","","key","j","16.665109756097436","747","463","j","true","img/S_ambi40.png","生人","prac",""
"","","","","","html-keyboard-response","256","749258","0.0-8.2-0.2-1.88","null","<span style='color:GreenYellow; font-size: 70px;'>正确! </span>","null","","","","","","","","","","","","","","","","","","","","","","","feedback_test"
"","","","","","psychophysics","257","751265","0.0-8.2-0.2-0.89","1004","","f","","","","","","","","","","","","","key","f","16.66784033613444","747","463","j","false","img/C_ambi40.png","朋友","prac",""
"","","","","","html-keyboard-response","258","751766","0.0-8.2-0.2-1.89","null","<span style='color:red; font-size: 70px;'>错误! </span>","null","","","","","","","","","","","","","","","","","","","","","","","feedback_test"
"","","","","","psychophysics","259","753488","0.0-8.2-0.2-0.90","721","","j","","","","","","","","","","","","","key","j","16.665339805825514","747","463","j","true","img/H_ambi40.png","自我","prac",""
"","","","","","html-keyboard-response","260","753989","0.0-8.2-0.2-1.90","null","<span style='color:GreenYellow; font-size: 70px;'>正确! </span>","null","","","","","","","","","","","","","","","","","","","","","","","feedback_test"
"","","","","","psychophysics","261","755814","0.0-8.2-0.2-0.91","824","","f","","","","","","","","","","","","","key","f","16.66538888888856","747","463","f","true","img/H_ambi40.png","生人","prac",""
"","","","","","html-keyboard-response","262","756315","0.0-8.2-0.2-1.91","null","<span style='color:GreenYellow; font-size: 70px;'>正确! </span>","null","","","","","","","","","","","","","","","","","","","","","","","feedback_test"
"","","","","","psychophysics","263","758406","0.0-8.2-0.2-0.92","1088","","j","","","","","","","","","","","","","key","j","16.666327999999748","747","463","f","false","img/S_ambi40.png","自我","prac",""
"","","","","","html-keyboard-response","264","758907","0.0-8.2-0.2-1.92","null","<span style='color:red; font-size: 70px;'>错误! </span>","null","","","","","","","","","","","","","","","","","","","","","","","feedback_test"
"","","","","","psychophysics","265","760390","0.0-8.2-0.2-0.93","482","","j","","","","","","","","","","","","","key","j","16.670659090909545","747","463","j","true","img/T_ambi40.png","をる","prac",""
"","","","","","html-keyboard-response","266","760891","0.0-8.2-0.2-1.93","null","<span style='color:GreenYellow; font-size: 70px;'>正确! </span>","null","","","","","","","","","","","","","","","","","","","","","","","feedback_test"
"","","","","","psychophysics","267","762279","0.0-8.2-0.2-0.94","386","","f","","","","","","","","","","","","","key","f","16.66792682926852","747","463","f","true","img/H_ambi40.png","朋友","prac",""
"","","","","","html-keyboard-response","268","762780","0.0-8.2-0.2-1.94","null","<span style='color:GreenYellow; font-size: 70px;'>正确! </span>","null","","","","","","","","","","","","","","","","","","","","","","","feedback_test"
"","","","","","psychophysics","269","764777","0.0-8.2-0.2-0.95","996","","f","","","","","","","","","","","","","key","f","16.664899159664046","747","463","f","true","img/C_ambi40.png","生人","prac",""
"","","","","","html-keyboard-response","270","765278","0.0-8.2-0.2-1.95","null","<span style='color:GreenYellow; font-size: 70px;'>正确! </span>","null","","","","","","","","","","","","","","","","","","","","","","","feedback_test"
"","","","","","html-keyboard-response","271","770038","0.0-8.2-1.2-0.2","4759","<style>.context{color:white; font-size: 35px; line-height:40px}</style>                          <div><p class='context'>您正确回答了63% 的试次。</p ><p class='context'>您的平均反应时为695毫秒。</p >"," ","","","","","","","","","","","","","","","","","","","","","","",""
"","","","","","instructions","272","825206","0.0-8.2-1.2-1.2","55166","","","","","","","","","","","","","","[{""page_index"":0,""viewing_time"":1872},{""page_index"":1,""viewing_time"":51104},{""page_index"":2,""viewing_time"":2190}]","","","","","","","","","","",""
"","","","","","psychophysics","273","826561","0.0-8.3-0.3-0.96","354","","j","","","","","","","","","","","","","key","j","16.666575000000012","747","463","j","true","img/T_ambi40.png","をる","prac",""
"","","","","","html-keyboard-response","274","827062","0.0-8.3-0.3-1.96","null","<span style='color:GreenYellow; font-size: 70px;'>正确! </span>","null","","","","","","","","","","","","","","","","","","","","","","","feedback_test"
"","","","","","psychophysics","275","828470","0.0-8.3-0.3-0.97","407","","j","","","","","","","","","","","","","key","j","16.666130952381838","747","463","j","true","img/T_ambi40.png","をる","prac",""
"","","","","","html-keyboard-response","276","828972","0.0-8.3-0.3-1.97","null","<span style='color:GreenYellow; font-size: 70px;'>正确! </span>","null","","","","","","","","","","","","","","","","","","","","","","","feedback_test"
"","","","","","psychophysics","277","830545","0.0-8.3-0.3-0.98","571","","j","","","","","","","","","","","","","key","j","16.668645161290414","747","463","j","true","img/H_ambi40.png","自我","prac",""
"","","","","","html-keyboard-response","278","831045","0.0-8.3-0.3-1.98","null","<span style='color:GreenYellow; font-size: 70px;'>正确! </span>","null","","","","","","","","","","","","","","","","","","","","","","","feedback_test"
"","","","","","psychophysics","279","832845","0.0-8.3-0.3-0.99","799","","f","","","","","","","","","","","","","key","f","16.66436448598185","747","463","f","true","img/C_ambi40.png","生人","prac",""
"","","","","","html-keyboard-response","280","833346","0.0-8.3-0.3-1.99","null","<span style='color:GreenYellow; font-size: 70px;'>正确! </span>","null","","","","","","","","","","","","","","","","","","","","","","","feedback_test"
"","","","","","psychophysics","281","835099","0.0-8.3-0.3-0.100","752","","f","","","","","","","","","","","","","key","f","16.667548076923524","747","463","j","false","img/C_ambi40.png","朋友","prac",""
"","","","","","html-keyboard-response","282","835601","0.0-8.3-0.3-1.100","null","<span style='color:red; font-size: 70px;'>错误! </span>","null","","","","","","","","","","","","","","","","","","","","","","","feedback_test"
"","","","","","psychophysics","283","837886","0.0-8.3-0.3-0.101","1284","","f","","","","","","","","","","","","","key","f","16.66373529411794","747","463","f","true","img/S_ambi40.png","自我","prac",""
"","","","","","html-keyboard-response","284","838386","0.0-8.3-0.3-1.101","null","<span style='color:GreenYellow; font-size: 70px;'>正确! </span>","null","","","","","","","","","","","","","","","","","","","","","","","feedback_test"
"","","","","","psychophysics","285","840052","0.0-8.3-0.3-0.102","663","","f","","","","","","","","","","","","","key","f","16.66635353535395","747","463","j","false","img/S_ambi40.png","生人","prac",""
"","","","","","html-keyboard-response","286","840554","0.0-8.3-0.3-1.102","null","<span style='color:red; font-size: 70px;'>错误! </span>","null","","","","","","","","","","","","","","","","","","","","","","","feedback_test"
"","","","","","psychophysics","287","842050","0.0-8.3-0.3-0.103","495","","j","","","","","","","","","","","","","key","j","16.664375000000952","747","463","j","true","img/T_ambi40.png","をる","prac",""
"","","","","","html-keyboard-response","288","842551","0.0-8.3-0.3-1.103","null","<span style='color:GreenYellow; font-size: 70px;'>正确! </span>","null","","","","","","","","","","","","","","","","","","","","","","","feedback_test"
"","","","","","psychophysics","289","844825","0.0-8.3-0.3-0.104","1273","","f","","","","","","","","","","","","","key","f","16.665681481481254","747","463","j","false","img/S_ambi40.png","生人","prac",""
"","","","","","html-keyboard-response","290","845326","0.0-8.3-0.3-1.104","null","<span style='color:red; font-size: 70px;'>错误! </span>","null","","","","","","","","","","","","","","","","","","","","","","","feedback_test"
"","","","","","psychophysics","291","847341","0.0-8.3-0.3-0.105","1014","","j","","","","","","","","","","","","","key","j","16.666341666666753","747","463","f","false","img/H_ambi40.png","生人","prac",""
"","","","","","html-keyboard-response","292","847843","0.0-8.3-0.3-1.105","null","<span style='color:red; font-size: 70px;'>错误! </span>","null","","","","","","","","","","","","","","","","","","","","","","","feedback_test"
"","","","","","psychophysics","293","850257","0.0-8.3-0.3-0.106","1413","","j","","","","","","","","","","","","","key","j","16.666687499999373","747","463","f","false","img/H_ambi40.png","朋友","prac",""
"","","","","","html-keyboard-response","294","850758","0.0-8.3-0.3-1.106","null","<span style='color:red; font-size: 70px;'>错误! </span>","null","","","","","","","","","","","","","","","","","","","","","","","feedback_test"
"","","","","","psychophysics","295","852495","0.0-8.3-0.3-0.107","736","","f","","","","","","","","","","","","","key","f","16.664339805825488","747","463","f","true","img/S_ambi40.png","朋友","prac",""
"","","","","","html-keyboard-response","296","852996","0.0-8.3-0.3-1.107","null","<span style='color:GreenYellow; font-size: 70px;'>正确! </span>","null","","","","","","","","","","","","","","","","","","","","","","","feedback_test"
"","","","","","psychophysics","297","855187","0.0-8.3-0.3-0.108","1190","","f","","","","","","","","","","","","","key","f","16.665458015267532","747","463","j","false","img/C_ambi40.png","朋友","prac",""
"","","","","","html-keyboard-response","298","855689","0.0-8.3-0.3-1.108","null","<span style='color:red; font-size: 70px;'>错误! </span>","null","","","","","","","","","","","","","","","","","","","","","","","feedback_test"
"","","","","","psychophysics","299","857810","0.0-8.3-0.3-0.109","1120","","j","","","","","","","","","","","","","key","j","16.66634920634891","747","463","f","false","img/C_ambi40.png","自我","prac",""
"","","","","","html-keyboard-response","300","858313","0.0-8.3-0.3-1.109","null","<span style='color:red; font-size: 70px;'>错误! </span>","null","","","","","","","","","","","","","","","","","","","","","","","feedback_test"
"","","","","","psychophysics","301","860068","0.0-8.3-0.3-0.110","754","","j","","","","","","","","","","","","","key","j","16.665657142857977","747","463","j","true","img/H_ambi40.png","自我","prac",""
"","","","","","html-keyboard-response","302","860570","0.0-8.3-0.3-1.110","null","<span style='color:GreenYellow; font-size: 70px;'>正确! </span>","null","","","","","","","","","","","","","","","","","","","","","","","feedback_test"
"","","","","","psychophysics","303","862072","0.0-8.3-0.3-0.111","502","","j","","","","","","","","","","","","","key","j","16.66623595505665","747","463","j","true","img/T_ambi40.png","をる","prac",""
"","","","","","html-keyboard-response","304","862573","0.0-8.3-0.3-1.111","null","<span style='color:GreenYellow; font-size: 70px;'>正确! </span>","null","","","","","","","","","","","","","","","","","","","","","","","feedback_test"
"","","","","","psychophysics","305","864647","0.0-8.3-0.3-0.112","1073","","f","","","","","","","","","","","","","key","f","16.65644715447168","747","463","j","false","img/C_ambi40.png","朋友","prac",""
"","","","","","html-keyboard-response","306","865148","0.0-8.3-0.3-1.112","null","<span style='color:red; font-size: 70px;'>错误! </span>","null","","","","","","","","","","","","","","","","","","","","","","","feedback_test"
"","","","","","psychophysics","307","867166","0.0-8.3-0.3-0.113","1017","","j","","","","","","","","","","","","","key","j","16.666599999999743","747","463","j","true","img/C_ambi40.png","朋友","prac",""
"","","","","","html-keyboard-response","308","867667","0.0-8.3-0.3-1.113","null","<span style='color:GreenYellow; font-size: 70px;'>正确! </span>","null","","","","","","","","","","","","","","","","","","","","","","","feedback_test"
"","","","","","psychophysics","309","869385","0.0-8.3-0.3-0.114","717","","f","","","","","","","","","","","","","key","f","16.664931372549916","747","463","j","false","img/S_ambi40.png","生人","prac",""
"","","","","","html-keyboard-response","310","869886","0.0-8.3-0.3-1.114","null","<span style='color:red; font-size: 70px;'>错误! </span>","null","","","","","","","","","","","","","","","","","","","","","","","feedback_test"
"","","","","","psychophysics","311","871266","0.0-8.3-0.3-0.115","379","","j","","","","","","","","","","","","","key","j","16.66634567901291","747","463","j","true","img/T_ambi40.png","をる","prac",""
"","","","","","html-keyboard-response","312","871767","0.0-8.3-0.3-1.115","null","<span style='color:GreenYellow; font-size: 70px;'>正确! </span>","null","","","","","","","","","","","","","","","","","","","","","","","feedback_test"
"","","","","","psychophysics","313","873203","0.0-8.3-0.3-0.116","434","","j","","","","","","","","","","","","","key","j","16.66521176470526","747","463","j","true","img/T_ambi40.png","をる","prac",""
"","","","","","html-keyboard-response","314","873704","0.0-8.3-0.3-1.116","null","<span style='color:GreenYellow; font-size: 70px;'>正确! </span>","null","","","","","","","","","","","","","","","","","","","","","","","feedback_test"
"","","","","","psychophysics","315","875005","0.0-8.3-0.3-0.117","300","","j","","","","","","","","","","","","","key","j","16.66501298701306","747","463","f","false","img/C_ambi40.png","生人","prac",""
"","","","","","html-keyboard-response","316","875507","0.0-8.3-0.3-1.117","null","<span style='color:red; font-size: 70px;'>错误! </span>","null","","","","","","","","","","","","","","","","","","","","","","","feedback_test"
"","","","","","psychophysics","317","876972","0.0-8.3-0.3-0.118","464","","j","","","","","","","","","","","","","key","j","16.665701149426262","747","463","j","true","img/T_ambi40.png","をる","prac",""
"","","","","","html-keyboard-response","318","877473","0.0-8.3-0.3-1.118","null","<span style='color:GreenYellow; font-size: 70px;'>正确! </span>","null","","","","","","","","","","","","","","","","","","","","","","","feedback_test"
"","","","","","psychophysics","319","879137","0.0-8.3-0.3-0.119","662","","j","","","","","","","","","","","","","key","j","16.655030303030284","747","463","j","true","img/H_ambi40.png","自我","prac",""
"","","","","","html-keyboard-response","320","879639","0.0-8.3-0.3-1.119","null","<span style='color:GreenYellow; font-size: 70px;'>正确! </span>","null","","","","","","","","","","","","","","","","","","","","","","","feedback_test"
"","","","","","psychophysics","321","881494","0.0-8.3-0.3-0.120","853","","j","","","","","","","","","","","","","key","j","16.665299999999643","747","463","j","true","img/S_ambi40.png","生人","prac",""
"","","","","","html-keyboard-response","322","881995","0.0-8.3-0.3-1.120","null","<span style='color:GreenYellow; font-size: 70px;'>正确! </span>","null","","","","","","","","","","","","","","","","","","","","","","","feedback_test"
"","","","","","psychophysics","323","883439","0.0-8.3-0.3-0.121","443","","j","","","","","","","","","","","","","key","j","16.665034883720583","747","463","f","false","img/S_ambi40.png","朋友","prac",""
"","","","","","html-keyboard-response","324","883950","0.0-8.3-0.3-1.121","null","<span style='color:red; font-size: 70px;'>错误! </span>","null","","","","","","","","","","","","","","","","","","","","","","","feedback_test"
"","","","","","psychophysics","325","885521","0.0-8.3-0.3-0.122","570","","j","","","","","","","","","","","","","key","j","16.665677419354168","747","463","j","true","img/H_ambi40.png","自我","prac",""
"","","","","","html-keyboard-response","326","886021","0.0-8.3-0.3-1.122","null","<span style='color:GreenYellow; font-size: 70px;'>正确! </span>","null","","","","","","","","","","","","","","","","","","","","","","","feedback_test"
"","","","","","psychophysics","327","888086","0.0-8.3-0.3-0.123","1063","","f","","","","","","","","","","","","","key","f","16.666314516129205","747","463","f","true","img/H_ambi40.png","朋友","prac",""
"","","","","","html-keyboard-response","328","888587","0.0-8.3-0.3-1.123","null","<span style='color:GreenYellow; font-size: 70px;'>正确! </span>","null","","","","","","","","","","","","","","","","","","","","","","","feedback_test"
"","","","","","psychophysics","329","890677","0.0-8.3-0.3-0.124","1089","","j","","","","","","","","","","","","","key","j","16.666879032257825","747","463","f","false","img/S_ambi40.png","自我","prac",""
"","","","","","html-keyboard-response","330","891191","0.0-8.3-0.3-1.124","null","<span style='color:red; font-size: 70px;'>错误! </span>","null","","","","","","","","","","","","","","","","","","","","","","","feedback_test"
"","","","","","psychophysics","331","892917","0.0-8.3-0.3-0.125","725","","f","","","","","","","","","","","","","key","f","16.665611650485058","747","463","f","true","img/H_ambi40.png","生人","prac",""
"","","","","","html-keyboard-response","332","893418","0.0-8.3-0.3-1.125","null","<span style='color:GreenYellow; font-size: 70px;'>正确! </span>","null","","","","","","","","","","","","","","","","","","","","","","","feedback_test"
"","","","","","psychophysics","333","894926","0.0-8.3-0.3-0.126","508","","j","","","","","","","","","","","","","key","j","16.66501123595491","747","463","j","true","img/T_ambi40.png","をる","prac",""
"","","","","","html-keyboard-response","334","895427","0.0-8.3-0.3-1.126","null","<span style='color:GreenYellow; font-size: 70px;'>正确! </span>","null","","","","","","","","","","","","","","","","","","","","","","","feedback_test"
"","","","","","psychophysics","335","897355","0.0-8.3-0.3-0.127","927","","f","","","","","","","","","","","","","key","f","16.66525217391267","747","463","f","true","img/C_ambi40.png","自我","prac",""
"","","","","","html-keyboard-response","336","897856","0.0-8.3-0.3-1.127","null","<span style='color:GreenYellow; font-size: 70px;'>正确! </span>","null","","","","","","","","","","","","","","","","","","","","","","","feedback_test"
"","","","","","html-keyboard-response","337","899844","0.0-8.3-1.3-0.3","1987","<style>.context{color:white; font-size: 35px; line-height:40px}</style>                          <div><p class='context'>您正确回答了63% 的试次。</p ><p class='context'>您的平均反应时为675毫秒。</p >"," ","","","","","","","","","","","","","","","","","","","","","","",""
"","","","","","instructions","338","907158","0.0-8.3-1.3-1.3","7313","","","","","","","","","","","","","","[{""page_index"":0,""viewing_time"":1426},{""page_index"":1,""viewing_time"":4125},{""page_index"":2,""viewing_time"":1762}]","","","","","","","","","","",""
"","","","","","psychophysics","339","909430","0.0-8.4-0.4-0.128","1270","","f","","","","","","","","","","","","","key","f","16.6663629629632","747","463","j","false","img/C_ambi40.png","朋友","prac",""
"","","","","","html-keyboard-response","340","909932","0.0-8.4-0.4-1.128","null","<span style='color:red; font-size: 70px;'>错误! </span>","null","","","","","","","","","","","","","","","","","","","","","","","feedback_test"
"","","","","","psychophysics","341","912219","0.0-8.4-0.4-0.129","1287","","j","","","","","","","","","","","","","key","j","16.667698529411126","747","463","j","true","img/H_ambi40.png","自我","prac",""
"","","","","","html-keyboard-response","342","912720","0.0-8.4-0.4-1.129","null","<span style='color:GreenYellow; font-size: 70px;'>正确! </span>","null","","","","","","","","","","","","","","","","","","","","","","","feedback_test"
"","","","","","psychophysics","343","914512","0.0-8.4-0.4-0.130","791","","f","","","","","","","","","","","","","key","f","16.667179245283204","747","463","f","true","img/H_ambi40.png","朋友","prac",""
"","","","","","html-keyboard-response","344","915013","0.0-8.4-0.4-1.130","null","<span style='color:GreenYellow; font-size: 70px;'>正确! </span>","null","","","","","","","","","","","","","","","","","","","","","","","feedback_test"
"","","","","","psychophysics","345","916824","0.0-8.4-0.4-0.131","811","","f","","","","","","","","","","","","","key","f","16.662527777777374","747","463","j","false","img/S_ambi40.png","生人","prac",""
"","","","","","html-keyboard-response","346","917325","0.0-8.4-0.4-1.131","null","<span style='color:red; font-size: 70px;'>错误! </span>","null","","","","","","","","","","","","","","","","","","","","","","","feedback_test"
"","","","","","psychophysics","347","918734","0.0-8.4-0.4-0.132","407","","j","","","","","","","","","","","","","key","j","16.665578313253214","747","463","j","true","img/T_ambi40.png","をる","prac",""
"","","","","","html-keyboard-response","348","919235","0.0-8.4-0.4-1.132","null","<span style='color:GreenYellow; font-size: 70px;'>正确! </span>","null","","","","","","","","","","","","","","","","","","","","","","","feedback_test"
"","","","","","psychophysics","349","920965","0.0-8.4-0.4-0.133","729","","f","","","","","","","","","","","","","key","f","16.66562745098011","747","463","f","true","img/C_ambi40.png","生人","prac",""
"","","","","","html-keyboard-response","350","921467","0.0-8.4-0.4-1.133","null","<span style='color:GreenYellow; font-size: 70px;'>正确! </span>","null","","","","","","","","","","","","","","","","","","","","","","","feedback_test"
"","","","","","psychophysics","351","922963","0.0-8.4-0.4-0.134","495","","j","","","","","","","","","","","","","key","j","16.666136363636312","747","463","j","true","img/T_ambi40.png","をる","prac",""
"","","","","","html-keyboard-response","352","923465","0.0-8.4-0.4-1.134","null","<span style='color:GreenYellow; font-size: 70px;'>正确! </span>","null","","","","","","","","","","","","","","","","","","","","","","","feedback_test"
"","","","","","psychophysics","353","925156","0.0-8.4-0.4-0.135","691","","j","","","","","","","","","","","","","key","j","16.666790000000038","747","463","f","false","img/H_ambi40.png","生人","prac",""
"","","","","","html-keyboard-response","354","925657","0.0-8.4-0.4-1.135","null","<span style='color:red; font-size: 70px;'>错误! </span>","null","","","","","","","","","","","","","","","","","","","","","","","feedback_test"
"","","","","","psychophysics","355","927348","0.0-8.4-0.4-0.136","688","","j","","","","","","","","","","","","","key","j","16.66628000000026","747","463","j","true","img/T_ambi40.png","をる","prac",""
"","","","","","html-keyboard-response","356","927849","0.0-8.4-0.4-1.136","null","<span style='color:GreenYellow; font-size: 70px;'>正确! </span>","null","","","","","","","","","","","","","","","","","","","","","","","feedback_test"
"","","","","","psychophysics","357","929628","0.0-8.4-0.4-0.137","778","","f","","","","","","","","","","","","","key","f","16.666152380953456","747","463","f","true","img/C_ambi40.png","自我","prac",""
"","","","","","html-keyboard-response","358","930129","0.0-8.4-0.4-1.137","null","<span style='color:GreenYellow; font-size: 70px;'>正确! </span>","null","","","","","","","","","","","","","","","","","","","","","","","feedback_test"
"","","","","","psychophysics","359","931894","0.0-8.4-0.4-0.138","763","","j","","","","","","","","","","","","","key","j","16.666057142857017","747","463","j","true","img/H_ambi40.png","自我","prac",""
"","","","","","html-keyboard-response","360","932395","0.0-8.4-0.4-1.138","null","<span style='color:GreenYellow; font-size: 70px;'>正确! </span>","null","","","","","","","","","","","","","","","","","","","","","","","feedback_test"
"","","","","","psychophysics","361","934546","0.0-8.4-0.4-0.139","1150","","f","","","","","","","","","","","","","key","f","16.666882812500262","747","463","j","false","img/C_ambi40.png","朋友","prac",""
"","","","","","html-keyboard-response","362","935047","0.0-8.4-0.4-1.139","null","<span style='color:red; font-size: 70px;'>错误! </span>","null","","","","","","","","","","","","","","","","","","","","","","","feedback_test"
"","","","","","psychophysics","363","937548","0.0-8.4-0.4-0.140","null","","null","","","","","","","","","","","","","key","null","16.586013422818734","747","463","f","false","img/S_ambi40.png","朋友","prac",""
"","","","","","html-keyboard-response","364","938050","0.0-8.4-0.4-1.140","null","<span class='add_' style='color:yellow; font-size: 70px;'> 太慢! </span>","null","","","","","","","","","","","","","","","","","","","","","","","feedback_test"
"","","","","","psychophysics","365","939405","0.0-8.4-0.4-0.141","354","","j","","","","","","","","","","","","","key","j","16.666237500001444","747","463","j","true","img/S_ambi40.png","生人","prac",""
"","","","","","html-keyboard-response","366","939906","0.0-8.4-0.4-1.141","null","<span style='color:GreenYellow; font-size: 70px;'>正确! </span>","null","","","","","","","","","","","","","","","","","","","","","","","feedback_test"
"","","","","","psychophysics","367","941484","0.0-8.4-0.4-0.142","577","","j","","","","","","","","","","","","","key","j","16.66457446808481","747","463","f","false","img/S_ambi40.png","自我","prac",""
"","","","","","html-keyboard-response","368","941985","0.0-8.4-0.4-1.142","null","<span style='color:red; font-size: 70px;'>错误! </span>","null","","","","","","","","","","","","","","","","","","","","","","","feedback_test"
"","","","","","psychophysics","369","943485","0.0-8.4-0.4-0.143","497","","j","","","","","","","","","","","","","key","j","16.661865168538867","747","463","j","true","img/T_ambi40.png","をる","prac",""
"","","","","","html-keyboard-response","370","943986","0.0-8.4-0.4-1.143","null","<span style='color:GreenYellow; font-size: 70px;'>正确! </span>","null","","","","","","","","","","","","","","","","","","","","","","","feedback_test"
"","","","","","psychophysics","371","945503","0.0-8.4-0.4-0.144","515","","j","","","","","","","","","","","","","key","j","16.665933333333427","747","463","j","true","img/T_ambi40.png","をる","prac",""
"","","","","","html-keyboard-response","372","946003","0.0-8.4-0.4-1.144","null","<span style='color:GreenYellow; font-size: 70px;'>正确! </span>","null","","","","","","","","","","","","","","","","","","","","","","","feedback_test"
"","","","","","psychophysics","373","947687","0.0-8.4-0.4-0.145","682","","f","","","","","","","","","","","","","key","f","16.666319999999832","747","463","j","false","img/S_ambi40.png","生人","prac",""
"","","","","","html-keyboard-response","374","948188","0.0-8.4-0.4-1.145","null","<span style='color:red; font-size: 70px;'>错误! </span>","null","","","","","","","","","","","","","","","","","","","","","","","feedback_test"
"","","","","","psychophysics","375","949842","0.0-8.4-0.4-0.146","654","","j","","","","","","","","","","","","","key","j","16.664918367345866","747","463","f","false","img/S_ambi40.png","朋友","prac",""
"","","","","","html-keyboard-response","376","950343","0.0-8.4-0.4-1.146","null","<span style='color:red; font-size: 70px;'>错误! </span>","null","","","","","","","","","","","","","","","","","","","","","","","feedback_test"
"","","","","","psychophysics","377","951785","0.0-8.4-0.4-0.147","441","","j","","","","","","","","","","","","","key","j","16.668662790697727","747","463","j","true","img/T_ambi40.png","をる","prac",""
"","","","","","html-keyboard-response","378","952287","0.0-8.4-0.4-1.147","null","<span style='color:GreenYellow; font-size: 70px;'>正确! </span>","null","","","","","","","","","","","","","","","","","","","","","","","feedback_test"
"","","","","","psychophysics","379","954327","0.0-8.4-0.4-0.148","1039","","f","","","","","","","","","","","","","key","f","16.666438016528648","747","463","j","false","img/C_ambi40.png","朋友","prac",""
"","","","","","html-keyboard-response","380","954840","0.0-8.4-0.4-1.148","null","<span style='color:red; font-size: 70px;'>错误! </span>","null","","","","","","","","","","","","","","","","","","","","","","","feedback_test"
"","","","","","psychophysics","381","956359","0.0-8.4-0.4-0.149","516","","j","","","","","","","","","","","","","key","j","16.662666666666823","747","463","j","true","img/T_ambi40.png","をる","prac",""
"","","","","","html-keyboard-response","382","956860","0.0-8.4-0.4-1.149","null","<span style='color:GreenYellow; font-size: 70px;'>正确! </span>","null","","","","","","","","","","","","","","","","","","","","","","","feedback_test"
"","","","","","psychophysics","383","959207","0.0-8.4-0.4-0.150","1346","","f","","","","","","","","","","","","","key","f","16.66030714285693","747","463","f","true","img/H_ambi40.png","生人","prac",""
"","","","","","html-keyboard-response","384","959709","0.0-8.4-0.4-1.150","null","<span style='color:GreenYellow; font-size: 70px;'>正确! </span>","null","","","","","","","","","","","","","","","","","","","","","","","feedback_test"
"","","","","","psychophysics","385","961475","0.0-8.4-0.4-0.151","765","","f","","","","","","","","","","","","","key","f","16.665247619046742","747","463","j","false","img/T_ambi40.png","をる","prac",""
"","","","","","html-keyboard-response","386","961976","0.0-8.4-0.4-1.151","null","<span style='color:red; font-size: 70px;'>错误! </span>","null","","","","","","","","","","","","","","","","","","","","","","","feedback_test"
"","","","","","psychophysics","387","963739","0.0-8.4-0.4-0.152","762","","f","","","","","","","","","","","","","key","f","16.667933333333625","747","463","j","false","img/S_ambi40.png","生人","prac",""
"","","","","","html-keyboard-response","388","964240","0.0-8.4-0.4-1.152","null","<span style='color:red; font-size: 70px;'>错误! </span>","null","","","","","","","","","","","","","","","","","","","","","","","feedback_test"
"","","","","","psychophysics","389","966074","0.0-8.4-0.4-0.153","832","","f","","","","","","","","","","","","","key","f","16.666247706421345","747","463","f","true","img/S_ambi40.png","自我","prac",""
"","","","","","html-keyboard-response","390","966575","0.0-8.4-0.4-1.153","null","<span style='color:GreenYellow; font-size: 70px;'>正确! </span>","null","","","","","","","","","","","","","","","","","","","","","","","feedback_test"
"","","","","","psychophysics","391","968335","0.0-8.4-0.4-0.154","759","","j","","","","","","","","","","","","","key","j","16.666533333332545","747","463","j","true","img/H_ambi40.png","自我","prac",""
"","","","","","html-keyboard-response","392","968836","0.0-8.4-0.4-1.154","null","<span style='color:GreenYellow; font-size: 70px;'>正确! </span>","null","","","","","","","","","","","","","","","","","","","","","","","feedback_test"
"","","","","","psychophysics","393","970666","0.0-8.4-0.4-0.155","829","","f","","","","","","","","","","","","","key","f","16.66555045871491","747","463","f","true","img/H_ambi40.png","朋友","prac",""
"","","","","","html-keyboard-response","394","971167","0.0-8.4-0.4-1.155","null","<span style='color:GreenYellow; font-size: 70px;'>正确! </span>","null","","","","","","","","","","","","","","","","","","","","","","","feedback_test"
"","","","","","psychophysics","395","972755","0.0-8.4-0.4-0.156","586","","j","","","","","","","","","","","","","key","j","16.667265957446787","747","463","j","true","img/H_ambi40.png","自我","prac",""
"","","","","","html-keyboard-response","396","973256","0.0-8.4-0.4-1.156","null","<span style='color:GreenYellow; font-size: 70px;'>正确! </span>","null","","","","","","","","","","","","","","","","","","","","","","","feedback_test"
"","","","","","psychophysics","397","975454","0.0-8.4-0.4-0.157","1197","","j","","","","","","","","","","","","","key","j","16.66462595419841","747","463","j","true","img/C_ambi40.png","朋友","prac",""
"","","","","","html-keyboard-response","398","975957","0.0-8.4-0.4-1.157","null","<span style='color:GreenYellow; font-size: 70px;'>正确! </span>","null","","","","","","","","","","","","","","","","","","","","","","","feedback_test"
"","","","","","psychophysics","399","977607","0.0-8.4-0.4-0.158","649","","f","","","","","","","","","","","","","key","f","16.666693877551126","747","463","f","true","img/C_ambi40.png","自我","prac",""
"","","","","","html-keyboard-response","400","978108","0.0-8.4-0.4-1.158","null","<span style='color:GreenYellow; font-size: 70px;'>正确! </span>","null","","","","","","","","","","","","","","","","","","","","","","","feedback_test"
"","","","","","psychophysics","401","979814","0.0-8.4-0.4-0.159","705","","f","","","","","","","","","","","","","key","f","16.665297029703616","747","463","f","true","img/C_ambi40.png","生人","prac",""
"","","","","","html-keyboard-response","402","980314","0.0-8.4-0.4-1.159","null","<span style='color:GreenYellow; font-size: 70px;'>正确! </span>","null","","","","","","","","","","","","","","","","","","","","","","","feedback_test"
"","","","","","html-keyboard-response","403","982532","0.0-8.4-1.4-0.4","2217","<style>.context{color:white; font-size: 35px; line-height:40px}</style>                          <div><p class='context'>您正确回答了66% 的试次。</p ><p class='context'>您的平均反应时为722毫秒。</p >"," ","","","","","","","","","","","","","","","","","","","","","","",""
"","","","","","instructions","404","987978","0.0-8.4-1.4-1.4","5444","","","","","","","","","","","","","","[{""page_index"":0,""viewing_time"":1237},{""page_index"":1,""viewing_time"":2062},{""page_index"":2,""viewing_time"":2145}]","","","","","","","","","","",""
"","","","","","psychophysics","405","989682","0.0-8.5-0.5-0.160","702","","j","","","","","","","","","","","","","key","j","16.66699999999854","747","463","j","true","img/H_ambi40.png","自我","prac",""
"","","","","","html-keyboard-response","406","990183","0.0-8.5-0.5-1.160","null","<span style='color:GreenYellow; font-size: 70px;'>正确! </span>","null","","","","","","","","","","","","","","","","","","","","","","","feedback_test"
"","","","","","psychophysics","407","991690","0.0-8.5-0.5-0.161","505","","j","","","","","","","","","","","","","key","j","16.664943820223986","747","463","j","true","img/T_ambi40.png","をる","prac",""
"","","","","","html-keyboard-response","408","992191","0.0-8.5-0.5-1.161","null","<span style='color:GreenYellow; font-size: 70px;'>正确! </span>","null","","","","","","","","","","","","","","","","","","","","","","","feedback_test"
"","","","","","psychophysics","409","994292","0.0-8.5-0.5-0.162","1099","","j","","","","","","","","","","","","","key","j","16.666087999999522","747","463","j","true","img/C_ambi40.png","朋友","prac",""
"","","","","","html-keyboard-response","410","994804","0.0-8.5-0.5-1.162","null","<span style='color:GreenYellow; font-size: 70px;'>正确! </span>","null","","","","","","","","","","","","","","","","","","","","","","","feedback_test"
"","","","","","psychophysics","411","996389","0.0-8.5-0.5-0.163","584","","f","","","","","","","","","","","","","key","f","16.66725531914965","747","463","j","false","img/S_ambi40.png","生人","prac",""
"","","","","","html-keyboard-response","412","996890","0.0-8.5-0.5-1.163","null","<span style='color:red; font-size: 70px;'>错误! </span>","null","","","","","","","","","","","","","","","","","","","","","","","feedback_test"
"","","","","","psychophysics","413","998547","0.0-8.5-0.5-0.164","656","","f","","","","","","","","","","","","","key","f","16.666272727274006","747","463","j","false","img/S_ambi40.png","生人","prac",""
"","","","","","html-keyboard-response","414","999048","0.0-8.5-0.5-1.164","null","<span style='color:red; font-size: 70px;'>错误! </span>","null","","","","","","","","","","","","","","","","","","","","","","","feedback_test"
"","","","","","psychophysics","415","1000522","0.0-8.5-0.5-0.165","473","","j","","","","","","","","","","","","","key","j","16.66506896551495","747","463","f","false","img/H_ambi40.png","朋友","prac",""
"","","","","","html-keyboard-response","416","1001023","0.0-8.5-0.5-1.165","null","<span style='color:red; font-size: 70px;'>错误! </span>","null","","","","","","","","","","","","","","","","","","","","","","","feedback_test"
"","","","","","psychophysics","417","1003217","0.0-8.5-0.5-0.166","1192","","f","","","","","","","","","","","","","key","f","16.666702290076252","747","463","j","false","img/C_ambi40.png","朋友","prac",""
"","","","","","html-keyboard-response","418","1003718","0.0-8.5-0.5-1.166","null","<span style='color:red; font-size: 70px;'>错误! </span>","null","","","","","","","","","","","","","","","","","","","","","","","feedback_test"
"","","","","","psychophysics","419","1005730","0.0-8.5-0.5-0.167","1011","","f","","","","","","","","","","","","","key","f","16.665016666665906","747","463","f","true","img/C_ambi40.png","自我","prac",""
"","","","","","html-keyboard-response","420","1006231","0.0-8.5-0.5-1.167","null","<span style='color:GreenYellow; font-size: 70px;'>正确! </span>","null","","","","","","","","","","","","","","","","","","","","","","","feedback_test"
"","","","","","psychophysics","421","1008037","0.0-8.5-0.5-0.168","804","","j","","","","","","","","","","","","","key","j","16.65714953270976","747","463","j","true","img/T_ambi40.png","をる","prac",""
"","","","","","html-keyboard-response","422","1008539","0.0-8.5-0.5-1.168","null","<span style='color:GreenYellow; font-size: 70px;'>正确! </span>","null","","","","","","","","","","","","","","","","","","","","","","","feedback_test"
"","","","","","psychophysics","423","1009955","0.0-8.5-0.5-0.169","414","","j","","","","","","","","","","","","","key","j","16.664619047618803","747","463","j","true","img/T_ambi40.png","をる","prac",""
"","","","","","html-keyboard-response","424","1010456","0.0-8.5-0.5-1.169","null","<span style='color:GreenYellow; font-size: 70px;'>正确! </span>","null","","","","","","","","","","","","","","","","","","","","","","","feedback_test"
"","","","","","psychophysics","425","1012569","0.0-8.5-0.5-0.170","1111","","f","","","","","","","","","","","","","key","f","16.665999999999748","747","463","f","true","img/S_ambi40.png","朋友","prac",""
"","","","","","html-keyboard-response","426","1013069","0.0-8.5-0.5-1.170","null","<span style='color:GreenYellow; font-size: 70px;'>正确! </span>","null","","","","","","","","","","","","","","","","","","","","","","","feedback_test"
"","","","","","psychophysics","427","1014835","0.0-8.5-0.5-0.171","765","","f","","","","","","","","","","","","","key","f","16.666761904761994","747","463","f","true","img/C_ambi40.png","生人","prac",""
"","","","","","html-keyboard-response","428","1015336","0.0-8.5-0.5-1.171","null","<span style='color:GreenYellow; font-size: 70px;'>正确! </span>","null","","","","","","","","","","","","","","","","","","","","","","","feedback_test"
"","","","","","psychophysics","429","1017090","0.0-8.5-0.5-0.172","754","","f","","","","","","","","","","","","","key","f","16.66584615384748","747","463","f","true","img/S_ambi40.png","自我","prac",""
"","","","","","html-keyboard-response","430","1017600","0.0-8.5-0.5-1.172","null","<span style='color:GreenYellow; font-size: 70px;'>正确! </span>","null","","","","","","","","","","","","","","","","","","","","","","","feedback_test"
"","","","","","psychophysics","431","1019173","0.0-8.5-0.5-0.173","571","","j","","","","","","","","","","","","","key","j","16.664430107528304","747","463","j","true","img/H_ambi40.png","自我","prac",""
"","","","","","html-keyboard-response","432","1019674","0.0-8.5-0.5-1.173","null","<span style='color:GreenYellow; font-size: 70px;'>正确! </span>","null","","","","","","","","","","","","","","","","","","","","","","","feedback_test"
"","","","","","psychophysics","433","1021366","0.0-8.5-0.5-0.174","690","","f","","","","","","","","","","","","","key","f","16.667287128712374","747","463","f","true","img/H_ambi40.png","生人","prac",""
"","","","","","html-keyboard-response","434","1021867","0.0-8.5-0.5-1.174","null","<span style='color:GreenYellow; font-size: 70px;'>正确! </span>","null","","","","","","","","","","","","","","","","","","","","","","","feedback_test"
"","","","","","psychophysics","435","1023380","0.0-8.5-0.5-0.175","512","","j","","","","","","","","","","","","","key","j","16.66593333333472","747","463","j","true","img/T_ambi40.png","をる","prac",""
"","","","","","html-keyboard-response","436","1023882","0.0-8.5-0.5-1.175","null","<span style='color:GreenYellow; font-size: 70px;'>正确! </span>","null","","","","","","","","","","","","","","","","","","","","","","","feedback_test"
"","","","","","psychophysics","437","1025560","0.0-8.5-0.5-0.176","677","","f","","","","","","","","","","","","","key","f","16.666515151513835","747","463","f","true","img/S_ambi40.png","朋友","prac",""
"","","","","","html-keyboard-response","438","1026061","0.0-8.5-0.5-1.176","null","<span style='color:GreenYellow; font-size: 70px;'>正确! </span>","null","","","","","","","","","","","","","","","","","","","","","","","feedback_test"
"","","","","","psychophysics","439","1027901","0.0-8.5-0.5-0.177","840","","f","","","","","","","","","","","","","key","f","16.640944954127484","747","463","f","true","img/S_ambi40.png","自我","prac",""
"","","","","","html-keyboard-response","440","1028403","0.0-8.5-0.5-1.177","null","<span style='color:GreenYellow; font-size: 70px;'>正确! </span>","null","","","","","","","","","","","","","","","","","","","","","","","feedback_test"
"","","","","","psychophysics","441","1029949","0.0-8.5-0.5-0.178","545","","j","","","","","","","","","","","","","key","j","16.66393478261054","747","463","j","true","img/T_ambi40.png","をる","prac",""
"","","","","","html-keyboard-response","442","1030449","0.0-8.5-0.5-1.178","null","<span style='color:GreenYellow; font-size: 70px;'>正确! </span>","null","","","","","","","","","","","","","","","","","","","","","","","feedback_test"
"","","","","","psychophysics","443","1032124","0.0-8.5-0.5-0.179","673","","j","","","","","","","","","","","","","key","j","16.66575757575908","747","463","j","true","img/H_ambi40.png","自我","prac",""
"","","","","","html-keyboard-response","444","1032626","0.0-8.5-0.5-1.179","null","<span style='color:GreenYellow; font-size: 70px;'>正确! </span>","null","","","","","","","","","","","","","","","","","","","","","","","feedback_test"
"","","","","","psychophysics","445","1034485","0.0-8.5-0.5-0.180","858","","f","","","","","","","","","","","","","key","f","16.667135135134313","747","463","f","true","img/H_ambi40.png","生人","prac",""
"","","","","","html-keyboard-response","446","1034986","0.0-8.5-0.5-1.180","null","<span style='color:GreenYellow; font-size: 70px;'>正确! </span>","null","","","","","","","","","","","","","","","","","","","","","","","feedback_test"
"","","","","","psychophysics","447","1037363","0.0-8.5-0.5-0.181","1375","","j","","","","","","","","","","","","","key","j","16.665549295774046","747","463","j","true","img/S_ambi40.png","生人","prac",""
"","","","","","html-keyboard-response","448","1037864","0.0-8.5-0.5-1.181","null","<span style='color:GreenYellow; font-size: 70px;'>正确! </span>","null","","","","","","","","","","","","","","","","","","","","","","","feedback_test"
"","","","","","psychophysics","449","1039451","0.0-8.5-0.5-0.182","586","","j","","","","","","","","","","","","","key","j","16.666393617019455","747","463","f","false","img/C_ambi40.png","自我","prac",""
"","","","","","html-keyboard-response","450","1039953","0.0-8.5-0.5-1.182","null","<span style='color:red; font-size: 70px;'>错误! </span>","null","","","","","","","","","","","","","","","","","","","","","","","feedback_test"
"","","","","","psychophysics","451","1042398","0.0-8.5-0.5-0.183","1444","","j","","","","","","","","","","","","","key","j","16.665794520547983","747","463","f","false","img/C_ambi40.png","生人","prac",""
"","","","","","html-keyboard-response","452","1042899","0.0-8.5-0.5-1.183","null","<span style='color:red; font-size: 70px;'>错误! </span>","null","","","","","","","","","","","","","","","","","","","","","","","feedback_test"
"","","","","","psychophysics","453","1044406","0.0-8.5-0.5-0.184","506","","j","","","","","","","","","","","","","key","j","16.66487640449568","747","463","j","true","img/T_ambi40.png","をる","prac",""
"","","","","","html-keyboard-response","454","1044907","0.0-8.5-0.5-1.184","null","<span style='color:GreenYellow; font-size: 70px;'>正确! </span>","null","","","","","","","","","","","","","","","","","","","","","","","feedback_test"
