"success","timeout","failed_images","failed_audio","failed_video","trial_type","trial_index","time_elapsed","internal_node_id","rt","stimulus","response","value","item_width_mm","item_height_mm","item_width_px","px2mm","view_dist_mm","item_width_deg","px2deg","scale_factor","win_width_deg","win_height_deg","view_history","response_type","key_press","avg_frame_time","center_x","center_y","correct_response","correct","Image","word","condition","screen_id"
"true","false","[]","[]","[]","preload","0","247","0.0-0.0","","","","","","","","","","","","","","","","","","","","","","","","","",""
"","","","","","html-keyboard-response","1","52987","0.0-1.0","52739","
     <p>您好，欢迎参加本次实验。</p>
     <p>为充分保障您的权利，请确保您已经知晓并同意《参与实验同意书》以及《数据公开知情同意书》。</p>
     <p>如果您未见过上述内容，请咨询实验员。</p>
     <p>如果您选择继续实验，则表示您已经清楚两份知情同意书的内容并同意。</p>
     <p> <div style = ""color: green""><按任意键至下页></div> </p>
     "," ","","","","","","","","","","","","","","","","","","","","","","",""
"","","","","","html-keyboard-response","2","56337","0.0-2.0","3349","
     <p>本实验首先需要您填写一些基本个人信息。</p>
     <p> <div style = ""color: green""><按任意键至下页></div></p>
     "," ","","","","","","","","","","","","","","","","","","","","","","",""
"","","","","","call-function","3","56338","0.0-3.0-0.0","","","","","","","","","","","","","","","","","","","","","","","","","",""
"","","","","","survey-html-form","4","65348","0.0-3.0-1.0","8997","","{""Q0"":""2""}","","","","","","","","","","","","","","","","","","","","","","",""
"","","","","","html-button-response","5","67203","0.0-3.0-2.0","1850","<p style = 'color : white'>您的性别</p>","1","","","","","","","","","","","","","","","","","","","","","","",""
"","","","","","survey-html-form","6","72799","0.0-3.0-3.0","5594","","{""Q0"":""2000""}","","","","","","","","","","","","","","","","","","","","","","",""
"","","","","","survey-html-form","7","76960","0.0-3.0-4.0","4156","","{""Q0"":""5""}","","","","","","","","","","","","","","","","","","","","","","",""
"","","","","","virtual-chinrest","8","233389","0.0-4.0","156418","","","","85.6","53.98","448.9194040356641","5.240873042462869","545.14","8.978388080713282","50","0.9578556777328318","29.58","15.08","","","","","","","","","","","",""
"true","","","","","fullscreen","9","238575","0.0-5.0","","","","","","","","","","","","","","","","","","","","","","","","","",""
"","","","","","instructions","10","275808","0.0-6.0","37231","","","","","","","","","","","","","","[{""page_index"":0,""viewing_time"":3824},{""page_index"":1,""viewing_time"":27247},{""page_index"":2,""viewing_time"":3794},{""page_index"":3,""viewing_time"":2366}]","","","","","","","","","","",""
"","","","","","psychophysics","11","278363","0.0-7.0-0.0","null","","null","","","","","","","","","","","","","key","null","16.77867114093958","768","428","j","false","img/C_ambi40.png","生人","prac",""
"","","","","","html-keyboard-response","12","278865","0.0-7.0-1.0","null","<span class='add_' style='color:yellow; font-size: 70px;'> 太慢! </span>","null","","","","","","","","","","","","","","","","","","","","","","","feedback_test"
"","","","","","psychophysics","13","280274","0.0-7.0-0.1","407","","f","","","","","","","","","","","","","key","f","16.666547619048202","768","428","j","false","img/T_ambi40.png","をる","prac",""
"","","","","","html-keyboard-response","14","280775","0.0-7.0-1.1","null","<span style='color:red; font-size: 70px;'>错误! </span>","null","","","","","","","","","","","","","","","","","","","","","","","feedback_test"
"","","","","","psychophysics","15","282090","0.0-7.0-0.2","313","","f","","","","","","","","","","","","","key","f","16.66633333333317","768","428","j","false","img/S_ambi40.png","生人","prac",""
"","","","","","html-keyboard-response","16","282593","0.0-7.0-1.2","null","<span style='color:red; font-size: 70px;'>错误! </span>","null","","","","","","","","","","","","","","","","","","","","","","","feedback_test"
"","","","","","psychophysics","17","285097","0.0-7.0-0.3","null","","null","","","","","","","","","","","","","key","null","16.6663355704697","768","428","f","false","img/H_ambi40.png","生人","prac",""
"","","","","","html-keyboard-response","18","285599","0.0-7.0-1.3","null","<span class='add_' style='color:yellow; font-size: 70px;'> 太慢! </span>","null","","","","","","","","","","","","","","","","","","","","","","","feedback_test"
"","","","","","psychophysics","19","286934","0.0-7.0-0.4","333","","f","","","","","","","","","","","","","key","f","16.666392405063526","768","428","f","true","img/C_ambi40.png","朋友","prac",""
"","","","","","html-keyboard-response","20","287435","0.0-7.0-1.4","null","<span style='color:GreenYellow; font-size: 70px;'>正确! </span>","null","","","","","","","","","","","","","","","","","","","","","","","feedback_test"
"","","","","","psychophysics","21","288809","0.0-7.0-0.5","371","","j","","","","","","","","","","","","","key","j","16.66621951219518","768","428","j","true","img/S_ambi40.png","朋友","prac",""
"","","","","","html-keyboard-response","22","289310","0.0-7.0-1.5","null","<span style='color:GreenYellow; font-size: 70px;'>正确! </span>","null","","","","","","","","","","","","","","","","","","","","","","","feedback_test"
"","","","","","psychophysics","23","290610","0.0-7.0-0.6","299","","f","","","","","","","","","","","","","key","f","16.665844155844397","768","428","f","true","img/C_ambi40.png","朋友","prac",""
"","","","","","html-keyboard-response","24","291112","0.0-7.0-1.6","null","<span style='color:GreenYellow; font-size: 70px;'>正确! </span>","null","","","","","","","","","","","","","","","","","","","","","","","feedback_test"
"","","","","","psychophysics","25","292418","0.0-7.0-0.7","304","","j","","","","","","","","","","","","","key","j","16.666519480520048","768","428","j","true","img/T_ambi40.png","をる","prac",""
"","","","","","html-keyboard-response","26","292919","0.0-7.0-1.7","null","<span style='color:GreenYellow; font-size: 70px;'>正确! </span>","null","","","","","","","","","","","","","","","","","","","","","","","feedback_test"
"","","","","","psychophysics","27","294220","0.0-7.0-0.8","299","","f","","","","","","","","","","","","","key","f","16.66625974025931","768","428","j","false","img/T_ambi40.png","をる","prac",""
"","","","","","html-keyboard-response","28","294722","0.0-7.0-1.8","null","<span style='color:red; font-size: 70px;'>错误! </span>","null","","","","","","","","","","","","","","","","","","","","","","","feedback_test"
"","","","","","psychophysics","29","296025","0.0-7.0-0.9","301","","f","","","","","","","","","","","","","key","f","16.667428571428474","768","428","f","true","img/H_ambi40.png","生人","prac",""
"","","","","","html-keyboard-response","30","296537","0.0-7.0-1.9","null","<span style='color:GreenYellow; font-size: 70px;'>正确! </span>","null","","","","","","","","","","","","","","","","","","","","","","","feedback_test"
"","","","","","psychophysics","31","297900","0.0-7.0-0.10","361","","f","","","","","","","","","","","","","key","f","16.666666666666668","768","428","j","false","img/T_ambi40.png","をる","prac",""
"","","","","","html-keyboard-response","32","298401","0.0-7.0-1.10","null","<span style='color:red; font-size: 70px;'>错误! </span>","null","","","","","","","","","","","","","","","","","","","","","","","feedback_test"
"","","","","","psychophysics","33","299713","0.0-7.0-0.11","310","","j","","","","","","","","","","","","","key","j","16.66560256410202","768","428","j","true","img/H_ambi40.png","自我","prac",""
"","","","","","html-keyboard-response","34","300215","0.0-7.0-1.11","null","<span style='color:GreenYellow; font-size: 70px;'>正确! </span>","null","","","","","","","","","","","","","","","","","","","","","","","feedback_test"
"","","","","","psychophysics","35","301502","0.0-7.0-0.12","285","","f","","","","","","","","","","","","","key","f","16.667605263158055","768","428","f","true","img/S_ambi40.png","自我","prac",""
"","","","","","html-keyboard-response","36","302003","0.0-7.0-1.12","null","<span style='color:GreenYellow; font-size: 70px;'>正确! </span>","null","","","","","","","","","","","","","","","","","","","","","","","feedback_test"
"","","","","","psychophysics","37","303396","0.0-7.0-0.13","392","","j","","","","","","","","","","","","","key","j","16.652756097561127","768","428","f","false","img/S_ambi40.png","自我","prac",""
"","","","","","html-keyboard-response","38","303897","0.0-7.0-1.13","null","<span style='color:red; font-size: 70px;'>错误! </span>","null","","","","","","","","","","","","","","","","","","","","","","","feedback_test"
"","","","","","psychophysics","39","305202","0.0-7.0-0.14","303","","f","","","","","","","","","","","","","key","f","16.66693506493496","768","428","j","false","img/H_ambi40.png","朋友","prac",""
"","","","","","html-keyboard-response","40","305704","0.0-7.0-1.14","null","<span style='color:red; font-size: 70px;'>错误! </span>","null","","","","","","","","","","","","","","","","","","","","","","","feedback_test"
"","","","","","psychophysics","41","306999","0.0-7.0-0.15","294","","f","","","","","","","","","","","","","key","f","16.66644736842059","768","428","j","false","img/C_ambi40.png","自我","prac",""
"","","","","","html-keyboard-response","42","307500","0.0-7.0-1.15","null","<span style='color:red; font-size: 70px;'>错误! </span>","null","","","","","","","","","","","","","","","","","","","","","","","feedback_test"
"","","","","","psychophysics","43","308841","0.0-7.0-0.16","339","","f","","","","","","","","","","","","","key","f","16.66626249999972","768","428","j","false","img/T_ambi40.png","をる","prac",""
"","","","","","html-keyboard-response","44","309343","0.0-7.0-1.16","null","<span style='color:red; font-size: 70px;'>错误! </span>","null","","","","","","","","","","","","","","","","","","","","","","","feedback_test"
"","","","","","psychophysics","45","310642","0.0-7.0-0.17","296","","f","","","","","","","","","","","","","key","f","16.666974025973506","768","428","f","true","img/S_ambi40.png","自我","prac",""
"","","","","","html-keyboard-response","46","311144","0.0-7.0-1.17","null","<span style='color:GreenYellow; font-size: 70px;'>正确! </span>","null","","","","","","","","","","","","","","","","","","","","","","","feedback_test"
"","","","","","psychophysics","47","312439","0.0-7.0-0.18","294","","f","","","","","","","","","","","","","key","f","16.66657142857144","768","428","j","false","img/H_ambi40.png","朋友","prac",""
"","","","","","html-keyboard-response","48","312941","0.0-7.0-1.18","null","<span style='color:red; font-size: 70px;'>错误! </span>","null","","","","","","","","","","","","","","","","","","","","","","","feedback_test"
"","","","","","psychophysics","49","314244","0.0-7.0-0.19","301","","f","","","","","","","","","","","","","key","f","16.667207792207794","768","428","f","true","img/C_ambi40.png","朋友","prac",""
"","","","","","html-keyboard-response","50","314746","0.0-7.0-1.19","null","<span style='color:GreenYellow; font-size: 70px;'>正确! </span>","null","","","","","","","","","","","","","","","","","","","","","","","feedback_test"
"","","","","","psychophysics","51","316041","0.0-7.0-0.20","292","","j","","","","","","","","","","","","","key","j","16.667389610389176","768","428","j","true","img/C_ambi40.png","自我","prac",""
"","","","","","html-keyboard-response","52","316542","0.0-7.0-1.20","null","<span style='color:GreenYellow; font-size: 70px;'>正确! </span>","null","","","","","","","","","","","","","","","","","","","","","","","feedback_test"
"","","","","","psychophysics","53","317801","0.0-7.0-0.21","257","","f","","","","","","","","","","","","","key","f","16.666675675675318","768","428","j","false","img/T_ambi40.png","をる","prac",""
"","","","","","html-keyboard-response","54","318302","0.0-7.0-1.21","null","<span style='color:red; font-size: 70px;'>错误! </span>","null","","","","","","","","","","","","","","","","","","","","","","","feedback_test"
"","","","","","psychophysics","55","319630","0.0-7.0-0.22","325","","j","","","","","","","","","","","","","key","j","16.64960256410249","768","428","j","true","img/H_ambi40.png","自我","prac",""
"","","","","","html-keyboard-response","56","320131","0.0-7.0-1.22","null","<span style='color:GreenYellow; font-size: 70px;'>正确! </span>","null","","","","","","","","","","","","","","","","","","","","","","","feedback_test"
"","","","","","psychophysics","57","321390","0.0-7.0-0.23","258","","f","","","","","","","","","","","","","key","f","16.666946666665996","768","428","j","false","img/T_ambi40.png","をる","prac",""
"","","","","","html-keyboard-response","58","321892","0.0-7.0-1.23","null","<span style='color:red; font-size: 70px;'>错误! </span>","null","","","","","","","","","","","","","","","","","","","","","","","feedback_test"
"","","","","","psychophysics","59","324395","0.0-7.0-0.24","null","","null","","","","","","","","","","","","","key","null","16.666436241610732","768","428","f","false","img/H_ambi40.png","生人","prac",""
"","","","","","html-keyboard-response","60","324897","0.0-7.0-1.24","null","<span class='add_' style='color:yellow; font-size: 70px;'> 太慢! </span>","null","","","","","","","","","","","","","","","","","","","","","","","feedback_test"
"","","","","","psychophysics","61","327400","0.0-7.0-0.25","null","","null","","","","","","","","","","","","","key","null","16.666409395973044","768","428","j","false","img/C_ambi40.png","生人","prac",""
"","","","","","html-keyboard-response","62","327902","0.0-7.0-1.25","null","<span class='add_' style='color:yellow; font-size: 70px;'> 太慢! </span>","null","","","","","","","","","","","","","","","","","","","","","","","feedback_test"
"","","","","","psychophysics","63","329194","0.0-7.0-0.26","291","","f","","","","","","","","","","","","","key","f","16.6657402597401","768","428","f","true","img/C_ambi40.png","朋友","prac",""
"","","","","","html-keyboard-response","64","329695","0.0-7.0-1.26","null","<span style='color:GreenYellow; font-size: 70px;'>正确! </span>","null","","","","","","","","","","","","","","","","","","","","","","","feedback_test"
"","","","","","psychophysics","65","331018","0.0-7.0-0.27","320","","f","","","","","","","","","","","","","key","f","16.666666666666668","768","428","f","true","img/S_ambi40.png","自我","prac",""
"","","","","","html-keyboard-response","66","331518","0.0-7.0-1.27","null","<span style='color:GreenYellow; font-size: 70px;'>正确! </span>","null","","","","","","","","","","","","","","","","","","","","","","","feedback_test"
"","","","","","psychophysics","67","332858","0.0-7.0-0.28","338","","f","","","","","","","","","","","","","key","f","16.65289873417682","768","428","f","true","img/H_ambi40.png","生人","prac",""
"","","","","","html-keyboard-response","68","333359","0.0-7.0-1.28","null","<span style='color:GreenYellow; font-size: 70px;'>正确! </span>","null","","","","","","","","","","","","","","","","","","","","","","","feedback_test"
"","","","","","psychophysics","69","334629","0.0-7.0-0.29","268","","f","","","","","","","","","","","","","key","f","16.66678666666616","768","428","j","false","img/T_ambi40.png","をる","prac",""
"","","","","","html-keyboard-response","70","335131","0.0-7.0-1.29","null","<span style='color:red; font-size: 70px;'>错误! </span>","null","","","","","","","","","","","","","","","","","","","","","","","feedback_test"
"","","","","","psychophysics","71","336533","0.0-7.0-0.30","400","","f","","","","","","","","","","","","","key","f","16.666012048192535","768","428","j","false","img/S_ambi40.png","生人","prac",""
"","","","","","html-keyboard-response","72","337034","0.0-7.0-1.30","null","<span style='color:red; font-size: 70px;'>错误! </span>","null","","","","","","","","","","","","","","","","","","","","","","","feedback_test"
"","","","","","psychophysics","73","338364","0.0-7.0-0.31","329","","f","","","","","","","","","","","","","key","f","16.666227848101055","768","428","j","false","img/S_ambi40.png","朋友","prac",""
"","","","","","html-keyboard-response","74","338865","0.0-7.0-1.31","null","<span style='color:red; font-size: 70px;'>错误! </span>","null","","","","","","","","","","","","","","","","","","","","","","","feedback_test"
"","","","","","psychophysics","75","340181","0.0-8.0-0.0-0.0","314","","f","","","","","","","","","","","","","key","f","16.667038461538212","768","428","f","true","img/C_ambi40.png","朋友","prac",""
"","","","","","html-keyboard-response","76","340683","0.0-8.0-0.0-1.0","null","<span style='color:GreenYellow; font-size: 70px;'>正确! </span>","null","","","","","","","","","","","","","","","","","","","","","","","feedback_test"
"","","","","","psychophysics","77","342059","0.0-8.0-0.0-0.1","375","","f","","","","","","","","","","","","","key","f","16.6664512195119","768","428","j","false","img/C_ambi40.png","自我","prac",""
"","","","","","html-keyboard-response","78","342560","0.0-8.0-0.0-1.1","null","<span style='color:red; font-size: 70px;'>错误! </span>","null","","","","","","","","","","","","","","","","","","","","","","","feedback_test"
"","","","","","psychophysics","79","343875","0.0-8.0-0.0-0.2","312","","j","","","","","","","","","","","","","key","j","16.66670512820546","768","428","f","false","img/H_ambi40.png","生人","prac",""
"","","","","","html-keyboard-response","80","344376","0.0-8.0-0.0-1.2","null","<span style='color:red; font-size: 70px;'>错误! </span>","null","","","","","","","","","","","","","","","","","","","","","","","feedback_test"
"","","","","","psychophysics","81","345688","0.0-8.0-0.0-0.3","310","","f","","","","","","","","","","","","","key","f","16.66643589743613","768","428","j","false","img/T_ambi40.png","をる","prac",""
"","","","","","html-keyboard-response","82","346190","0.0-8.0-0.0-1.3","null","<span style='color:red; font-size: 70px;'>错误! </span>","null","","","","","","","","","","","","","","","","","","","","","","","feedback_test"
"","","","","","psychophysics","83","347474","0.0-8.0-0.0-0.4","282","","j","","","","","","","","","","","","","key","j","16.66707894736809","768","428","j","true","img/S_ambi40.png","生人","prac",""
"","","","","","html-keyboard-response","84","347976","0.0-8.0-0.0-1.4","null","<span style='color:GreenYellow; font-size: 70px;'>正确! </span>","null","","","","","","","","","","","","","","","","","","","","","","","feedback_test"
"","","","","","psychophysics","85","349329","0.0-8.0-0.0-0.5","351","","f","","","","","","","","","","","","","key","f","16.666737499999726","768","428","j","false","img/T_ambi40.png","をる","prac",""
"","","","","","html-keyboard-response","86","349830","0.0-8.0-0.0-1.5","null","<span style='color:red; font-size: 70px;'>错误! </span>","null","","","","","","","","","","","","","","","","","","","","","","","feedback_test"
"","","","","","psychophysics","87","351126","0.0-8.0-0.0-0.6","293","","j","","","","","","","","","","","","","key","j","16.666337662337153","768","428","j","true","img/S_ambi40.png","朋友","prac",""
"","","","","","html-keyboard-response","88","351629","0.0-8.0-0.0-1.6","null","<span style='color:GreenYellow; font-size: 70px;'>正确! </span>","null","","","","","","","","","","","","","","","","","","","","","","","feedback_test"
"","","","","","psychophysics","89","352962","0.0-8.0-0.0-0.7","331","","f","","","","","","","","","","","","","key","f","16.666354430379652","768","428","j","false","img/T_ambi40.png","をる","prac",""
"","","","","","html-keyboard-response","90","353464","0.0-8.0-0.0-1.7","null","<span style='color:red; font-size: 70px;'>错误! </span>","null","","","","","","","","","","","","","","","","","","","","","","","feedback_test"
"","","","","","psychophysics","91","354739","0.0-8.0-0.0-0.8","273","","j","","","","","","","","","","","","","key","j","16.66669736842098","768","428","f","false","img/C_ambi40.png","朋友","prac",""
"","","","","","html-keyboard-response","92","355241","0.0-8.0-0.0-1.8","null","<span style='color:red; font-size: 70px;'>错误! </span>","null","","","","","","","","","","","","","","","","","","","","","","","feedback_test"
"","","","","","psychophysics","93","356559","0.0-8.0-0.0-0.9","316","","f","","","","","","","","","","","","","key","f","16.665923076922834","768","428","f","true","img/S_ambi40.png","自我","prac",""
"","","","","","html-keyboard-response","94","357060","0.0-8.0-0.0-1.9","null","<span style='color:GreenYellow; font-size: 70px;'>正确! </span>","null","","","","","","","","","","","","","","","","","","","","","","","feedback_test"
"","","","","","psychophysics","95","358382","0.0-8.0-0.0-0.10","320","","f","","","","","","","","","","","","","key","f","16.66708974358969","768","428","j","false","img/T_ambi40.png","をる","prac",""
"","","","","","html-keyboard-response","96","358884","0.0-8.0-0.0-1.10","null","<span style='color:red; font-size: 70px;'>错误! </span>","null","","","","","","","","","","","","","","","","","","","","","","","feedback_test"
"","","","","","psychophysics","97","360282","0.0-8.0-0.0-0.11","398","","f","","","","","","","","","","","","","key","f","16.666156626506343","768","428","f","true","img/S_ambi40.png","自我","prac",""
"","","","","","html-keyboard-response","98","360784","0.0-8.0-0.0-1.11","null","<span style='color:GreenYellow; font-size: 70px;'>正确! </span>","null","","","","","","","","","","","","","","","","","","","","","","","feedback_test"
"","","","","","psychophysics","99","362110","0.0-8.0-0.0-0.12","324","","j","","","","","","","","","","","","","key","j","16.666797468354748","768","428","j","true","img/H_ambi40.png","自我","prac",""
"","","","","","html-keyboard-response","100","362612","0.0-8.0-0.0-1.12","null","<span style='color:GreenYellow; font-size: 70px;'>正确! </span>","null","","","","","","","","","","","","","","","","","","","","","","","feedback_test"
"","","","","","psychophysics","101","363995","0.0-8.0-0.0-0.13","381","","f","","","","","","","","","","","","","key","f","16.66732926829221","768","428","j","false","img/H_ambi40.png","朋友","prac",""
"","","","","","html-keyboard-response","102","364498","0.0-8.0-0.0-1.13","null","<span style='color:red; font-size: 70px;'>错误! </span>","null","","","","","","","","","","","","","","","","","","","","","","","feedback_test"
"","","","","","psychophysics","103","365831","0.0-8.0-0.0-0.14","331","","f","","","","","","","","","","","","","key","f","16.66054430379771","768","428","j","false","img/C_ambi40.png","生人","prac",""
"","","","","","html-keyboard-response","104","366331","0.0-8.0-0.0-1.14","null","<span style='color:red; font-size: 70px;'>错误! </span>","null","","","","","","","","","","","","","","","","","","","","","","","feedback_test"
"","","","","","psychophysics","105","367704","0.0-8.0-0.0-0.15","371","","f","","","","","","","","","","","","","key","f","16.666548780487883","768","428","f","true","img/H_ambi40.png","生人","prac",""
"","","","","","html-keyboard-response","106","368205","0.0-8.0-0.0-1.15","null","<span style='color:GreenYellow; font-size: 70px;'>正确! </span>","null","","","","","","","","","","","","","","","","","","","","","","","feedback_test"
"","","","","","psychophysics","107","369497","0.0-8.0-0.0-0.16","289","","j","","","","","","","","","","","","","key","j","16.667157894737198","768","428","f","false","img/H_ambi40.png","生人","prac",""
"","","","","","html-keyboard-response","108","369999","0.0-8.0-0.0-1.16","null","<span style='color:red; font-size: 70px;'>错误! </span>","null","","","","","","","","","","","","","","","","","","","","","","","feedback_test"
"","","","","","psychophysics","109","371023","0.0-8.0-0.0-0.17","22","","f","","","","","","","","","","","","","key","f","16.665983606557376","768","428","j","false","img/T_ambi40.png","をる","prac",""
"","","","","","html-keyboard-response","110","371524","0.0-8.0-0.0-1.17","null","<span style='color:yellow; font-size: 70px;'>过快! </span>","null","","","","","","","","","","","","","","","","","","","","","","","feedback_test"
"","","","","","psychophysics","111","372841","0.0-8.0-0.0-0.18","315","","f","","","","","","","","","","","","","key","f","16.666730769230828","768","428","f","true","img/C_ambi40.png","朋友","prac",""
"","","","","","html-keyboard-response","112","373342","0.0-8.0-0.0-1.18","null","<span style='color:GreenYellow; font-size: 70px;'>正确! </span>","null","","","","","","","","","","","","","","","","","","","","","","","feedback_test"
"","","","","","psychophysics","113","374608","0.0-8.0-0.0-0.19","264","","f","","","","","","","","","","","","","key","f","16.666080000000076","768","428","f","true","img/S_ambi40.png","自我","prac",""
"","","","","","html-keyboard-response","114","375109","0.0-8.0-0.0-1.19","null","<span style='color:GreenYellow; font-size: 70px;'>正确! </span>","null","","","","","","","","","","","","","","","","","","","","","","","feedback_test"
"","","","","","psychophysics","115","376481","0.0-8.0-0.0-0.20","370","","f","","","","","","","","","","","","","key","f","16.66620987654307","768","428","j","false","img/T_ambi40.png","をる","prac",""
"","","","","","html-keyboard-response","116","376983","0.0-8.0-0.0-1.20","null","<span style='color:red; font-size: 70px;'>错误! </span>","null","","","","","","","","","","","","","","","","","","","","","","","feedback_test"
"","","","","","psychophysics","117","378338","0.0-8.0-0.0-0.21","353","","f","","","","","","","","","","","","","key","f","16.666185185185313","768","428","f","true","img/S_ambi40.png","自我","prac",""
"","","","","","html-keyboard-response","118","378839","0.0-8.0-0.0-1.21","null","<span style='color:GreenYellow; font-size: 70px;'>正确! </span>","null","","","","","","","","","","","","","","","","","","","","","","","feedback_test"
"","","","","","psychophysics","119","380310","0.0-8.0-0.0-0.22","468","","f","","","","","","","","","","","","","key","f","16.666666666666668","768","428","j","false","img/C_ambi40.png","自我","prac",""
"","","","","","html-keyboard-response","120","380810","0.0-8.0-0.0-1.22","null","<span style='color:red; font-size: 70px;'>错误! </span>","null","","","","","","","","","","","","","","","","","","","","","","","feedback_test"
"","","","","","psychophysics","121","382201","0.0-8.0-0.0-0.23","388","","j","","","","","","","","","","","","","key","j","16.66582926829266","768","428","j","true","img/H_ambi40.png","自我","prac",""
"","","","","","html-keyboard-response","122","382702","0.0-8.0-0.0-1.23","null","<span style='color:GreenYellow; font-size: 70px;'>正确! </span>","null","","","","","","","","","","","","","","","","","","","","","","","feedback_test"
"","","","","","psychophysics","123","384053","0.0-8.0-0.0-0.24","350","","f","","","","","","","","","","","","","key","f","16.666712499999996","768","428","f","true","img/H_ambi40.png","生人","prac",""
"","","","","","html-keyboard-response","124","384555","0.0-8.0-0.0-1.24","null","<span style='color:GreenYellow; font-size: 70px;'>正确! </span>","null","","","","","","","","","","","","","","","","","","","","","","","feedback_test"
"","","","","","psychophysics","125","385851","0.0-8.0-0.0-0.25","294","","f","","","","","","","","","","","","","key","f","16.666078947368845","768","428","j","false","img/S_ambi40.png","生人","prac",""
"","","","","","html-keyboard-response","126","386352","0.0-8.0-0.0-1.25","null","<span style='color:red; font-size: 70px;'>错误! </span>","null","","","","","","","","","","","","","","","","","","","","","","","feedback_test"
"","","","","","psychophysics","127","387734","0.0-8.0-0.0-0.26","381","","f","","","","","","","","","","","","","key","f","16.666456790123547","768","428","j","false","img/T_ambi40.png","をる","prac",""
"","","","","","html-keyboard-response","128","388235","0.0-8.0-0.0-1.26","null","<span style='color:red; font-size: 70px;'>错误! </span>","null","","","","","","","","","","","","","","","","","","","","","","","feedback_test"
"","","","","","psychophysics","129","389559","0.0-8.0-0.0-0.27","323","","f","","","","","","","","","","","","","key","f","16.666410256410018","768","428","j","false","img/C_ambi40.png","生人","prac",""
"","","","","","html-keyboard-response","130","390060","0.0-8.0-0.0-1.27","null","<span style='color:red; font-size: 70px;'>错误! </span>","null","","","","","","","","","","","","","","","","","","","","","","","feedback_test"
"","","","","","psychophysics","131","391442","0.0-8.0-0.0-0.28","380","","j","","","","","","","","","","","","","key","j","16.66686585365806","768","428","f","false","img/C_ambi40.png","朋友","prac",""
"","","","","","html-keyboard-response","132","391943","0.0-8.0-0.0-1.28","null","<span style='color:red; font-size: 70px;'>错误! </span>","null","","","","","","","","","","","","","","","","","","","","","","","feedback_test"
"","","","","","psychophysics","133","393557","0.0-8.0-0.0-0.29","612","","j","","","","","","","","","","","","","key","j","16.666479166666857","768","428","j","true","img/T_ambi40.png","をる","prac",""
"","","","","","html-keyboard-response","134","394058","0.0-8.0-0.0-1.29","null","<span style='color:GreenYellow; font-size: 70px;'>正确! </span>","null","","","","","","","","","","","","","","","","","","","","","","","feedback_test"
"","","","","","psychophysics","135","395889","0.0-8.0-0.0-0.30","830","","f","","","","","","","","","","","","","key","f","16.666275229357897","768","428","j","false","img/H_ambi40.png","朋友","prac",""
"","","","","","html-keyboard-response","136","396390","0.0-8.0-0.0-1.30","null","<span style='color:red; font-size: 70px;'>错误! </span>","null","","","","","","","","","","","","","","","","","","","","","","","feedback_test"
"","","","","","psychophysics","137","398464","0.0-8.0-0.0-0.31","1072","","j","","","","","","","","","","","","","key","j","16.66620325203228","768","428","j","true","img/S_ambi40.png","朋友","prac",""
"","","","","","html-keyboard-response","138","398965","0.0-8.0-0.0-1.31","null","<span style='color:GreenYellow; font-size: 70px;'>正确! </span>","null","","","","","","","","","","","","","","","","","","","","","","","feedback_test"
"","","","","","html-keyboard-response","139","406451","0.0-8.0-1.0-0.0","7476","<style>.context{color:white; font-size: 35px; line-height:40px}</style>                          <div><p class='context'>您正确回答了44% 的试次。</p ><p class='context'>您的平均反应时为404毫秒。</p >"," ","","","","","","","","","","","","","","","","","","","","","","",""
"","","","","","instructions","140","425071","0.0-8.0-1.0-1.0","18617","","","","","","","","","","","","","","[{""page_index"":0,""viewing_time"":6735},{""page_index"":1,""viewing_time"":10366},{""page_index"":2,""viewing_time"":1515}]","","","","","","","","","","",""
"","","","","","psychophysics","141","426799","0.0-8.1-0.1-0.32","724","","j","","","","","","","","","","","","","key","j","16.666519607843","768","428","j","true","img/S_ambi40.png","朋友","prac",""
"","","","","","html-keyboard-response","142","427302","0.0-8.1-0.1-1.32","null","<span style='color:GreenYellow; font-size: 70px;'>正确! </span>","null","","","","","","","","","","","","","","","","","","","","","","","feedback_test"
"","","","","","psychophysics","143","428928","0.0-8.1-0.1-0.33","626","","f","","","","","","","","","","","","","key","f","16.666197916666835","768","428","f","true","img/H_ambi40.png","生人","prac",""
"","","","","","html-keyboard-response","144","429430","0.0-8.1-0.1-1.33","null","<span style='color:GreenYellow; font-size: 70px;'>正确! </span>","null","","","","","","","","","","","","","","","","","","","","","","","feedback_test"
"","","","","","psychophysics","145","431181","0.0-8.1-0.1-0.34","748","","j","","","","","","","","","","","","","key","j","16.66679807692316","768","428","j","true","img/S_ambi40.png","生人","prac",""
"","","","","","html-keyboard-response","146","431682","0.0-8.1-0.1-1.34","null","<span style='color:GreenYellow; font-size: 70px;'>正确! </span>","null","","","","","","","","","","","","","","","","","","","","","","","feedback_test"
"","","","","","psychophysics","147","433486","0.0-8.1-0.1-0.35","802","","j","","","","","","","","","","","","","key","j","16.666703703703845","768","428","j","true","img/H_ambi40.png","自我","prac",""
"","","","","","html-keyboard-response","148","433987","0.0-8.1-0.1-1.35","null","<span style='color:GreenYellow; font-size: 70px;'>正确! </span>","null","","","","","","","","","","","","","","","","","","","","","","","feedback_test"
"","","","","","psychophysics","149","435554","0.0-8.1-0.1-0.36","565","","j","","","","","","","","","","","","","key","j","16.666795698924602","768","428","j","true","img/T_ambi40.png","をる","prac",""
"","","","","","html-keyboard-response","150","436055","0.0-8.1-0.1-1.36","null","<span style='color:GreenYellow; font-size: 70px;'>正确! </span>","null","","","","","","","","","","","","","","","","","","","","","","","feedback_test"
"","","","","","psychophysics","151","437787","0.0-8.1-0.1-0.37","729","","f","","","","","","","","","","","","","key","f","16.66642718446595","768","428","f","true","img/C_ambi40.png","朋友","prac",""
"","","","","","html-keyboard-response","152","438288","0.0-8.1-0.1-1.37","null","<span style='color:GreenYellow; font-size: 70px;'>正确! </span>","null","","","","","","","","","","","","","","","","","","","","","","","feedback_test"
"","","","","","psychophysics","153","439809","0.0-8.1-0.1-0.38","519","","f","","","","","","","","","","","","","key","f","16.666344444444015","768","428","f","true","img/S_ambi40.png","自我","prac",""
"","","","","","html-keyboard-response","154","440310","0.0-8.1-0.1-1.38","null","<span style='color:GreenYellow; font-size: 70px;'>正确! </span>","null","","","","","","","","","","","","","","","","","","","","","","","feedback_test"
"","","","","","psychophysics","155","442550","0.0-8.1-0.1-0.39","1239","","f","","","","","","","","","","","","","key","f","16.665909774436027","768","428","f","true","img/H_ambi40.png","生人","prac",""
"","","","","","html-keyboard-response","156","443053","0.0-8.1-0.1-1.39","null","<span style='color:GreenYellow; font-size: 70px;'>正确! </span>","null","","","","","","","","","","","","","","","","","","","","","","","feedback_test"
"","","","","","psychophysics","157","444806","0.0-8.1-0.1-0.40","752","","f","","","","","","","","","","","","","key","f","16.666326923077015","768","428","j","false","img/C_ambi40.png","自我","prac",""
"","","","","","html-keyboard-response","158","445307","0.0-8.1-0.1-1.40","null","<span style='color:red; font-size: 70px;'>错误! </span>","null","","","","","","","","","","","","","","","","","","","","","","","feedback_test"
"","","","","","psychophysics","159","447236","0.0-8.1-0.1-0.41","927","","f","","","","","","","","","","","","","key","f","16.666547826087385","768","428","f","true","img/C_ambi40.png","朋友","prac",""
"","","","","","html-keyboard-response","160","447737","0.0-8.1-0.1-1.41","null","<span style='color:GreenYellow; font-size: 70px;'>正确! </span>","null","","","","","","","","","","","","","","","","","","","","","","","feedback_test"
"","","","","","psychophysics","161","449174","0.0-8.1-0.1-0.42","435","","f","","","","","","","","","","","","","key","f","16.66680000000017","768","428","j","false","img/H_ambi40.png","朋友","prac",""
"","","","","","html-keyboard-response","162","449675","0.0-8.1-0.1-1.42","null","<span style='color:red; font-size: 70px;'>错误! </span>","null","","","","","","","","","","","","","","","","","","","","","","","feedback_test"
"","","","","","psychophysics","163","451781","0.0-8.1-0.1-0.43","1104","","f","","","","","","","","","","","","","key","f","16.66745600000024","768","428","f","true","img/S_ambi40.png","自我","prac",""
"","","","","","html-keyboard-response","164","452281","0.0-8.1-0.1-1.43","null","<span style='color:GreenYellow; font-size: 70px;'>正确! </span>","null","","","","","","","","","","","","","","","","","","","","","","","feedback_test"
"","","","","","psychophysics","165","453921","0.0-8.1-0.1-0.44","638","","j","","","","","","","","","","","","","key","j","16.66635714285729","768","428","j","true","img/T_ambi40.png","をる","prac",""
"","","","","","html-keyboard-response","166","454424","0.0-8.1-0.1-1.44","null","<span style='color:GreenYellow; font-size: 70px;'>正确! </span>","null","","","","","","","","","","","","","","","","","","","","","","","feedback_test"
"","","","","","psychophysics","167","456111","0.0-8.1-0.1-0.45","675","","j","","","","","","","","","","","","","key","j","16.66667000000016","768","428","j","true","img/T_ambi40.png","をる","prac",""
"","","","","","html-keyboard-response","168","456612","0.0-8.1-0.1-1.45","null","<span style='color:GreenYellow; font-size: 70px;'>正确! </span>","null","","","","","","","","","","","","","","","","","","","","","","","feedback_test"
"","","","","","psychophysics","169","458499","0.0-8.1-0.1-0.46","885","","j","","","","","","","","","","","","","key","j","16.666580357142916","768","428","j","true","img/C_ambi40.png","生人","prac",""
"","","","","","html-keyboard-response","170","459000","0.0-8.1-0.1-1.46","null","<span style='color:GreenYellow; font-size: 70px;'>正确! </span>","null","","","","","","","","","","","","","","","","","","","","","","","feedback_test"
"","","","","","psychophysics","171","460665","0.0-8.1-0.1-0.47","663","","j","","","","","","","","","","","","","key","j","16.666326530612125","768","428","j","true","img/T_ambi40.png","をる","prac",""
"","","","","","html-keyboard-response","172","461167","0.0-8.1-0.1-1.47","null","<span style='color:GreenYellow; font-size: 70px;'>正确! </span>","null","","","","","","","","","","","","","","","","","","","","","","","feedback_test"
"","","","","","psychophysics","173","463361","0.0-8.1-0.1-0.48","1193","","j","","","","","","","","","","","","","key","j","16.66613846153845","768","428","j","true","img/C_ambi40.png","自我","prac",""
"","","","","","html-keyboard-response","174","463863","0.0-8.1-0.1-1.48","null","<span style='color:GreenYellow; font-size: 70px;'>正确! </span>","null","","","","","","","","","","","","","","","","","","","","","","","feedback_test"
"","","","","","psychophysics","175","465520","0.0-8.1-0.1-0.49","656","","f","","","","","","","","","","","","","key","f","16.666090909091196","768","428","f","true","img/S_ambi40.png","自我","prac",""
"","","","","","html-keyboard-response","176","466023","0.0-8.1-0.1-1.49","null","<span style='color:GreenYellow; font-size: 70px;'>正确! </span>","null","","","","","","","","","","","","","","","","","","","","","","","feedback_test"
"","","","","","psychophysics","177","467892","0.0-8.1-0.1-0.50","867","","j","","","","","","","","","","","","","key","j","16.66656756756758","768","428","f","false","img/S_ambi40.png","自我","prac",""
"","","","","","html-keyboard-response","178","468393","0.0-8.1-0.1-1.50","null","<span style='color:red; font-size: 70px;'>错误! </span>","null","","","","","","","","","","","","","","","","","","","","","","","feedback_test"
"","","","","","psychophysics","179","470462","0.0-8.1-0.1-0.51","1068","","f","","","","","","","","","","","","","key","f","16.66575609756079","768","428","f","true","img/H_ambi40.png","生人","prac",""
"","","","","","html-keyboard-response","180","470963","0.0-8.1-0.1-1.51","null","<span style='color:GreenYellow; font-size: 70px;'>正确! </span>","null","","","","","","","","","","","","","","","","","","","","","","","feedback_test"
"","","","","","psychophysics","181","472434","0.0-8.1-0.1-0.52","469","","j","","","","","","","","","","","","","key","j","16.666712643678338","768","428","j","true","img/T_ambi40.png","をる","prac",""
"","","","","","html-keyboard-response","182","472936","0.0-8.1-0.1-1.52","null","<span style='color:GreenYellow; font-size: 70px;'>正确! </span>","null","","","","","","","","","","","","","","","","","","","","","","","feedback_test"
"","","","","","psychophysics","183","474554","0.0-8.1-0.1-0.53","617","","j","","","","","","","","","","","","","key","j","16.6663958333332","768","428","j","true","img/T_ambi40.png","をる","prac",""
"","","","","","html-keyboard-response","184","475055","0.0-8.1-0.1-1.53","null","<span style='color:GreenYellow; font-size: 70px;'>正确! </span>","null","","","","","","","","","","","","","","","","","","","","","","","feedback_test"
"","","","","","psychophysics","185","476653","0.0-8.1-0.1-0.54","597","","j","","","","","","","","","","","","","key","j","16.666642105263218","768","428","j","true","img/T_ambi40.png","をる","prac",""
"","","","","","html-keyboard-response","186","477156","0.0-8.1-0.1-1.54","null","<span style='color:GreenYellow; font-size: 70px;'>正确! </span>","null","","","","","","","","","","","","","","","","","","","","","","","feedback_test"
"","","","","","psychophysics","187","479210","0.0-8.1-0.1-0.55","1052","","f","","","","","","","","","","","","","key","f","16.666565573770463","768","428","j","false","img/S_ambi40.png","生人","prac",""
"","","","","","html-keyboard-response","188","479712","0.0-8.1-0.1-1.55","null","<span style='color:red; font-size: 70px;'>错误! </span>","null","","","","","","","","","","","","","","","","","","","","","","","feedback_test"
"","","","","","psychophysics","189","481438","0.0-8.1-0.1-0.56","724","","f","","","","","","","","","","","","","key","f","16.66662135922341","768","428","f","true","img/C_ambi40.png","朋友","prac",""
"","","","","","html-keyboard-response","190","481940","0.0-8.1-0.1-1.56","null","<span style='color:GreenYellow; font-size: 70px;'>正确! </span>","null","","","","","","","","","","","","","","","","","","","","","","","feedback_test"
"","","","","","psychophysics","191","484089","0.0-8.1-0.1-0.57","1146","","j","","","","","","","","","","","","","key","j","16.666328124999836","768","428","j","true","img/H_ambi40.png","朋友","prac",""
"","","","","","html-keyboard-response","192","484590","0.0-8.1-0.1-1.57","null","<span style='color:GreenYellow; font-size: 70px;'>正确! </span>","null","","","","","","","","","","","","","","","","","","","","","","","feedback_test"
"","","","","","psychophysics","193","486560","0.0-8.1-0.1-0.58","968","","f","","","","","","","","","","","","","key","f","16.666564102564205","768","428","f","true","img/H_ambi40.png","生人","prac",""
"","","","","","html-keyboard-response","194","487061","0.0-8.1-0.1-1.58","null","<span style='color:GreenYellow; font-size: 70px;'>正确! </span>","null","","","","","","","","","","","","","","","","","","","","","","","feedback_test"
"","","","","","psychophysics","195","488738","0.0-8.1-0.1-0.59","675","","f","","","","","","","","","","","","","key","f","16.66591000000015","768","428","f","true","img/C_ambi40.png","朋友","prac",""
"","","","","","html-keyboard-response","196","489240","0.0-8.1-0.1-1.59","null","<span style='color:GreenYellow; font-size: 70px;'>正确! </span>","null","","","","","","","","","","","","","","","","","","","","","","","feedback_test"
"","","","","","psychophysics","197","491187","0.0-8.1-0.1-0.60","945","","j","","","","","","","","","","","","","key","j","16.666396551724354","768","428","j","true","img/S_ambi40.png","朋友","prac",""
"","","","","","html-keyboard-response","198","491689","0.0-8.1-0.1-1.60","null","<span style='color:GreenYellow; font-size: 70px;'>正确! </span>","null","","","","","","","","","","","","","","","","","","","","","","","feedback_test"
"","","","","","psychophysics","199","493302","0.0-8.1-0.1-0.61","611","","j","","","","","","","","","","","","","key","j","16.667302083333805","768","428","j","true","img/T_ambi40.png","をる","prac",""
"","","","","","html-keyboard-response","200","493802","0.0-8.1-0.1-1.61","null","<span style='color:GreenYellow; font-size: 70px;'>正确! </span>","null","","","","","","","","","","","","","","","","","","","","","","","feedback_test"
"","","","","","psychophysics","201","495822","0.0-8.1-0.1-0.62","1018","","f","","","","","","","","","","","","","key","f","16.66590833333321","768","428","j","false","img/H_ambi40.png","自我","prac",""
"","","","","","html-keyboard-response","202","496323","0.0-8.1-0.1-1.62","null","<span style='color:red; font-size: 70px;'>错误! </span>","null","","","","","","","","","","","","","","","","","","","","","","","feedback_test"
"","","","","","psychophysics","203","498241","0.0-8.1-0.1-0.63","916","","j","","","","","","","","","","","","","key","j","16.667473684210563","768","428","j","true","img/C_ambi40.png","生人","prac",""
"","","","","","html-keyboard-response","204","498742","0.0-8.1-0.1-1.63","null","<span style='color:GreenYellow; font-size: 70px;'>正确! </span>","null","","","","","","","","","","","","","","","","","","","","","","","feedback_test"
"","","","","","html-keyboard-response","205","510208","0.0-9.0","11463","<style>.context{color:white; font-size: 35px; line-height:40px}</style>                          <div><p class='context'>您正确回答了84% 的试次。</p ><p class='context'>您的平均反应时为794毫秒。</p ><p class='context'>恭喜您完成练习。按任意键进入正式实验。</p ><p class='footer' style='font-size: 35px; line-height:40px;'>请在进入正式实验实验之前将您的<span style='color: lightgreen;'>食指</span>放在电脑键盘的相应键位上进行按键。</p >"," ","","","","","","","","","","","","","","","","","","","","","","",""
"","","","","","psychophysics","206","512718","0.0-10.0-0.0-0.0-0.0-0.0","null","","null","","","","","","","","","","","","","key","null","16.666066666666495","768","428","j","false","img/C_ambi40.png","自我","same",""
"","","","","","html-keyboard-response","207","513220","0.0-10.0-0.0-0.0-0.0-1.0","null","<span class='add_' style='color:yellow; font-size: 70px;'> 太慢! </span>","null","","","","","","","","","","","","","","","","","","","","","","","feedback_test"
"","","","","","psychophysics","208","515714","0.0-10.0-0.0-0.0-0.0-0.1","1493","","j","","","","","","","","","","","","","key","j","16.666777027027155","768","428","j","true","img/S_ambi40.png","朋友","same",""
"","","","","","html-keyboard-response","209","516215","0.0-10.0-0.0-0.0-0.0-1.1","null","<span style='color:GreenYellow; font-size: 70px;'>正确! </span>","null","","","","","","","","","","","","","","","","","","","","","","","feedback_test"
"","","","","","psychophysics","210","518438","0.0-10.0-0.0-0.0-0.0-0.2","1222","","f","","","","","","","","","","","","","key","f","16.666507575757517","768","428","f","true","img/S_ambi40.png","自我","same",""
"","","","","","html-keyboard-response","211","518939","0.0-10.0-0.0-0.0-0.0-1.2","null","<span style='color:GreenYellow; font-size: 70px;'>正确! </span>","null","","","","","","","","","","","","","","","","","","","","","","","feedback_test"
"","","","","","psychophysics","212","520448","0.0-10.0-0.0-0.0-0.0-0.3","506","","f","","","","","","","","","","","","","key","f","16.66675280898893","768","428","f","true","img/C_ambi40.png","朋友","same",""
"","","","","","html-keyboard-response","213","520950","0.0-10.0-0.0-0.0-0.0-1.3","null","<span style='color:GreenYellow; font-size: 70px;'>正确! </span>","null","","","","","","","","","","","","","","","","","","","","","","","feedback_test"
"","","","","","psychophysics","214","522577","0.0-10.0-0.0-0.0-0.0-0.4","625","","f","","","","","","","","","","","","","key","f","16.666802083333703","768","428","f","true","img/C_ambi40.png","朋友","same",""
"","","","","","html-keyboard-response","215","523079","0.0-10.0-0.0-0.0-0.0-1.4","null","<span style='color:GreenYellow; font-size: 70px;'>正确! </span>","null","","","","","","","","","","","","","","","","","","","","","","","feedback_test"
"","","","","","psychophysics","216","525372","0.0-10.0-0.0-0.0-0.0-0.5","1291","","j","","","","","","","","","","","","","key","j","16.666430656934143","768","428","j","true","img/H_ambi40.png","自我","same",""
"","","","","","html-keyboard-response","217","525874","0.0-10.0-0.0-0.0-0.0-1.5","null","<span style='color:GreenYellow; font-size: 70px;'>正确! </span>","null","","","","","","","","","","","","","","","","","","","","","","","feedback_test"
"","","","","","psychophysics","218","527503","0.0-10.0-0.0-0.0-0.0-0.6","628","","j","","","","","","","","","","","","","key","j","16.666670103092947","768","428","j","true","img/T_ambi40.png","をる","same",""
"","","","","","html-keyboard-response","219","528004","0.0-10.0-0.0-0.0-0.0-1.6","null","<span style='color:GreenYellow; font-size: 70px;'>正确! </span>","null","","","","","","","","","","","","","","","","","","","","","","","feedback_test"
"","","","","","psychophysics","220","529809","0.0-10.0-0.0-0.0-0.0-0.7","801","","j","","","","","","","","","","","","","key","j","16.665523364486077","768","428","j","true","img/H_ambi40.png","朋友","same",""
"","","","","","html-keyboard-response","221","530310","0.0-10.0-0.0-0.0-0.0-1.7","null","<span style='color:GreenYellow; font-size: 70px;'>正确! </span>","null","","","","","","","","","","","","","","","","","","","","","","","feedback_test"
"","","","","","psychophysics","222","531986","0.0-10.0-0.0-0.0-0.0-0.8","674","","f","","","","","","","","","","","","","key","f","16.666400000000138","768","428","j","false","img/S_ambi40.png","生人","same",""
"","","","","","html-keyboard-response","223","532488","0.0-10.0-0.0-0.0-0.0-1.8","null","<span style='color:red; font-size: 70px;'>错误! </span>","null","","","","","","","","","","","","","","","","","","","","","","","feedback_test"
"","","","","","psychophysics","224","534392","0.0-10.0-0.0-0.0-0.0-0.9","902","","f","","","","","","","","","","","","","key","f","16.66644247787679","768","428","f","true","img/S_ambi40.png","自我","same",""
"","","","","","html-keyboard-response","225","534893","0.0-10.0-0.0-0.0-0.0-1.9","null","<span style='color:GreenYellow; font-size: 70px;'>正确! </span>","null","","","","","","","","","","","","","","","","","","","","","","","feedback_test"
"","","","","","psychophysics","226","536476","0.0-10.0-0.0-0.0-0.0-0.10","582","","j","","","","","","","","","","","","","key","j","16.666372340425177","768","428","j","true","img/T_ambi40.png","をる","same",""
"","","","","","html-keyboard-response","227","536977","0.0-10.0-0.0-0.0-0.0-1.10","null","<span style='color:GreenYellow; font-size: 70px;'>正确! </span>","null","","","","","","","","","","","","","","","","","","","","","","","feedback_test"
"","","","","","psychophysics","228","538971","0.0-10.0-0.0-0.0-0.0-0.11","991","","f","","","","","","","","","","","","","key","f","16.666277310924464","768","428","f","true","img/H_ambi40.png","生人","same",""
"","","","","","html-keyboard-response","229","539472","0.0-10.0-0.0-0.0-0.0-1.11","null","<span style='color:GreenYellow; font-size: 70px;'>正确! </span>","null","","","","","","","","","","","","","","","","","","","","","","","feedback_test"
"","","","","","psychophysics","230","541364","0.0-10.0-0.0-0.0-0.0-0.12","891","","f","","","","","","","","","","","","","key","f","16.66683928571417","768","428","f","true","img/S_ambi40.png","自我","same",""
"","","","","","html-keyboard-response","231","541867","0.0-10.0-0.0-0.0-0.0-1.12","null","<span style='color:GreenYellow; font-size: 70px;'>正确! </span>","null","","","","","","","","","","","","","","","","","","","","","","","feedback_test"
"","","","","","psychophysics","232","543461","0.0-10.0-0.0-0.0-0.0-0.13","592","","j","","","","","","","","","","","","","key","j","16.666361702126796","768","428","j","true","img/T_ambi40.png","をる","same",""
"","","","","","html-keyboard-response","233","543962","0.0-10.0-0.0-0.0-0.0-1.13","null","<span style='color:GreenYellow; font-size: 70px;'>正确! </span>","null","","","","","","","","","","","","","","","","","","","","","","","feedback_test"
"","","","","","psychophysics","234","545595","0.0-10.0-0.0-0.0-0.0-0.14","633","","f","","","","","","","","","","","","","key","f","16.838041237113785","768","428","f","true","img/C_ambi40.png","朋友","same",""
"","","","","","html-keyboard-response","235","546097","0.0-10.0-0.0-0.0-0.0-1.14","null","<span style='color:GreenYellow; font-size: 70px;'>正确! </span>","null","","","","","","","","","","","","","","","","","","","","","","","feedback_test"
"","","","","","psychophysics","236","547791","0.0-10.0-0.0-0.0-0.0-0.15","692","","f","","","","","","","","","","","","","key","f","16.66621999999974","768","428","j","false","img/C_ambi40.png","生人","same",""
"","","","","","html-keyboard-response","237","548292","0.0-10.0-0.0-0.0-0.0-1.15","null","<span style='color:red; font-size: 70px;'>错误! </span>","null","","","","","","","","","","","","","","","","","","","","","","","feedback_test"
"","","","","","psychophysics","238","550026","0.0-10.0-0.0-0.0-0.0-0.16","731","","f","","","","","","","","","","","","","key","f","16.666174757281926","768","428","f","true","img/H_ambi40.png","生人","same",""
"","","","","","html-keyboard-response","239","550528","0.0-10.0-0.0-0.0-0.0-1.16","null","<span style='color:GreenYellow; font-size: 70px;'>正确! </span>","null","","","","","","","","","","","","","","","","","","","","","","","feedback_test"
"","","","","","psychophysics","240","552346","0.0-10.0-0.0-0.0-0.0-0.17","816","","j","","","","","","","","","","","","","key","j","16.666240740739912","768","428","f","false","img/H_ambi40.png","生人","same",""
"","","","","","html-keyboard-response","241","552846","0.0-10.0-0.0-0.0-0.0-1.17","null","<span style='color:red; font-size: 70px;'>错误! </span>","null","","","","","","","","","","","","","","","","","","","","","","","feedback_test"
"","","","","","psychophysics","242","554489","0.0-10.0-0.0-0.0-0.0-0.18","639","","f","","","","","","","","","","","","","key","f","16.666515463917545","768","428","f","true","img/C_ambi40.png","朋友","same",""
"","","","","","html-keyboard-response","243","554990","0.0-10.0-0.0-0.0-0.0-1.18","null","<span style='color:GreenYellow; font-size: 70px;'>正确! </span>","null","","","","","","","","","","","","","","","","","","","","","","","feedback_test"
"","","","","","psychophysics","244","557348","0.0-10.0-0.0-0.0-0.0-0.19","1356","","f","","","","","","","","","","","","","key","f","16.666475177304953","768","428","f","true","img/S_ambi40.png","自我","same",""
"","","","","","html-keyboard-response","245","557849","0.0-10.0-0.0-0.0-0.0-1.19","null","<span style='color:GreenYellow; font-size: 70px;'>正确! </span>","null","","","","","","","","","","","","","","","","","","","","","","","feedback_test"
"","","","","","psychophysics","246","559442","0.0-10.0-0.0-0.0-0.0-0.20","591","","j","","","","","","","","","","","","","key","j","16.66617021276591","768","428","j","true","img/T_ambi40.png","をる","same",""
"","","","","","html-keyboard-response","247","559943","0.0-10.0-0.0-0.0-0.0-1.20","null","<span style='color:GreenYellow; font-size: 70px;'>正确! </span>","null","","","","","","","","","","","","","","","","","","","","","","","feedback_test"
"","","","","","psychophysics","248","562102","0.0-10.0-0.0-0.0-0.0-0.21","1156","","j","","","","","","","","","","","","","key","j","16.666488372092676","768","428","j","true","img/S_ambi40.png","朋友","same",""
"","","","","","html-keyboard-response","249","562603","0.0-10.0-0.0-0.0-0.0-1.21","null","<span style='color:GreenYellow; font-size: 70px;'>正确! </span>","null","","","","","","","","","","","","","","","","","","","","","","","feedback_test"
"","","","","","psychophysics","250","564195","0.0-10.0-0.0-0.0-0.0-0.22","590","","j","","","","","","","","","","","","","key","j","16.666489361702375","768","428","j","true","img/T_ambi40.png","をる","same",""
"","","","","","html-keyboard-response","251","564696","0.0-10.0-0.0-0.0-0.0-1.22","null","<span style='color:GreenYellow; font-size: 70px;'>正确! </span>","null","","","","","","","","","","","","","","","","","","","","","","","feedback_test"
"","","","","","psychophysics","252","566586","0.0-10.0-0.0-0.0-0.0-0.23","889","","f","","","","","","","","","","","","","key","f","16.659178571428388","768","428","f","true","img/H_ambi40.png","生人","same",""
"","","","","","html-keyboard-response","253","567088","0.0-10.0-0.0-0.0-0.0-1.23","null","<span style='color:GreenYellow; font-size: 70px;'>正确! </span>","null","","","","","","","","","","","","","","","","","","","","","","","feedback_test"
"","","","","","psychophysics","254","568960","0.0-10.0-0.0-0.0-0.0-0.24","870","","f","","","","","","","","","","","","","key","f","16.6657837837838","768","428","f","true","img/S_ambi40.png","自我","same",""
"","","","","","html-keyboard-response","255","569461","0.0-10.0-0.0-0.0-0.0-1.24","null","<span style='color:GreenYellow; font-size: 70px;'>正确! </span>","null","","","","","","","","","","","","","","","","","","","","","","","feedback_test"
"","","","","","psychophysics","256","571019","0.0-10.0-0.0-0.0-0.0-0.25","556","","j","","","","","","","","","","","","","key","j","16.665838709676898","768","428","j","true","img/T_ambi40.png","をる","same",""
"","","","","","html-keyboard-response","257","571520","0.0-10.0-0.0-0.0-0.0-1.25","null","<span style='color:GreenYellow; font-size: 70px;'>正确! </span>","null","","","","","","","","","","","","","","","","","","","","","","","feedback_test"
"","","","","","psychophysics","258","573604","0.0-10.0-0.0-0.0-0.0-0.26","1081","","f","","","","","","","","","","","","","key","f","16.666411290321715","768","428","f","true","img/H_ambi40.png","生人","same",""
"","","","","","html-keyboard-response","259","574105","0.0-10.0-0.0-0.0-0.0-1.26","null","<span style='color:GreenYellow; font-size: 70px;'>正确! </span>","null","","","","","","","","","","","","","","","","","","","","","","","feedback_test"
"","","","","","psychophysics","260","575752","0.0-10.0-0.0-0.0-0.0-0.27","645","","f","","","","","","","","","","","","","key","f","16.666316326530602","768","428","j","false","img/C_ambi40.png","自我","same",""
"","","","","","html-keyboard-response","261","576253","0.0-10.0-0.0-0.0-0.0-1.27","null","<span style='color:red; font-size: 70px;'>错误! </span>","null","","","","","","","","","","","","","","","","","","","","","","","feedback_test"
"","","","","","psychophysics","262","578036","0.0-10.0-0.0-0.0-0.0-0.28","781","","j","","","","","","","","","","","","","key","j","16.667160377358876","768","428","j","true","img/S_ambi40.png","生人","same",""
"","","","","","html-keyboard-response","263","578539","0.0-10.0-0.0-0.0-0.0-1.28","null","<span style='color:GreenYellow; font-size: 70px;'>正确! </span>","null","","","","","","","","","","","","","","","","","","","","","","","feedback_test"
"","","","","","psychophysics","264","580863","0.0-10.0-0.0-0.0-0.0-0.29","1323","","f","","","","","","","","","","","","","key","f","16.66673188405854","768","428","j","false","img/H_ambi40.png","朋友","same",""
"","","","","","html-keyboard-response","265","581365","0.0-10.0-0.0-0.0-0.0-1.29","null","<span style='color:red; font-size: 70px;'>错误! </span>","null","","","","","","","","","","","","","","","","","","","","","","","feedback_test"
"","","","","","psychophysics","266","583786","0.0-10.0-0.0-0.0-0.0-0.30","1421","","f","","","","","","","","","","","","","key","f","16.666368055555925","768","428","j","false","img/H_ambi40.png","自我","same",""
"","","","","","html-keyboard-response","267","584287","0.0-10.0-0.0-0.0-0.0-1.30","null","<span style='color:red; font-size: 70px;'>错误! </span>","null","","","","","","","","","","","","","","","","","","","","","","","feedback_test"
"","","","","","psychophysics","268","585986","0.0-10.0-0.0-0.0-0.0-0.31","697","","f","","","","","","","","","","","","","key","f","16.66641584158377","768","428","f","true","img/C_ambi40.png","朋友","same",""
"","","","","","html-keyboard-response","269","586487","0.0-10.0-0.0-0.0-0.0-1.31","null","<span style='color:GreenYellow; font-size: 70px;'>正确! </span>","null","","","","","","","","","","","","","","","","","","","","","","","feedback_test"
"","","","","","psychophysics","270","588832","0.0-10.0-0.0-0.0-0.0-0.32","1343","","f","","","","","","","","","","","","","key","f","16.66665000000004","768","428","f","true","img/S_ambi40.png","自我","same",""
"","","","","","html-keyboard-response","271","589334","0.0-10.0-0.0-0.0-0.0-1.32","null","<span style='color:GreenYellow; font-size: 70px;'>正确! </span>","null","","","","","","","","","","","","","","","","","","","","","","","feedback_test"
"","","","","","psychophysics","272","591194","0.0-10.0-0.0-0.0-0.0-0.33","859","","j","","","","","","","","","","","","","key","j","16.666545454544988","768","428","j","true","img/C_ambi40.png","生人","same",""
"","","","","","html-keyboard-response","273","591695","0.0-10.0-0.0-0.0-0.0-1.33","null","<span style='color:GreenYellow; font-size: 70px;'>正确! </span>","null","","","","","","","","","","","","","","","","","","","","","","","feedback_test"
"","","","","","psychophysics","274","593856","0.0-10.0-0.0-0.0-0.0-0.34","1159","","j","","","","","","","","","","","","","key","j","16.656406249999236","768","428","f","false","img/H_ambi40.png","生人","same",""
"","","","","","html-keyboard-response","275","594357","0.0-10.0-0.0-0.0-0.0-1.34","null","<span style='color:red; font-size: 70px;'>错误! </span>","null","","","","","","","","","","","","","","","","","","","","","","","feedback_test"
"","","","","","psychophysics","276","595813","0.0-10.0-0.0-0.0-0.0-0.35","453","","f","","","","","","","","","","","","","key","f","16.665720930232307","768","428","f","true","img/C_ambi40.png","朋友","same",""
"","","","","","html-keyboard-response","277","596315","0.0-10.0-0.0-0.0-0.0-1.35","null","<span style='color:GreenYellow; font-size: 70px;'>正确! </span>","null","","","","","","","","","","","","","","","","","","","","","","","feedback_test"
"","","","","","psychophysics","278","597846","0.0-10.0-0.0-0.0-0.0-0.36","528","","j","","","","","","","","","","","","","key","j","16.66697777777703","768","428","j","true","img/T_ambi40.png","をる","same",""
"","","","","","html-keyboard-response","279","598346","0.0-10.0-0.0-0.0-0.0-1.36","null","<span style='color:GreenYellow; font-size: 70px;'>正确! </span>","null","","","","","","","","","","","","","","","","","","","","","","","feedback_test"
"","","","","","psychophysics","280","599935","0.0-10.0-0.0-0.0-0.0-0.37","587","","f","","","","","","","","","","","","","key","f","16.666372340425177","768","428","f","true","img/C_ambi40.png","朋友","same",""
"","","","","","html-keyboard-response","281","600436","0.0-10.0-0.0-0.0-0.0-1.37","null","<span style='color:GreenYellow; font-size: 70px;'>正确! </span>","null","","","","","","","","","","","","","","","","","","","","","","","feedback_test"
"","","","","","psychophysics","282","602333","0.0-10.0-0.0-0.0-0.0-0.38","895","","j","","","","","","","","","","","","","key","j","16.666477876106498","768","428","j","true","img/C_ambi40.png","生人","same",""
"","","","","","html-keyboard-response","283","602834","0.0-10.0-0.0-0.0-0.0-1.38","null","<span style='color:GreenYellow; font-size: 70px;'>正确! </span>","null","","","","","","","","","","","","","","","","","","","","","","","feedback_test"
"","","","","","psychophysics","284","604501","0.0-10.0-0.0-0.0-0.0-0.39","665","","f","","","","","","","","","","","","","key","f","16.666767676767773","768","428","f","true","img/C_ambi40.png","朋友","same",""
"","","","","","html-keyboard-response","285","605003","0.0-10.0-0.0-0.0-0.0-1.39","null","<span style='color:GreenYellow; font-size: 70px;'>正确! </span>","null","","","","","","","","","","","","","","","","","","","","","","","feedback_test"
"","","","","","psychophysics","286","606684","0.0-10.0-0.0-0.0-0.0-0.40","680","","f","","","","","","","","","","","","","key","f","16.66679999999935","768","428","f","true","img/S_ambi40.png","自我","same",""
"","","","","","html-keyboard-response","287","607185","0.0-10.0-0.0-0.0-0.0-1.40","null","<span style='color:GreenYellow; font-size: 70px;'>正确! </span>","null","","","","","","","","","","","","","","","","","","","","","","","feedback_test"
"","","","","","psychophysics","288","608760","0.0-10.0-0.0-0.0-0.0-0.41","572","","f","","","","","","","","","","","","","key","f","16.66646236559171","768","428","j","false","img/C_ambi40.png","自我","same",""
"","","","","","html-keyboard-response","289","609262","0.0-10.0-0.0-0.0-0.0-1.41","null","<span style='color:red; font-size: 70px;'>错误! </span>","null","","","","","","","","","","","","","","","","","","","","","","","feedback_test"
"","","","","","psychophysics","290","610991","0.0-10.0-0.0-0.0-0.0-0.42","727","","f","","","","","","","","","","","","","key","f","16.65629411764744","768","428","f","true","img/S_ambi40.png","自我","same",""
"","","","","","html-keyboard-response","291","611492","0.0-10.0-0.0-0.0-0.0-1.42","null","<span style='color:GreenYellow; font-size: 70px;'>正确! </span>","null","","","","","","","","","","","","","","","","","","","","","","","feedback_test"
"","","","","","psychophysics","292","613209","0.0-10.0-0.0-0.0-0.0-0.43","716","","f","","","","","","","","","","","","","key","f","16.667264705883365","768","428","f","true","img/H_ambi40.png","生人","same",""
"","","","","","html-keyboard-response","293","613711","0.0-10.0-0.0-0.0-0.0-1.43","null","<span style='color:GreenYellow; font-size: 70px;'>正确! </span>","null","","","","","","","","","","","","","","","","","","","","","","","feedback_test"
"","","","","","psychophysics","294","615744","0.0-10.0-0.0-0.0-0.0-0.44","1031","","j","","","","","","","","","","","","","key","j","16.666280991735498","768","428","j","true","img/H_ambi40.png","朋友","same",""
"","","","","","html-keyboard-response","295","616245","0.0-10.0-0.0-0.0-0.0-1.44","null","<span style='color:GreenYellow; font-size: 70px;'>正确! </span>","null","","","","","","","","","","","","","","","","","","","","","","","feedback_test"
"","","","","","psychophysics","296","617904","0.0-10.0-0.0-0.0-0.0-0.45","658","","j","","","","","","","","","","","","","key","j","16.65456122448977","768","428","j","true","img/T_ambi40.png","をる","same",""
"","","","","","html-keyboard-response","297","618405","0.0-10.0-0.0-0.0-0.0-1.45","null","<span style='color:GreenYellow; font-size: 70px;'>正确! </span>","null","","","","","","","","","","","","","","","","","","","","","","","feedback_test"
"","","","","","psychophysics","298","620145","0.0-10.0-0.0-0.0-0.0-0.46","738","","f","","","","","","","","","","","","","key","f","16.666611650486214","768","428","f","true","img/C_ambi40.png","朋友","same",""
"","","","","","html-keyboard-response","299","620646","0.0-10.0-0.0-0.0-0.0-1.46","null","<span style='color:GreenYellow; font-size: 70px;'>正确! </span>","null","","","","","","","","","","","","","","","","","","","","","","","feedback_test"
"","","","","","psychophysics","300","622380","0.0-10.0-0.0-0.0-0.0-0.47","733","","f","","","","","","","","","","","","","key","f","16.666368932039386","768","428","f","true","img/S_ambi40.png","自我","same",""
"","","","","","html-keyboard-response","301","622881","0.0-10.0-0.0-0.0-0.0-1.47","null","<span style='color:GreenYellow; font-size: 70px;'>正确! </span>","null","","","","","","","","","","","","","","","","","","","","","","","feedback_test"
"","","","","","psychophysics","302","624907","0.0-10.0-0.0-0.0-0.0-0.48","1024","","j","","","","","","","","","","","","","key","j","16.666666666666668","768","428","j","true","img/S_ambi40.png","朋友","same",""
"","","","","","html-keyboard-response","303","625408","0.0-10.0-0.0-0.0-0.0-1.48","null","<span style='color:GreenYellow; font-size: 70px;'>正确! </span>","null","","","","","","","","","","","","","","","","","","","","","","","feedback_test"
"","","","","","psychophysics","304","627599","0.0-10.0-0.0-0.0-0.0-0.49","1190","","j","","","","","","","","","","","","","key","j","16.666137404579896","768","428","j","true","img/S_ambi40.png","生人","same",""
"","","","","","html-keyboard-response","305","628100","0.0-10.0-0.0-0.0-0.0-1.49","null","<span style='color:GreenYellow; font-size: 70px;'>正确! </span>","null","","","","","","","","","","","","","","","","","","","","","","","feedback_test"
"","","","","","psychophysics","306","629896","0.0-10.0-0.0-0.0-0.0-0.50","794","","f","","","","","","","","","","","","","key","f","16.66694339622638","768","428","f","true","img/H_ambi40.png","生人","same",""
"","","","","","html-keyboard-response","307","630397","0.0-10.0-0.0-0.0-0.0-1.50","null","<span style='color:GreenYellow; font-size: 70px;'>正确! </span>","null","","","","","","","","","","","","","","","","","","","","","","","feedback_test"
"","","","","","psychophysics","308","632703","0.0-10.0-0.0-0.0-0.0-0.51","1305","","f","","","","","","","","","","","","","key","f","16.666474452554112","768","428","f","true","img/H_ambi40.png","生人","same",""
"","","","","","html-keyboard-response","309","633206","0.0-10.0-0.0-0.0-0.0-1.51","null","<span style='color:GreenYellow; font-size: 70px;'>正确! </span>","null","","","","","","","","","","","","","","","","","","","","","","","feedback_test"
"","","","","","psychophysics","310","634801","0.0-10.0-0.0-0.0-0.0-0.52","593","","j","","","","","","","","","","","","","key","j","16.667126315789247","768","428","j","true","img/T_ambi40.png","をる","same",""
"","","","","","html-keyboard-response","311","635301","0.0-10.0-0.0-0.0-0.0-1.52","null","<span style='color:GreenYellow; font-size: 70px;'>正确! </span>","null","","","","","","","","","","","","","","","","","","","","","","","feedback_test"
"","","","","","psychophysics","312","637191","0.0-10.0-0.0-0.0-0.0-0.53","888","","j","","","","","","","","","","","","","key","j","16.666491071428545","768","428","j","true","img/H_ambi40.png","自我","same",""
"","","","","","html-keyboard-response","313","637692","0.0-10.0-0.0-0.0-0.0-1.53","null","<span style='color:GreenYellow; font-size: 70px;'>正确! </span>","null","","","","","","","","","","","","","","","","","","","","","","","feedback_test"
"","","","","","psychophysics","314","639449","0.0-10.0-0.0-0.0-0.0-0.54","754","","f","","","","","","","","","","","","","key","f","16.66610476190468","768","428","f","true","img/C_ambi40.png","朋友","same",""
"","","","","","html-keyboard-response","315","639950","0.0-10.0-0.0-0.0-0.0-1.54","null","<span style='color:GreenYellow; font-size: 70px;'>正确! </span>","null","","","","","","","","","","","","","","","","","","","","","","","feedback_test"
"","","","","","psychophysics","316","642072","0.0-10.0-0.0-0.0-0.0-0.55","1121","","j","","","","","","","","","","","","","key","j","16.666666666666668","768","428","j","true","img/C_ambi40.png","生人","same",""
"","","","","","html-keyboard-response","317","642573","0.0-10.0-0.0-0.0-0.0-1.55","null","<span style='color:GreenYellow; font-size: 70px;'>正确! </span>","null","","","","","","","","","","","","","","","","","","","","","","","feedback_test"
"","","","","","psychophysics","318","644178","0.0-10.0-0.0-0.0-0.0-0.56","603","","f","","","","","","","","","","","","","key","f","16.666042105262903","768","428","f","true","img/C_ambi40.png","朋友","same",""
"","","","","","html-keyboard-response","319","644679","0.0-10.0-0.0-0.0-0.0-1.56","null","<span style='color:GreenYellow; font-size: 70px;'>正确! </span>","null","","","","","","","","","","","","","","","","","","","","","","","feedback_test"
"","","","","","psychophysics","320","646520","0.0-10.0-0.0-0.0-0.0-0.57","839","","f","","","","","","","","","","","","","key","f","16.666522935779398","768","428","f","true","img/C_ambi40.png","朋友","same",""
"","","","","","html-keyboard-response","321","647021","0.0-10.0-0.0-0.0-0.0-1.57","null","<span style='color:GreenYellow; font-size: 70px;'>正确! </span>","null","","","","","","","","","","","","","","","","","","","","","","","feedback_test"
"","","","","","psychophysics","322","649014","0.0-10.0-0.0-0.0-0.0-0.58","991","","j","","","","","","","","","","","","","key","j","16.666647058822598","768","428","j","true","img/H_ambi40.png","自我","same",""
"","","","","","html-keyboard-response","323","649516","0.0-10.0-0.0-0.0-0.0-1.58","null","<span style='color:GreenYellow; font-size: 70px;'>正确! </span>","null","","","","","","","","","","","","","","","","","","","","","","","feedback_test"
"","","","","","psychophysics","324","651556","0.0-10.0-0.0-0.0-0.0-0.59","1039","","f","","","","","","","","","","","","","key","f","16.66675206611591","768","428","f","true","img/S_ambi40.png","自我","same",""
"","","","","","html-keyboard-response","325","652057","0.0-10.0-0.0-0.0-0.0-1.59","null","<span style='color:GreenYellow; font-size: 70px;'>正确! </span>","null","","","","","","","","","","","","","","","","","","","","","","","feedback_test"
"","","","","","psychophysics","326","653617","0.0-10.0-0.0-0.0-0.0-0.60","558","","f","","","","","","","","","","","","","key","f","16.66631182795766","768","428","f","true","img/H_ambi40.png","生人","same",""
"","","","","","html-keyboard-response","327","654118","0.0-10.0-0.0-0.0-0.0-1.60","null","<span style='color:GreenYellow; font-size: 70px;'>正确! </span>","null","","","","","","","","","","","","","","","","","","","","","","","feedback_test"
"","","","","","psychophysics","328","655581","0.0-10.0-0.0-0.0-0.0-0.61","462","","j","","","","","","","","","","","","","key","j","16.667839080459256","768","428","j","true","img/T_ambi40.png","をる","same",""
"","","","","","html-keyboard-response","329","656083","0.0-10.0-0.0-0.0-0.0-1.61","null","<span style='color:GreenYellow; font-size: 70px;'>正确! </span>","null","","","","","","","","","","","","","","","","","","","","","","","feedback_test"
"","","","","","psychophysics","330","658395","0.0-10.0-0.0-0.0-0.0-0.62","1311","","f","","","","","","","","","","","","","key","f","16.666700729926927","768","428","f","true","img/S_ambi40.png","自我","same",""
"","","","","","html-keyboard-response","331","658896","0.0-10.0-0.0-0.0-0.0-1.62","null","<span style='color:GreenYellow; font-size: 70px;'>正确! </span>","null","","","","","","","","","","","","","","","","","","","","","","","feedback_test"
"","","","","","psychophysics","332","660818","0.0-10.0-0.0-0.0-0.0-0.63","920","","j","","","","","","","","","","","","","key","j","16.666359649122523","768","428","j","true","img/H_ambi40.png","朋友","same",""
"","","","","","html-keyboard-response","333","661319","0.0-10.0-0.0-0.0-0.0-1.63","null","<span style='color:GreenYellow; font-size: 70px;'>正确! </span>","null","","","","","","","","","","","","","","","","","","","","","","","feedback_test"
"","","","","","psychophysics","334","663144","0.0-10.0-0.0-0.0-0.0-0.64","824","","f","","","","","","","","","","","","","key","f","16.66657407407399","768","428","f","true","img/H_ambi40.png","生人","same",""
"","","","","","html-keyboard-response","335","663646","0.0-10.0-0.0-0.0-0.0-1.64","null","<span style='color:GreenYellow; font-size: 70px;'>正确! </span>","null","","","","","","","","","","","","","","","","","","","","","","","feedback_test"
"","","","","","psychophysics","336","665290","0.0-10.0-0.0-0.0-0.0-0.65","642","","f","","","","","","","","","","","","","key","f","16.666567010309347","768","428","f","true","img/S_ambi40.png","自我","same",""
"","","","","","html-keyboard-response","337","665792","0.0-10.0-0.0-0.0-0.0-1.65","null","<span style='color:GreenYellow; font-size: 70px;'>正确! </span>","null","","","","","","","","","","","","","","","","","","","","","","","feedback_test"
"","","","","","psychophysics","338","667395","0.0-10.0-0.0-0.0-0.0-0.66","601","","j","","","","","","","","","","","","","key","j","16.666231578947535","768","428","j","true","img/T_ambi40.png","をる","same",""
"","","","","","html-keyboard-response","339","667897","0.0-10.0-0.0-0.0-0.0-1.66","null","<span style='color:GreenYellow; font-size: 70px;'>正确! </span>","null","","","","","","","","","","","","","","","","","","","","","","","feedback_test"
"","","","","","psychophysics","340","669683","0.0-10.0-0.0-0.0-0.0-0.67","784","","j","","","","","","","","","","","","","key","j","16.6663773584911","768","428","j","true","img/S_ambi40.png","朋友","same",""
"","","","","","html-keyboard-response","341","670184","0.0-10.0-0.0-0.0-0.0-1.67","null","<span style='color:GreenYellow; font-size: 70px;'>正确! </span>","null","","","","","","","","","","","","","","","","","","","","","","","feedback_test"
"","","","","","psychophysics","342","671813","0.0-10.0-0.0-0.0-0.0-0.68","627","","j","","","","","","","","","","","","","key","j","16.66612371134082","768","428","j","true","img/T_ambi40.png","をる","same",""
"","","","","","html-keyboard-response","343","672314","0.0-10.0-0.0-0.0-0.0-1.68","null","<span style='color:GreenYellow; font-size: 70px;'>正确! </span>","null","","","","","","","","","","","","","","","","","","","","","","","feedback_test"
"","","","","","psychophysics","344","674205","0.0-10.0-0.0-0.0-0.0-0.69","889","","j","","","","","","","","","","","","","key","j","16.666205357142776","768","428","f","false","img/H_ambi40.png","生人","same",""
"","","","","","html-keyboard-response","345","674706","0.0-10.0-0.0-0.0-0.0-1.69","null","<span style='color:red; font-size: 70px;'>错误! </span>","null","","","","","","","","","","","","","","","","","","","","","","","feedback_test"
"","","","","","psychophysics","346","676358","0.0-10.0-0.0-0.0-0.0-0.70","650","","f","","","","","","","","","","","","","key","f","16.665979591837363","768","428","j","false","img/C_ambi40.png","自我","same",""
"","","","","","html-keyboard-response","347","676860","0.0-10.0-0.0-0.0-0.0-1.70","null","<span style='color:red; font-size: 70px;'>错误! </span>","null","","","","","","","","","","","","","","","","","","","","","","","feedback_test"
"","","","","","psychophysics","348","678770","0.0-10.0-0.0-0.0-0.0-0.71","908","","j","","","","","","","","","","","","","key","j","16.66621929824581","768","428","j","true","img/S_ambi40.png","生人","same",""
"","","","","","html-keyboard-response","349","679271","0.0-10.0-0.0-0.0-0.0-1.71","null","<span style='color:GreenYellow; font-size: 70px;'>正确! </span>","null","","","","","","","","","","","","","","","","","","","","","","","feedback_test"
"","","","","","psychophysics","350","680870","0.0-10.0-0.0-0.0-0.0-0.72","597","","j","","","","","","","","","","","","","key","j","16.666768421052563","768","428","j","true","img/T_ambi40.png","をる","same",""
"","","","","","html-keyboard-response","351","681371","0.0-10.0-0.0-0.0-0.0-1.72","null","<span style='color:GreenYellow; font-size: 70px;'>正确! </span>","null","","","","","","","","","","","","","","","","","","","","","","","feedback_test"
"","","","","","psychophysics","352","683607","0.0-10.0-0.0-0.0-0.0-0.73","1235","","j","","","","","","","","","","","","","key","j","16.666451127819816","768","428","j","true","img/H_ambi40.png","自我","same",""
"","","","","","html-keyboard-response","353","684108","0.0-10.0-0.0-0.0-0.0-1.73","null","<span style='color:GreenYellow; font-size: 70px;'>正确! </span>","null","","","","","","","","","","","","","","","","","","","","","","","feedback_test"
"","","","","","psychophysics","354","685945","0.0-10.0-0.0-0.0-0.0-0.74","836","","j","","","","","","","","","","","","","key","j","16.666218181818046","768","428","j","true","img/S_ambi40.png","朋友","same",""
"","","","","","html-keyboard-response","355","686447","0.0-10.0-0.0-0.0-0.0-1.74","null","<span style='color:GreenYellow; font-size: 70px;'>正确! </span>","null","","","","","","","","","","","","","","","","","","","","","","","feedback_test"
"","","","","","psychophysics","356","688080","0.0-10.0-0.0-0.0-0.0-0.75","633","","j","","","","","","","","","","","","","key","j","16.666628865979987","768","428","j","true","img/T_ambi40.png","をる","same",""
"","","","","","html-keyboard-response","357","688581","0.0-10.0-0.0-0.0-0.0-1.75","null","<span style='color:GreenYellow; font-size: 70px;'>正确! </span>","null","","","","","","","","","","","","","","","","","","","","","","","feedback_test"
"","","","","","psychophysics","358","690350","0.0-10.0-0.0-0.0-0.0-0.76","766","","j","","","","","","","","","","","","","key","j","16.666352380952976","768","428","j","true","img/T_ambi40.png","をる","same",""
"","","","","","html-keyboard-response","359","690851","0.0-10.0-0.0-0.0-0.0-1.76","null","<span style='color:GreenYellow; font-size: 70px;'>正确! </span>","null","","","","","","","","","","","","","","","","","","","","","","","feedback_test"
"","","","","","psychophysics","360","693071","0.0-10.0-0.0-0.0-0.0-0.77","1219","","f","","","","","","","","","","","","","key","f","16.66648484848503","768","428","f","true","img/S_ambi40.png","自我","same",""
"","","","","","html-keyboard-response","361","693573","0.0-10.0-0.0-0.0-0.0-1.77","null","<span style='color:GreenYellow; font-size: 70px;'>正确! </span>","null","","","","","","","","","","","","","","","","","","","","","","","feedback_test"
"","","","","","psychophysics","362","695377","0.0-10.0-0.0-0.0-0.0-0.78","800","","f","","","","","","","","","","","","","key","f","16.665457943925485","768","428","f","true","img/H_ambi40.png","生人","same",""
"","","","","","html-keyboard-response","363","695878","0.0-10.0-0.0-0.0-0.0-1.78","null","<span style='color:GreenYellow; font-size: 70px;'>正确! </span>","null","","","","","","","","","","","","","","","","","","","","","","","feedback_test"
"","","","","","psychophysics","364","697455","0.0-10.0-0.0-0.0-0.0-0.79","574","","f","","","","","","","","","","","","","key","f","16.66635483870989","768","428","f","true","img/C_ambi40.png","朋友","same",""
"","","","","","html-keyboard-response","365","697956","0.0-10.0-0.0-0.0-0.0-1.79","null","<span style='color:GreenYellow; font-size: 70px;'>正确! </span>","null","","","","","","","","","","","","","","","","","","","","","","","feedback_test"
"","","","","","psychophysics","366","700173","0.0-10.0-0.0-0.0-0.0-0.80","1215","","j","","","","","","","","","","","","","key","j","16.666848484848302","768","428","j","true","img/C_ambi40.png","生人","same",""
"","","","","","html-keyboard-response","367","700674","0.0-10.0-0.0-0.0-0.0-1.80","null","<span style='color:GreenYellow; font-size: 70px;'>正确! </span>","null","","","","","","","","","","","","","","","","","","","","","","","feedback_test"
"","","","","","psychophysics","368","702792","0.0-10.0-0.0-0.0-0.0-0.81","1116","","f","","","","","","","","","","","","","key","f","16.66595238095264","768","428","f","true","img/S_ambi40.png","自我","same",""
"","","","","","html-keyboard-response","369","703292","0.0-10.0-0.0-0.0-0.0-1.81","null","<span style='color:GreenYellow; font-size: 70px;'>正确! </span>","null","","","","","","","","","","","","","","","","","","","","","","","feedback_test"
"","","","","","psychophysics","370","704982","0.0-10.0-0.0-0.0-0.0-0.82","688","","f","","","","","","","","","","","","","key","f","16.666386138613216","768","428","f","true","img/C_ambi40.png","朋友","same",""
"","","","","","html-keyboard-response","371","705483","0.0-10.0-0.0-0.0-0.0-1.82","null","<span style='color:GreenYellow; font-size: 70px;'>正确! </span>","null","","","","","","","","","","","","","","","","","","","","","","","feedback_test"
"","","","","","psychophysics","372","707338","0.0-10.0-0.0-0.0-0.0-0.83","855","","f","","","","","","","","","","","","","key","f","16.66660000000001","768","428","f","true","img/S_ambi40.png","自我","same",""
"","","","","","html-keyboard-response","373","707839","0.0-10.0-0.0-0.0-0.0-1.83","null","<span style='color:GreenYellow; font-size: 70px;'>正确! </span>","null","","","","","","","","","","","","","","","","","","","","","","","feedback_test"
"","","","","","psychophysics","374","709596","0.0-10.0-0.0-0.0-0.0-0.84","755","","f","","","","","","","","","","","","","key","f","16.66581904761981","768","428","j","false","img/C_ambi40.png","自我","same",""
"","","","","","html-keyboard-response","375","710097","0.0-10.0-0.0-0.0-0.0-1.84","null","<span style='color:red; font-size: 70px;'>错误! </span>","null","","","","","","","","","","","","","","","","","","","","","","","feedback_test"
"","","","","","psychophysics","376","711736","0.0-10.0-0.0-0.0-0.0-0.85","637","","f","","","","","","","","","","","","","key","f","16.666443298969263","768","428","f","true","img/C_ambi40.png","朋友","same",""
"","","","","","html-keyboard-response","377","712239","0.0-10.0-0.0-0.0-0.0-1.85","null","<span style='color:GreenYellow; font-size: 70px;'>正确! </span>","null","","","","","","","","","","","","","","","","","","","","","","","feedback_test"
"","","","","","psychophysics","378","714049","0.0-10.0-0.0-0.0-0.0-0.86","809","","j","","","","","","","","","","","","","key","j","16.66636111111061","768","428","j","true","img/H_ambi40.png","朋友","same",""
"","","","","","html-keyboard-response","379","714550","0.0-10.0-0.0-0.0-0.0-1.86","null","<span style='color:GreenYellow; font-size: 70px;'>正确! </span>","null","","","","","","","","","","","","","","","","","","","","","","","feedback_test"
"","","","","","psychophysics","380","716268","0.0-10.0-0.0-0.0-0.0-0.87","716","","f","","","","","","","","","","","","","key","f","16.666901960784077","768","428","f","true","img/H_ambi40.png","生人","same",""
"","","","","","html-keyboard-response","381","716770","0.0-10.0-0.0-0.0-0.0-1.87","null","<span style='color:GreenYellow; font-size: 70px;'>正确! </span>","null","","","","","","","","","","","","","","","","","","","","","","","feedback_test"
"","","","","","psychophysics","382","718488","0.0-10.0-0.0-0.0-0.0-0.88","715","","f","","","","","","","","","","","","","key","f","16.666186274509812","768","428","f","true","img/H_ambi40.png","生人","same",""
"","","","","","html-keyboard-response","383","718989","0.0-10.0-0.0-0.0-0.0-1.88","null","<span style='color:GreenYellow; font-size: 70px;'>正确! </span>","null","","","","","","","","","","","","","","","","","","","","","","","feedback_test"
"","","","","","psychophysics","384","721240","0.0-10.0-0.0-0.0-0.0-0.89","1248","","j","","","","","","","","","","","","","key","j","16.66677611940297","768","428","j","true","img/S_ambi40.png","生人","same",""
"","","","","","html-keyboard-response","385","721741","0.0-10.0-0.0-0.0-0.0-1.89","null","<span style='color:GreenYellow; font-size: 70px;'>正确! </span>","null","","","","","","","","","","","","","","","","","","","","","","","feedback_test"
"","","","","","psychophysics","386","723670","0.0-10.0-0.0-0.0-0.0-0.90","927","","f","","","","","","","","","","","","","key","f","16.666182608695944","768","428","f","true","img/S_ambi40.png","自我","same",""
"","","","","","html-keyboard-response","387","724171","0.0-10.0-0.0-0.0-0.0-1.90","null","<span style='color:GreenYellow; font-size: 70px;'>正确! </span>","null","","","","","","","","","","","","","","","","","","","","","","","feedback_test"
"","","","","","psychophysics","388","725846","0.0-10.0-0.0-0.0-0.0-0.91","673","","j","","","","","","","","","","","","","key","j","16.666450000000186","768","428","j","true","img/T_ambi40.png","をる","same",""
"","","","","","html-keyboard-response","389","726347","0.0-10.0-0.0-0.0-0.0-1.91","null","<span style='color:GreenYellow; font-size: 70px;'>正确! </span>","null","","","","","","","","","","","","","","","","","","","","","","","feedback_test"
"","","","","","psychophysics","390","727995","0.0-10.0-0.0-0.0-0.0-0.92","647","","f","","","","","","","","","","","","","key","f","16.666835051545988","768","428","f","true","img/C_ambi40.png","朋友","same",""
"","","","","","html-keyboard-response","391","728498","0.0-10.0-0.0-0.0-0.0-1.92","null","<span style='color:GreenYellow; font-size: 70px;'>正确! </span>","null","","","","","","","","","","","","","","","","","","","","","","","feedback_test"
"","","","","","psychophysics","392","730920","0.0-10.0-0.0-0.0-0.0-0.93","1420","","j","","","","","","","","","","","","","key","j","16.66629166666664","768","428","j","true","img/S_ambi40.png","生人","same",""
"","","","","","html-keyboard-response","393","731421","0.0-10.0-0.0-0.0-0.0-1.93","null","<span style='color:GreenYellow; font-size: 70px;'>正确! </span>","null","","","","","","","","","","","","","","","","","","","","","","","feedback_test"
"","","","","","psychophysics","394","733788","0.0-10.0-0.0-0.0-0.0-0.94","1364","","j","","","","","","","","","","","","","key","j","16.666014184397547","768","428","j","true","img/H_ambi40.png","朋友","same",""
"","","","","","html-keyboard-response","395","734289","0.0-10.0-0.0-0.0-0.0-1.94","null","<span style='color:GreenYellow; font-size: 70px;'>正确! </span>","null","","","","","","","","","","","","","","","","","","","","","","","feedback_test"
"","","","","","psychophysics","396","735947","0.0-10.0-0.0-0.0-0.0-0.95","656","","f","","","","","","","","","","","","","key","f","16.66687878787828","768","428","f","true","img/C_ambi40.png","朋友","same",""
"","","","","","html-keyboard-response","397","736448","0.0-10.0-0.0-0.0-0.0-1.95","null","<span style='color:GreenYellow; font-size: 70px;'>正确! </span>","null","","","","","","","","","","","","","","","","","","","","","","","feedback_test"
"","","","","","psychophysics","398","738445","0.0-10.0-0.0-0.0-0.0-0.96","994","","f","","","","","","","","","","","","","key","f","16.666487394958274","768","428","f","true","img/S_ambi40.png","自我","same",""
"","","","","","html-keyboard-response","399","738946","0.0-10.0-0.0-0.0-0.0-1.96","null","<span style='color:GreenYellow; font-size: 70px;'>正确! </span>","null","","","","","","","","","","","","","","","","","","","","","","","feedback_test"
"","","","","","psychophysics","400","740888","0.0-10.0-0.0-0.0-0.0-0.97","939","","j","","","","","","","","","","","","","key","j","16.666278260869337","768","428","j","true","img/C_ambi40.png","生人","same",""
"","","","","","html-keyboard-response","401","741388","0.0-10.0-0.0-0.0-0.0-1.97","null","<span style='color:GreenYellow; font-size: 70px;'>正确! </span>","null","","","","","","","","","","","","","","","","","","","","","","","feedback_test"
"","","","","","psychophysics","402","743307","0.0-10.0-0.0-0.0-0.0-0.98","917","","j","","","","","","","","","","","","","key","j","16.66646491228031","768","428","j","true","img/H_ambi40.png","自我","same",""
"","","","","","html-keyboard-response","403","743807","0.0-10.0-0.0-0.0-0.0-1.98","null","<span style='color:GreenYellow; font-size: 70px;'>正确! </span>","null","","","","","","","","","","","","","","","","","","","","","","","feedback_test"
"","","","","","psychophysics","404","745349","0.0-10.0-0.0-0.0-0.0-0.99","540","","j","","","","","","","","","","","","","key","j","16.666250000000456","768","428","j","true","img/T_ambi40.png","をる","same",""
"","","","","","html-keyboard-response","405","745851","0.0-10.0-0.0-0.0-0.0-1.99","null","<span style='color:GreenYellow; font-size: 70px;'>正确! </span>","null","","","","","","","","","","","","","","","","","","","","","","","feedback_test"
"","","","","","psychophysics","406","748153","0.0-10.0-0.0-0.0-0.0-0.100","1300","","j","","","","","","","","","","","","","key","j","16.6661021897814","768","428","j","true","img/S_ambi40.png","朋友","same",""
"","","","","","html-keyboard-response","407","748654","0.0-10.0-0.0-0.0-0.0-1.100","null","<span style='color:GreenYellow; font-size: 70px;'>正确! </span>","null","","","","","","","","","","","","","","","","","","","","","","","feedback_test"
"","","","","","psychophysics","408","750237","0.0-10.0-0.0-0.0-0.0-0.101","582","","f","","","","","","","","","","","","","key","f","16.666234042553697","768","428","f","true","img/H_ambi40.png","生人","same",""
"","","","","","html-keyboard-response","409","750738","0.0-10.0-0.0-0.0-0.0-1.101","null","<span style='color:GreenYellow; font-size: 70px;'>正确! </span>","null","","","","","","","","","","","","","","","","","","","","","","","feedback_test"
"","","","","","psychophysics","410","752339","0.0-10.0-0.0-0.0-0.0-0.102","599","","j","","","","","","","","","","","","","key","j","16.66631578947295","768","428","j","true","img/T_ambi40.png","をる","same",""
"","","","","","html-keyboard-response","411","752840","0.0-10.0-0.0-0.0-0.0-1.102","null","<span style='color:GreenYellow; font-size: 70px;'>正确! </span>","null","","","","","","","","","","","","","","","","","","","","","","","feedback_test"
"","","","","","psychophysics","412","754739","0.0-10.0-0.0-0.0-0.0-0.103","898","","f","","","","","","","","","","","","","key","f","16.66576991150407","768","428","f","true","img/H_ambi40.png","生人","same",""
"","","","","","html-keyboard-response","413","755241","0.0-10.0-0.0-0.0-0.0-1.103","null","<span style='color:GreenYellow; font-size: 70px;'>正确! </span>","null","","","","","","","","","","","","","","","","","","","","","","","feedback_test"
"","","","","","psychophysics","414","757286","0.0-10.0-0.0-0.0-0.0-0.104","1043","","j","","","","","","","","","","","","","key","j","16.666303278688442","768","428","f","false","img/S_ambi40.png","自我","same",""
"","","","","","html-keyboard-response","415","757786","0.0-10.0-0.0-0.0-0.0-1.104","null","<span style='color:red; font-size: 70px;'>错误! </span>","null","","","","","","","","","","","","","","","","","","","","","","","feedback_test"
"","","","","","psychophysics","416","759398","0.0-10.0-0.0-0.0-0.0-0.105","610","","f","","","","","","","","","","","","","key","f","16.666739583333158","768","428","f","true","img/H_ambi40.png","生人","same",""
"","","","","","html-keyboard-response","417","759899","0.0-10.0-0.0-0.0-0.0-1.105","null","<span style='color:GreenYellow; font-size: 70px;'>正确! </span>","null","","","","","","","","","","","","","","","","","","","","","","","feedback_test"
"","","","","","psychophysics","418","761605","0.0-10.0-0.0-0.0-0.0-0.106","705","","f","","","","","","","","","","","","","key","f","16.666554455444825","768","428","j","false","img/C_ambi40.png","自我","same",""
"","","","","","html-keyboard-response","419","762107","0.0-10.0-0.0-0.0-0.0-1.106","null","<span style='color:red; font-size: 70px;'>错误! </span>","null","","","","","","","","","","","","","","","","","","","","","","","feedback_test"
"","","","","","psychophysics","420","763768","0.0-10.0-0.0-0.0-0.0-0.107","659","","f","","","","","","","","","","","","","key","f","16.66636363636453","768","428","f","true","img/C_ambi40.png","朋友","same",""
"","","","","","html-keyboard-response","421","764269","0.0-10.0-0.0-0.0-0.0-1.107","null","<span style='color:GreenYellow; font-size: 70px;'>正确! </span>","null","","","","","","","","","","","","","","","","","","","","","","","feedback_test"
"","","","","","html-keyboard-response","422","770723","0.0-10.0-0.0-0.0-1.0","6452","<style>.context{color:white; font-size: 35px; line-height:40px}</style>                          <div><p class='context'>您正确回答了87% 的试次。</p><p class='context'>您的平均反应时为839毫秒。</p><p class='context'>请按任意键进入休息</p></div>"," ","","","","","","","","","","","","","","","","","","","","","","",""
"","","","","","html-button-response","423","835030","0.0-10.0-0.0-0.0-2.0","64303","
                    <p>您当前还剩余5组实验</p>
                    <p>现在是休息时间，当您结束休息后，您可以点击 结束休息 按钮 继续</p>
                    <p>建议休息时间还剩余<span id=""iii"">60</span>秒</p>","0","","","","","","","","","","","","","","","","","","","","","","",""
"","","","","","psychophysics","424","837535","0.0-10.0-0.0-0.0-0.1-0.108","null","","null","","","","","","","","","","","","","key","null","16.66670469798682","768","428","f","false","img/S_ambi40.png","自我","same",""
"","","","","","html-keyboard-response","425","838036","0.0-10.0-0.0-0.0-0.1-1.108","null","<span class='add_' style='color:yellow; font-size: 70px;'> 太慢! </span>","null","","","","","","","","","","","","","","","","","","","","","","","feedback_test"
"","","","","","psychophysics","426","839740","0.0-10.0-0.0-0.0-0.1-0.109","702","","f","","","","","","","","","","","","","key","f","16.666455445543743","768","428","f","true","img/S_ambi40.png","自我","same",""
"","","","","","html-keyboard-response","427","840241","0.0-10.0-0.0-0.0-0.1-1.109","null","<span style='color:GreenYellow; font-size: 70px;'>正确! </span>","null","","","","","","","","","","","","","","","","","","","","","","","feedback_test"
"","","","","","psychophysics","428","842161","0.0-10.0-0.0-0.0-0.1-0.110","918","","f","","","","","","","","","","","","","key","f","16.666657894737448","768","428","f","true","img/H_ambi40.png","生人","same",""
"","","","","","html-keyboard-response","429","842662","0.0-10.0-0.0-0.0-0.1-1.110","null","<span style='color:GreenYellow; font-size: 70px;'>正确! </span>","null","","","","","","","","","","","","","","","","","","","","","","","feedback_test"
"","","","","","psychophysics","430","844612","0.0-10.0-0.0-0.0-0.1-0.111","948","","f","","","","","","","","","","","","","key","f","16.666620689654994","768","428","f","true","img/C_ambi40.png","朋友","same",""
"","","","","","html-keyboard-response","431","845114","0.0-10.0-0.0-0.0-0.1-1.111","null","<span style='color:GreenYellow; font-size: 70px;'>正确! </span>","null","","","","","","","","","","","","","","","","","","","","","","","feedback_test"
"","","","","","psychophysics","432","846820","0.0-10.0-0.0-0.0-0.1-0.112","704","","j","","","","","","","","","","","","","key","j","16.666722772276433","768","428","j","true","img/T_ambi40.png","をる","same",""
"","","","","","html-keyboard-response","433","847323","0.0-10.0-0.0-0.0-0.1-1.112","null","<span style='color:GreenYellow; font-size: 70px;'>正确! </span>","null","","","","","","","","","","","","","","","","","","","","","","","feedback_test"
"","","","","","psychophysics","434","849139","0.0-10.0-0.0-0.0-0.1-0.113","815","","f","","","","","","","","","","","","","key","f","16.657728971962417","768","428","f","true","img/H_ambi40.png","生人","same",""
"","","","","","html-keyboard-response","435","849640","0.0-10.0-0.0-0.0-0.1-1.113","null","<span style='color:GreenYellow; font-size: 70px;'>正确! </span>","null","","","","","","","","","","","","","","","","","","","","","","","feedback_test"
"","","","","","psychophysics","436","851379","0.0-10.0-0.0-0.0-0.1-0.114","737","","j","","","","","","","","","","","","","key","j","16.66628155339898","768","428","j","true","img/T_ambi40.png","をる","same",""
"","","","","","html-keyboard-response","437","851880","0.0-10.0-0.0-0.0-0.1-1.114","null","<span style='color:GreenYellow; font-size: 70px;'>正确! </span>","null","","","","","","","","","","","","","","","","","","","","","","","feedback_test"
"","","","","","psychophysics","438","853769","0.0-10.0-0.0-0.0-0.1-0.115","887","","j","","","","","","","","","","","","","key","j","16.81808181818236","768","428","j","true","img/C_ambi40.png","生人","same",""
"","","","","","html-keyboard-response","439","854272","0.0-10.0-0.0-0.0-0.1-1.115","null","<span style='color:GreenYellow; font-size: 70px;'>正确! </span>","null","","","","","","","","","","","","","","","","","","","","","","","feedback_test"
"","","","","","psychophysics","440","856006","0.0-10.0-0.0-0.0-0.1-0.116","733","","f","","","","","","","","","","","","","key","f","16.655754901960666","768","428","f","true","img/C_ambi40.png","朋友","same",""
"","","","","","html-keyboard-response","441","856507","0.0-10.0-0.0-0.0-0.1-1.116","null","<span style='color:GreenYellow; font-size: 70px;'>正确! </span>","null","","","","","","","","","","","","","","","","","","","","","","","feedback_test"
"","","","","","psychophysics","442","858161","0.0-10.0-0.0-0.0-0.1-0.117","651","","f","","","","","","","","","","","","","key","f","16.666306122448486","768","428","j","false","img/C_ambi40.png","自我","same",""
"","","","","","html-keyboard-response","443","858662","0.0-10.0-0.0-0.0-0.1-1.117","null","<span style='color:red; font-size: 70px;'>错误! </span>","null","","","","","","","","","","","","","","","","","","","","","","","feedback_test"
"","","","","","psychophysics","444","860325","0.0-10.0-0.0-0.0-0.1-0.118","661","","f","","","","","","","","","","","","","key","f","16.666909090908845","768","428","f","true","img/S_ambi40.png","自我","same",""
"","","","","","html-keyboard-response","445","860826","0.0-10.0-0.0-0.0-0.1-1.118","null","<span style='color:GreenYellow; font-size: 70px;'>正确! </span>","null","","","","","","","","","","","","","","","","","","","","","","","feedback_test"
"","","","","","psychophysics","446","862715","0.0-10.0-0.0-0.0-0.1-0.119","887","","f","","","","","","","","","","","","","key","f","16.66474107142858","768","428","j","false","img/H_ambi40.png","自我","same",""
