"success","timeout","failed_images","failed_audio","failed_video","trial_type","trial_index","time_elapsed","internal_node_id","rt","stimulus","response","value","item_width_mm","item_height_mm","item_width_px","px2mm","view_dist_mm","item_width_deg","px2deg","scale_factor","win_width_deg","win_height_deg","view_history","response_type","key_press","avg_frame_time","center_x","center_y","correct_response","correct","Image","word","condition","screen_id"
"true","false","[]","[]","[]","preload","0","29922","0.0-0.0","","","","","","","","","","","","","","","","","","","","","","","","","",""
"","","","","","html-keyboard-response","1","62171","0.0-1.0","32247","
     <p>您好，欢迎参加本次实验。</p>
     <p>为充分保障您的权利，请确保您已经知晓并同意《参与实验同意书》以及《数据公开知情同意书》。</p>
     <p>如果您未见过上述内容，请咨询实验员。</p>
     <p>如果您选择继续实验，则表示您已经清楚两份知情同意书的内容并同意。</p>
     <p> <div style = ""color: green""><按任意键至下页></div> </p>
     ","enter","","","","","","","","","","","","","","","","","","","","","","",""
"","","","","","html-keyboard-response","2","63335","0.0-2.0","1163","
     <p>本实验首先需要您填写一些基本个人信息。</p>
     <p> <div style = ""color: green""><按任意键至下页></div></p>
     ","enter","","","","","","","","","","","","","","","","","","","","","","",""
"","","","","","call-function","3","63336","0.0-3.0-0.0","","","","","","","","","","","","","","","","","","","","","","","","","",""
"","","","","","survey-html-form","4","67236","0.0-3.0-1.0","3895","","{""Q0"":""17""}","","","","","","","","","","","","","","","","","","","","","","",""
"","","","","","html-button-response","5","68432","0.0-3.0-2.0","1194","<p style = 'color : white'>您的性别</p>","1","","","","","","","","","","","","","","","","","","","","","","",""
"","","","","","survey-html-form","6","71419","0.0-3.0-3.0","2985","","{""Q0"":""2000""}","","","","","","","","","","","","","","","","","","","","","","",""
"","","","","","survey-html-form","7","75484","0.0-3.0-4.0","4064","","{""Q0"":""5""}","","","","","","","","","","","","","","","","","","","","","","",""
"","","","","","virtual-chinrest","8","231865","0.0-4.0","156378","","","","85.6","53.98","413.52745953941064","4.835973901835885","591.98","8.270549190788213","50","0.8705588751009913","25.6","12.02","","","","","","","","","","","",""
"true","","","","","fullscreen","9","238748","0.0-5.0","","","","","","","","","","","","","","","","","","","","","","","","","",""
"","","","","","instructions","10","393049","0.0-6.0","154302","","","","","","","","","","","","","","[{""page_index"":0,""viewing_time"":4553},{""page_index"":1,""viewing_time"":124425},{""page_index"":2,""viewing_time"":3773},{""page_index"":3,""viewing_time"":21551}]","","","","","","","","","","",""
"","","","","","psychophysics","11","395565","0.0-7.0-0.0","null","","null","","","","","","","","","","","","","key","null","16.657786666666702","640","356","j","false","img/S_ambi40.png","朋友","prac",""
"","","","","","html-keyboard-response","12","396076","0.0-7.0-1.0","null","<span class='add_' style='color:yellow; font-size: 70px;'> 太慢! </span>","null","","","","","","","","","","","","","","","","","","","","","","","feedback_test"
"","","","","","psychophysics","13","398580","0.0-7.0-0.1","null","","null","","","","","","","","","","","","","key","null","16.659499999999923","640","356","f","false","img/H_ambi40.png","朋友","prac",""
"","","","","","html-keyboard-response","14","399090","0.0-7.0-1.1","null","<span class='add_' style='color:yellow; font-size: 70px;'> 太慢! </span>","null","","","","","","","","","","","","","","","","","","","","","","","feedback_test"
"","","","","","psychophysics","15","401604","0.0-7.0-0.2","null","","null","","","","","","","","","","","","","key","null","16.65928000000034","640","356","f","false","img/C_ambi40.png","自我","prac",""
"","","","","","html-keyboard-response","16","402120","0.0-7.0-1.2","null","<span class='add_' style='color:yellow; font-size: 70px;'> 太慢! </span>","null","","","","","","","","","","","","","","","","","","","","","","","feedback_test"
"","","","","","psychophysics","17","404396","0.0-7.0-0.3","1267","","j","","","","","","","","","","","","","key","j","16.659029411764468","640","356","j","true","img/T_ambi40.png","をる","prac",""
"","","","","","html-keyboard-response","18","404899","0.0-7.0-1.3","null","<span style='color:GreenYellow; font-size: 70px;'>正确! </span>","null","","","","","","","","","","","","","","","","","","","","","","","feedback_test"
"","","","","","psychophysics","19","407402","0.0-7.0-0.4","null","","null","","","","","","","","","","","","","key","null","16.65690604026856","640","356","j","false","img/C_ambi40.png","生人","prac",""
"","","","","","html-keyboard-response","20","407918","0.0-7.0-1.4","null","<span class='add_' style='color:yellow; font-size: 70px;'> 太慢! </span>","null","","","","","","","","","","","","","","","","","","","","","","","feedback_test"
"","","","","","psychophysics","21","410425","0.0-7.0-0.5","null","","null","","","","","","","","","","","","","key","null","16.6588466666666","640","356","f","false","img/S_ambi40.png","自我","prac",""
"","","","","","html-keyboard-response","22","410927","0.0-7.0-1.5","null","<span class='add_' style='color:yellow; font-size: 70px;'> 太慢! </span>","null","","","","","","","","","","","","","","","","","","","","","","","feedback_test"
"","","","","","psychophysics","23","412859","0.0-7.0-0.6","918","","j","","","","","","","","","","","","","key","j","16.661052173913113","640","356","j","true","img/T_ambi40.png","をる","prac",""
"","","","","","html-keyboard-response","24","413366","0.0-7.0-1.6","null","<span style='color:GreenYellow; font-size: 70px;'>正确! </span>","null","","","","","","","","","","","","","","","","","","","","","","","feedback_test"
"","","","","","psychophysics","25","415870","0.0-7.0-0.7","null","","null","","","","","","","","","","","","","key","null","16.658966442952934","640","356","f","false","img/S_ambi40.png","生人","prac",""
"","","","","","html-keyboard-response","26","416373","0.0-7.0-1.7","null","<span class='add_' style='color:yellow; font-size: 70px;'> 太慢! </span>","null","","","","","","","","","","","","","","","","","","","","","","","feedback_test"
"","","","","","psychophysics","27","418887","0.0-7.0-0.8","null","","null","","","","","","","","","","","","","key","null","16.659067114093965","640","356","f","false","img/C_ambi40.png","朋友","prac",""
"","","","","","html-keyboard-response","28","419393","0.0-7.0-1.8","null","<span class='add_' style='color:yellow; font-size: 70px;'> 太慢! </span>","null","","","","","","","","","","","","","","","","","","","","","","","feedback_test"
"","","","","","psychophysics","29","421413","0.0-7.0-0.9","1009","","j","","","","","","","","","","","","","key","j","16.657141666666334","640","356","j","true","img/T_ambi40.png","をる","prac",""
"","","","","","html-keyboard-response","30","421917","0.0-7.0-1.9","null","<span style='color:GreenYellow; font-size: 70px;'>正确! </span>","null","","","","","","","","","","","","","","","","","","","","","","","feedback_test"
"","","","","","psychophysics","31","423774","0.0-7.0-0.10","854","","f","","","","","","","","","","","","","key","f","16.65901801801813","640","356","j","false","img/H_ambi40.png","自我","prac",""
"","","","","","html-keyboard-response","32","424279","0.0-7.0-1.10","null","<span style='color:red; font-size: 70px;'>错误! </span>","null","","","","","","","","","","","","","","","","","","","","","","","feedback_test"
"","","","","","psychophysics","33","426640","0.0-7.0-0.11","1359","","j","","","","","","","","","","","","","key","j","16.659468085106695","640","356","j","true","img/H_ambi40.png","自我","prac",""
"","","","","","html-keyboard-response","34","427140","0.0-7.0-1.11","null","<span style='color:GreenYellow; font-size: 70px;'>正确! </span>","null","","","","","","","","","","","","","","","","","","","","","","","feedback_test"
"","","","","","psychophysics","35","429650","0.0-7.0-0.12","null","","null","","","","","","","","","","","","","key","null","16.65907333333317","640","356","f","false","img/H_ambi40.png","生人","prac",""
"","","","","","html-keyboard-response","36","430155","0.0-7.0-1.12","null","<span class='add_' style='color:yellow; font-size: 70px;'> 太慢! </span>","null","","","","","","","","","","","","","","","","","","","","","","","feedback_test"
"","","","","","psychophysics","37","432434","0.0-7.0-0.13","1276","","j","","","","","","","","","","","","","key","j","16.65877205882348","640","356","j","true","img/S_ambi40.png","朋友","prac",""
"","","","","","html-keyboard-response","38","432949","0.0-7.0-1.13","null","<span style='color:GreenYellow; font-size: 70px;'>正确! </span>","null","","","","","","","","","","","","","","","","","","","","","","","feedback_test"
"","","","","","psychophysics","39","435324","0.0-7.0-0.14","1371","","f","","","","","","","","","","","","","key","f","16.658205673759078","640","356","j","false","img/C_ambi40.png","生人","prac",""
"","","","","","html-keyboard-response","40","435829","0.0-7.0-1.14","null","<span style='color:red; font-size: 70px;'>错误! </span>","null","","","","","","","","","","","","","","","","","","","","","","","feedback_test"
"","","","","","psychophysics","41","437774","0.0-7.0-0.15","942","","j","","","","","","","","","","","","","key","j","16.65589565217404","640","356","j","true","img/T_ambi40.png","をる","prac",""
"","","","","","html-keyboard-response","42","438284","0.0-7.0-1.15","null","<span style='color:GreenYellow; font-size: 70px;'>正确! </span>","null","","","","","","","","","","","","","","","","","","","","","","","feedback_test"
"","","","","","psychophysics","43","440537","0.0-7.0-0.16","1243","","j","","","","","","","","","","","","","key","j","16.659335820895702","640","356","j","true","img/C_ambi40.png","生人","prac",""
"","","","","","html-keyboard-response","44","441046","0.0-7.0-1.16","null","<span style='color:GreenYellow; font-size: 70px;'>正确! </span>","null","","","","","","","","","","","","","","","","","","","","","","","feedback_test"
"","","","","","psychophysics","45","443202","0.0-7.0-0.17","1145","","j","","","","","","","","","","","","","key","j","16.656171875000382","640","356","j","true","img/C_ambi40.png","生人","prac",""
"","","","","","html-keyboard-response","46","443715","0.0-7.0-1.17","null","<span style='color:GreenYellow; font-size: 70px;'>正确! </span>","null","","","","","","","","","","","","","","","","","","","","","","","feedback_test"
"","","","","","psychophysics","47","445644","0.0-7.0-0.18","920","","j","","","","","","","","","","","","","key","j","16.65623478260873","640","356","j","true","img/T_ambi40.png","をる","prac",""
"","","","","","html-keyboard-response","48","446159","0.0-7.0-1.18","null","<span style='color:GreenYellow; font-size: 70px;'>正确! </span>","null","","","","","","","","","","","","","","","","","","","","","","","feedback_test"
"","","","","","psychophysics","49","448005","0.0-7.0-0.19","832","","j","","","","","","","","","","","","","key","j","16.6617981651376","640","356","j","true","img/T_ambi40.png","をる","prac",""
"","","","","","html-keyboard-response","50","448518","0.0-7.0-1.19","null","<span style='color:GreenYellow; font-size: 70px;'>正确! </span>","null","","","","","","","","","","","","","","","","","","","","","","","feedback_test"
"","","","","","psychophysics","51","450770","0.0-7.0-0.20","1245","","f","","","","","","","","","","","","","key","f","16.659731343283436","640","356","f","true","img/H_ambi40.png","朋友","prac",""
"","","","","","html-keyboard-response","52","451284","0.0-7.0-1.20","null","<span style='color:GreenYellow; font-size: 70px;'>正确! </span>","null","","","","","","","","","","","","","","","","","","","","","","","feedback_test"
"","","","","","psychophysics","53","453432","0.0-7.0-0.21","1142","","j","","","","","","","","","","","","","key","j","16.662570312500065","640","356","f","false","img/H_ambi40.png","生人","prac",""
"","","","","","html-keyboard-response","54","453942","0.0-7.0-1.21","null","<span style='color:red; font-size: 70px;'>错误! </span>","null","","","","","","","","","","","","","","","","","","","","","","","feedback_test"
"","","","","","psychophysics","55","455615","0.0-7.0-0.22","660","","j","","","","","","","","","","","","","key","j","16.66358585858593","640","356","j","true","img/T_ambi40.png","をる","prac",""
"","","","","","html-keyboard-response","56","456126","0.0-7.0-1.22","null","<span style='color:GreenYellow; font-size: 70px;'>正确! </span>","null","","","","","","","","","","","","","","","","","","","","","","","feedback_test"
"","","","","","psychophysics","57","458451","0.0-7.0-0.23","1313","","f","","","","","","","","","","","","","key","f","16.6573985507252","640","356","j","false","img/S_ambi40.png","朋友","prac",""
"","","","","","html-keyboard-response","58","458967","0.0-7.0-1.23","null","<span style='color:red; font-size: 70px;'>错误! </span>","null","","","","","","","","","","","","","","","","","","","","","","","feedback_test"
"","","","","","psychophysics","59","460761","0.0-7.0-0.24","793","","j","","","","","","","","","","","","","key","j","16.664168224298987","640","356","j","true","img/T_ambi40.png","をる","prac",""
"","","","","","html-keyboard-response","60","461262","0.0-7.0-1.24","null","<span style='color:GreenYellow; font-size: 70px;'>正确! </span>","null","","","","","","","","","","","","","","","","","","","","","","","feedback_test"
"","","","","","psychophysics","61","463768","0.0-7.0-0.25","null","","null","","","","","","","","","","","","","key","null","16.66019333333398","640","356","j","false","img/H_ambi40.png","自我","prac",""
"","","","","","html-keyboard-response","62","464277","0.0-7.0-1.25","null","<span class='add_' style='color:yellow; font-size: 70px;'> 太慢! </span>","null","","","","","","","","","","","","","","","","","","","","","","","feedback_test"
"","","","","","psychophysics","63","466784","0.0-7.0-0.26","null","","null","","","","","","","","","","","","","key","null","16.660506666666674","640","356","f","false","img/C_ambi40.png","朋友","prac",""
"","","","","","html-keyboard-response","64","467289","0.0-7.0-1.26","null","<span class='add_' style='color:yellow; font-size: 70px;'> 太慢! </span>","null","","","","","","","","","","","","","","","","","","","","","","","feedback_test"
"","","","","","psychophysics","65","469541","0.0-7.0-0.27","1242","","f","","","","","","","","","","","","","key","f","16.659380597014625","640","356","f","true","img/S_ambi40.png","自我","prac",""
"","","","","","html-keyboard-response","66","470056","0.0-7.0-1.27","null","<span style='color:GreenYellow; font-size: 70px;'>正确! </span>","null","","","","","","","","","","","","","","","","","","","","","","","feedback_test"
"","","","","","psychophysics","67","472564","0.0-7.0-0.28","null","","null","","","","","","","","","","","","","key","null","16.65905999999959","640","356","j","false","img/H_ambi40.png","自我","prac",""
"","","","","","html-keyboard-response","68","473075","0.0-7.0-1.28","null","<span class='add_' style='color:yellow; font-size: 70px;'> 太慢! </span>","null","","","","","","","","","","","","","","","","","","","","","","","feedback_test"
"","","","","","psychophysics","69","475592","0.0-7.0-0.29","null","","null","","","","","","","","","","","","","key","null","16.662299999999814","640","356","f","false","img/C_ambi40.png","自我","prac",""
"","","","","","html-keyboard-response","70","476107","0.0-7.0-1.29","null","<span class='add_' style='color:yellow; font-size: 70px;'> 太慢! </span>","null","","","","","","","","","","","","","","","","","","","","","","","feedback_test"
"","","","","","psychophysics","71","478301","0.0-7.0-0.30","1189","","j","","","","","","","","","","","","","key","j","16.659541984733004","640","356","f","false","img/S_ambi40.png","生人","prac",""
"","","","","","html-keyboard-response","72","478806","0.0-7.0-1.30","null","<span style='color:red; font-size: 70px;'>错误! </span>","null","","","","","","","","","","","","","","","","","","","","","","","feedback_test"
"","","","","","psychophysics","73","480537","0.0-7.0-0.31","726","","j","","","","","","","","","","","","","key","j","16.659135922329565","640","356","j","true","img/S_ambi40.png","朋友","prac",""
"","","","","","html-keyboard-response","74","481047","0.0-7.0-1.31","null","<span style='color:GreenYellow; font-size: 70px;'>正确! </span>","null","","","","","","","","","","","","","","","","","","","","","","","feedback_test"
"","","","","","psychophysics","75","482619","0.0-8.0-0.0-0.0","571","","j","","","","","","","","","","","","","key","j","16.65880645161259","640","356","f","false","img/S_ambi40.png","自我","prac",""
"","","","","","html-keyboard-response","76","483128","0.0-8.0-0.0-1.0","null","<span style='color:red; font-size: 70px;'>错误! </span>","null","","","","","","","","","","","","","","","","","","","","","","","feedback_test"
"","","","","","psychophysics","77","485211","0.0-8.0-0.0-0.1","1069","","f","","","","","","","","","","","","","key","f","16.658314516128513","640","356","j","false","img/C_ambi40.png","生人","prac",""
"","","","","","html-keyboard-response","78","485717","0.0-8.0-0.0-1.1","null","<span style='color:red; font-size: 70px;'>错误! </span>","null","","","","","","","","","","","","","","","","","","","","","","","feedback_test"
"","","","","","psychophysics","79","487296","0.0-8.0-0.0-0.2","571","","j","","","","","","","","","","","","","key","j","16.65968085106393","640","356","j","true","img/T_ambi40.png","をる","prac",""
"","","","","","html-keyboard-response","80","487811","0.0-8.0-0.0-1.2","null","<span style='color:GreenYellow; font-size: 70px;'>正确! </span>","null","","","","","","","","","","","","","","","","","","","","","","","feedback_test"
"","","","","","psychophysics","81","489210","0.0-8.0-0.0-0.3","395","","j","","","","","","","","","","","","","key","j","16.662301204819514","640","356","j","true","img/T_ambi40.png","をる","prac",""
"","","","","","html-keyboard-response","82","489720","0.0-8.0-0.0-1.3","null","<span style='color:GreenYellow; font-size: 70px;'>正确! </span>","null","","","","","","","","","","","","","","","","","","","","","","","feedback_test"
"","","","","","psychophysics","83","491911","0.0-8.0-0.0-0.4","1188","","f","","","","","","","","","","","","","key","f","16.558223076923213","640","356","j","false","img/S_ambi40.png","朋友","prac",""
"","","","","","html-keyboard-response","84","492413","0.0-8.0-0.0-1.4","null","<span style='color:red; font-size: 70px;'>错误! </span>","null","","","","","","","","","","","","","","","","","","","","","","","feedback_test"
"","","","","","psychophysics","85","494004","0.0-8.0-0.0-0.5","587","","j","","","","","","","","","","","","","key","j","16.662042553191064","640","356","j","true","img/T_ambi40.png","をる","prac",""
"","","","","","html-keyboard-response","86","494513","0.0-8.0-0.0-1.5","null","<span style='color:GreenYellow; font-size: 70px;'>正确! </span>","null","","","","","","","","","","","","","","","","","","","","","","","feedback_test"
"","","","","","psychophysics","87","495871","0.0-8.0-0.0-0.6","353","","j","","","","","","","","","","","","","key","j","16.663432098764144","640","356","f","false","img/C_ambi40.png","自我","prac",""
"","","","","","html-keyboard-response","88","496380","0.0-8.0-0.0-1.6","null","<span style='color:red; font-size: 70px;'>错误! </span>","null","","","","","","","","","","","","","","","","","","","","","","","feedback_test"
"","","","","","psychophysics","89","498885","0.0-8.0-0.0-0.7","null","","null","","","","","","","","","","","","","key","null","16.6591333333333","640","356","j","false","img/S_ambi40.png","朋友","prac",""
"","","","","","html-keyboard-response","90","499391","0.0-8.0-0.0-1.7","null","<span class='add_' style='color:yellow; font-size: 70px;'> 太慢! </span>","null","","","","","","","","","","","","","","","","","","","","","","","feedback_test"
"","","","","","psychophysics","91","501899","0.0-8.0-0.0-0.8","null","","null","","","","","","","","","","","","","key","null","16.65684563758386","640","356","j","false","img/C_ambi40.png","生人","prac",""
"","","","","","html-keyboard-response","92","502414","0.0-8.0-0.0-1.8","null","<span class='add_' style='color:yellow; font-size: 70px;'> 太慢! </span>","null","","","","","","","","","","","","","","","","","","","","","","","feedback_test"
"","","","","","psychophysics","93","504661","0.0-8.0-0.0-0.9","1245","","j","","","","","","","","","","","","","key","j","16.65901492537371","640","356","j","true","img/H_ambi40.png","自我","prac",""
"","","","","","html-keyboard-response","94","505172","0.0-8.0-0.0-1.9","null","<span style='color:GreenYellow; font-size: 70px;'>正确! </span>","null","","","","","","","","","","","","","","","","","","","","","","","feedback_test"
"","","","","","psychophysics","95","506953","0.0-8.0-0.0-0.10","775","","j","","","","","","","","","","","","","key","j","16.66355660377413","640","356","j","true","img/H_ambi40.png","自我","prac",""
"","","","","","html-keyboard-response","96","507455","0.0-8.0-0.0-1.10","null","<span style='color:GreenYellow; font-size: 70px;'>正确! </span>","null","","","","","","","","","","","","","","","","","","","","","","","feedback_test"
"","","","","","psychophysics","97","509886","0.0-8.0-0.0-0.11","1422","","f","","","","","","","","","","","","","key","f","16.65695172413734","640","356","f","true","img/C_ambi40.png","朋友","prac",""
"","","","","","html-keyboard-response","98","510398","0.0-8.0-0.0-1.11","null","<span style='color:GreenYellow; font-size: 70px;'>正确! </span>","null","","","","","","","","","","","","","","","","","","","","","","","feedback_test"
"","","","","","psychophysics","99","512187","0.0-8.0-0.0-0.12","773","","j","","","","","","","","","","","","","key","j","16.663669811320087","640","356","f","false","img/S_ambi40.png","生人","prac",""
"","","","","","html-keyboard-response","100","512695","0.0-8.0-0.0-1.12","null","<span style='color:red; font-size: 70px;'>错误! </span>","null","","","","","","","","","","","","","","","","","","","","","","","feedback_test"
"","","","","","psychophysics","101","514818","0.0-8.0-0.0-0.13","1121","","f","","","","","","","","","","","","","key","f","16.656563492064063","640","356","f","true","img/H_ambi40.png","生人","prac",""
"","","","","","html-keyboard-response","102","515324","0.0-8.0-0.0-1.13","null","<span style='color:GreenYellow; font-size: 70px;'>正确! </span>","null","","","","","","","","","","","","","","","","","","","","","","","feedback_test"
"","","","","","psychophysics","103","517247","0.0-8.0-0.0-0.14","920","","f","","","","","","","","","","","","","key","f","16.661643478261187","640","356","f","true","img/H_ambi40.png","朋友","prac",""
"","","","","","html-keyboard-response","104","517762","0.0-8.0-0.0-1.14","null","<span style='color:GreenYellow; font-size: 70px;'>正确! </span>","null","","","","","","","","","","","","","","","","","","","","","","","feedback_test"
"","","","","","psychophysics","105","519380","0.0-8.0-0.0-0.15","604","","j","","","","","","","","","","","","","key","j","16.65863541666719","640","356","j","true","img/T_ambi40.png","をる","prac",""
"","","","","","html-keyboard-response","106","519888","0.0-8.0-0.0-1.15","null","<span style='color:GreenYellow; font-size: 70px;'>正确! </span>","null","","","","","","","","","","","","","","","","","","","","","","","feedback_test"
"","","","","","psychophysics","107","521493","0.0-8.0-0.0-0.16","600","","j","","","","","","","","","","","","","key","j","16.659645833333343","640","356","j","true","img/T_ambi40.png","をる","prac",""
"","","","","","html-keyboard-response","108","521993","0.0-8.0-0.0-1.16","null","<span style='color:GreenYellow; font-size: 70px;'>正确! </span>","null","","","","","","","","","","","","","","","","","","","","","","","feedback_test"
"","","","","","psychophysics","109","524286","0.0-8.0-0.0-0.17","1289","","j","","","","","","","","","","","","","key","j","16.655683823529056","640","356","j","true","img/H_ambi40.png","自我","prac",""
"","","","","","html-keyboard-response","110","524792","0.0-8.0-0.0-1.17","null","<span style='color:GreenYellow; font-size: 70px;'>正确! </span>","null","","","","","","","","","","","","","","","","","","","","","","","feedback_test"
"","","","","","psychophysics","111","526401","0.0-8.0-0.0-0.18","605","","j","","","","","","","","","","","","","key","j","16.664642105263805","640","356","j","true","img/T_ambi40.png","をる","prac",""
"","","","","","html-keyboard-response","112","526905","0.0-8.0-0.0-1.18","null","<span style='color:GreenYellow; font-size: 70px;'>正确! </span>","null","","","","","","","","","","","","","","","","","","","","","","","feedback_test"
"","","","","","psychophysics","113","529124","0.0-8.0-0.0-0.19","1218","","j","","","","","","","","","","","","","key","j","16.659106060605897","640","356","j","true","img/C_ambi40.png","生人","prac",""
"","","","","","html-keyboard-response","114","529640","0.0-8.0-0.0-1.19","null","<span style='color:GreenYellow; font-size: 70px;'>正确! </span>","null","","","","","","","","","","","","","","","","","","","","","","","feedback_test"
"","","","","","psychophysics","115","531419","0.0-8.0-0.0-0.20","766","","j","","","","","","","","","","","","","key","j","16.659142857142502","640","356","j","true","img/T_ambi40.png","をる","prac",""
"","","","","","html-keyboard-response","116","531934","0.0-8.0-0.0-1.20","null","<span style='color:GreenYellow; font-size: 70px;'>正确! </span>","null","","","","","","","","","","","","","","","","","","","","","","","feedback_test"
"","","","","","psychophysics","117","534439","0.0-8.0-0.0-0.21","null","","null","","","","","","","","","","","","","key","null","16.6591333333333","640","356","f","false","img/C_ambi40.png","朋友","prac",""
"","","","","","html-keyboard-response","118","534944","0.0-8.0-0.0-1.21","null","<span class='add_' style='color:yellow; font-size: 70px;'> 太慢! </span>","null","","","","","","","","","","","","","","","","","","","","","","","feedback_test"
"","","","","","psychophysics","119","537194","0.0-8.0-0.0-0.22","1246","","j","","","","","","","","","","","","","key","j","16.659626865670877","640","356","f","false","img/H_ambi40.png","生人","prac",""
"","","","","","html-keyboard-response","120","537699","0.0-8.0-0.0-1.22","null","<span style='color:red; font-size: 70px;'>错误! </span>","null","","","","","","","","","","","","","","","","","","","","","","","feedback_test"
"","","","","","psychophysics","121","539476","0.0-8.0-0.0-0.23","775","","f","","","","","","","","","","","","","key","f","16.539685714285866","640","356","f","true","img/S_ambi40.png","生人","prac",""
"","","","","","html-keyboard-response","122","539982","0.0-8.0-0.0-1.23","null","<span style='color:GreenYellow; font-size: 70px;'>正确! </span>","null","","","","","","","","","","","","","","","","","","","","","","","feedback_test"
"","","","","","psychophysics","123","541939","0.0-8.0-0.0-0.24","956","","f","","","","","","","","","","","","","key","f","16.656336206896633","640","356","f","true","img/H_ambi40.png","朋友","prac",""
"","","","","","html-keyboard-response","124","542451","0.0-8.0-0.0-1.24","null","<span style='color:GreenYellow; font-size: 70px;'>正确! </span>","null","","","","","","","","","","","","","","","","","","","","","","","feedback_test"
"","","","","","psychophysics","125","544263","0.0-8.0-0.0-0.25","809","","f","","","","","","","","","","","","","key","f","16.662682242990716","640","356","f","true","img/S_ambi40.png","自我","prac",""
"","","","","","html-keyboard-response","126","544767","0.0-8.0-0.0-1.25","null","<span style='color:GreenYellow; font-size: 70px;'>正确! </span>","null","","","","","","","","","","","","","","","","","","","","","","","feedback_test"
"","","","","","psychophysics","127","546407","0.0-8.0-0.0-0.26","637","","f","","","","","","","","","","","","","key","f","16.660144329896752","640","356","j","false","img/S_ambi40.png","朋友","prac",""
"","","","","","html-keyboard-response","128","546923","0.0-8.0-0.0-1.26","null","<span style='color:red; font-size: 70px;'>错误! </span>","null","","","","","","","","","","","","","","","","","","","","","","","feedback_test"
"","","","","","psychophysics","129","548376","0.0-8.0-0.0-0.27","449","","j","","","","","","","","","","","","","key","j","16.66163953488319","640","356","j","true","img/H_ambi40.png","自我","prac",""
"","","","","","html-keyboard-response","130","548884","0.0-8.0-0.0-1.27","null","<span style='color:GreenYellow; font-size: 70px;'>正确! </span>","null","","","","","","","","","","","","","","","","","","","","","","","feedback_test"
"","","","","","psychophysics","131","550222","0.0-8.0-0.0-0.28","337","","f","","","","","","","","","","","","","key","f","16.664645569621516","640","356","f","true","img/C_ambi40.png","自我","prac",""
"","","","","","html-keyboard-response","132","550728","0.0-8.0-0.0-1.28","null","<span style='color:GreenYellow; font-size: 70px;'>正确! </span>","null","","","","","","","","","","","","","","","","","","","","","","","feedback_test"
"","","","","","psychophysics","133","552104","0.0-8.0-0.0-0.29","375","","j","","","","","","","","","","","","","key","j","16.656777777778053","640","356","j","true","img/C_ambi40.png","生人","prac",""
"","","","","","html-keyboard-response","134","552617","0.0-8.0-0.0-1.29","null","<span style='color:GreenYellow; font-size: 70px;'>正确! </span>","null","","","","","","","","","","","","","","","","","","","","","","","feedback_test"
"","","","","","psychophysics","135","554142","0.0-8.0-0.0-0.30","514","","f","","","","","","","","","","","","","key","f","16.65925555555538","640","356","j","false","img/T_ambi40.png","をる","prac",""
"","","","","","html-keyboard-response","136","554646","0.0-8.0-0.0-1.30","null","<span style='color:red; font-size: 70px;'>错误! </span>","null","","","","","","","","","","","","","","","","","","","","","","","feedback_test"
"","","","","","psychophysics","137","556044","0.0-8.0-0.0-0.31","388","","j","","","","","","","","","","","","","key","j","16.650457831324044","640","356","j","true","img/S_ambi40.png","朋友","prac",""
"","","","","","html-keyboard-response","138","556545","0.0-8.0-0.0-1.31","null","<span style='color:GreenYellow; font-size: 70px;'>正确! </span>","null","","","","","","","","","","","","","","","","","","","","","","","feedback_test"
"","","","","","html-keyboard-response","139","563535","0.0-8.0-1.0-0.0","6986","<style>.context{color:white; font-size: 35px; line-height:40px}</style>                          <div><p class='context'>您正确回答了66% 的试次。</p ><p class='context'>您的平均反应时为772毫秒。</p >","enter","","","","","","","","","","","","","","","","","","","","","","",""
"","","","","","instructions","140","623218","0.0-8.0-1.0-1.0","59679","","","","","","","","","","","","","","[{""page_index"":0,""viewing_time"":40667},{""page_index"":1,""viewing_time"":17202},{""page_index"":2,""viewing_time"":1809}]","","","","","","","","","","",""
"","","","","","psychophysics","141","624850","0.0-8.1-0.1-0.32","623","","j","","","","","","","","","","","","","key","j","16.66162886597893","640","356","j","true","img/T_ambi40.png","をる","prac",""
"","","","","","html-keyboard-response","142","625357","0.0-8.1-0.1-1.32","null","<span style='color:GreenYellow; font-size: 70px;'>正确! </span>","null","","","","","","","","","","","","","","","","","","","","","","","feedback_test"
"","","","","","psychophysics","143","626925","0.0-8.1-0.1-0.33","567","","j","","","","","","","","","","","","","key","j","16.658935483870525","640","356","j","true","img/C_ambi40.png","生人","prac",""
"","","","","","html-keyboard-response","144","627427","0.0-8.1-0.1-1.33","null","<span style='color:GreenYellow; font-size: 70px;'>正确! </span>","null","","","","","","","","","","","","","","","","","","","","","","","feedback_test"
"","","","","","psychophysics","145","629220","0.0-8.1-0.1-0.34","782","","f","","","","","","","","","","","","","key","f","16.663547169811416","640","356","j","false","img/S_ambi40.png","朋友","prac",""
"","","","","","html-keyboard-response","146","629722","0.0-8.1-0.1-1.34","null","<span style='color:red; font-size: 70px;'>错误! </span>","null","","","","","","","","","","","","","","","","","","","","","","","feedback_test"
"","","","","","psychophysics","147","631034","0.0-8.1-0.1-0.35","311","","j","","","","","","","","","","","","","key","j","16.659628205128218","640","356","j","true","img/T_ambi40.png","をる","prac",""
"","","","","","html-keyboard-response","148","631535","0.0-8.1-0.1-1.35","null","<span style='color:GreenYellow; font-size: 70px;'>正确! </span>","null","","","","","","","","","","","","","","","","","","","","","","","feedback_test"
"","","","","","psychophysics","149","633244","0.0-8.1-0.1-0.36","702","","f","","","","","","","","","","","","","key","f","16.662107843137573","640","356","j","false","img/H_ambi40.png","自我","prac",""
"","","","","","html-keyboard-response","150","633749","0.0-8.1-0.1-1.36","null","<span style='color:red; font-size: 70px;'>错误! </span>","null","","","","","","","","","","","","","","","","","","","","","","","feedback_test"
"","","","","","psychophysics","151","635087","0.0-8.1-0.1-0.37","331","","j","","","","","","","","","","","","","key","j","16.658999999999835","640","356","j","true","img/T_ambi40.png","をる","prac",""
"","","","","","html-keyboard-response","152","635600","0.0-8.1-0.1-1.37","null","<span style='color:GreenYellow; font-size: 70px;'>正确! </span>","null","","","","","","","","","","","","","","","","","","","","","","","feedback_test"
"","","","","","psychophysics","153","637307","0.0-8.1-0.1-0.38","705","","j","","","","","","","","","","","","","key","j","16.65913725490157","640","356","f","false","img/H_ambi40.png","生人","prac",""
"","","","","","html-keyboard-response","154","637818","0.0-8.1-0.1-1.38","null","<span style='color:red; font-size: 70px;'>错误! </span>","null","","","","","","","","","","","","","","","","","","","","","","","feedback_test"
"","","","","","psychophysics","155","639845","0.0-8.1-0.1-0.39","1024","","f","","","","","","","","","","","","","key","f","16.662479338843244","640","356","j","false","img/C_ambi40.png","生人","prac",""
"","","","","","html-keyboard-response","156","640353","0.0-8.1-0.1-1.39","null","<span style='color:red; font-size: 70px;'>错误! </span>","null","","","","","","","","","","","","","","","","","","","","","","","feedback_test"
"","","","","","psychophysics","157","642412","0.0-8.1-0.1-0.40","1057","","f","","","","","","","","","","","","","key","f","16.53987704918025","640","356","f","true","img/S_ambi40.png","生人","prac",""
"","","","","","html-keyboard-response","158","642926","0.0-8.1-0.1-1.40","null","<span style='color:GreenYellow; font-size: 70px;'>正确! </span>","null","","","","","","","","","","","","","","","","","","","","","","","feedback_test"
"","","","","","psychophysics","159","644515","0.0-8.1-0.1-0.41","578","","j","","","","","","","","","","","","","key","j","16.65906382978651","640","356","j","true","img/T_ambi40.png","をる","prac",""
"","","","","","html-keyboard-response","160","645019","0.0-8.1-0.1-1.41","null","<span style='color:GreenYellow; font-size: 70px;'>正确! </span>","null","","","","","","","","","","","","","","","","","","","","","","","feedback_test"
"","","","","","psychophysics","161","647529","0.0-8.1-0.1-0.42","null","","null","","","","","","","","","","","","","key","null","17.11913793103384","640","356","j","false","img/S_ambi40.png","朋友","prac",""
"","","","","","html-keyboard-response","162","648044","0.0-8.1-0.1-1.42","null","<span class='add_' style='color:yellow; font-size: 70px;'> 太慢! </span>","null","","","","","","","","","","","","","","","","","","","","","","","feedback_test"
"","","","","","psychophysics","163","650550","0.0-8.1-0.1-0.43","null","","null","","","","","","","","","","","","","key","null","16.658953020134284","640","356","j","false","img/H_ambi40.png","自我","prac",""
"","","","","","html-keyboard-response","164","651053","0.0-8.1-0.1-1.43","null","<span class='add_' style='color:yellow; font-size: 70px;'> 太慢! </span>","null","","","","","","","","","","","","","","","","","","","","","","","feedback_test"
"","","","","","psychophysics","165","653563","0.0-8.1-0.1-0.44","null","","null","","","","","","","","","","","","","key","null","16.661818791946533","640","356","f","false","img/H_ambi40.png","朋友","prac",""
"","","","","","html-keyboard-response","166","654066","0.0-8.1-0.1-1.44","null","<span class='add_' style='color:yellow; font-size: 70px;'> 太慢! </span>","null","","","","","","","","","","","","","","","","","","","","","","","feedback_test"
"","","","","","psychophysics","167","656574","0.0-8.1-0.1-0.45","null","","null","","","","","","","","","","","","","key","null","17.118634482758154","640","356","f","false","img/S_ambi40.png","自我","prac",""
"","","","","","html-keyboard-response","168","657087","0.0-8.1-0.1-1.45","null","<span class='add_' style='color:yellow; font-size: 70px;'> 太慢! </span>","null","","","","","","","","","","","","","","","","","","","","","","","feedback_test"
"","","","","","psychophysics","169","659570","0.0-8.1-0.1-0.46","1469","","j","","","","","","","","","","","","","key","j","16.659371621621226","640","356","f","false","img/C_ambi40.png","朋友","prac",""
"","","","","","html-keyboard-response","170","660073","0.0-8.1-0.1-1.46","null","<span style='color:red; font-size: 70px;'>错误! </span>","null","","","","","","","","","","","","","","","","","","","","","","","feedback_test"
"","","","","","psychophysics","171","662180","0.0-8.1-0.1-0.47","1102","","f","","","","","","","","","","","","","key","f","16.65869841269875","640","356","f","true","img/C_ambi40.png","自我","prac",""
"","","","","","html-keyboard-response","172","662696","0.0-8.1-0.1-1.47","null","<span style='color:GreenYellow; font-size: 70px;'>正确! </span>","null","","","","","","","","","","","","","","","","","","","","","","","feedback_test"
"","","","","","psychophysics","173","664318","0.0-8.1-0.1-0.48","610","","j","","","","","","","","","","","","","key","j","16.658656250000302","640","356","j","true","img/T_ambi40.png","をる","prac",""
"","","","","","html-keyboard-response","174","664833","0.0-8.1-0.1-1.48","null","<span style='color:GreenYellow; font-size: 70px;'>正确! </span>","null","","","","","","","","","","","","","","","","","","","","","","","feedback_test"
"","","","","","psychophysics","175","666770","0.0-8.1-0.1-0.49","927","","j","","","","","","","","","","","","","key","j","16.659060869565355","640","356","f","false","img/S_ambi40.png","自我","prac",""
"","","","","","html-keyboard-response","176","667281","0.0-8.1-0.1-1.49","null","<span style='color:red; font-size: 70px;'>错误! </span>","null","","","","","","","","","","","","","","","","","","","","","","","feedback_test"
"","","","","","psychophysics","177","669028","0.0-8.1-0.1-0.50","735","","f","","","","","","","","","","","","","key","f","16.65517307692342","640","356","j","false","img/C_ambi40.png","生人","prac",""
"","","","","","html-keyboard-response","178","669530","0.0-8.1-0.1-1.50","null","<span style='color:red; font-size: 70px;'>错误! </span>","null","","","","","","","","","","","","","","","","","","","","","","","feedback_test"
"","","","","","psychophysics","179","670915","0.0-8.1-0.1-0.51","380","","j","","","","","","","","","","","","","key","j","16.66290243902448","640","356","j","true","img/S_ambi40.png","朋友","prac",""
"","","","","","html-keyboard-response","180","671430","0.0-8.1-0.1-1.51","null","<span style='color:GreenYellow; font-size: 70px;'>正确! </span>","null","","","","","","","","","","","","","","","","","","","","","","","feedback_test"
"","","","","","psychophysics","181","673063","0.0-8.1-0.1-0.52","622","","j","","","","","","","","","","","","","key","j","16.658536082473294","640","356","j","true","img/T_ambi40.png","をる","prac",""
"","","","","","html-keyboard-response","182","673565","0.0-8.1-0.1-1.52","null","<span style='color:GreenYellow; font-size: 70px;'>正确! </span>","null","","","","","","","","","","","","","","","","","","","","","","","feedback_test"
"","","","","","psychophysics","183","674968","0.0-8.1-0.1-0.53","395","","j","","","","","","","","","","","","","key","j","16.65701204819285","640","356","f","false","img/C_ambi40.png","自我","prac",""
"","","","","","html-keyboard-response","184","675470","0.0-8.1-0.1-1.53","null","<span style='color:red; font-size: 70px;'>错误! </span>","null","","","","","","","","","","","","","","","","","","","","","","","feedback_test"
"","","","","","psychophysics","185","677567","0.0-8.1-0.1-0.54","1095","","f","","","","","","","","","","","","","key","f","16.561975806451123","640","356","f","true","img/H_ambi40.png","朋友","prac",""
"","","","","","html-keyboard-response","186","678079","0.0-8.1-0.1-1.54","null","<span style='color:GreenYellow; font-size: 70px;'>正确! </span>","null","","","","","","","","","","","","","","","","","","","","","","","feedback_test"
"","","","","","psychophysics","187","679897","0.0-8.1-0.1-0.55","814","","f","","","","","","","","","","","","","key","f","16.660231481481954","640","356","f","true","img/S_ambi40.png","生人","prac",""
"","","","","","html-keyboard-response","188","680410","0.0-8.1-0.1-1.55","null","<span style='color:GreenYellow; font-size: 70px;'>正确! </span>","null","","","","","","","","","","","","","","","","","","","","","","","feedback_test"
"","","","","","psychophysics","189","682308","0.0-8.1-0.1-0.56","889","","j","","","","","","","","","","","","","key","j","16.661070796460184","640","356","j","true","img/H_ambi40.png","自我","prac",""
"","","","","","html-keyboard-response","190","682818","0.0-8.1-0.1-1.56","null","<span style='color:GreenYellow; font-size: 70px;'>正确! </span>","null","","","","","","","","","","","","","","","","","","","","","","","feedback_test"
"","","","","","psychophysics","191","684586","0.0-8.1-0.1-0.57","768","","f","","","","","","","","","","","","","key","f","16.662990476189936","640","356","j","false","img/C_ambi40.png","生人","prac",""
"","","","","","html-keyboard-response","192","685102","0.0-8.1-0.1-1.57","null","<span style='color:red; font-size: 70px;'>错误! </span>","null","","","","","","","","","","","","","","","","","","","","","","","feedback_test"
"","","","","","psychophysics","193","687087","0.0-8.1-0.1-0.58","975","","j","","","","","","","","","","","","","key","j","16.65821186440673","640","356","f","false","img/H_ambi40.png","生人","prac",""
"","","","","","html-keyboard-response","194","687599","0.0-8.1-0.1-1.58","null","<span style='color:red; font-size: 70px;'>错误! </span>","null","","","","","","","","","","","","","","","","","","","","","","","feedback_test"
"","","","","","psychophysics","195","689416","0.0-8.1-0.1-0.59","816","","f","","","","","","","","","","","","","key","f","16.658657407407492","640","356","j","false","img/S_ambi40.png","朋友","prac",""
"","","","","","html-keyboard-response","196","689927","0.0-8.1-0.1-1.59","null","<span style='color:red; font-size: 70px;'>错误! </span>","null","","","","","","","","","","","","","","","","","","","","","","","feedback_test"
"","","","","","psychophysics","197","691320","0.0-8.1-0.1-0.60","387","","j","","","","","","","","","","","","","key","j","16.659831325301944","640","356","j","true","img/T_ambi40.png","をる","prac",""
"","","","","","html-keyboard-response","198","691825","0.0-8.1-0.1-1.60","null","<span style='color:GreenYellow; font-size: 70px;'>正确! </span>","null","","","","","","","","","","","","","","","","","","","","","","","feedback_test"
"","","","","","psychophysics","199","693194","0.0-8.1-0.1-0.61","363","","j","","","","","","","","","","","","","key","j","16.658666666666115","640","356","j","true","img/T_ambi40.png","をる","prac",""
"","","","","","html-keyboard-response","200","693710","0.0-8.1-0.1-1.61","null","<span style='color:GreenYellow; font-size: 70px;'>正确! </span>","null","","","","","","","","","","","","","","","","","","","","","","","feedback_test"
"","","","","","psychophysics","201","695094","0.0-8.1-0.1-0.62","382","","j","","","","","","","","","","","","","key","j","16.65926829268361","640","356","f","false","img/C_ambi40.png","朋友","prac",""
"","","","","","html-keyboard-response","202","695603","0.0-8.1-0.1-1.62","null","<span style='color:red; font-size: 70px;'>错误! </span>","null","","","","","","","","","","","","","","","","","","","","","","","feedback_test"
"","","","","","psychophysics","203","697379","0.0-8.1-0.1-0.63","766","","f","","","","","","","","","","","","","key","f","16.65600943396237","640","356","j","false","img/H_ambi40.png","自我","prac",""
"","","","","","html-keyboard-response","204","697882","0.0-8.1-0.1-1.63","null","<span style='color:red; font-size: 70px;'>错误! </span>","null","","","","","","","","","","","","","","","","","","","","","","","feedback_test"
"","","","","","html-keyboard-response","205","774216","0.0-8.1-1.1-0.1","76332","<style>.context{color:white; font-size: 35px; line-height:40px}</style>                          <div><p class='context'>您正确回答了47% 的试次。</p ><p class='context'>您的平均反应时为649毫秒。</p >","enter","","","","","","","","","","","","","","","","","","","","","","",""
"","","","","","instructions","206","797333","0.0-8.1-1.1-1.1","23114","","","","","","","","","","","","","","[{""page_index"":0,""viewing_time"":3216},{""page_index"":1,""viewing_time"":15548},{""page_index"":2,""viewing_time"":4350}]","","","","","","","","","","",""
"","","","","","psychophysics","207","799846","0.0-8.2-0.2-0.64","null","","null","","","","","","","","","","","","","key","null","16.65652348993318","640","356","f","false","img/H_ambi40.png","生人","prac",""
"","","","","","html-keyboard-response","208","800349","0.0-8.2-0.2-1.64","null","<span class='add_' style='color:yellow; font-size: 70px;'> 太慢! </span>","null","","","","","","","","","","","","","","","","","","","","","","","feedback_test"
"","","","","","psychophysics","209","801993","0.0-8.2-0.2-0.65","628","","f","","","","","","","","","","","","","key","f","16.660257731957994","640","356","f","true","img/H_ambi40.png","朋友","prac",""
"","","","","","html-keyboard-response","210","802506","0.0-8.2-0.2-1.65","null","<span style='color:GreenYellow; font-size: 70px;'>正确! </span>","null","","","","","","","","","","","","","","","","","","","","","","","feedback_test"
"","","","","","psychophysics","211","804081","0.0-8.2-0.2-0.66","566","","j","","","","","","","","","","","","","key","j","16.65839361702092","640","356","j","true","img/T_ambi40.png","をる","prac",""
"","","","","","html-keyboard-response","212","804595","0.0-8.2-0.2-1.66","null","<span style='color:GreenYellow; font-size: 70px;'>正确! </span>","null","","","","","","","","","","","","","","","","","","","","","","","feedback_test"
"","","","","","psychophysics","213","806474","0.0-8.2-0.2-0.67","877","","j","","","","","","","","","","","","","key","j","16.662375000000925","640","356","j","true","img/T_ambi40.png","をる","prac",""
"","","","","","html-keyboard-response","214","806979","0.0-8.2-0.2-1.67","null","<span style='color:GreenYellow; font-size: 70px;'>正确! </span>","null","","","","","","","","","","","","","","","","","","","","","","","feedback_test"
"","","","","","psychophysics","215","808740","0.0-8.2-0.2-0.68","745","","f","","","","","","","","","","","","","key","f","16.66252884615432","640","356","f","true","img/S_ambi40.png","自我","prac",""
"","","","","","html-keyboard-response","216","809256","0.0-8.2-0.2-1.68","null","<span style='color:GreenYellow; font-size: 70px;'>正确! </span>","null","","","","","","","","","","","","","","","","","","","","","","","feedback_test"
"","","","","","psychophysics","217","811152","0.0-8.2-0.2-0.69","893","","f","","","","","","","","","","","","","key","f","16.66273451327404","640","356","j","false","img/H_ambi40.png","自我","prac",""
"","","","","","html-keyboard-response","218","811665","0.0-8.2-0.2-1.69","null","<span style='color:red; font-size: 70px;'>错误! </span>","null","","","","","","","","","","","","","","","","","","","","","","","feedback_test"
"","","","","","psychophysics","219","813419","0.0-8.2-0.2-0.70","742","","f","","","","","","","","","","","","","key","f","16.65903846153882","640","356","j","false","img/S_ambi40.png","朋友","prac",""
"","","","","","html-keyboard-response","220","813929","0.0-8.2-0.2-1.70","null","<span style='color:red; font-size: 70px;'>错误! </span>","null","","","","","","","","","","","","","","","","","","","","","","","feedback_test"
"","","","","","psychophysics","221","815838","0.0-8.2-0.2-0.71","896","","f","","","","","","","","","","","","","key","f","16.65438938053094","640","356","f","true","img/C_ambi40.png","朋友","prac",""
"","","","","","html-keyboard-response","222","816350","0.0-8.2-0.2-1.71","null","<span style='color:GreenYellow; font-size: 70px;'>正确! </span>","null","","","","","","","","","","","","","","","","","","","","","","","feedback_test"
"","","","","","psychophysics","223","818221","0.0-8.2-0.2-0.72","862","","f","","","","","","","","","","","","","key","f","16.661171171171297","640","356","f","true","img/C_ambi40.png","自我","prac",""
"","","","","","html-keyboard-response","224","818723","0.0-8.2-0.2-1.72","null","<span style='color:GreenYellow; font-size: 70px;'>正确! </span>","null","","","","","","","","","","","","","","","","","","","","","","","feedback_test"
"","","","","","psychophysics","225","820925","0.0-8.2-0.2-0.73","1201","","j","","","","","","","","","","","","","key","j","16.663396946565097","640","356","j","true","img/H_ambi40.png","自我","prac",""
"","","","","","html-keyboard-response","226","821438","0.0-8.2-0.2-1.73","null","<span style='color:GreenYellow; font-size: 70px;'>正确! </span>","null","","","","","","","","","","","","","","","","","","","","","","","feedback_test"
"","","","","","psychophysics","227","823260","0.0-8.2-0.2-0.74","819","","f","","","","","","","","","","","","","key","f","16.531592592592695","640","356","j","false","img/C_ambi40.png","生人","prac",""
"","","","","","html-keyboard-response","228","823768","0.0-8.2-0.2-1.74","null","<span style='color:red; font-size: 70px;'>错误! </span>","null","","","","","","","","","","","","","","","","","","","","","","","feedback_test"
"","","","","","psychophysics","229","825763","0.0-8.2-0.2-0.75","992","","f","","","","","","","","","","","","","key","f","16.658739495798436","640","356","f","true","img/S_ambi40.png","生人","prac",""
"","","","","","html-keyboard-response","230","826273","0.0-8.2-0.2-1.75","null","<span style='color:GreenYellow; font-size: 70px;'>正确! </span>","null","","","","","","","","","","","","","","","","","","","","","","","feedback_test"
"","","","","","psychophysics","231","828361","0.0-8.2-0.2-0.76","1075","","f","","","","","","","","","","","","","key","f","16.655685483870442","640","356","j","false","img/C_ambi40.png","生人","prac",""
"","","","","","html-keyboard-response","232","828863","0.0-8.2-0.2-1.76","null","<span style='color:red; font-size: 70px;'>错误! </span>","null","","","","","","","","","","","","","","","","","","","","","","","feedback_test"
"","","","","","psychophysics","233","830410","0.0-8.2-0.2-0.77","540","","j","","","","","","","","","","","","","key","j","16.661760869565036","640","356","j","true","img/T_ambi40.png","をる","prac",""
"","","","","","html-keyboard-response","234","830919","0.0-8.2-0.2-1.77","null","<span style='color:GreenYellow; font-size: 70px;'>正确! </span>","null","","","","","","","","","","","","","","","","","","","","","","","feedback_test"
"","","","","","psychophysics","235","832989","0.0-8.2-0.2-0.78","1058","","j","","","","","","","","","","","","","key","j","16.65917073170715","640","356","j","true","img/S_ambi40.png","朋友","prac",""
"","","","","","html-keyboard-response","236","833492","0.0-8.2-0.2-1.78","null","<span style='color:GreenYellow; font-size: 70px;'>正确! </span>","null","","","","","","","","","","","","","","","","","","","","","","","feedback_test"
"","","","","","psychophysics","237","835124","0.0-8.2-0.2-0.79","628","","j","","","","","","","","","","","","","key","j","16.65911340206194","640","356","j","true","img/T_ambi40.png","をる","prac",""
"","","","","","html-keyboard-response","238","835639","0.0-8.2-0.2-1.79","null","<span style='color:GreenYellow; font-size: 70px;'>正确! </span>","null","","","","","","","","","","","","","","","","","","","","","","","feedback_test"
"","","","","","psychophysics","239","837537","0.0-8.2-0.2-0.80","886","","f","","","","","","","","","","","","","key","f","16.655176991150732","640","356","f","true","img/H_ambi40.png","生人","prac",""
"","","","","","html-keyboard-response","240","838042","0.0-8.2-0.2-1.80","null","<span style='color:GreenYellow; font-size: 70px;'>正确! </span>","null","","","","","","","","","","","","","","","","","","","","","","","feedback_test"
"","","","","","psychophysics","241","840051","0.0-8.2-0.2-0.81","1006","","j","","","","","","","","","","","","","key","j","16.661549999999504","640","356","j","true","img/C_ambi40.png","生人","prac",""
"","","","","","html-keyboard-response","242","840565","0.0-8.2-0.2-1.81","null","<span style='color:GreenYellow; font-size: 70px;'>正确! </span>","null","","","","","","","","","","","","","","","","","","","","","","","feedback_test"
"","","","","","psychophysics","243","842310","0.0-8.2-0.2-0.82","733","","j","","","","","","","","","","","","","key","j","16.657961165048725","640","356","j","true","img/T_ambi40.png","をる","prac",""
"","","","","","html-keyboard-response","244","842812","0.0-8.2-0.2-1.82","null","<span style='color:GreenYellow; font-size: 70px;'>正确! </span>","null","","","","","","","","","","","","","","","","","","","","","","","feedback_test"
"","","","","","psychophysics","245","844542","0.0-8.2-0.2-0.83","728","","f","","","","","","","","","","","","","key","f","16.532754901959787","640","356","f","true","img/S_ambi40.png","自我","prac",""
"","","","","","html-keyboard-response","246","845044","0.0-8.2-0.2-1.83","null","<span style='color:GreenYellow; font-size: 70px;'>正确! </span>","null","","","","","","","","","","","","","","","","","","","","","","","feedback_test"
"","","","","","psychophysics","247","846732","0.0-8.2-0.2-0.84","687","","f","","","","","","","","","","","","","key","f","16.512260000000243","640","356","f","true","img/S_ambi40.png","生人","prac",""
"","","","","","html-keyboard-response","248","847238","0.0-8.2-0.2-1.84","null","<span style='color:GreenYellow; font-size: 70px;'>正确! </span>","null","","","","","","","","","","","","","","","","","","","","","","","feedback_test"
"","","","","","psychophysics","249","849118","0.0-8.2-0.2-0.85","879","","j","","","","","","","","","","","","","key","j","16.65922321428557","640","356","f","false","img/H_ambi40.png","朋友","prac",""
"","","","","","html-keyboard-response","250","849630","0.0-8.2-0.2-1.85","null","<span style='color:red; font-size: 70px;'>错误! </span>","null","","","","","","","","","","","","","","","","","","","","","","","feedback_test"
"","","","","","psychophysics","251","851363","0.0-8.2-0.2-0.86","727","","f","","","","","","","","","","","","","key","f","16.66110679611577","640","356","j","false","img/C_ambi40.png","生人","prac",""
"","","","","","html-keyboard-response","252","851865","0.0-8.2-0.2-1.86","null","<span style='color:red; font-size: 70px;'>错误! </span>","null","","","","","","","","","","","","","","","","","","","","","","","feedback_test"
"","","","","","psychophysics","253","853422","0.0-8.2-0.2-0.87","547","","j","","","","","","","","","","","","","key","j","16.662293478260676","640","356","j","true","img/T_ambi40.png","をる","prac",""
"","","","","","html-keyboard-response","254","853937","0.0-8.2-0.2-1.87","null","<span style='color:GreenYellow; font-size: 70px;'>正确! </span>","null","","","","","","","","","","","","","","","","","","","","","","","feedback_test"
"","","","","","psychophysics","255","855698","0.0-8.2-0.2-0.88","757","","f","","","","","","","","","","","","","key","f","16.661095238095594","640","356","j","false","img/H_ambi40.png","自我","prac",""
"","","","","","html-keyboard-response","256","856210","0.0-8.2-0.2-1.88","null","<span style='color:red; font-size: 70px;'>错误! </span>","null","","","","","","","","","","","","","","","","","","","","","","","feedback_test"
"","","","","","psychophysics","257","857710","0.0-8.2-0.2-0.89","494","","j","","","","","","","","","","","","","key","j","16.658516853932667","640","356","j","true","img/T_ambi40.png","をる","prac",""
"","","","","","html-keyboard-response","258","858219","0.0-8.2-0.2-1.89","null","<span style='color:GreenYellow; font-size: 70px;'>正确! </span>","null","","","","","","","","","","","","","","","","","","","","","","","feedback_test"
"","","","","","psychophysics","259","859896","0.0-8.2-0.2-0.90","675","","j","","","","","","","","","","","","","key","j","16.665219999999973","640","356","j","true","img/T_ambi40.png","をる","prac",""
"","","","","","html-keyboard-response","260","860398","0.0-8.2-0.2-1.90","null","<span style='color:GreenYellow; font-size: 70px;'>正确! </span>","null","","","","","","","","","","","","","","","","","","","","","","","feedback_test"
"","","","","","psychophysics","261","862409","0.0-8.2-0.2-0.91","1004","","f","","","","","","","","","","","","","key","f","16.657850000000327","640","356","f","true","img/C_ambi40.png","朋友","prac",""
"","","","","","html-keyboard-response","262","862913","0.0-8.2-0.2-1.91","null","<span style='color:GreenYellow; font-size: 70px;'>正确! </span>","null","","","","","","","","","","","","","","","","","","","","","","","feedback_test"
"","","","","","psychophysics","263","865041","0.0-8.2-0.2-0.92","1120","","j","","","","","","","","","","","","","key","j","16.658102362204936","640","356","j","true","img/H_ambi40.png","自我","prac",""
"","","","","","html-keyboard-response","264","865548","0.0-8.2-0.2-1.92","null","<span style='color:GreenYellow; font-size: 70px;'>正确! </span>","null","","","","","","","","","","","","","","","","","","","","","","","feedback_test"
"","","","","","psychophysics","265","867873","0.0-8.2-0.2-0.93","1319","","j","","","","","","","","","","","","","key","j","16.660043165467933","640","356","j","true","img/S_ambi40.png","朋友","prac",""
"","","","","","html-keyboard-response","266","868374","0.0-8.2-0.2-1.93","null","<span style='color:GreenYellow; font-size: 70px;'>正确! </span>","null","","","","","","","","","","","","","","","","","","","","","","","feedback_test"
"","","","","","psychophysics","267","870702","0.0-8.2-0.2-0.94","1317","","j","","","","","","","","","","","","","key","j","16.658848920863846","640","356","f","false","img/C_ambi40.png","自我","prac",""
"","","","","","html-keyboard-response","268","871215","0.0-8.2-0.2-1.94","null","<span style='color:red; font-size: 70px;'>错误! </span>","null","","","","","","","","","","","","","","","","","","","","","","","feedback_test"
"","","","","","psychophysics","269","873097","0.0-8.2-0.2-0.95","880","","f","","","","","","","","","","","","","key","f","16.66208928571411","640","356","j","false","img/S_ambi40.png","朋友","prac",""
"","","","","","html-keyboard-response","270","873607","0.0-8.2-0.2-1.95","null","<span style='color:red; font-size: 70px;'>错误! </span>","null","","","","","","","","","","","","","","","","","","","","","","","feedback_test"
"","","","","","html-keyboard-response","271","901873","0.0-8.2-1.2-0.2","28264","<style>.context{color:white; font-size: 35px; line-height:40px}</style>                          <div><p class='context'>您正确回答了69% 的试次。</p ><p class='context'>您的平均反应时为827毫秒。</p >","enter","","","","","","","","","","","","","","","","","","","","","","",""
"","","","","","instructions","272","931999","0.0-8.2-1.2-1.2","30121","","","","","","","","","","","","","","[{""page_index"":0,""viewing_time"":2882},{""page_index"":1,""viewing_time"":26521},{""page_index"":2,""viewing_time"":717}]","","","","","","","","","","",""
"","","","","","psychophysics","273","933541","0.0-8.3-0.3-0.96","535","","j","","","","","","","","","","","","","key","j","16.659141304348495","640","356","j","true","img/T_ambi40.png","をる","prac",""
"","","","","","html-keyboard-response","274","934049","0.0-8.3-0.3-1.96","null","<span style='color:GreenYellow; font-size: 70px;'>正确! </span>","null","","","","","","","","","","","","","","","","","","","","","","","feedback_test"
"","","","","","psychophysics","275","936110","0.0-8.3-0.3-0.97","1055","","f","","","","","","","","","","","","","key","f","16.660341463414234","640","356","f","true","img/C_ambi40.png","自我","prac",""
"","","","","","html-keyboard-response","276","936624","0.0-8.3-0.3-1.97","null","<span style='color:GreenYellow; font-size: 70px;'>正确! </span>","null","","","","","","","","","","","","","","","","","","","","","","","feedback_test"
"","","","","","psychophysics","277","938542","0.0-8.3-0.3-0.98","906","","j","","","","","","","","","","","","","key","j","16.657307017543516","640","356","f","false","img/H_ambi40.png","朋友","prac",""
"","","","","","html-keyboard-response","278","939056","0.0-8.3-0.3-1.98","null","<span style='color:red; font-size: 70px;'>错误! </span>","null","","","","","","","","","","","","","","","","","","","","","","","feedback_test"
"","","","","","psychophysics","279","940911","0.0-8.3-0.3-0.99","843","","f","","","","","","","","","","","","","key","f","16.658790909091476","640","356","j","false","img/C_ambi40.png","生人","prac",""
"","","","","","html-keyboard-response","280","941418","0.0-8.3-0.3-1.99","null","<span style='color:red; font-size: 70px;'>错误! </span>","null","","","","","","","","","","","","","","","","","","","","","","","feedback_test"
"","","","","","psychophysics","281","943533","0.0-8.3-0.3-0.100","1115","","f","","","","","","","","","","","","","key","f","16.66142399999965","640","356","f","true","img/C_ambi40.png","朋友","prac",""
"","","","","","html-keyboard-response","282","944038","0.0-8.3-0.3-1.100","null","<span style='color:GreenYellow; font-size: 70px;'>正确! </span>","null","","","","","","","","","","","","","","","","","","","","","","","feedback_test"
"","","","","","psychophysics","283","945856","0.0-8.3-0.3-0.101","814","","j","","","","","","","","","","","","","key","j","16.661361111110267","640","356","f","false","img/S_ambi40.png","自我","prac",""
"","","","","","html-keyboard-response","284","946359","0.0-8.3-0.3-1.101","null","<span style='color:red; font-size: 70px;'>错误! </span>","null","","","","","","","","","","","","","","","","","","","","","","","feedback_test"
"","","","","","psychophysics","285","948446","0.0-8.3-0.3-0.102","1081","","j","","","","","","","","","","","","","key","j","16.659112903225655","640","356","j","true","img/C_ambi40.png","生人","prac",""
"","","","","","html-keyboard-response","286","948953","0.0-8.3-0.3-1.102","null","<span style='color:GreenYellow; font-size: 70px;'>正确! </span>","null","","","","","","","","","","","","","","","","","","","","","","","feedback_test"
"","","","","","psychophysics","287","950621","0.0-8.3-0.3-0.103","657","","j","","","","","","","","","","","","","key","j","16.65652525252451","640","356","j","true","img/T_ambi40.png","をる","prac",""
"","","","","","html-keyboard-response","288","951123","0.0-8.3-0.3-1.103","null","<span style='color:GreenYellow; font-size: 70px;'>正确! </span>","null","","","","","","","","","","","","","","","","","","","","","","","feedback_test"
"","","","","","psychophysics","289","952853","0.0-8.3-0.3-0.104","722","","f","","","","","","","","","","","","","key","f","16.660601941747725","640","356","j","false","img/S_ambi40.png","朋友","prac",""
"","","","","","html-keyboard-response","290","953369","0.0-8.3-0.3-1.104","null","<span style='color:red; font-size: 70px;'>错误! </span>","null","","","","","","","","","","","","","","","","","","","","","","","feedback_test"
"","","","","","psychophysics","291","955878","0.0-8.3-0.3-0.105","null","","null","","","","","","","","","","","","","key","null","16.65943999999979","640","356","f","false","img/S_ambi40.png","生人","prac",""
"","","","","","html-keyboard-response","292","956390","0.0-8.3-0.3-1.105","null","<span class='add_' style='color:yellow; font-size: 70px;'> 太慢! </span>","null","","","","","","","","","","","","","","","","","","","","","","","feedback_test"
"","","","","","psychophysics","293","958288","0.0-8.3-0.3-0.106","893","","j","","","","","","","","","","","","","key","j","16.66093805309723","640","356","j","true","img/H_ambi40.png","自我","prac",""
"","","","","","html-keyboard-response","294","958796","0.0-8.3-0.3-1.106","null","<span style='color:GreenYellow; font-size: 70px;'>正确! </span>","null","","","","","","","","","","","","","","","","","","","","","","","feedback_test"
"","","","","","psychophysics","295","960430","0.0-8.3-0.3-0.107","628","","j","","","","","","","","","","","","","key","j","16.658515463918015","640","356","j","true","img/T_ambi40.png","をる","prac",""
"","","","","","html-keyboard-response","296","960942","0.0-8.3-0.3-1.107","null","<span style='color:GreenYellow; font-size: 70px;'>正确! </span>","null","","","","","","","","","","","","","","","","","","","","","","","feedback_test"
"","","","","","psychophysics","297","962724","0.0-8.3-0.3-0.108","781","","f","","","","","","","","","","","","","key","f","16.656019047618887","640","356","j","false","img/S_ambi40.png","朋友","prac",""
"","","","","","html-keyboard-response","298","963233","0.0-8.3-0.3-1.108","null","<span style='color:red; font-size: 70px;'>错误! </span>","null","","","","","","","","","","","","","","","","","","","","","","","feedback_test"
"","","","","","psychophysics","299","965084","0.0-8.3-0.3-0.109","842","","j","","","","","","","","","","","","","key","j","16.65731818181865","640","356","j","true","img/H_ambi40.png","自我","prac",""
"","","","","","html-keyboard-response","300","965587","0.0-8.3-0.3-1.109","null","<span style='color:GreenYellow; font-size: 70px;'>正确! </span>","null","","","","","","","","","","","","","","","","","","","","","","","feedback_test"
"","","","","","psychophysics","301","967538","0.0-8.3-0.3-0.110","947","","f","","","","","","","","","","","","","key","f","16.663896551724033","640","356","f","true","img/H_ambi40.png","生人","prac",""
"","","","","","html-keyboard-response","302","968043","0.0-8.3-0.3-1.110","null","<span style='color:GreenYellow; font-size: 70px;'>正确! </span>","null","","","","","","","","","","","","","","","","","","","","","","","feedback_test"
"","","","","","psychophysics","303","969662","0.0-8.3-0.3-0.111","606","","j","","","","","","","","","","","","","key","j","16.658906250000047","640","356","j","true","img/T_ambi40.png","をる","prac",""
"","","","","","html-keyboard-response","304","970165","0.0-8.3-0.3-1.111","null","<span style='color:GreenYellow; font-size: 70px;'>正确! </span>","null","","","","","","","","","","","","","","","","","","","","","","","feedback_test"
"","","","","","psychophysics","305","972121","0.0-8.3-0.3-0.112","949","","f","","","","","","","","","","","","","key","f","16.658732758620193","640","356","f","true","img/H_ambi40.png","朋友","prac",""
"","","","","","html-keyboard-response","306","972627","0.0-8.3-0.3-1.112","null","<span style='color:GreenYellow; font-size: 70px;'>正确! </span>","null","","","","","","","","","","","","","","","","","","","","","","","feedback_test"
"","","","","","psychophysics","307","974273","0.0-8.3-0.3-0.113","636","","j","","","","","","","","","","","","","key","j","16.665122448978707","640","356","j","true","img/T_ambi40.png","をる","prac",""
"","","","","","html-keyboard-response","308","974781","0.0-8.3-0.3-1.113","null","<span style='color:GreenYellow; font-size: 70px;'>正确! </span>","null","","","","","","","","","","","","","","","","","","","","","","","feedback_test"
"","","","","","psychophysics","309","976500","0.0-8.3-0.3-0.114","716","","j","","","","","","","","","","","","","key","j","16.658401960784378","640","356","j","true","img/T_ambi40.png","をる","prac",""
"","","","","","html-keyboard-response","310","977005","0.0-8.3-0.3-1.114","null","<span style='color:GreenYellow; font-size: 70px;'>正确! </span>","null","","","","","","","","","","","","","","","","","","","","","","","feedback_test"
"","","","","","psychophysics","311","978872","0.0-8.3-0.3-0.115","852","","j","","","","","","","","","","","","","key","j","16.657315315315834","640","356","j","true","img/H_ambi40.png","自我","prac",""
"","","","","","html-keyboard-response","312","979377","0.0-8.3-0.3-1.115","null","<span style='color:GreenYellow; font-size: 70px;'>正确! </span>","null","","","","","","","","","","","","","","","","","","","","","","","feedback_test"
"","","","","","psychophysics","313","980949","0.0-8.3-0.3-0.116","565","","j","","","","","","","","","","","","","key","j","16.65658064516166","640","356","j","true","img/T_ambi40.png","をる","prac",""
"","","","","","html-keyboard-response","314","981450","0.0-8.3-0.3-1.116","null","<span style='color:GreenYellow; font-size: 70px;'>正确! </span>","null","","","","","","","","","","","","","","","","","","","","","","","feedback_test"
"","","","","","psychophysics","315","983060","0.0-8.3-0.3-0.117","609","","j","","","","","","","","","","","","","key","j","16.655389473682856","640","356","j","true","img/T_ambi40.png","をる","prac",""
"","","","","","html-keyboard-response","316","983575","0.0-8.3-0.3-1.117","null","<span style='color:GreenYellow; font-size: 70px;'>正确! </span>","null","","","","","","","","","","","","","","","","","","","","","","","feedback_test"
"","","","","","psychophysics","317","985628","0.0-8.3-0.3-0.118","1045","","f","","","","","","","","","","","","","key","f","16.659680327868134","640","356","f","true","img/C_ambi40.png","自我","prac",""
"","","","","","html-keyboard-response","318","986141","0.0-8.3-0.3-1.118","null","<span style='color:GreenYellow; font-size: 70px;'>正确! </span>","null","","","","","","","","","","","","","","","","","","","","","","","feedback_test"
"","","","","","psychophysics","319","988270","0.0-8.3-0.3-0.119","1122","","f","","","","","","","","","","","","","key","f","16.656110236219565","640","356","f","true","img/S_ambi40.png","生人","prac",""
"","","","","","html-keyboard-response","320","988785","0.0-8.3-0.3-1.119","null","<span style='color:GreenYellow; font-size: 70px;'>正确! </span>","null","","","","","","","","","","","","","","","","","","","","","","","feedback_test"
"","","","","","psychophysics","321","990744","0.0-8.3-0.3-0.120","957","","f","","","","","","","","","","","","","key","f","16.66225862068903","640","356","f","true","img/C_ambi40.png","朋友","prac",""
"","","","","","html-keyboard-response","322","991250","0.0-8.3-0.3-1.120","null","<span style='color:GreenYellow; font-size: 70px;'>正确! </span>","null","","","","","","","","","","","","","","","","","","","","","","","feedback_test"
"","","","","","psychophysics","323","993065","0.0-8.3-0.3-0.121","813","","f","","","","","","","","","","","","","key","f","16.65895370370277","640","356","f","true","img/S_ambi40.png","自我","prac",""
"","","","","","html-keyboard-response","324","993567","0.0-8.3-0.3-1.121","null","<span style='color:GreenYellow; font-size: 70px;'>正确! </span>","null","","","","","","","","","","","","","","","","","","","","","","","feedback_test"
"","","","","","psychophysics","325","995310","0.0-8.3-0.3-0.122","732","","j","","","","","","","","","","","","","key","j","16.659252427183816","640","356","j","true","img/S_ambi40.png","朋友","prac",""
"","","","","","html-keyboard-response","326","995812","0.0-8.3-0.3-1.122","null","<span style='color:GreenYellow; font-size: 70px;'>正确! </span>","null","","","","","","","","","","","","","","","","","","","","","","","feedback_test"
"","","","","","psychophysics","327","997486","0.0-8.3-0.3-0.123","670","","j","","","","","","","","","","","","","key","j","16.655434343434703","640","356","j","true","img/H_ambi40.png","自我","prac",""
"","","","","","html-keyboard-response","328","997989","0.0-8.3-0.3-1.123","null","<span style='color:GreenYellow; font-size: 70px;'>正确! </span>","null","","","","","","","","","","","","","","","","","","","","","","","feedback_test"
"","","","","","psychophysics","329","999552","0.0-8.3-0.3-0.124","561","","f","","","","","","","","","","","","","key","f","16.663548387096373","640","356","f","true","img/H_ambi40.png","生人","prac",""
"","","","","","html-keyboard-response","330","1000061","0.0-8.3-0.3-1.124","null","<span style='color:GreenYellow; font-size: 70px;'>正确! </span>","null","","","","","","","","","","","","","","","","","","","","","","","feedback_test"
"","","","","","psychophysics","331","1001742","0.0-8.3-0.3-0.125","667","","f","","","","","","","","","","","","","key","f","16.659429999999702","640","356","j","false","img/C_ambi40.png","生人","prac",""
"","","","","","html-keyboard-response","332","1002247","0.0-8.3-0.3-1.125","null","<span style='color:red; font-size: 70px;'>错误! </span>","null","","","","","","","","","","","","","","","","","","","","","","","feedback_test"
"","","","","","psychophysics","333","1004180","0.0-8.3-0.3-0.126","922","","j","","","","","","","","","","","","","key","j","16.65813913043467","640","356","j","true","img/C_ambi40.png","生人","prac",""
"","","","","","html-keyboard-response","334","1004689","0.0-8.3-0.3-1.126","null","<span style='color:GreenYellow; font-size: 70px;'>正确! </span>","null","","","","","","","","","","","","","","","","","","","","","","","feedback_test"
"","","","","","psychophysics","335","1006530","0.0-8.3-0.3-0.127","840","","f","","","","","","","","","","","","","key","f","16.65698165137432","640","356","j","false","img/S_ambi40.png","朋友","prac",""
"","","","","","html-keyboard-response","336","1007035","0.0-8.3-0.3-1.127","null","<span style='color:red; font-size: 70px;'>错误! </span>","null","","","","","","","","","","","","","","","","","","","","","","","feedback_test"
"","","","","","html-keyboard-response","337","1020757","0.0-9.0","13719","<style>.context{color:white; font-size: 35px; line-height:40px}</style>                          <div><p class='context'>您正确回答了75% 的试次。</p ><p class='context'>您的平均反应时为813毫秒。</p ><p class='context'>恭喜您完成练习。按任意键进入正式实验。</p ><p class='footer' style='font-size: 35px; line-height:40px;'>请在进入正式实验实验之前将您的<span style='color: lightgreen;'>食指</span>放在电脑键盘的相应键位上进行按键。</p >","enter","","","","","","","","","","","","","","","","","","","","","","",""
"","","","","","psychophysics","338","1023265","0.0-10.0-0.0-0.0-0.0-0.0","null","","null","","","","","","","","","","","","","key","null","16.659530201342406","640","356","j","false","img/S_ambi40.png","朋友","same",""
"","","","","","html-keyboard-response","339","1023775","0.0-10.0-0.0-0.0-0.0-1.0","null","<span class='add_' style='color:yellow; font-size: 70px;'> 太慢! </span>","null","","","","","","","","","","","","","","","","","","","","","","","feedback_test"
"","","","","","psychophysics","340","1025598","0.0-10.0-0.0-0.0-0.0-0.1","822","","f","","","","","","","","","","","","","key","f","16.657440366971077","640","356","f","true","img/H_ambi40.png","生人","same",""
"","","","","","html-keyboard-response","341","1026116","0.0-10.0-0.0-0.0-0.0-1.1","null","<span style='color:GreenYellow; font-size: 70px;'>正确! </span>","null","","","","","","","","","","","","","","","","","","","","","","","feedback_test"
"","","","","","psychophysics","342","1027884","0.0-10.0-0.0-0.0-0.0-0.2","755","","f","","","","","","","","","","","","","key","f","16.65958095238145","640","356","j","false","img/H_ambi40.png","自我","same",""
"","","","","","html-keyboard-response","343","1028393","0.0-10.0-0.0-0.0-0.0-1.2","null","<span style='color:red; font-size: 70px;'>错误! </span>","null","","","","","","","","","","","","","","","","","","","","","","","feedback_test"
"","","","","","psychophysics","344","1030046","0.0-10.0-0.0-0.0-0.0-0.3","651","","j","","","","","","","","","","","","","key","j","16.659535353535297","640","356","j","true","img/H_ambi40.png","自我","same",""
"","","","","","html-keyboard-response","345","1030547","0.0-10.0-0.0-0.0-0.0-1.3","null","<span style='color:GreenYellow; font-size: 70px;'>正确! </span>","null","","","","","","","","","","","","","","","","","","","","","","","feedback_test"
"","","","","","psychophysics","346","1032287","0.0-10.0-0.0-0.0-0.0-0.4","728","","f","","","","","","","","","","","","","key","f","16.65799029126257","640","356","j","false","img/C_ambi40.png","生人","same",""
"","","","","","html-keyboard-response","347","1032796","0.0-10.0-0.0-0.0-0.0-1.4","null","<span style='color:red; font-size: 70px;'>错误! </span>","null","","","","","","","","","","","","","","","","","","","","","","","feedback_test"
"","","","","","psychophysics","348","1034602","0.0-10.0-0.0-0.0-0.0-0.5","791","","j","","","","","","","","","","","","","key","j","16.65800934579554","640","356","f","false","img/S_ambi40.png","自我","same",""
"","","","","","html-keyboard-response","349","1035105","0.0-10.0-0.0-0.0-0.0-1.5","null","<span style='color:red; font-size: 70px;'>错误! </span>","null","","","","","","","","","","","","","","","","","","","","","","","feedback_test"
"","","","","","psychophysics","350","1036940","0.0-10.0-0.0-0.0-0.0-0.6","831","","f","","","","","","","","","","","","","key","f","16.662743119264466","640","356","f","true","img/H_ambi40.png","生人","same",""
"","","","","","html-keyboard-response","351","1037446","0.0-10.0-0.0-0.0-0.0-1.6","null","<span style='color:GreenYellow; font-size: 70px;'>正确! </span>","null","","","","","","","","","","","","","","","","","","","","","","","feedback_test"
"","","","","","psychophysics","352","1039196","0.0-10.0-0.0-0.0-0.0-0.7","747","","f","","","","","","","","","","","","","key","f","16.65593269230717","640","356","f","true","img/H_ambi40.png","朋友","same",""
"","","","","","html-keyboard-response","353","1039699","0.0-10.0-0.0-0.0-0.0-1.7","null","<span style='color:GreenYellow; font-size: 70px;'>正确! </span>","null","","","","","","","","","","","","","","","","","","","","","","","feedback_test"
"","","","","","psychophysics","354","1041187","0.0-10.0-0.0-0.0-0.0-0.8","479","","j","","","","","","","","","","","","","key","j","16.662000000000592","640","356","j","true","img/T_ambi40.png","をる","same",""
"","","","","","html-keyboard-response","355","1041690","0.0-10.0-0.0-0.0-0.0-1.8","null","<span style='color:GreenYellow; font-size: 70px;'>正确! </span>","null","","","","","","","","","","","","","","","","","","","","","","","feedback_test"
"","","","","","psychophysics","356","1043457","0.0-10.0-0.0-0.0-0.0-0.9","753","","f","","","","","","","","","","","","","key","f","16.659295238095467","640","356","f","true","img/S_ambi40.png","自我","same",""
"","","","","","html-keyboard-response","357","1043968","0.0-10.0-0.0-0.0-0.0-1.9","null","<span style='color:GreenYellow; font-size: 70px;'>正确! </span>","null","","","","","","","","","","","","","","","","","","","","","","","feedback_test"
"","","","","","psychophysics","358","1045428","0.0-10.0-0.0-0.0-0.0-0.10","456","","f","","","","","","","","","","","","","key","f","16.663229885056143","640","356","f","true","img/S_ambi40.png","生人","same",""
"","","","","","html-keyboard-response","359","1045931","0.0-10.0-0.0-0.0-0.0-1.10","null","<span style='color:GreenYellow; font-size: 70px;'>正确! </span>","null","","","","","","","","","","","","","","","","","","","","","","","feedback_test"
"","","","","","psychophysics","360","1047644","0.0-10.0-0.0-0.0-0.0-0.11","706","","f","","","","","","","","","","","","","key","f","16.658127450979972","640","356","f","true","img/C_ambi40.png","朋友","same",""
"","","","","","html-keyboard-response","361","1048150","0.0-10.0-0.0-0.0-0.0-1.11","null","<span style='color:GreenYellow; font-size: 70px;'>正确! </span>","null","","","","","","","","","","","","","","","","","","","","","","","feedback_test"
"","","","","","psychophysics","362","1049609","0.0-10.0-0.0-0.0-0.0-0.12","457","","f","","","","","","","","","","","","","key","f","16.665459770115156","640","356","f","true","img/C_ambi40.png","朋友","same",""
"","","","","","html-keyboard-response","363","1050119","0.0-10.0-0.0-0.0-0.0-1.12","null","<span style='color:GreenYellow; font-size: 70px;'>正确! </span>","null","","","","","","","","","","","","","","","","","","","","","","","feedback_test"
"","","","","","psychophysics","364","1051625","0.0-10.0-0.0-0.0-0.0-0.13","505","","j","","","","","","","","","","","","","key","j","16.66434831460781","640","356","j","true","img/T_ambi40.png","をる","same",""
"","","","","","html-keyboard-response","365","1052134","0.0-10.0-0.0-0.0-0.0-1.13","null","<span style='color:GreenYellow; font-size: 70px;'>正确! </span>","null","","","","","","","","","","","","","","","","","","","","","","","feedback_test"
"","","","","","psychophysics","366","1053826","0.0-10.0-0.0-0.0-0.0-0.14","691","","f","","","","","","","","","","","","","key","f","16.66251000000164","640","356","j","false","img/C_ambi40.png","生人","same",""
"","","","","","html-keyboard-response","367","1054334","0.0-10.0-0.0-0.0-0.0-1.14","null","<span style='color:red; font-size: 70px;'>错误! </span>","null","","","","","","","","","","","","","","","","","","","","","","","feedback_test"
"","","","","","psychophysics","368","1055886","0.0-10.0-0.0-0.0-0.0-0.15","551","","j","","","","","","","","","","","","","key","j","16.665239130432777","640","356","j","true","img/T_ambi40.png","をる","same",""
"","","","","","html-keyboard-response","369","1056400","0.0-10.0-0.0-0.0-0.0-1.15","null","<span style='color:GreenYellow; font-size: 70px;'>正确! </span>","null","","","","","","","","","","","","","","","","","","","","","","","feedback_test"
"","","","","","psychophysics","370","1058256","0.0-10.0-0.0-0.0-0.0-0.16","855","","j","","","","","","","","","","","","","key","j","16.659527272726834","640","356","f","false","img/C_ambi40.png","自我","same",""
"","","","","","html-keyboard-response","371","1058759","0.0-10.0-0.0-0.0-0.0-1.16","null","<span style='color:red; font-size: 70px;'>错误! </span>","null","","","","","","","","","","","","","","","","","","","","","","","feedback_test"
"","","","","","psychophysics","372","1060493","0.0-10.0-0.0-0.0-0.0-0.17","727","","f","","","","","","","","","","","","","key","f","16.66009708737855","640","356","j","false","img/S_ambi40.png","朋友","same",""
"","","","","","html-keyboard-response","373","1061004","0.0-10.0-0.0-0.0-0.0-1.17","null","<span style='color:red; font-size: 70px;'>错误! </span>","null","","","","","","","","","","","","","","","","","","","","","","","feedback_test"
"","","","","","psychophysics","374","1062336","0.0-10.0-0.0-0.0-0.0-0.18","322","","j","","","","","","","","","","","","","key","j","16.663848101267522","640","356","f","false","img/C_ambi40.png","朋友","same",""
"","","","","","html-keyboard-response","375","1062852","0.0-10.0-0.0-0.0-0.0-1.18","null","<span style='color:red; font-size: 70px;'>错误! </span>","null","","","","","","","","","","","","","","","","","","","","","","","feedback_test"
"","","","","","psychophysics","376","1064382","0.0-10.0-0.0-0.0-0.0-0.19","526","","j","","","","","","","","","","","","","key","j","16.656208791207153","640","356","j","true","img/T_ambi40.png","をる","same",""
"","","","","","html-keyboard-response","377","1064885","0.0-10.0-0.0-0.0-0.0-1.19","null","<span style='color:GreenYellow; font-size: 70px;'>正确! </span>","null","","","","","","","","","","","","","","","","","","","","","","","feedback_test"
"","","","","","psychophysics","378","1066773","0.0-10.0-0.0-0.0-0.0-0.20","884","","f","","","","","","","","","","","","","key","f","16.65930357142809","640","356","j","false","img/S_ambi40.png","朋友","same",""
"","","","","","html-keyboard-response","379","1067278","0.0-10.0-0.0-0.0-0.0-1.20","null","<span style='color:red; font-size: 70px;'>错误! </span>","null","","","","","","","","","","","","","","","","","","","","","","","feedback_test"
"","","","","","psychophysics","380","1069466","0.0-10.0-0.0-0.0-0.0-0.21","1187","","f","","","","","","","","","","","","","key","f","16.659430769230955","640","356","f","true","img/C_ambi40.png","朋友","same",""
"","","","","","html-keyboard-response","381","1069971","0.0-10.0-0.0-0.0-0.0-1.21","null","<span style='color:GreenYellow; font-size: 70px;'>正确! </span>","null","","","","","","","","","","","","","","","","","","","","","","","feedback_test"
"","","","","","psychophysics","382","1071768","0.0-10.0-0.0-0.0-0.0-0.22","795","","j","","","","","","","","","","","","","key","j","16.662887850467325","640","356","j","true","img/H_ambi40.png","自我","same",""
"","","","","","html-keyboard-response","383","1072269","0.0-10.0-0.0-0.0-0.0-1.22","null","<span style='color:GreenYellow; font-size: 70px;'>正确! </span>","null","","","","","","","","","","","","","","","","","","","","","","","feedback_test"
"","","","","","psychophysics","384","1073790","0.0-10.0-0.0-0.0-0.0-0.23","515","","j","","","","","","","","","","","","","key","j","16.659511111110138","640","356","j","true","img/T_ambi40.png","をる","same",""
"","","","","","html-keyboard-response","385","1074300","0.0-10.0-0.0-0.0-0.0-1.23","null","<span style='color:GreenYellow; font-size: 70px;'>正确! </span>","null","","","","","","","","","","","","","","","","","","","","","","","feedback_test"
"","","","","","psychophysics","386","1075680","0.0-10.0-0.0-0.0-0.0-0.24","371","","j","","","","","","","","","","","","","key","j","16.658121951219695","640","356","f","false","img/S_ambi40.png","自我","same",""
"","","","","","html-keyboard-response","387","1076190","0.0-10.0-0.0-0.0-0.0-1.24","null","<span style='color:red; font-size: 70px;'>错误! </span>","null","","","","","","","","","","","","","","","","","","","","","","","feedback_test"
"","","","","","psychophysics","388","1077841","0.0-10.0-0.0-0.0-0.0-0.25","650","","f","","","","","","","","","","","","","key","f","16.655214285713203","640","356","f","true","img/H_ambi40.png","生人","same",""
"","","","","","html-keyboard-response","389","1078350","0.0-10.0-0.0-0.0-0.0-1.25","null","<span style='color:GreenYellow; font-size: 70px;'>正确! </span>","null","","","","","","","","","","","","","","","","","","","","","","","feedback_test"
"","","","","","psychophysics","390","1080307","0.0-10.0-0.0-0.0-0.0-0.26","955","","f","","","","","","","","","","","","","key","f","16.65891452991547","640","356","j","false","img/C_ambi40.png","生人","same",""
"","","","","","html-keyboard-response","391","1080822","0.0-10.0-0.0-0.0-0.0-1.26","null","<span style='color:red; font-size: 70px;'>错误! </span>","null","","","","","","","","","","","","","","","","","","","","","","","feedback_test"
"","","","","","psychophysics","392","1082186","0.0-10.0-0.0-0.0-0.0-0.27","363","","j","","","","","","","","","","","","","key","j","16.65873749999737","640","356","j","true","img/T_ambi40.png","をる","same",""
"","","","","","html-keyboard-response","393","1082697","0.0-10.0-0.0-0.0-0.0-1.27","null","<span style='color:GreenYellow; font-size: 70px;'>正确! </span>","null","","","","","","","","","","","","","","","","","","","","","","","feedback_test"
"","","","","","psychophysics","394","1084085","0.0-10.0-0.0-0.0-0.0-0.28","386","","j","","","","","","","","","","","","","key","j","16.658341463413883","640","356","f","false","img/S_ambi40.png","自我","same",""
"","","","","","html-keyboard-response","395","1084592","0.0-10.0-0.0-0.0-0.0-1.28","null","<span style='color:red; font-size: 70px;'>错误! </span>","null","","","","","","","","","","","","","","","","","","","","","","","feedback_test"
"","","","","","psychophysics","396","1086472","0.0-10.0-0.0-0.0-0.0-0.29","868","","f","","","","","","","","","","","","","key","f","16.6614999999999","640","356","f","true","img/C_ambi40.png","自我","same",""
"","","","","","html-keyboard-response","397","1086981","0.0-10.0-0.0-0.0-0.0-1.29","null","<span style='color:GreenYellow; font-size: 70px;'>正确! </span>","null","","","","","","","","","","","","","","","","","","","","","","","feedback_test"
"","","","","","psychophysics","398","1088773","0.0-10.0-0.0-0.0-0.0-0.30","787","","f","","","","","","","","","","","","","key","f","16.659252336448947","640","356","f","true","img/H_ambi40.png","朋友","same",""
"","","","","","html-keyboard-response","399","1089276","0.0-10.0-0.0-0.0-0.0-1.30","null","<span style='color:GreenYellow; font-size: 70px;'>正确! </span>","null","","","","","","","","","","","","","","","","","","","","","","","feedback_test"
"","","","","","psychophysics","400","1090930","0.0-10.0-0.0-0.0-0.0-0.31","646","","f","","","","","","","","","","","","","key","f","16.656418367346028","640","356","j","false","img/S_ambi40.png","朋友","same",""
"","","","","","html-keyboard-response","401","1091434","0.0-10.0-0.0-0.0-0.0-1.31","null","<span style='color:red; font-size: 70px;'>错误! </span>","null","","","","","","","","","","","","","","","","","","","","","","","feedback_test"
"","","","","","psychophysics","402","1093380","0.0-10.0-0.0-0.0-0.0-0.32","934","","f","","","","","","","","","","","","","key","f","16.65653043478201","640","356","f","true","img/S_ambi40.png","生人","same",""
"","","","","","html-keyboard-response","403","1093895","0.0-10.0-0.0-0.0-0.0-1.32","null","<span style='color:GreenYellow; font-size: 70px;'>正确! </span>","null","","","","","","","","","","","","","","","","","","","","","","","feedback_test"
"","","","","","psychophysics","404","1095387","0.0-10.0-0.0-0.0-0.0-0.33","488","","j","","","","","","","","","","","","","key","j","16.665224719099346","640","356","j","true","img/H_ambi40.png","自我","same",""
"","","","","","html-keyboard-response","405","1095890","0.0-10.0-0.0-0.0-0.0-1.33","null","<span style='color:GreenYellow; font-size: 70px;'>正确! </span>","null","","","","","","","","","","","","","","","","","","","","","","","feedback_test"
"","","","","","psychophysics","406","1097538","0.0-10.0-0.0-0.0-0.0-0.34","645","","f","","","","","","","","","","","","","key","f","16.66319387755119","640","356","f","true","img/H_ambi40.png","生人","same",""
"","","","","","html-keyboard-response","407","1098048","0.0-10.0-0.0-0.0-0.0-1.34","null","<span style='color:GreenYellow; font-size: 70px;'>正确! </span>","null","","","","","","","","","","","","","","","","","","","","","","","feedback_test"
"","","","","","psychophysics","408","1099472","0.0-10.0-0.0-0.0-0.0-0.35","423","","j","","","","","","","","","","","","","key","j","16.659166666665225","640","356","j","true","img/C_ambi40.png","生人","same",""
"","","","","","html-keyboard-response","409","1099986","0.0-10.0-0.0-0.0-0.0-1.35","null","<span style='color:GreenYellow; font-size: 70px;'>正确! </span>","null","","","","","","","","","","","","","","","","","","","","","","","feedback_test"
"","","","","","psychophysics","410","1101434","0.0-10.0-0.0-0.0-0.0-0.36","445","","j","","","","","","","","","","","","","key","j","16.659453488371962","640","356","j","true","img/C_ambi40.png","生人","same",""
"","","","","","html-keyboard-response","411","1101944","0.0-10.0-0.0-0.0-0.0-1.36","null","<span style='color:GreenYellow; font-size: 70px;'>正确! </span>","null","","","","","","","","","","","","","","","","","","","","","","","feedback_test"
"","","","","","psychophysics","412","1103488","0.0-10.0-0.0-0.0-0.0-0.37","542","","j","","","","","","","","","","","","","key","j","16.507417582418093","640","356","j","true","img/H_ambi40.png","自我","same",""
"","","","","","html-keyboard-response","413","1104000","0.0-10.0-0.0-0.0-0.0-1.37","null","<span style='color:GreenYellow; font-size: 70px;'>正确! </span>","null","","","","","","","","","","","","","","","","","","","","","","","feedback_test"
"","","","","","psychophysics","414","1105819","0.0-10.0-0.0-0.0-0.0-0.38","808","","f","","","","","","","","","","","","","key","f","16.658157407407458","640","356","f","true","img/H_ambi40.png","生人","same",""
"","","","","","html-keyboard-response","415","1106325","0.0-10.0-0.0-0.0-0.0-1.38","null","<span style='color:GreenYellow; font-size: 70px;'>正确! </span>","null","","","","","","","","","","","","","","","","","","","","","","","feedback_test"
"","","","","","psychophysics","416","1107740","0.0-10.0-0.0-0.0-0.0-0.39","412","","j","","","","","","","","","","","","","key","j","16.496421686746743","640","356","f","false","img/C_ambi40.png","朋友","same",""
"","","","","","html-keyboard-response","417","1108243","0.0-10.0-0.0-0.0-0.0-1.39","null","<span style='color:red; font-size: 70px;'>错误! </span>","null","","","","","","","","","","","","","","","","","","","","","","","feedback_test"
"","","","","","psychophysics","418","1109652","0.0-10.0-0.0-0.0-0.0-0.40","398","","j","","","","","","","","","","","","","key","j","16.662578313252382","640","356","f","false","img/H_ambi40.png","生人","same",""
"","","","","","html-keyboard-response","419","1110160","0.0-10.0-0.0-0.0-0.0-1.40","null","<span style='color:red; font-size: 70px;'>错误! </span>","null","","","","","","","","","","","","","","","","","","","","","","","feedback_test"
"","","","","","psychophysics","420","1111727","0.0-10.0-0.0-0.0-0.0-0.41","557","","j","","","","","","","","","","","","","key","j","16.659118279569373","640","356","j","true","img/T_ambi40.png","をる","same",""
"","","","","","html-keyboard-response","421","1112237","0.0-10.0-0.0-0.0-0.0-1.41","null","<span style='color:GreenYellow; font-size: 70px;'>正确! </span>","null","","","","","","","","","","","","","","","","","","","","","","","feedback_test"
"","","","","","psychophysics","422","1113944","0.0-10.0-0.0-0.0-0.0-0.42","703","","f","","","","","","","","","","","","","key","f","16.665598039216288","640","356","j","false","img/S_ambi40.png","朋友","same",""
"","","","","","html-keyboard-response","423","1114446","0.0-10.0-0.0-0.0-0.0-1.42","null","<span style='color:red; font-size: 70px;'>错误! </span>","null","","","","","","","","","","","","","","","","","","","","","","","feedback_test"
"","","","","","psychophysics","424","1116406","0.0-10.0-0.0-0.0-0.0-0.43","950","","j","","","","","","","","","","","","","key","j","16.659393162392956","640","356","f","false","img/H_ambi40.png","朋友","same",""
"","","","","","html-keyboard-response","425","1116907","0.0-10.0-0.0-0.0-0.0-1.43","null","<span style='color:red; font-size: 70px;'>错误! </span>","null","","","","","","","","","","","","","","","","","","","","","","","feedback_test"
"","","","","","psychophysics","426","1118724","0.0-10.0-0.0-0.0-0.0-0.44","802","","f","","","","","","","","","","","","","key","f","16.65705555555609","640","356","f","true","img/S_ambi40.png","自我","same",""
"","","","","","html-keyboard-response","427","1119240","0.0-10.0-0.0-0.0-0.0-1.44","null","<span style='color:GreenYellow; font-size: 70px;'>正确! </span>","null","","","","","","","","","","","","","","","","","","","","","","","feedback_test"
"","","","","","psychophysics","428","1121496","0.0-10.0-0.0-0.0-0.0-0.45","1242","","f","","","","","","","","","","","","","key","f","16.662082089552545","640","356","f","true","img/C_ambi40.png","朋友","same",""
"","","","","","html-keyboard-response","429","1122009","0.0-10.0-0.0-0.0-0.0-1.45","null","<span style='color:GreenYellow; font-size: 70px;'>正确! </span>","null","","","","","","","","","","","","","","","","","","","","","","","feedback_test"
"","","","","","psychophysics","430","1123914","0.0-10.0-0.0-0.0-0.0-0.46","899","","j","","","","","","","","","","","","","key","j","16.65741592920303","640","356","j","true","img/S_ambi40.png","朋友","same",""
"","","","","","html-keyboard-response","431","1124423","0.0-10.0-0.0-0.0-0.0-1.46","null","<span style='color:GreenYellow; font-size: 70px;'>正确! </span>","null","","","","","","","","","","","","","","","","","","","","","","","feedback_test"
"","","","","","psychophysics","432","1126209","0.0-10.0-0.0-0.0-0.0-0.47","783","","f","","","","","","","","","","","","","key","f","16.662933962263676","640","356","f","true","img/S_ambi40.png","生人","same",""
"","","","","","html-keyboard-response","433","1126722","0.0-10.0-0.0-0.0-0.0-1.47","null","<span style='color:GreenYellow; font-size: 70px;'>正确! </span>","null","","","","","","","","","","","","","","","","","","","","","","","feedback_test"
"","","","","","psychophysics","434","1128288","0.0-10.0-0.0-0.0-0.0-0.48","553","","j","","","","","","","","","","","","","key","j","16.66301075268727","640","356","j","true","img/T_ambi40.png","をる","same",""
"","","","","","html-keyboard-response","435","1128798","0.0-10.0-0.0-0.0-0.0-1.48","null","<span style='color:GreenYellow; font-size: 70px;'>正确! </span>","null","","","","","","","","","","","","","","","","","","","","","","","feedback_test"
"","","","","","psychophysics","436","1130498","0.0-10.0-0.0-0.0-0.0-0.49","698","","f","","","","","","","","","","","","","key","f","16.52741999999853","640","356","f","true","img/S_ambi40.png","自我","same",""
"","","","","","html-keyboard-response","437","1131000","0.0-10.0-0.0-0.0-0.0-1.49","null","<span style='color:GreenYellow; font-size: 70px;'>正确! </span>","null","","","","","","","","","","","","","","","","","","","","","","","feedback_test"
"","","","","","psychophysics","438","1132714","0.0-10.0-0.0-0.0-0.0-0.50","712","","j","","","","","","","","","","","","","key","j","16.658782178217933","640","356","j","true","img/H_ambi40.png","自我","same",""
"","","","","","html-keyboard-response","439","1133222","0.0-10.0-0.0-0.0-0.0-1.50","null","<span style='color:GreenYellow; font-size: 70px;'>正确! </span>","null","","","","","","","","","","","","","","","","","","","","","","","feedback_test"
"","","","","","psychophysics","440","1134934","0.0-10.0-0.0-0.0-0.0-0.51","707","","f","","","","","","","","","","","","","key","f","16.656588235294777","640","356","f","true","img/C_ambi40.png","自我","same",""
"","","","","","html-keyboard-response","441","1135450","0.0-10.0-0.0-0.0-0.0-1.51","null","<span style='color:GreenYellow; font-size: 70px;'>正确! </span>","null","","","","","","","","","","","","","","","","","","","","","","","feedback_test"
"","","","","","psychophysics","442","1137249","0.0-10.0-0.0-0.0-0.0-0.52","790","","f","","","","","","","","","","","","","key","f","16.659822429906768","640","356","j","false","img/C_ambi40.png","生人","same",""
"","","","","","html-keyboard-response","443","1137756","0.0-10.0-0.0-0.0-0.0-1.52","null","<span style='color:red; font-size: 70px;'>错误! </span>","null","","","","","","","","","","","","","","","","","","","","","","","feedback_test"
"","","","","","psychophysics","444","1139392","0.0-10.0-0.0-0.0-0.0-0.53","632","","f","","","","","","","","","","","","","key","f","16.662876288660986","640","356","j","false","img/T_ambi40.png","をる","same",""
"","","","","","html-keyboard-response","445","1139906","0.0-10.0-0.0-0.0-0.0-1.53","null","<span style='color:red; font-size: 70px;'>错误! </span>","null","","","","","","","","","","","","","","","","","","","","","","","feedback_test"
"","","","","","psychophysics","446","1141910","0.0-10.0-0.0-0.0-0.0-0.54","999","","f","","","","","","","","","","","","","key","f","16.65861344537815","640","356","j","false","img/C_ambi40.png","生人","same",""
"","","","","","html-keyboard-response","447","1142418","0.0-10.0-0.0-0.0-0.0-1.54","null","<span style='color:red; font-size: 70px;'>错误! </span>","null","","","","","","","","","","","","","","","","","","","","","","","feedback_test"
"","","","","","psychophysics","448","1143937","0.0-10.0-0.0-0.0-0.0-0.55","515","","j","","","","","","","","","","","","","key","j","16.65880000000147","640","356","j","true","img/T_ambi40.png","をる","same",""
"","","","","","html-keyboard-response","449","1144450","0.0-10.0-0.0-0.0-0.0-1.55","null","<span style='color:GreenYellow; font-size: 70px;'>正确! </span>","null","","","","","","","","","","","","","","","","","","","","","","","feedback_test"
