"success","timeout","failed_images","failed_audio","failed_video","trial_type","trial_index","time_elapsed","internal_node_id","rt","stimulus","response","value","item_width_mm","item_height_mm","item_width_px","px2mm","view_dist_mm","item_width_deg","px2deg","scale_factor","win_width_deg","win_height_deg","view_history","response_type","key_press","avg_frame_time","center_x","center_y","correct_response","correct","Image","text","condition","screen_id","label"
"true","false","[]","[]","[]","preload","0","396","0.0-0.0","","","","","","","","","","","","","","","","","","","","","","","","","","",""
"","","","","","html-keyboard-response","1","3942","0.0-1.0","3545","
     <p>您好，欢迎参加本次实验。</p>
     <p>为充分保障您的权利，请确保您已经知晓并同意《参与实验同意书》以及《数据公开知情同意书》。</p>
     <p>如果您未见过上述内容，请咨询实验员。</p>
     <p>如果您选择继续实验，则表示您已经清楚两份知情同意书的内容并同意。</p>
     <p> <div style = ""color: green""><按任意键至下页></div> </p>
     ","f11","","","","","","","","","","","","","","","","","","","","","","","",""
"","","","","","html-keyboard-response","2","5104","0.0-2.0","1162","
     <p>本实验首先需要您填写一些基本个人信息。</p>
     <p> <div style = ""color: green""><按任意键至下页></div></p>
     "," ","","","","","","","","","","","","","","","","","","","","","","","",""
"","","","","","call-function","3","5106","0.0-3.0-0.0","","","","","","","","","","","","","","","","","","","","","","","","","","",""
"","","","","","survey-html-form","4","6940","0.0-3.0-1.0","1833","","{""Q0"":""5""}","","","","","","","","","","","","","","","","","","","","","","","",""
"","","","","","html-button-response","5","7989","0.0-3.0-2.0","1048","<p style = 'color : white'>您的性别</p>","0","","","","","","","","","","","","","","","","","","","","","","","",""
"","","","","","survey-html-form","6","12040","0.0-3.0-3.0","4049","","{""Q0"":""2002""}","","","","","","","","","","","","","","","","","","","","","","","",""
"","","","","","survey-html-form","7","14808","0.0-3.0-4.0","2768","","{""Q0"":""5""}","","","","","","","","","","","","","","","","","","","","","","","",""
"","","","","","virtual-chinrest","8","45540","0.0-4.0","30730","","","","85.6","53.98","330.95514677732945","3.8644463246454634","740.14","6.6191029355465885","50","1.0092001990369988","30.72","17.28","","","","","","","","","","","","",""
"true","","","","","fullscreen","9","47390","0.0-5.0","","","","","","","","","","","","","","","","","","","","","","","","","","",""
"","","","","","instructions","10","60408","0.0-6.0","13013","","","","","","","","","","","","","","[{""page_index"":0,""viewing_time"":1943},{""page_index"":1,""viewing_time"":5688},{""page_index"":2,""viewing_time"":2988},{""page_index"":3,""viewing_time"":814},{""page_index"":4,""viewing_time"":1581}]","","","","","","","","","","","",""
"","","","","","instructions","11","61645","0.0-7.0","1236","","","","","","","","","","","","","","[{""page_index"":0,""viewing_time"":1236}]","","","","","","","","","","","",""
"","","","","","psychophysics","12","65601","0.0-8.0-0.0-0.0","2953","","d","","","","","","","","","","","","","key","d","8.321266949152525","768","428","j","false","img/H_28.png","自我","freeprac_self","",""
"","","","","","html-keyboard-response","13","65905","0.0-8.0-0.0-1.0","null","<span style='color:red; font-size: 70px;'>错误! </span>","null","","","","","","","","","","","","","","","","","","","","","","","feedback_test",""
"","","","","","psychophysics","14","69340","0.0-8.0-0.0-0.1","2429","","d","","","","","","","","","","","","","key","d","8.351029268292697","768","428","d","true","img/C_28.png","自我","freeprac_self","",""
"","","","","","html-keyboard-response","15","69651","0.0-8.0-0.0-1.1","null","<span style='color:GreenYellow; font-size: 70px;'>正确! </span>","null","","","","","","","","","","","","","","","","","","","","","","","feedback_test",""
"","","","","","psychophysics","16","72354","0.0-8.0-0.0-0.2","1702","","f","","","","","","","","","","","","","key","f","8.308321981424115","768","428","f","true","img/S_28.png","朋友","freeprac_self","",""
"","","","","","html-keyboard-response","17","72663","0.0-8.0-0.0-1.2","null","<span style='color:GreenYellow; font-size: 70px;'>正确! </span>","null","","","","","","","","","","","","","","","","","","","","","","","feedback_test",""
"","","","","","psychophysics","18","76498","0.0-8.0-0.0-0.3","2832","","d","","","","","","","","","","","","","key","d","8.349026200873377","768","428","k","false","img/H_28.png","生人","freeprac_self","",""
"","","","","","html-keyboard-response","19","76815","0.0-8.0-0.0-1.3","null","<span style='color:red; font-size: 70px;'>错误! </span>","null","","","","","","","","","","","","","","","","","","","","","","","feedback_test",""
"","","","","","psychophysics","20","81037","0.0-8.0-0.0-0.4","3221","","k","","","","","","","","","","","","","key","k","8.316580198019816","768","428","k","true","img/H_28.png","朋友","freeprac_self","",""
"","","","","","html-keyboard-response","21","81348","0.0-8.0-0.0-1.4","null","<span style='color:GreenYellow; font-size: 70px;'>正确! </span>","null","","","","","","","","","","","","","","","","","","","","","","","feedback_test",""
"","","","","","psychophysics","22","83850","0.0-8.0-0.0-0.5","1499","","j","","","","","","","","","","","","","key","j","8.33095317725753","768","428","f","false","img/S_28.png","朋友","freeprac_self","",""
"","","","","","html-keyboard-response","23","84163","0.0-8.0-0.0-1.5","null","<span style='color:red; font-size: 70px;'>错误! </span>","null","","","","","","","","","","","","","","","","","","","","","","","feedback_test",""
"","","","","","psychophysics","24","86959","0.0-8.0-0.0-0.6","1795","","f","","","","","","","","","","","","","key","f","8.359018072289166","768","428","f","true","img/C_28.png","生人","freeprac_self","",""
"","","","","","html-keyboard-response","25","87262","0.0-8.0-0.0-1.6","null","<span style='color:GreenYellow; font-size: 70px;'>正确! </span>","null","","","","","","","","","","","","","","","","","","","","","","","feedback_test",""
"","","","","","psychophysics","26","93433","0.0-8.0-0.0-0.7","5163","","k","","","","","","","","","","","","","key","k","8.330849797022994","768","428","d","false","img/S_28.png","自我","freeprac_self","",""
"","","","","","html-keyboard-response","27","93750","0.0-8.0-0.0-1.7","null","<span style='color:red; font-size: 70px;'>错误! </span>","null","","","","","","","","","","","","","","","","","","","","","","","feedback_test",""
"","","","","","psychophysics","28","100204","0.0-8.0-0.0-0.8","5452","","f","","","","","","","","","","","","","key","f","8.330770025839797","768","428","d","false","img/C_28.png","朋友","freeprac_self","",""
"","","","","","html-keyboard-response","29","100510","0.0-8.0-0.0-1.8","null","<span style='color:red; font-size: 70px;'>错误! </span>","null","","","","","","","","","","","","","","","","","","","","","","","feedback_test",""
"","","","","","psychophysics","30","106002","0.0-8.0-0.0-0.9","4489","","d","","","","","","","","","","","","","key","d","8.343691019786899","768","428","f","false","img/C_28.png","生人","freeprac_self","",""
"","","","","","html-keyboard-response","31","106308","0.0-8.0-0.0-1.9","null","<span style='color:red; font-size: 70px;'>错误! </span>","null","","","","","","","","","","","","","","","","","","","","","","","feedback_test",""
"","","","","","psychophysics","32","111270","0.0-8.0-0.0-0.10","3956","","k","","","","","","","","","","","","","key","k","8.330968013468015","768","428","d","false","img/S_28.png","生人","freeprac_self","",""
"","","","","","html-keyboard-response","33","111578","0.0-8.0-0.0-1.10","null","<span style='color:red; font-size: 70px;'>错误! </span>","null","","","","","","","","","","","","","","","","","","","","","","","feedback_test",""
"","","","","","psychophysics","34","113519","0.0-8.0-0.0-0.11","940","","f","","","","","","","","","","","","","key","f","8.330715517241421","768","428","j","false","img/H_28.png","自我","freeprac_self","",""
"","","","","","html-keyboard-response","35","113836","0.0-8.0-0.0-1.11","null","<span style='color:red; font-size: 70px;'>错误! </span>","null","","","","","","","","","","","","","","","","","","","","","","","feedback_test",""
"","","","","","html-keyboard-response","36","114578","0.0-8.0-1.0-0.0","740","<style>.context{color:white; font-size: 35px; line-height:40px}</style>                              <div><p class='context'>您正确回答了33% 的试次。</p><p class='context'>您的平均反应时为2287毫秒。</p>","f","","","","","","","","","","","","","","","","","","","","","","","",""
"","","","","","instructions","37","134202","0.0-8.0-1.0-1.0","19622","","","","","","","","","","","","","","[{""page_index"":0,""viewing_time"":1393},{""page_index"":1,""viewing_time"":16189},{""page_index"":2,""viewing_time"":2039}]","","","","","","","","","","","",""
"","","","","","psychophysics","38","136387","0.0-8.1-0.1-0.12","1181","","j","","","","","","","","","","","","","key","j","8.31490000000004","768","428","j","true","img/H_28.png","自我","freeprac_self","",""
"","","","","","html-keyboard-response","39","136697","0.0-8.1-0.1-1.12","null","<span style='color:GreenYellow; font-size: 70px;'>正确! </span>","null","","","","","","","","","","","","","","","","","","","","","","","feedback_test",""
"","","","","","psychophysics","40","139680","0.0-8.1-0.1-0.13","1978","","d","","","","","","","","","","","","","key","d","8.33082913165266","768","428","d","true","img/C_28.png","自我","freeprac_self","",""
"","","","","","html-keyboard-response","41","139989","0.0-8.1-0.1-1.13","null","<span style='color:GreenYellow; font-size: 70px;'>正确! </span>","null","","","","","","","","","","","","","","","","","","","","","","","feedback_test",""
"","","","","","psychophysics","42","141975","0.0-8.1-0.1-0.14","983","","f","","","","","","","","","","","","","key","f","8.330603375527438","768","428","f","true","img/S_28.png","朋友","freeprac_self","",""
"","","","","","html-keyboard-response","43","142287","0.0-8.1-0.1-1.14","null","<span style='color:GreenYellow; font-size: 70px;'>正确! </span>","null","","","","","","","","","","","","","","","","","","","","","","","feedback_test",""
"","","","","","psychophysics","44","144670","0.0-8.1-0.1-0.15","1379","","j","","","","","","","","","","","","","key","j","8.330870175438632","768","428","j","true","img/H_28.png","自我","freeprac_self","",""
"","","","","","html-keyboard-response","45","144986","0.0-8.1-0.1-1.15","null","<span style='color:GreenYellow; font-size: 70px;'>正确! </span>","null","","","","","","","","","","","","","","","","","","","","","","","feedback_test",""
"","","","","","psychophysics","46","148539","0.0-8.1-0.1-0.16","2548","","f","","","","","","","","","","","","","key","f","8.330990588235231","768","428","f","true","img/C_28.png","生人","freeprac_self","",""
"","","","","","html-keyboard-response","47","148853","0.0-8.1-0.1-1.16","null","<span style='color:GreenYellow; font-size: 70px;'>正确! </span>","null","","","","","","","","","","","","","","","","","","","","","","","feedback_test",""
"","","","","","psychophysics","48","150828","0.0-8.1-0.1-0.17","971","","d","","","","","","","","","","","","","key","d","8.330813559321973","768","428","d","true","img/S_28.png","生人","freeprac_self","",""
"","","","","","html-keyboard-response","49","151140","0.0-8.1-0.1-1.17","null","<span style='color:GreenYellow; font-size: 70px;'>正确! </span>","null","","","","","","","","","","","","","","","","","","","","","","","feedback_test",""
"","","","","","psychophysics","50","153697","0.0-8.1-0.1-0.18","1550","","k","","","","","","","","","","","","","key","k","8.330934640522887","768","428","k","true","img/H_28.png","生人","freeprac_self","",""
"","","","","","html-keyboard-response","51","154012","0.0-8.1-0.1-1.18","null","<span style='color:GreenYellow; font-size: 70px;'>正确! </span>","null","","","","","","","","","","","","","","","","","","","","","","","feedback_test",""
"","","","","","psychophysics","52","157764","0.0-8.1-0.1-0.19","2751","","d","","","","","","","","","","","","","key","d","8.330751111111152","768","428","d","true","img/S_28.png","自我","freeprac_self","",""
"","","","","","html-keyboard-response","53","158072","0.0-8.1-0.1-1.19","null","<span style='color:GreenYellow; font-size: 70px;'>正确! </span>","null","","","","","","","","","","","","","","","","","","","","","","","feedback_test",""
"","","","","","psychophysics","54","159974","0.0-8.1-0.1-0.20","897","","f","","","","","","","","","","","","","key","f","8.331101321585919","768","428","f","true","img/C_28.png","生人","freeprac_self","",""
"","","","","","html-keyboard-response","55","160287","0.0-8.1-0.1-1.20","null","<span style='color:GreenYellow; font-size: 70px;'>正确! </span>","null","","","","","","","","","","","","","","","","","","","","","","","feedback_test",""
"","","","","","psychophysics","56","162967","0.0-8.1-0.1-0.21","1677","","j","","","","","","","","","","","","","key","j","8.330853124999976","768","428","f","false","img/S_28.png","朋友","freeprac_self","",""
"","","","","","html-keyboard-response","57","163274","0.0-8.1-0.1-1.21","null","<span style='color:red; font-size: 70px;'>错误! </span>","null","","","","","","","","","","","","","","","","","","","","","","","feedback_test",""
"","","","","","psychophysics","58","166331","0.0-8.1-0.1-0.22","2054","","k","","","","","","","","","","","","","key","k","8.33086885245901","768","428","k","true","img/H_28.png","朋友","freeprac_self","",""
"","","","","","html-keyboard-response","59","166637","0.0-8.1-0.1-1.22","null","<span style='color:GreenYellow; font-size: 70px;'>正确! </span>","null","","","","","","","","","","","","","","","","","","","","","","","feedback_test",""
"","","","","","psychophysics","60","170041","0.0-8.1-0.1-0.23","2398","","d","","","","","","","","","","","","","key","d","8.330700245700248","768","428","d","true","img/C_28.png","朋友","freeprac_self","",""
"","","","","","html-keyboard-response","61","170346","0.0-8.1-0.1-1.23","null","<span style='color:GreenYellow; font-size: 70px;'>正确! </span>","null","","","","","","","","","","","","","","","","","","","","","","","feedback_test",""
"","","","","","html-keyboard-response","62","171286","0.0-9.0","939","[""<style>.context{color:white; font-size: 35px; line-height:40px}</style>              <div><p class='context'>您正确回答了92% 的试次。</p><p class='context'>您的平均反应时为1699毫秒。</p><p class='context'>恭喜您完成这一阶段的练习。按任意键进入<span style='color: yellow;'>重点关注图形为“朋友”</span>的练习。</p></div><p class='footer' style='font-size:35px; line-height:30px;'>任务要求：\n              <p class='footer' style='font-size:35px; line-height:35px;'>对于与“朋友”对应的图形：如果 匹配 ，请按 <span style=\""color: lightgreen;\"">j键</span></p><p class='footer' style='font-size:35px'>如果 不匹配 ，请按<span style=\""color: lightgreen;\"">k键</p></span>\n              <p class='footer' style='font-size:35px; line-height:35px;'>对于非“朋友”对应的图形：如果 匹配 ，请按 <span style=\""color: lightgreen;\"">f键</span></p><p class='footer' style='font-size:35px'>如果 不匹配 ，请按<span style=\""color: lightgreen;\"">d键</p></span>\n              <p class='footer' style='font-size:22px; line-height:25px;'>请在实验过程中将您的<span style=\""color: lightgreen;\"">食指和中指</span>放在电脑键盘的相应键位上进行按键。</p></span>""]","f","","","","","","","","","","","","","","","","","","","","","","","",""
"","","","","","psychophysics","63","176016","0.0-10.0-0.0-0.0","3721","","f","","","","","","","","","","","","","key","f","8.345465486725654","768","428","f","true","img/C_28.png","生人","freeprac_friend","",""
"","","","","","html-keyboard-response","64","176321","0.0-10.0-0.0-1.0","null","<span style='color:GreenYellow; font-size: 70px;'>正确! </span>","null","","","","","","","","","","","","","","","","","","","","","","","feedback_test",""
"","","","","","psychophysics","65","178874","0.0-10.0-0.0-0.1","1547","","d","","","","","","","","","","","","","key","d","8.331252459016415","768","428","k","false","img/S_28.png","生人","freeprac_friend","",""
"","","","","","html-keyboard-response","66","179189","0.0-10.0-0.0-1.1","null","<span style='color:red; font-size: 70px;'>错误! </span>","null","","","","","","","","","","","","","","","","","","","","","","","feedback_test",""
"","","","","","psychophysics","67","182397","0.0-10.0-0.0-0.2","2204","","k","","","","","","","","","","","","","key","k","8.330755208333358","768","428","k","true","img/S_28.png","自我","freeprac_friend","",""
"","","","","","html-keyboard-response","68","182701","0.0-10.0-0.0-1.2","null","<span style='color:GreenYellow; font-size: 70px;'>正确! </span>","null","","","","","","","","","","","","","","","","","","","","","","","feedback_test",""
"","","","","","psychophysics","69","185631","0.0-10.0-0.0-0.3","1926","","j","","","","","","","","","","","","","key","j","8.330874285714236","768","428","j","true","img/S_28.png","朋友","freeprac_friend","",""
"","","","","","html-keyboard-response","70","185943","0.0-10.0-0.0-1.3","null","<span style='color:GreenYellow; font-size: 70px;'>正确! </span>","null","","","","","","","","","","","","","","","","","","","","","","","feedback_test",""
"","","","","","psychophysics","71","188617","0.0-10.0-0.0-0.4","1671","","d","","","","","","","","","","","","","key","d","8.330859375","768","428","f","false","img/C_28.png","生人","freeprac_friend","",""
"","","","","","html-keyboard-response","72","188920","0.0-10.0-0.0-1.4","null","<span style='color:red; font-size: 70px;'>错误! </span>","null","","","","","","","","","","","","","","","","","","","","","","","feedback_test",""
"","","","","","psychophysics","73","190867","0.0-10.0-0.0-0.5","944","","j","","","","","","","","","","","","","key","j","8.330961373390563","768","428","j","true","img/S_28.png","朋友","freeprac_friend","",""
"","","","","","html-keyboard-response","74","191179","0.0-10.0-0.0-1.5","null","<span style='color:GreenYellow; font-size: 70px;'>正确! </span>","null","","","","","","","","","","","","","","","","","","","","","","","feedback_test",""
"","","","","","psychophysics","75","193866","0.0-10.0-0.0-0.6","1685","","f","","","","","","","","","","","","","key","f","8.330695652173903","768","428","d","false","img/H_28.png","朋友","freeprac_friend","",""
"","","","","","html-keyboard-response","76","194171","0.0-10.0-0.0-1.6","null","<span style='color:red; font-size: 70px;'>错误! </span>","null","","","","","","","","","","","","","","","","","","","","","","","feedback_test",""
"","","","","","psychophysics","77","197146","0.0-10.0-0.0-0.7","1974","","d","","","","","","","","","","","","","key","d","8.312692957746462","768","428","d","true","img/H_28.png","生人","freeprac_friend","",""
"","","","","","html-keyboard-response","78","197451","0.0-10.0-0.0-1.7","null","<span style='color:GreenYellow; font-size: 70px;'>正确! </span>","null","","","","","","","","","","","","","","","","","","","","","","","feedback_test",""
"","","","","","psychophysics","79","200451","0.0-10.0-0.0-0.8","1997","","f","","","","","","","","","","","","","key","f","8.330721448467944","768","428","f","true","img/H_28.png","自我","freeprac_friend","",""
"","","","","","html-keyboard-response","80","200763","0.0-10.0-0.0-1.8","null","<span style='color:GreenYellow; font-size: 70px;'>正确! </span>","null","","","","","","","","","","","","","","","","","","","","","","","feedback_test",""
"","","","","","psychophysics","81","202980","0.0-10.0-0.0-0.9","1210","","d","","","","","","","","","","","","","key","d","8.330766037735815","768","428","d","true","img/C_28.png","自我","freeprac_friend","",""
"","","","","","html-keyboard-response","82","203287","0.0-10.0-0.0-1.9","null","<span style='color:GreenYellow; font-size: 70px;'>正确! </span>","null","","","","","","","","","","","","","","","","","","","","","","","feedback_test",""
"","","","","","psychophysics","83","205614","0.0-10.0-0.0-0.10","1320","","f","","","","","","","","","","","","","key","f","8.330176258992873","768","428","f","true","img/H_28.png","自我","freeprac_friend","",""
"","","","","","html-keyboard-response","84","205927","0.0-10.0-0.0-1.10","null","<span style='color:GreenYellow; font-size: 70px;'>正确! </span>","null","","","","","","","","","","","","","","","","","","","","","","","feedback_test",""
"","","","","","psychophysics","85","208169","0.0-10.0-0.0-0.11","1241","","k","","","","","","","","","","","","","key","k","8.330623134328427","768","428","d","false","img/C_28.png","朋友","freeprac_friend","",""
"","","","","","html-keyboard-response","86","208474","0.0-10.0-0.0-1.11","null","<span style='color:red; font-size: 70px;'>错误! </span>","null","","","","","","","","","","","","","","","","","","","","","","","feedback_test",""
"","","","","","html-keyboard-response","87","209506","0.0-10.0-1.0-0.0","1030","<style>.context{color:white; font-size: 35px; line-height:40px}</style>                              <div><p class='context'>您正确回答了67% 的试次。</p><p class='context'>您的平均反应时为1912毫秒。</p>","f","","","","","","","","","","","","","","","","","","","","","","","",""
"","","","","","instructions","88","216319","0.0-10.0-1.0-1.0","6810","","","","","","","","","","","","","","[{""page_index"":0,""viewing_time"":1877},{""page_index"":1,""viewing_time"":4104},{""page_index"":2,""viewing_time"":829}]","","","","","","","","","","","",""
"","","","","","psychophysics","89","218471","0.0-10.1-0.1-0.12","1148","","k","","","","","","","","","","","","","key","k","8.33077042801557","768","428","k","true","img/S_28.png","自我","freeprac_friend","",""
"","","","","","html-keyboard-response","90","218776","0.0-10.1-0.1-1.12","null","<span style='color:GreenYellow; font-size: 70px;'>正确! </span>","null","","","","","","","","","","","","","","","","","","","","","","","feedback_test",""
"","","","","","psychophysics","91","222240","0.0-10.1-0.1-0.13","2460","","d","","","","","","","","","","","","","key","d","8.330749397590358","768","428","d","true","img/H_28.png","朋友","freeprac_friend","",""
"","","","","","html-keyboard-response","92","222545","0.0-10.1-0.1-1.13","null","<span style='color:GreenYellow; font-size: 70px;'>正确! </span>","null","","","","","","","","","","","","","","","","","","","","","","","feedback_test",""
"","","","","","psychophysics","93","224980","0.0-10.1-0.1-0.14","1434","","f","","","","","","","","","","","","","key","f","8.330719178082116","768","428","f","true","img/C_28.png","生人","freeprac_friend","",""
"","","","","","html-keyboard-response","94","225297","0.0-10.1-0.1-1.14","null","<span style='color:GreenYellow; font-size: 70px;'>正确! </span>","null","","","","","","","","","","","","","","","","","","","","","","","feedback_test",""
"","","","","","psychophysics","95","227705","0.0-10.1-0.1-0.15","1401","","d","","","","","","","","","","","","","key","d","8.330784722222234","768","428","d","true","img/C_28.png","自我","freeprac_friend","",""
"","","","","","html-keyboard-response","96","228018","0.0-10.1-0.1-1.15","null","<span style='color:GreenYellow; font-size: 70px;'>正确! </span>","null","","","","","","","","","","","","","","","","","","","","","","","feedback_test",""
"","","","","","psychophysics","97","231369","0.0-10.1-0.1-0.16","2350","","f","","","","","","","","","","","","","key","f","8.33072817955113","768","428","f","true","img/H_28.png","自我","freeprac_friend","",""
"","","","","","html-keyboard-response","98","231670","0.0-10.1-0.1-1.16","null","<span style='color:GreenYellow; font-size: 70px;'>正确! </span>","null","","","","","","","","","","","","","","","","","","","","","","","feedback_test",""
"","","","","","psychophysics","99","233783","0.0-10.1-0.1-0.17","1106","","d","","","","","","","","","","","","","key","d","8.330626984126981","768","428","k","false","img/S_28.png","生人","freeprac_friend","",""
"","","","","","html-keyboard-response","100","234094","0.0-10.1-0.1-1.17","null","<span style='color:red; font-size: 70px;'>错误! </span>","null","","","","","","","","","","","","","","","","","","","","","","","feedback_test",""
"","","","","","psychophysics","101","237117","0.0-10.1-0.1-0.18","2020","","f","","","","","","","","","","","","","key","f","8.330709944751392","768","428","f","true","img/C_28.png","生人","freeprac_friend","",""
"","","","","","html-keyboard-response","102","237432","0.0-10.1-0.1-1.18","null","<span style='color:GreenYellow; font-size: 70px;'>正确! </span>","null","","","","","","","","","","","","","","","","","","","","","","","feedback_test",""
"","","","","","psychophysics","103","240300","0.0-10.1-0.1-0.19","1866","","f","","","","","","","","","","","","","key","f","8.331014577259477","768","428","f","true","img/H_28.png","自我","freeprac_friend","",""
"","","","","","html-keyboard-response","104","240607","0.0-10.1-0.1-1.19","null","<span style='color:GreenYellow; font-size: 70px;'>正确! </span>","null","","","","","","","","","","","","","","","","","","","","","","","feedback_test",""
"","","","","","psychophysics","105","244213","0.0-10.1-0.1-0.20","2602","","d","","","","","","","","","","","","","key","d","8.330803240740757","768","428","d","true","img/C_28.png","朋友","freeprac_friend","",""
"","","","","","html-keyboard-response","106","244525","0.0-10.1-0.1-1.20","null","<span style='color:GreenYellow; font-size: 70px;'>正确! </span>","null","","","","","","","","","","","","","","","","","","","","","","","feedback_test",""
"","","","","","psychophysics","107","246467","0.0-10.1-0.1-0.21","940","","j","","","","","","","","","","","","","key","j","8.330784482758613","768","428","j","true","img/S_28.png","朋友","freeprac_friend","",""
"","","","","","html-keyboard-response","108","246775","0.0-10.1-0.1-1.21","null","<span style='color:GreenYellow; font-size: 70px;'>正确! </span>","null","","","","","","","","","","","","","","","","","","","","","","","feedback_test",""
"","","","","","psychophysics","109","250334","0.0-10.1-0.1-0.22","2558","","f","","","","","","","","","","","","","key","f","8.330742388758814","768","428","d","false","img/H_28.png","生人","freeprac_friend","",""
"","","","","","html-keyboard-response","110","250643","0.0-10.1-0.1-1.22","null","<span style='color:red; font-size: 70px;'>错误! </span>","null","","","","","","","","","","","","","","","","","","","","","","","feedback_test",""
"","","","","","psychophysics","111","252572","0.0-10.1-0.1-0.23","927","","j","","","","","","","","","","","","","key","j","8.330886956521704","768","428","j","true","img/S_28.png","朋友","freeprac_friend","",""
"","","","","","html-keyboard-response","112","252889","0.0-10.1-0.1-1.23","null","<span style='color:GreenYellow; font-size: 70px;'>正确! </span>","null","","","","","","","","","","","","","","","","","","","","","","","feedback_test",""
"","","","","","html-keyboard-response","113","253863","0.0-11.0","973","[""<style>.context{color:white; font-size: 35px; line-height:40px}</style>                  <div><p class='context'>您正确回答了83% 的试次。</p><p class='context'>您的平均反应时为1715毫秒。</p><p class='context'>恭喜您完成这一阶段的练习。按任意键进入<span style='color: yellow;'>重点关注图形为“生人”</span>的练习。</p></div><p class='footer' style='font-size:35px; line-height:30px;'>任务要求：\n                  <p class='footer' style='font-size:35px; line-height:35px;'>对与“生人”对应的图形，如果 匹配 ，请按 <span style=\""color: lightgreen;\"">j键</span></p><p class='footer' style='font-size:35px'>如果 不匹配 ，请按<span style=\""color: lightgreen;\"">k键</p></span>\n                  <p class='footer' style='font-size:35px; line-height:35px;'>对非“生人”对应的图形，如果 匹配 ，请按 <span style=\""color: lightgreen;\"">f键</span></p><p class='footer' style='font-size:35px'>如果 不匹配 ，请按<span style=\""color: lightgreen;\"">d键</p></span>\n                  <p class='footer' style='font-size:22px; line-height:25px;'>请在实验过程中将您的<span style=\""color: lightgreen;\"">食指和中指</span>放在电脑键盘的相应键位上进行按键。</p></span>""]","j","","","","","","","","","","","","","","","","","","","","","","","",""
"","","","","","psychophysics","114","258394","0.0-12.0-0.0-0.0","3528","","f","","","","","","","","","","","","","key","f","8.346083025830294","768","428","f","true","img/S_28.png","朋友","freeprac_stranger","",""
"","","","","","html-keyboard-response","115","258697","0.0-12.0-0.0-1.0","null","<span style='color:GreenYellow; font-size: 70px;'>正确! </span>","null","","","","","","","","","","","","","","","","","","","","","","","feedback_test",""
"","","","","","psychophysics","116","263480","0.0-12.0-0.0-0.1","3782","","j","","","","","","","","","","","","","key","j","8.334894921190852","768","428","f","false","img/H_28.png","自我","freeprac_stranger","",""
"","","","","","html-keyboard-response","117","263787","0.0-12.0-0.0-1.1","null","<span style='color:red; font-size: 70px;'>错误! </span>","null","","","","","","","","","","","","","","","","","","","","","","","feedback_test",""
"","","","","","psychophysics","118","266089","0.0-12.0-0.0-0.2","1301","","f","","","","","","","","","","","","","key","f","8.33572262773727","768","428","f","true","img/S_28.png","朋友","freeprac_stranger","",""
"","","","","","html-keyboard-response","119","266397","0.0-12.0-0.0-1.2","null","<span style='color:GreenYellow; font-size: 70px;'>正确! </span>","null","","","","","","","","","","","","","","","","","","","","","","","feedback_test",""
"","","","","","psychophysics","120","269347","0.0-12.0-0.0-0.3","1944","","f","","","","","","","","","","","","","key","f","8.330767705382433","768","428","f","true","img/H_28.png","自我","freeprac_stranger","",""
"","","","","","html-keyboard-response","121","269658","0.0-12.0-0.0-1.3","null","<span style='color:GreenYellow; font-size: 70px;'>正确! </span>","null","","","","","","","","","","","","","","","","","","","","","","","feedback_test",""
"","","","","","psychophysics","122","272675","0.0-12.0-0.0-0.4","2014","","k","","","","","","","","","","","","","key","k","8.330855955678706","768","428","d","false","img/S_28.png","自我","freeprac_stranger","",""
"","","","","","html-keyboard-response","123","272980","0.0-12.0-0.0-1.4","null","<span style='color:red; font-size: 70px;'>错误! </span>","null","","","","","","","","","","","","","","","","","","","","","","","feedback_test",""
"","","","","","psychophysics","124","276910","0.0-12.0-0.0-0.5","2925","","d","","","","","","","","","","","","","key","d","8.33100636942671","768","428","d","true","img/S_28.png","生人","freeprac_stranger","",""
"","","","","","html-keyboard-response","125","277220","0.0-12.0-0.0-1.5","null","<span style='color:GreenYellow; font-size: 70px;'>正确! </span>","null","","","","","","","","","","","","","","","","","","","","","","","feedback_test",""
"","","","","","psychophysics","126","279614","0.0-12.0-0.0-0.6","1389","","f","","","","","","","","","","","","","key","f","8.330685314685319","768","428","d","false","img/H_28.png","生人","freeprac_stranger","",""
"","","","","","html-keyboard-response","127","279918","0.0-12.0-0.0-1.6","null","<span style='color:red; font-size: 70px;'>错误! </span>","null","","","","","","","","","","","","","","","","","","","","","","","feedback_test",""
"","","","","","psychophysics","128","283971","0.0-12.0-0.0-0.7","3047","","j","","","","","","","","","","","","","key","j","8.331043298969156","768","428","j","true","img/C_28.png","生人","freeprac_stranger","",""
"","","","","","html-keyboard-response","129","284273","0.0-12.0-0.0-1.7","null","<span style='color:GreenYellow; font-size: 70px;'>正确! </span>","null","","","","","","","","","","","","","","","","","","","","","","","feedback_test",""
"","","","","","psychophysics","130","286434","0.0-12.0-0.0-0.8","1160","","k","","","","","","","","","","","","","key","k","8.304255813953345","768","428","k","true","img/C_28.png","自我","freeprac_stranger","",""
"","","","","","html-keyboard-response","131","286741","0.0-12.0-0.0-1.8","null","<span style='color:GreenYellow; font-size: 70px;'>正确! </span>","null","","","","","","","","","","","","","","","","","","","","","","","feedback_test",""
"","","","","","psychophysics","132","288699","0.0-12.0-0.0-0.9","951","","j","","","","","","","","","","","","","key","j","8.33075213675217","768","428","j","true","img/C_28.png","生人","freeprac_stranger","",""
"","","","","","html-keyboard-response","133","289012","0.0-12.0-0.0-1.9","null","<span style='color:GreenYellow; font-size: 70px;'>正确! </span>","null","","","","","","","","","","","","","","","","","","","","","","","feedback_test",""
"","","","","","psychophysics","134","291077","0.0-12.0-0.0-0.10","1064","","k","","","","","","","","","","","","","key","k","8.304402439024278","768","428","k","true","img/C_28.png","朋友","freeprac_stranger","",""
"","","","","","html-keyboard-response","135","291385","0.0-12.0-0.0-1.10","null","<span style='color:GreenYellow; font-size: 70px;'>正确! </span>","null","","","","","","","","","","","","","","","","","","","","","","","feedback_test",""
"","","","","","psychophysics","136","294063","0.0-12.0-0.0-0.11","1675","","d","","","","","","","","","","","","","key","d","8.330735202492113","768","428","d","true","img/H_28.png","朋友","freeprac_stranger","",""
"","","","","","html-keyboard-response","137","294379","0.0-12.0-0.0-1.11","null","<span style='color:GreenYellow; font-size: 70px;'>正确! </span>","null","","","","","","","","","","","","","","","","","","","","","","","feedback_test",""
"","","","","","instructions","138","323295","0.0-13.0","28914","","","","","","","","","","","","","","[{""page_index"":0,""viewing_time"":28914}]","","","","","","","","","","","",""
"","","","","","psychophysics","139","325773","0.0-14.0-0.0-0.0","1474","","k","","","","","","","","","","","","","key","k","8.330645270270415","768","428","d","false","img/S_28.png","自我","prac_self","","朋友"
"","","","","","html-keyboard-response","140","326085","0.0-14.0-0.0-1.0","null","<span style='color:red; font-size: 70px;'>错误! </span>","null","","","","","","","","","","","","","","","","","","","","","","","feedback_test",""
"","","","","","psychophysics","141","328590","0.0-14.0-0.0-0.1","null","","null","","","","","","","","","","","","","key","null","8.358775167785165","768","428","k","false","img/H_28.png","朋友","prac_self","","自我"
"","","","","","html-keyboard-response","142","328893","0.0-14.0-0.0-1.1","null","<span class='add_' style='color:yellow; font-size: 70px;'> 太慢! </span>","null","","","","","","","","","","","","","","","","","","","","","","","feedback_test",""
"","","","","","psychophysics","143","331397","0.0-14.0-0.0-0.2","null","","null","","","","","","","","","","","","","key","null","8.33078929765892","768","428","j","false","img/H_28.png","自我","prac_self","","自我"
"","","","","","html-keyboard-response","144","331707","0.0-14.0-0.0-1.2","null","<span class='add_' style='color:yellow; font-size: 70px;'> 太慢! </span>","null","","","","","","","","","","","","","","","","","","","","","","","feedback_test",""
"","","","","","psychophysics","145","334172","0.0-14.0-0.0-0.3","1459","","d","","","","","","","","","","","","","key","d","8.33153559322019","768","428","j","false","img/H_28.png","自我","prac_self","","自我"
"","","","","","html-keyboard-response","146","334483","0.0-14.0-0.0-1.3","null","<span style='color:red; font-size: 70px;'>错误! </span>","null","","","","","","","","","","","","","","","","","","","","","","","feedback_test",""
"","","","","","psychophysics","147","336515","0.0-14.0-0.0-0.4","1027","","f","","","","","","","","","","","","","key","f","8.330913580246959","768","428","f","true","img/S_28.png","朋友","prac_self","","朋友"
"","","","","","html-keyboard-response","148","336827","0.0-14.0-0.0-1.4","null","<span style='color:GreenYellow; font-size: 70px;'>正确! </span>","null","","","","","","","","","","","","","","","","","","","","","","","feedback_test",""
"","","","","","psychophysics","149","338777","0.0-14.0-0.0-0.5","949","","d","","","","","","","","","","","","","key","d","8.33089699570835","768","428","d","true","img/C_28.png","朋友","prac_self","","生人"
"","","","","","html-keyboard-response","150","339085","0.0-14.0-0.0-1.5","null","<span style='color:GreenYellow; font-size: 70px;'>正确! </span>","null","","","","","","","","","","","","","","","","","","","","","","","feedback_test",""
"","","","","","psychophysics","151","341283","0.0-14.0-0.0-0.6","1197","","f","","","","","","","","","","","","","key","f","8.338180076628406","768","428","f","true","img/C_28.png","生人","prac_self","","生人"
"","","","","","html-keyboard-response","152","341591","0.0-14.0-0.0-1.6","null","<span style='color:GreenYellow; font-size: 70px;'>正确! </span>","null","","","","","","","","","","","","","","","","","","","","","","","feedback_test",""
"","","","","","psychophysics","153","343406","0.0-14.0-0.0-0.7","812","","f","","","","","","","","","","","","","key","f","8.330354838709836","768","428","f","true","img/C_28.png","生人","prac_self","","生人"
"","","","","","html-keyboard-response","154","343709","0.0-14.0-0.0-1.7","null","<span style='color:GreenYellow; font-size: 70px;'>正确! </span>","null","","","","","","","","","","","","","","","","","","","","","","","feedback_test",""
"","","","","","psychophysics","155","346087","0.0-14.0-0.0-0.8","1377","","j","","","","","","","","","","","","","key","j","8.30694014084518","768","428","f","false","img/S_28.png","朋友","prac_self","","朋友"
"","","","","","html-keyboard-response","156","346405","0.0-14.0-0.0-1.8","null","<span style='color:red; font-size: 70px;'>错误! </span>","null","","","","","","","","","","","","","","","","","","","","","","","feedback_test",""
"","","","","","psychophysics","157","348641","0.0-14.0-0.0-0.9","1232","","k","","","","","","","","","","","","","key","k","8.33076779026218","768","428","d","false","img/C_28.png","自我","prac_self","","生人"
"","","","","","html-keyboard-response","158","348944","0.0-14.0-0.0-1.9","null","<span style='color:red; font-size: 70px;'>错误! </span>","null","","","","","","","","","","","","","","","","","","","","","","","feedback_test",""
"","","","","","psychophysics","159","350981","0.0-14.0-0.0-0.10","1031","","d","","","","","","","","","","","","","key","d","8.330781893003895","768","428","k","false","img/H_28.png","生人","prac_self","","自我"
"","","","","","html-keyboard-response","160","351289","0.0-14.0-0.0-1.10","null","<span style='color:red; font-size: 70px;'>错误! </span>","null","","","","","","","","","","","","","","","","","","","","","","","feedback_test",""
"","","","","","psychophysics","161","353790","0.0-14.0-0.0-0.11","null","","null","","","","","","","","","","","","","key","null","8.330666666666705","768","428","d","false","img/S_28.png","生人","prac_self","","朋友"
"","","","","","html-keyboard-response","162","354099","0.0-14.0-0.0-1.11","null","<span class='add_' style='color:yellow; font-size: 70px;'> 太慢! </span>","null","","","","","","","","","","","","","","","","","","","","","","","feedback_test",""
"","","","","","psychophysics","163","356137","0.0-14.0-0.0-0.12","1027","","f","","","","","","","","","","","","","key","f","8.331617283950791","768","428","f","true","img/C_28.png","生人","prac_self","","生人"
"","","","","","html-keyboard-response","164","356450","0.0-14.0-0.0-1.12","null","<span style='color:GreenYellow; font-size: 70px;'>正确! </span>","null","","","","","","","","","","","","","","","","","","","","","","","feedback_test",""
"","","","","","psychophysics","165","358949","0.0-14.0-0.0-0.13","1498","","d","","","","","","","","","","","","","key","d","8.337141414141394","768","428","k","false","img/H_28.png","朋友","prac_self","","自我"
"","","","","","html-keyboard-response","166","359251","0.0-14.0-0.0-1.13","null","<span style='color:red; font-size: 70px;'>错误! </span>","null","","","","","","","","","","","","","","","","","","","","","","","feedback_test",""
"","","","","","psychophysics","167","361393","0.0-14.0-0.0-0.14","1134","","j","","","","","","","","","","","","","key","j","8.330851562499902","768","428","f","false","img/S_28.png","朋友","prac_self","","朋友"
"","","","","","html-keyboard-response","168","361703","0.0-14.0-0.0-1.14","null","<span style='color:red; font-size: 70px;'>错误! </span>","null","","","","","","","","","","","","","","","","","","","","","","","feedback_test",""
"","","","","","psychophysics","169","364207","0.0-14.0-0.0-0.15","null","","null","","","","","","","","","","","","","key","null","8.330658862876346","768","428","d","false","img/S_28.png","自我","prac_self","","朋友"
"","","","","","html-keyboard-response","170","364519","0.0-14.0-0.0-1.15","null","<span class='add_' style='color:yellow; font-size: 70px;'> 太慢! </span>","null","","","","","","","","","","","","","","","","","","","","","","","feedback_test",""
"","","","","","psychophysics","171","367023","0.0-14.0-0.0-0.16","null","","null","","","","","","","","","","","","","key","null","8.331093645485057","768","428","d","false","img/C_28.png","自我","prac_self","","生人"
"","","","","","html-keyboard-response","172","367339","0.0-14.0-0.0-1.16","null","<span class='add_' style='color:yellow; font-size: 70px;'> 太慢! </span>","null","","","","","","","","","","","","","","","","","","","","","","","feedback_test",""
"","","","","","psychophysics","173","369523","0.0-14.0-0.0-0.17","1175","","j","","","","","","","","","","","","","key","j","8.330827586206972","768","428","j","true","img/H_28.png","自我","prac_self","","自我"
"","","","","","html-keyboard-response","174","369830","0.0-14.0-0.0-1.17","null","<span style='color:GreenYellow; font-size: 70px;'>正确! </span>","null","","","","","","","","","","","","","","","","","","","","","","","feedback_test",""
"","","","","","psychophysics","175","371799","0.0-14.0-0.0-0.18","968","","d","","","","","","","","","","","","","key","d","8.330906382978874","768","428","d","true","img/S_28.png","生人","prac_self","","朋友"
"","","","","","html-keyboard-response","176","372113","0.0-14.0-0.0-1.18","null","<span style='color:GreenYellow; font-size: 70px;'>正确! </span>","null","","","","","","","","","","","","","","","","","","","","","","","feedback_test",""
"","","","","","psychophysics","177","374621","0.0-14.0-0.0-0.19","null","","null","","","","","","","","","","","","","key","null","8.33081939799324","768","428","d","false","img/C_28.png","朋友","prac_self","","生人"
"","","","","","html-keyboard-response","178","374925","0.0-14.0-0.0-1.19","null","<span class='add_' style='color:yellow; font-size: 70px;'> 太慢! </span>","null","","","","","","","","","","","","","","","","","","","","","","","feedback_test",""
"","","","","","psychophysics","179","376915","0.0-14.0-0.0-0.20","986","","d","","","","","","","","","","","","","key","d","8.366261603375543","768","428","f","false","img/S_28.png","朋友","prac_self","","朋友"
"","","","","","html-keyboard-response","180","377224","0.0-14.0-0.0-1.20","null","<span style='color:red; font-size: 70px;'>错误! </span>","null","","","","","","","","","","","","","","","","","","","","","","","feedback_test",""
"","","","","","psychophysics","181","379042","0.0-14.0-0.0-0.21","815","","f","","","","","","","","","","","","","key","f","8.369310185185222","768","428","f","true","img/C_28.png","生人","prac_self","","生人"
"","","","","","html-keyboard-response","182","379357","0.0-14.0-0.0-1.21","null","<span style='color:GreenYellow; font-size: 70px;'>正确! </span>","null","","","","","","","","","","","","","","","","","","","","","","","feedback_test",""
"","","","","","psychophysics","183","381396","0.0-14.0-0.0-0.22","1035","","j","","","","","","","","","","","","","key","j","8.33086885245909","768","428","k","false","img/H_28.png","生人","prac_self","","自我"
"","","","","","html-keyboard-response","184","381707","0.0-14.0-0.0-1.22","null","<span style='color:red; font-size: 70px;'>错误! </span>","null","","","","","","","","","","","","","","","","","","","","","","","feedback_test",""
"","","","","","psychophysics","185","383501","0.0-14.0-0.0-0.23","792","","j","","","","","","","","","","","","","key","j","8.330827102803834","768","428","j","true","img/H_28.png","自我","prac_self","","自我"
"","","","","","html-keyboard-response","186","383811","0.0-14.0-0.0-1.23","null","<span style='color:GreenYellow; font-size: 70px;'>正确! </span>","null","","","","","","","","","","","","","","","","","","","","","","","feedback_test",""
"","","","","","html-keyboard-response","187","384601","0.0-14.0-1.0-0.0","788","<style>.context{color:white; font-size: 35px; line-height:40px}</style>                              <div><p class='context'>您正确回答了38% 的试次。</p><p class='context'>您的平均反应时为974毫秒。</p>","j","","","","","","","","","","","","","","","","","","","","","","","",""
"","","","","","instructions","188","392160","0.0-14.0-1.0-1.0","7556","","","","","","","","","","","","","","[{""page_index"":0,""viewing_time"":1992},{""page_index"":1,""viewing_time"":4271},{""page_index"":2,""viewing_time"":1293}]","","","","","","","","","","","",""
"","","","","","psychophysics","189","394014","0.0-14.1-0.1-0.24","849","","j","","","","","","","","","","","","","key","j","8.330868778280426","768","428","j","true","img/H_28.png","自我","prac_self","","自我"
"","","","","","html-keyboard-response","190","394321","0.0-14.1-0.1-1.24","null","<span style='color:GreenYellow; font-size: 70px;'>正确! </span>","null","","","","","","","","","","","","","","","","","","","","","","","feedback_test",""
"","","","","","psychophysics","191","396449","0.0-14.1-0.1-0.25","1127","","k","","","","","","","","","","","","","key","k","8.330827450980296","768","428","k","true","img/H_28.png","朋友","prac_self","","自我"
"","","","","","html-keyboard-response","192","396761","0.0-14.1-0.1-1.25","null","<span style='color:GreenYellow; font-size: 70px;'>正确! </span>","null","","","","","","","","","","","","","","","","","","","","","","","feedback_test",""
"","","","","","psychophysics","193","398597","0.0-14.1-0.1-0.26","834","","f","","","","","","","","","","","","","key","f","8.36881735159821","768","428","f","true","img/S_28.png","朋友","prac_self","","朋友"
"","","","","","html-keyboard-response","194","398914","0.0-14.1-0.1-1.26","null","<span style='color:GreenYellow; font-size: 70px;'>正确! </span>","null","","","","","","","","","","","","","","","","","","","","","","","feedback_test",""
"","","","","","psychophysics","195","401020","0.0-14.1-0.1-0.27","1099","","k","","","","","","","","","","","","","key","k","8.330768924302735","768","428","k","true","img/H_28.png","生人","prac_self","","自我"
"","","","","","html-keyboard-response","196","401329","0.0-14.1-0.1-1.27","null","<span style='color:GreenYellow; font-size: 70px;'>正确! </span>","null","","","","","","","","","","","","","","","","","","","","","","","feedback_test",""
"","","","","","psychophysics","197","403110","0.0-14.1-0.1-0.28","773","","f","","","","","","","","","","","","","key","f","8.330820754717076","768","428","f","true","img/C_28.png","生人","prac_self","","生人"
"","","","","","html-keyboard-response","198","403426","0.0-14.1-0.1-1.28","null","<span style='color:GreenYellow; font-size: 70px;'>正确! </span>","null","","","","","","","","","","","","","","","","","","","","","","","feedback_test",""
"","","","","","psychophysics","199","405250","0.0-14.1-0.1-0.29","821","","j","","","","","","","","","","","","","key","j","8.330628440366928","768","428","j","true","img/H_28.png","自我","prac_self","","自我"
"","","","","","html-keyboard-response","200","405565","0.0-14.1-0.1-1.29","null","<span style='color:GreenYellow; font-size: 70px;'>正确! </span>","null","","","","","","","","","","","","","","","","","","","","","","","feedback_test",""
"","","","","","psychophysics","201","407671","0.0-14.1-0.1-0.30","1102","","f","","","","","","","","","","","","","key","f","8.364486055776794","768","428","d","false","img/S_28.png","生人","prac_self","","朋友"
"","","","","","html-keyboard-response","202","407974","0.0-14.1-0.1-1.30","null","<span style='color:red; font-size: 70px;'>错误! </span>","null","","","","","","","","","","","","","","","","","","","","","","","feedback_test",""
"","","","","","psychophysics","203","410190","0.0-14.1-0.1-0.31","1213","","k","","","","","","","","","","","","","key","k","8.362189393939458","768","428","d","false","img/C_28.png","自我","prac_self","","生人"
"","","","","","html-keyboard-response","204","410507","0.0-14.1-0.1-1.31","null","<span style='color:red; font-size: 70px;'>错误! </span>","null","","","","","","","","","","","","","","","","","","","","","","","feedback_test",""
"","","","","","psychophysics","205","412670","0.0-14.1-0.1-0.32","1161","","d","","","","","","","","","","","","","key","d","8.33055212355217","768","428","d","true","img/S_28.png","自我","prac_self","","朋友"
"","","","","","html-keyboard-response","206","412980","0.0-14.1-0.1-1.32","null","<span style='color:GreenYellow; font-size: 70px;'>正确! </span>","null","","","","","","","","","","","","","","","","","","","","","","","feedback_test",""
"","","","","","psychophysics","207","414865","0.0-14.1-0.1-0.33","877","","f","","","","","","","","","","","","","key","f","8.330831111111264","768","428","f","true","img/C_28.png","生人","prac_self","","生人"
"","","","","","html-keyboard-response","208","415180","0.0-14.1-0.1-1.33","null","<span style='color:GreenYellow; font-size: 70px;'>正确! </span>","null","","","","","","","","","","","","","","","","","","","","","","","feedback_test",""
"","","","","","psychophysics","209","417635","0.0-14.1-0.1-0.34","1449","","d","","","","","","","","","","","","","key","d","8.33091808873731","768","428","d","true","img/C_28.png","朋友","prac_self","","生人"
"","","","","","html-keyboard-response","210","417943","0.0-14.1-0.1-1.34","null","<span style='color:GreenYellow; font-size: 70px;'>正确! </span>","null","","","","","","","","","","","","","","","","","","","","","","","feedback_test",""
"","","","","","psychophysics","211","419920","0.0-14.1-0.1-0.35","975","","f","","","","","","","","","","","","","key","f","8.330394067796602","768","428","f","true","img/S_28.png","朋友","prac_self","","朋友"
"","","","","","html-keyboard-response","212","420234","0.0-14.1-0.1-1.35","null","<span style='color:GreenYellow; font-size: 70px;'>正确! </span>","null","","","","","","","","","","","","","","","","","","","","","","","feedback_test",""
"","","","","","psychophysics","213","422306","0.0-14.1-0.1-0.36","1070","","d","","","","","","","","","","","","","key","d","8.305595141700243","768","428","d","true","img/C_28.png","朋友","prac_self","","生人"
"","","","","","html-keyboard-response","214","422609","0.0-14.1-0.1-1.36","null","<span style='color:GreenYellow; font-size: 70px;'>正确! </span>","null","","","","","","","","","","","","","","","","","","","","","","","feedback_test",""
"","","","","","psychophysics","215","425118","0.0-14.1-0.1-0.37","null","","null","","","","","","","","","","","","","key","null","8.33509395973157","768","428","d","false","img/S_28.png","生人","prac_self","","朋友"
"","","","","","html-keyboard-response","216","425426","0.0-14.1-0.1-1.37","null","<span class='add_' style='color:yellow; font-size: 70px;'> 太慢! </span>","null","","","","","","","","","","","","","","","","","","","","","","","feedback_test",""
"","","","","","psychophysics","217","427374","0.0-14.1-0.1-0.38","940","","j","","","","","","","","","","","","","key","j","8.367043290043338","768","428","j","true","img/H_28.png","自我","prac_self","","自我"
"","","","","","html-keyboard-response","218","427681","0.0-14.1-0.1-1.38","null","<span style='color:GreenYellow; font-size: 70px;'>正确! </span>","null","","","","","","","","","","","","","","","","","","","","","","","feedback_test",""
"","","","","","psychophysics","219","429922","0.0-14.1-0.1-0.39","1239","","d","","","","","","","","","","","","","key","d","8.330514925373276","768","428","f","false","img/S_28.png","朋友","prac_self","","朋友"
"","","","","","html-keyboard-response","220","430231","0.0-14.1-0.1-1.39","null","<span style='color:red; font-size: 70px;'>错误! </span>","null","","","","","","","","","","","","","","","","","","","","","","","feedback_test",""
"","","","","","psychophysics","221","432347","0.0-14.1-0.1-0.40","1115","","d","","","","","","","","","","","","","key","d","8.331114624505918","768","428","d","true","img/C_28.png","自我","prac_self","","生人"
"","","","","","html-keyboard-response","222","432663","0.0-14.1-0.1-1.40","null","<span style='color:GreenYellow; font-size: 70px;'>正确! </span>","null","","","","","","","","","","","","","","","","","","","","","","","feedback_test",""
"","","","","","psychophysics","223","434729","0.0-14.1-0.1-0.41","1064","","k","","","","","","","","","","","","","key","k","8.330651821862475","768","428","f","false","img/S_28.png","朋友","prac_self","","朋友"
"","","","","","html-keyboard-response","224","435030","0.0-14.1-0.1-1.41","null","<span style='color:red; font-size: 70px;'>错误! </span>","null","","","","","","","","","","","","","","","","","","","","","","","feedback_test",""
"","","","","","psychophysics","225","436977","0.0-14.1-0.1-0.42","946","","k","","","","","","","","","","","","","key","k","8.340757575757435","768","428","k","true","img/H_28.png","朋友","prac_self","","自我"
"","","","","","html-keyboard-response","226","437279","0.0-14.1-0.1-1.42","null","<span style='color:GreenYellow; font-size: 70px;'>正确! </span>","null","","","","","","","","","","","","","","","","","","","","","","","feedback_test",""
"","","","","","psychophysics","227","439781","0.0-14.1-0.1-0.43","null","","null","","","","","","","","","","","","","key","null","8.338640939597244","768","428","k","false","img/H_28.png","生人","prac_self","","自我"
"","","","","","html-keyboard-response","228","440093","0.0-14.1-0.1-1.43","null","<span class='add_' style='color:yellow; font-size: 70px;'> 太慢! </span>","null","","","","","","","","","","","","","","","","","","","","","","","feedback_test",""
"","","","","","psychophysics","229","441965","0.0-14.1-0.1-0.44","869","","f","","","","","","","","","","","","","key","f","8.330379464285736","768","428","j","false","img/H_28.png","自我","prac_self","","自我"
"","","","","","html-keyboard-response","230","442281","0.0-14.1-0.1-1.44","null","<span style='color:red; font-size: 70px;'>错误! </span>","null","","","","","","","","","","","","","","","","","","","","","","","feedback_test",""
"","","","","","psychophysics","231","444179","0.0-14.1-0.1-0.45","895","","d","","","","","","","","","","","","","key","d","8.330867256636965","768","428","f","false","img/C_28.png","生人","prac_self","","生人"
"","","","","","html-keyboard-response","232","444483","0.0-14.1-0.1-1.45","null","<span style='color:red; font-size: 70px;'>错误! </span>","null","","","","","","","","","","","","","","","","","","","","","","","feedback_test",""
"","","","","","psychophysics","233","446302","0.0-14.1-0.1-0.46","815","","k","","","","","","","","","","","","","key","k","8.330870967741932","768","428","f","false","img/C_28.png","生人","prac_self","","生人"
"","","","","","html-keyboard-response","234","446611","0.0-14.1-0.1-1.46","null","<span style='color:red; font-size: 70px;'>错误! </span>","null","","","","","","","","","","","","","","","","","","","","","","","feedback_test",""
"","","","","","psychophysics","235","448863","0.0-14.1-0.1-0.47","1246","","d","","","","","","","","","","","","","key","d","8.330884758364427","768","428","d","true","img/S_28.png","自我","prac_self","","朋友"
"","","","","","html-keyboard-response","236","449178","0.0-14.1-0.1-1.47","null","<span style='color:GreenYellow; font-size: 70px;'>正确! </span>","null","","","","","","","","","","","","","","","","","","","","","","","feedback_test",""
"","","","","","html-keyboard-response","237","449986","0.0-14.1-1.1-0.1","806","<style>.context{color:white; font-size: 35px; line-height:40px}</style>                              <div><p class='context'>您正确回答了63% 的试次。</p><p class='context'>您的平均反应时为1019毫秒。</p>","d","","","","","","","","","","","","","","","","","","","","","","","",""
"","","","","","instructions","238","453455","0.0-14.1-1.1-1.1","3465","","","","","","","","","","","","","","[{""page_index"":0,""viewing_time"":1259},{""page_index"":1,""viewing_time"":1437},{""page_index"":2,""viewing_time"":769}]","","","","","","","","","","","",""
"","","","","","psychophysics","239","455547","0.0-14.2-0.2-0.48","1089","","f","","","","","","","","","","","","","key","f","8.33079600000009","768","428","d","false","img/C_28.png","朋友","prac_self","","生人"
"","","","","","html-keyboard-response","240","455855","0.0-14.2-0.2-1.48","null","<span style='color:red; font-size: 70px;'>错误! </span>","null","","","","","","","","","","","","","","","","","","","","","","","feedback_test",""
"","","","","","psychophysics","241","457818","0.0-14.2-0.2-0.49","960","","d","","","","","","","","","","","","","key","d","8.330893617021069","768","428","f","false","img/S_28.png","朋友","prac_self","","朋友"
"","","","","","html-keyboard-response","242","458129","0.0-14.2-0.2-1.49","null","<span style='color:red; font-size: 70px;'>错误! </span>","null","","","","","","","","","","","","","","","","","","","","","","","feedback_test",""
"","","","","","psychophysics","243","459869","0.0-14.2-0.2-0.50","736","","j","","","","","","","","","","","","","key","j","8.330615384615298","768","428","j","true","img/H_28.png","自我","prac_self","","自我"
"","","","","","html-keyboard-response","244","460174","0.0-14.2-0.2-1.50","null","<span style='color:GreenYellow; font-size: 70px;'>正确! </span>","null","","","","","","","","","","","","","","","","","","","","","","","feedback_test",""
"","","","","","psychophysics","245","461923","0.0-14.2-0.2-0.51","745","","j","","","","","","","","","","","","","key","j","8.330932692307565","768","428","j","true","img/H_28.png","自我","prac_self","","自我"
"","","","","","html-keyboard-response","246","462230","0.0-14.2-0.2-1.51","null","<span style='color:GreenYellow; font-size: 70px;'>正确! </span>","null","","","","","","","","","","","","","","","","","","","","","","","feedback_test",""
"","","","","","psychophysics","247","464217","0.0-14.2-0.2-0.52","986","","d","","","","","","","","","","","","","key","d","8.305877637130626","768","428","f","false","img/C_28.png","生人","prac_self","","生人"
"","","","","","html-keyboard-response","248","464525","0.0-14.2-0.2-1.52","null","<span style='color:red; font-size: 70px;'>错误! </span>","null","","","","","","","","","","","","","","","","","","","","","","","feedback_test",""
"","","","","","psychophysics","249","466865","0.0-14.2-0.2-0.53","1334","","d","","","","","","","","","","","","","key","d","8.330746428571416","768","428","k","false","img/H_28.png","生人","prac_self","","自我"
"","","","","","html-keyboard-response","250","467167","0.0-14.2-0.2-1.53","null","<span style='color:red; font-size: 70px;'>错误! </span>","null","","","","","","","","","","","","","","","","","","","","","","","feedback_test",""
"","","","","","psychophysics","251","469154","0.0-14.2-0.2-0.54","985","","k","","","","","","","","","","","","","key","k","8.331037974683568","768","428","d","false","img/C_28.png","自我","prac_self","","生人"
"","","","","","html-keyboard-response","252","469459","0.0-14.2-0.2-1.54","null","<span style='color:red; font-size: 70px;'>错误! </span>","null","","","","","","","","","","","","","","","","","","","","","","","feedback_test",""
"","","","","","psychophysics","253","471777","0.0-14.2-0.2-0.55","1314","","k","","","","","","","","","","","","","key","k","8.330888086642661","768","428","k","true","img/H_28.png","朋友","prac_self","","自我"
"","","","","","html-keyboard-response","254","472090","0.0-14.2-0.2-1.55","null","<span style='color:GreenYellow; font-size: 70px;'>正确! </span>","null","","","","","","","","","","","","","","","","","","","","","","","feedback_test",""
"","","","","","psychophysics","255","474583","0.0-14.2-0.2-0.56","1489","","d","","","","","","","","","","","","","key","d","8.330842281879244","768","428","d","true","img/S_28.png","生人","prac_self","","朋友"
"","","","","","html-keyboard-response","256","474899","0.0-14.2-0.2-1.56","null","<span style='color:GreenYellow; font-size: 70px;'>正确! </span>","null","","","","","","","","","","","","","","","","","","","","","","","feedback_test",""
"","","","","","psychophysics","257","477061","0.0-14.2-0.2-0.57","1156","","d","","","","","","","","","","","","","key","d","8.331205426356593","768","428","d","true","img/S_28.png","自我","prac_self","","朋友"
"","","","","","html-keyboard-response","258","477366","0.0-14.2-0.2-1.57","null","<span style='color:GreenYellow; font-size: 70px;'>正确! </span>","null","","","","","","","","","","","","","","","","","","","","","","","feedback_test",""
"","","","","","psychophysics","259","479132","0.0-14.2-0.2-0.58","761","","f","","","","","","","","","","","","","key","f","8.330881516587638","768","428","f","true","img/S_28.png","朋友","prac_self","","朋友"
"","","","","","html-keyboard-response","260","479434","0.0-14.2-0.2-1.58","null","<span style='color:GreenYellow; font-size: 70px;'>正确! </span>","null","","","","","","","","","","","","","","","","","","","","","","","feedback_test",""
"","","","","","psychophysics","261","481326","0.0-14.2-0.2-0.59","890","","d","","","","","","","","","","","","","key","d","8.367720000000102","768","428","f","false","img/C_28.png","生人","prac_self","","生人"
"","","","","","html-keyboard-response","262","481636","0.0-14.2-0.2-1.59","null","<span style='color:red; font-size: 70px;'>错误! </span>","null","","","","","","","","","","","","","","","","","","","","","","","feedback_test",""
"","","","","","psychophysics","263","483470","0.0-14.2-0.2-0.60","825","","f","","","","","","","","","","","","","key","f","8.301499999999795","768","428","f","true","img/C_28.png","生人","prac_self","","生人"
"","","","","","html-keyboard-response","264","483775","0.0-14.2-0.2-1.60","null","<span style='color:GreenYellow; font-size: 70px;'>正确! </span>","null","","","","","","","","","","","","","","","","","","","","","","","feedback_test",""
"","","","","","psychophysics","265","485528","0.0-14.2-0.2-0.61","751","","d","","","","","","","","","","","","","key","d","8.330633333333147","768","428","d","true","img/S_28.png","生人","prac_self","","朋友"
"","","","","","html-keyboard-response","266","485838","0.0-14.2-0.2-1.61","null","<span style='color:GreenYellow; font-size: 70px;'>正确! </span>","null","","","","","","","","","","","","","","","","","","","","","","","feedback_test",""
"","","","","","psychophysics","267","487782","0.0-14.2-0.2-0.62","937","","f","","","","","","","","","","","","","key","f","8.330637931034666","768","428","f","true","img/C_28.png","生人","prac_self","","生人"
"","","","","","html-keyboard-response","268","488088","0.0-14.2-0.2-1.62","null","<span style='color:GreenYellow; font-size: 70px;'>正确! </span>","null","","","","","","","","","","","","","","","","","","","","","","","feedback_test",""
"","","","","","psychophysics","269","489902","0.0-14.2-0.2-0.63","809","","j","","","","","","","","","","","","","key","j","8.330686635944792","768","428","j","true","img/H_28.png","自我","prac_self","","自我"
"","","","","","html-keyboard-response","270","490215","0.0-14.2-0.2-1.63","null","<span style='color:GreenYellow; font-size: 70px;'>正确! </span>","null","","","","","","","","","","","","","","","","","","","","","","","feedback_test",""
"","","","","","psychophysics","271","492406","0.0-14.2-0.2-0.64","1188","","d","","","","","","","","","","","","","key","d","8.330770992366455","768","428","d","true","img/S_28.png","自我","prac_self","","朋友"
"","","","","","html-keyboard-response","272","492721","0.0-14.2-0.2-1.64","null","<span style='color:GreenYellow; font-size: 70px;'>正确! </span>","null","","","","","","","","","","","","","","","","","","","","","","","feedback_test",""
"","","","","","psychophysics","273","494801","0.0-14.2-0.2-0.65","1076","","f","","","","","","","","","","","","","key","f","8.330775100401656","768","428","f","true","img/S_28.png","朋友","prac_self","","朋友"
"","","","","","html-keyboard-response","274","495112","0.0-14.2-0.2-1.65","null","<span style='color:GreenYellow; font-size: 70px;'>正确! </span>","null","","","","","","","","","","","","","","","","","","","","","","","feedback_test",""
"","","","","","psychophysics","275","497352","0.0-14.2-0.2-0.66","1237","","d","","","","","","","","","","","","","key","d","8.33127611940301","768","428","d","true","img/C_28.png","自我","prac_self","","生人"
"","","","","","html-keyboard-response","276","497663","0.0-14.2-0.2-1.66","null","<span style='color:GreenYellow; font-size: 70px;'>正确! </span>","null","","","","","","","","","","","","","","","","","","","","","","","feedback_test",""
"","","","","","psychophysics","277","499536","0.0-14.2-0.2-0.67","871","","f","","","","","","","","","","","","","key","f","8.330558035714473","768","428","f","true","img/S_28.png","朋友","prac_self","","朋友"
"","","","","","html-keyboard-response","278","499847","0.0-14.2-0.2-1.67","null","<span style='color:GreenYellow; font-size: 70px;'>正确! </span>","null","","","","","","","","","","","","","","","","","","","","","","","feedback_test",""
"","","","","","psychophysics","279","501825","0.0-14.2-0.2-0.68","974","","j","","","","","","","","","","","","","key","j","8.336263829787223","768","428","k","false","img/H_28.png","朋友","prac_self","","自我"
"","","","","","html-keyboard-response","280","502141","0.0-14.2-0.2-1.68","null","<span style='color:red; font-size: 70px;'>错误! </span>","null","","","","","","","","","","","","","","","","","","","","","","","feedback_test",""
"","","","","","psychophysics","281","504160","0.0-14.2-0.2-0.69","1013","","f","","","","","","","","","","","","","key","f","8.330983402489595","768","428","d","false","img/C_28.png","朋友","prac_self","","生人"
"","","","","","html-keyboard-response","282","504469","0.0-14.2-0.2-1.69","null","<span style='color:red; font-size: 70px;'>错误! </span>","null","","","","","","","","","","","","","","","","","","","","","","","feedback_test",""
"","","","","","psychophysics","283","506363","0.0-14.2-0.2-0.70","892","","k","","","","","","","","","","","","","key","k","8.330480176211584","768","428","k","true","img/H_28.png","生人","prac_self","","自我"
"","","","","","html-keyboard-response","284","506669","0.0-14.2-0.2-1.70","null","<span style='color:GreenYellow; font-size: 70px;'>正确! </span>","null","","","","","","","","","","","","","","","","","","","","","","","feedback_test",""
"","","","","","psychophysics","285","508263","0.0-14.2-0.2-0.71","593","","j","","","","","","","","","","","","","key","j","8.33072774869107","768","428","j","true","img/H_28.png","自我","prac_self","","自我"
"","","","","","html-keyboard-response","286","508568","0.0-14.2-0.2-1.71","null","<span style='color:GreenYellow; font-size: 70px;'>正确! </span>","null","","","","","","","","","","","","","","","","","","","","","","","feedback_test",""
"","","","","","html-keyboard-response","287","509402","0.0-14.2-1.2-0.2","833","<style>.context{color:white; font-size: 35px; line-height:40px}</style>                              <div><p class='context'>您正确回答了67% 的试次。</p><p class='context'>您的平均反应时为961毫秒。</p>","f","","","","","","","","","","","","","","","","","","","","","","","",""
"","","","","","instructions","288","515166","0.0-14.2-1.2-1.2","5760","","","","","","","","","","","","","","[{""page_index"":0,""viewing_time"":1410},{""page_index"":1,""viewing_time"":3682},{""page_index"":2,""viewing_time"":668}]","","","","","","","","","","","",""
"","","","","","psychophysics","289","517480","0.0-14.3-0.3-0.72","1313","","f","","","","","","","","","","","","","key","f","8.330844202898637","768","428","f","true","img/S_28.png","朋友","prac_self","","朋友"
"","","","","","html-keyboard-response","290","517784","0.0-14.3-0.3-1.72","null","<span style='color:GreenYellow; font-size: 70px;'>正确! </span>","null","","","","","","","","","","","","","","","","","","","","","","","feedback_test",""
"","","","","","psychophysics","291","519856","0.0-14.3-0.3-0.73","1064","","d","","","","","","","","","","","","","key","d","8.33782113821135","768","428","d","true","img/S_28.png","生人","prac_self","","朋友"
"","","","","","html-keyboard-response","292","520167","0.0-14.3-0.3-1.73","null","<span style='color:GreenYellow; font-size: 70px;'>正确! </span>","null","","","","","","","","","","","","","","","","","","","","","","","feedback_test",""
"","","","","","psychophysics","293","522086","0.0-14.3-0.3-0.74","915","","f","","","","","","","","","","","","","key","f","8.331541484715945","768","428","f","true","img/C_28.png","生人","prac_self","","生人"
"","","","","","html-keyboard-response","294","522396","0.0-14.3-0.3-1.74","null","<span style='color:GreenYellow; font-size: 70px;'>正确! </span>","null","","","","","","","","","","","","","","","","","","","","","","","feedback_test",""
"","","","","","psychophysics","295","524320","0.0-14.3-0.3-0.75","921","","f","","","","","","","","","","","","","key","f","8.330652173913245","768","428","f","true","img/S_28.png","朋友","prac_self","","朋友"
"","","","","","html-keyboard-response","296","524629","0.0-14.3-0.3-1.75","null","<span style='color:GreenYellow; font-size: 70px;'>正确! </span>","null","","","","","","","","","","","","","","","","","","","","","","","feedback_test",""
"","","","","","psychophysics","297","526618","0.0-14.3-0.3-0.76","986","","k","","","","","","","","","","","","","key","k","8.330768907563018","768","428","k","true","img/H_28.png","生人","prac_self","","自我"
"","","","","","html-keyboard-response","298","526929","0.0-14.3-0.3-1.76","null","<span style='color:GreenYellow; font-size: 70px;'>正确! </span>","null","","","","","","","","","","","","","","","","","","","","","","","feedback_test",""
"","","","","","psychophysics","299","529163","0.0-14.3-0.3-0.77","1233","","f","","","","","","","","","","","","","key","f","8.3307940074908","768","428","d","false","img/S_28.png","自我","prac_self","","朋友"
"","","","","","html-keyboard-response","300","529476","0.0-14.3-0.3-1.77","null","<span style='color:red; font-size: 70px;'>错误! </span>","null","","","","","","","","","","","","","","","","","","","","","","","feedback_test",""
"","","","","","psychophysics","301","530990","0.0-14.3-0.3-0.78","510","","j","","","","","","","","","","","","","key","j","8.330508287293059","768","428","j","true","img/H_28.png","自我","prac_self","","自我"
"","","","","","html-keyboard-response","302","531307","0.0-14.3-0.3-1.78","null","<span style='color:GreenYellow; font-size: 70px;'>正确! </span>","null","","","","","","","","","","","","","","","","","","","","","","","feedback_test",""
"","","","","","psychophysics","303","533120","0.0-14.3-0.3-0.79","811","","f","","","","","","","","","","","","","key","f","8.330722222222162","768","428","f","true","img/C_28.png","生人","prac_self","","生人"
"","","","","","html-keyboard-response","304","533429","0.0-14.3-0.3-1.79","null","<span style='color:GreenYellow; font-size: 70px;'>正确! </span>","null","","","","","","","","","","","","","","","","","","","","","","","feedback_test",""
"","","","","","psychophysics","305","535722","0.0-14.3-0.3-0.80","1289","","k","","","","","","","","","","","","","key","k","8.334555147059078","768","428","d","false","img/C_28.png","自我","prac_self","","生人"
"","","","","","html-keyboard-response","306","536029","0.0-14.3-0.3-1.80","null","<span style='color:red; font-size: 70px;'>错误! </span>","null","","","","","","","","","","","","","","","","","","","","","","","feedback_test",""
"","","","","","psychophysics","307","537947","0.0-14.3-0.3-0.81","916","","f","","","","","","","","","","","","","key","f","8.367241228070302","768","428","k","false","img/H_28.png","朋友","prac_self","","自我"
"","","","","","html-keyboard-response","308","538258","0.0-14.3-0.3-1.81","null","<span style='color:red; font-size: 70px;'>错误! </span>","null","","","","","","","","","","","","","","","","","","","","","","","feedback_test",""
"","","","","","psychophysics","309","540269","0.0-14.3-0.3-0.82","1005","","d","","","","","","","","","","","","","key","d","8.330666666666609","768","428","d","true","img/C_28.png","朋友","prac_self","","生人"
"","","","","","html-keyboard-response","310","540572","0.0-14.3-0.3-1.82","null","<span style='color:GreenYellow; font-size: 70px;'>正确! </span>","null","","","","","","","","","","","","","","","","","","","","","","","feedback_test",""
"","","","","","psychophysics","311","542338","0.0-14.3-0.3-0.83","765","","j","","","","","","","","","","","","","key","j","8.331328571428145","768","428","j","true","img/H_28.png","自我","prac_self","","自我"
"","","","","","html-keyboard-response","312","542648","0.0-14.3-0.3-1.83","null","<span style='color:GreenYellow; font-size: 70px;'>正确! </span>","null","","","","","","","","","","","","","","","","","","","","","","","feedback_test",""
"","","","","","psychophysics","313","544569","0.0-14.3-0.3-0.84","915","","k","","","","","","","","","","","","","key","k","8.367671052631186","768","428","d","false","img/C_28.png","自我","prac_self","","生人"
"","","","","","html-keyboard-response","314","544876","0.0-14.3-0.3-1.84","null","<span style='color:red; font-size: 70px;'>错误! </span>","null","","","","","","","","","","","","","","","","","","","","","","","feedback_test",""
"","","","","","psychophysics","315","547053","0.0-14.3-0.3-0.85","1175","","f","","","","","","","","","","","","","key","f","8.330711538461932","768","428","f","true","img/C_28.png","生人","prac_self","","生人"
"","","","","","html-keyboard-response","316","547360","0.0-14.3-0.3-1.85","null","<span style='color:GreenYellow; font-size: 70px;'>正确! </span>","null","","","","","","","","","","","","","","","","","","","","","","","feedback_test",""
"","","","","","psychophysics","317","549412","0.0-14.3-0.3-0.86","1051","","j","","","","","","","","","","","","","key","j","8.33067886178889","768","428","j","true","img/H_28.png","自我","prac_self","","自我"
"","","","","","html-keyboard-response","318","549717","0.0-14.3-0.3-1.86","null","<span style='color:GreenYellow; font-size: 70px;'>正确! </span>","null","","","","","","","","","","","","","","","","","","","","","","","feedback_test",""
"","","","","","psychophysics","319","551570","0.0-14.3-0.3-0.87","852","","d","","","","","","","","","","","","","key","d","8.330626126126017","768","428","d","true","img/C_28.png","朋友","prac_self","","生人"
"","","","","","html-keyboard-response","320","551886","0.0-14.3-0.3-1.87","null","<span style='color:GreenYellow; font-size: 70px;'>正确! </span>","null","","","","","","","","","","","","","","","","","","","","","","","feedback_test",""
"","","","","","psychophysics","321","553897","0.0-14.3-0.3-0.88","1008","","k","","","","","","","","","","","","","key","k","8.331358333333144","768","428","k","true","img/H_28.png","生人","prac_self","","自我"
"","","","","","html-keyboard-response","322","554214","0.0-14.3-0.3-1.88","null","<span style='color:GreenYellow; font-size: 70px;'>正确! </span>","null","","","","","","","","","","","","","","","","","","","","","","","feedback_test",""
"","","","","","psychophysics","323","556370","0.0-14.3-0.3-0.89","1153","","f","","","","","","","","","","","","","key","f","8.330875968992396","768","428","f","true","img/C_28.png","生人","prac_self","","生人"
"","","","","","html-keyboard-response","324","556680","0.0-14.3-0.3-1.89","null","<span style='color:GreenYellow; font-size: 70px;'>正确! </span>","null","","","","","","","","","","","","","","","","","","","","","","","feedback_test",""
"","","","","","psychophysics","325","558388","0.0-14.3-0.3-0.90","705","","f","","","","","","","","","","","","","key","f","8.330769607842917","768","428","f","true","img/S_28.png","朋友","prac_self","","朋友"
"","","","","","html-keyboard-response","326","558690","0.0-14.3-0.3-1.90","null","<span style='color:GreenYellow; font-size: 70px;'>正确! </span>","null","","","","","","","","","","","","","","","","","","","","","","","feedback_test",""
"","","","","","psychophysics","327","560619","0.0-14.3-0.3-0.91","928","","j","","","","","","","","","","","","","key","j","8.330822510822692","768","428","j","true","img/H_28.png","自我","prac_self","","自我"
"","","","","","html-keyboard-response","328","560925","0.0-14.3-0.3-1.91","null","<span style='color:GreenYellow; font-size: 70px;'>正确! </span>","null","","","","","","","","","","","","","","","","","","","","","","","feedback_test",""
"","","","","","psychophysics","329","563099","0.0-14.3-0.3-0.92","1173","","d","","","","","","","","","","","","","key","d","8.331069230769153","768","428","f","false","img/S_28.png","朋友","prac_self","","朋友"
"","","","","","html-keyboard-response","330","563406","0.0-14.3-0.3-1.92","null","<span style='color:red; font-size: 70px;'>错误! </span>","null","","","","","","","","","","","","","","","","","","","","","","","feedback_test",""
"","","","","","psychophysics","331","565914","0.0-14.3-0.3-0.93","null","","null","","","","","","","","","","","","","key","null","8.334171140939544","768","428","d","false","img/S_28.png","生人","prac_self","","朋友"
"","","","","","html-keyboard-response","332","566229","0.0-14.3-0.3-1.93","null","<span class='add_' style='color:yellow; font-size: 70px;'> 太慢! </span>","null","","","","","","","","","","","","","","","","","","","","","","","feedback_test",""
"","","","","","psychophysics","333","568426","0.0-14.3-0.3-0.94","1187","","k","","","","","","","","","","","","","key","k","8.305961832061111","768","428","k","true","img/H_28.png","朋友","prac_self","","自我"
"","","","","","html-keyboard-response","334","568740","0.0-14.3-0.3-1.94","null","<span style='color:GreenYellow; font-size: 70px;'>正确! </span>","null","","","","","","","","","","","","","","","","","","","","","","","feedback_test",""
"","","","","","psychophysics","335","570966","0.0-14.3-0.3-0.95","1222","","d","","","","","","","","","","","","","key","d","8.330879699248431","768","428","d","true","img/S_28.png","自我","prac_self","","朋友"
"","","","","","html-keyboard-response","336","571280","0.0-14.3-0.3-1.95","null","<span style='color:GreenYellow; font-size: 70px;'>正确! </span>","null","","","","","","","","","","","","","","","","","","","","","","","feedback_test",""
"","","","","","html-keyboard-response","337","576579","0.0-15.0","5296","[""<style>.context{color:white; font-size: 35px; line-height:40px}</style>              <div><p class='context'>您正确回答了75% 的试次。</p><p class='context'>您的平均反应时为976毫秒。</p><p class='context'>恭喜您完成这一阶段的练习。按任意键进入<span style='color: yellow;'>重点关注图形为“朋友”</span>的练习。</p></div><p class='footer' style='font-size:35px; line-height:30px;'>任务要求：\n              <p class='footer' style='font-size:35px; line-height:35px;'>对于与“朋友”对应的图形：如果 匹配 ，请按 <span style=\""color: lightgreen;\"">j键</span></p><p class='footer' style='font-size:35px'>如果 不匹配 ，请按<span style=\""color: lightgreen;\"">k键</p></span>\n              <p class='footer' style='font-size:35px; line-height:35px;'>对于非“朋友”对应的图形：如果 匹配 ，请按 <span style=\""color: lightgreen;\"">f键</span></p><p class='footer' style='font-size:35px'>如果 不匹配 ，请按<span style=\""color: lightgreen;\"">d键</p></span>\n              <p class='footer' style='font-size:22px; line-height:25px;'>请在实验过程中将您的<span style=\""color: lightgreen;\"">食指和中指</span>放在电脑键盘的相应键位上进行按键。</p></span>""]","j","","","","","","","","","","","","","","","","","","","","","","","",""
"","","","","","psychophysics","338","578509","0.0-16.0-0.0-0.0","923","","k","","","","","","","","","","","","","key","k","8.330591304348175","768","428","k","true","img/S_28.png","生人","prac_friend","","朋友"
"","","","","","html-keyboard-response","339","578811","0.0-16.0-0.0-1.0","null","<span style='color:GreenYellow; font-size: 70px;'>正确! </span>","null","","","","","","","","","","","","","","","","","","","","","","","feedback_test",""
"","","","","","psychophysics","340","580759","0.0-16.0-0.0-0.1","941","","f","","","","","","","","","","","","","key","f","8.330853448275995","768","428","f","true","img/C_28.png","生人","prac_friend","","生人"
"","","","","","html-keyboard-response","341","581067","0.0-16.0-0.0-1.1","null","<span style='color:GreenYellow; font-size: 70px;'>正确! </span>","null","","","","","","","","","","","","","","","","","","","","","","","feedback_test",""
"","","","","","psychophysics","342","583012","0.0-16.0-0.0-0.2","942","","j","","","","","","","","","","","","","key","j","8.330922413793","768","428","f","false","img/H_28.png","自我","prac_friend","","自我"
"","","","","","html-keyboard-response","343","583328","0.0-16.0-0.0-1.2","null","<span style='color:red; font-size: 70px;'>错误! </span>","null","","","","","","","","","","","","","","","","","","","","","","","feedback_test",""
"","","","","","psychophysics","344","585780","0.0-16.0-0.0-0.3","1449","","d","","","","","","","","","","","","","key","d","8.330798634812284","768","428","d","true","img/C_28.png","自我","prac_friend","","生人"
"","","","","","html-keyboard-response","345","586084","0.0-16.0-0.0-1.3","null","<span style='color:GreenYellow; font-size: 70px;'>正确! </span>","null","","","","","","","","","","","","","","","","","","","","","","","feedback_test",""
"","","","","","psychophysics","346","587941","0.0-16.0-0.0-0.4","849","","f","","","","","","","","","","","","","key","f","8.33082805429817","768","428","f","true","img/C_28.png","生人","prac_friend","","生人"
"","","","","","html-keyboard-response","347","588242","0.0-16.0-0.0-1.4","null","<span style='color:GreenYellow; font-size: 70px;'>正确! </span>","null","","","","","","","","","","","","","","","","","","","","","","","feedback_test",""
"","","","","","psychophysics","348","590003","0.0-16.0-0.0-0.5","755","","k","","","","","","","","","","","","","key","k","8.331000000000044","768","428","k","true","img/S_28.png","自我","prac_friend","","朋友"
"","","","","","html-keyboard-response","349","590317","0.0-16.0-0.0-1.5","null","<span style='color:GreenYellow; font-size: 70px;'>正确! </span>","null","","","","","","","","","","","","","","","","","","","","","","","feedback_test",""
"","","","","","psychophysics","350","591997","0.0-16.0-0.0-0.6","677","","j","","","","","","","","","","","","","key","j","8.330830000000423","768","428","j","true","img/S_28.png","朋友","prac_friend","","朋友"
"","","","","","html-keyboard-response","351","592298","0.0-16.0-0.0-1.6","null","<span style='color:GreenYellow; font-size: 70px;'>正确! </span>","null","","","","","","","","","","","","","","","","","","","","","","","feedback_test",""
"","","","","","psychophysics","352","594515","0.0-16.0-0.0-0.7","1206","","d","","","","","","","","","","","","","key","d","8.330946969696953","768","428","f","false","img/H_28.png","自我","prac_friend","","自我"
"","","","","","html-keyboard-response","353","594827","0.0-16.0-0.0-1.7","null","<span style='color:red; font-size: 70px;'>错误! </span>","null","","","","","","","","","","","","","","","","","","","","","","","feedback_test",""
"","","","","","psychophysics","354","597050","0.0-16.0-0.0-0.8","1218","","d","","","","","","","","","","","","","key","d","8.330872180451083","768","428","d","true","img/H_28.png","生人","prac_friend","","自我"
"","","","","","html-keyboard-response","355","597366","0.0-16.0-0.0-1.8","null","<span style='color:GreenYellow; font-size: 70px;'>正确! </span>","null","","","","","","","","","","","","","","","","","","","","","","","feedback_test",""
"","","","","","psychophysics","356","599669","0.0-16.0-0.0-0.9","1297","","j","","","","","","","","","","","","","key","j","8.330854545454494","768","428","j","true","img/S_28.png","朋友","prac_friend","","朋友"
"","","","","","html-keyboard-response","357","599985","0.0-16.0-0.0-1.9","null","<span style='color:GreenYellow; font-size: 70px;'>正确! </span>","null","","","","","","","","","","","","","","","","","","","","","","","feedback_test",""
"","","","","","psychophysics","358","602389","0.0-16.0-0.0-0.10","1402","","d","","","","","","","","","","","","","key","d","8.33088501742173","768","428","d","true","img/C_28.png","朋友","prac_friend","","生人"
"","","","","","html-keyboard-response","359","602706","0.0-16.0-0.0-1.10","null","<span style='color:GreenYellow; font-size: 70px;'>正确! </span>","null","","","","","","","","","","","","","","","","","","","","","","","feedback_test",""
"","","","","","psychophysics","360","605214","0.0-16.0-0.0-0.11","null","","null","","","","","","","","","","","","","key","null","8.361835016834908","768","428","d","false","img/H_28.png","朋友","prac_friend","","自我"
"","","","","","html-keyboard-response","361","605517","0.0-16.0-0.0-1.11","null","<span class='add_' style='color:yellow; font-size: 70px;'> 太慢! </span>","null","","","","","","","","","","","","","","","","","","","","","","","feedback_test",""
"","","","","","psychophysics","362","607619","0.0-16.0-0.0-0.12","1100","","k","","","","","","","","","","","","","key","k","8.331155378486038","768","428","f","false","img/H_28.png","自我","prac_friend","","自我"
"","","","","","html-keyboard-response","363","607936","0.0-16.0-0.0-1.12","null","<span style='color:red; font-size: 70px;'>错误! </span>","null","","","","","","","","","","","","","","","","","","","","","","","feedback_test",""
"","","","","","psychophysics","364","609844","0.0-16.0-0.0-0.13","906","","f","","","","","","","","","","","","","key","f","8.330780701754664","768","428","f","true","img/C_28.png","生人","prac_friend","","生人"
"","","","","","html-keyboard-response","365","610160","0.0-16.0-0.0-1.13","null","<span style='color:GreenYellow; font-size: 70px;'>正确! </span>","null","","","","","","","","","","","","","","","","","","","","","","","feedback_test",""
"","","","","","psychophysics","366","612670","0.0-16.0-0.0-0.14","null","","null","","","","","","","","","","","","","key","null","8.358314381271093","768","428","d","false","img/H_28.png","朋友","prac_friend","","自我"
"","","","","","html-keyboard-response","367","612977","0.0-16.0-0.0-1.14","null","<span class='add_' style='color:yellow; font-size: 70px;'> 太慢! </span>","null","","","","","","","","","","","","","","","","","","","","","","","feedback_test",""
"","","","","","psychophysics","368","615077","0.0-16.0-0.0-0.15","1099","","k","","","","","","","","","","","","","key","k","8.337012048192644","768","428","k","true","img/S_28.png","生人","prac_friend","","朋友"
"","","","","","html-keyboard-response","369","615381","0.0-16.0-0.0-1.15","null","<span style='color:GreenYellow; font-size: 70px;'>正确! </span>","null","","","","","","","","","","","","","","","","","","","","","","","feedback_test",""
"","","","","","psychophysics","370","617412","0.0-16.0-0.0-0.16","1027","","d","","","","","","","","","","","","","key","d","8.365714876032685","768","428","d","true","img/H_28.png","生人","prac_friend","","自我"
"","","","","","html-keyboard-response","371","617724","0.0-16.0-0.0-1.16","null","<span style='color:GreenYellow; font-size: 70px;'>正确! </span>","null","","","","","","","","","","","","","","","","","","","","","","","feedback_test",""
"","","","","","psychophysics","372","619866","0.0-16.0-0.0-0.17","1139","","j","","","","","","","","","","","","","key","j","8.330667968750276","768","428","k","false","img/S_28.png","自我","prac_friend","","朋友"
"","","","","","html-keyboard-response","373","620172","0.0-16.0-0.0-1.17","null","<span style='color:red; font-size: 70px;'>错误! </span>","null","","","","","","","","","","","","","","","","","","","","","","","feedback_test",""
"","","","","","psychophysics","374","622158","0.0-16.0-0.0-0.18","982","","d","","","","","","","","","","","","","key","d","8.33064135021082","768","428","f","false","img/H_28.png","自我","prac_friend","","自我"
"","","","","","html-keyboard-response","375","622468","0.0-16.0-0.0-1.18","null","<span style='color:red; font-size: 70px;'>错误! </span>","null","","","","","","","","","","","","","","","","","","","","","","","feedback_test",""
"","","","","","psychophysics","376","624337","0.0-16.0-0.0-0.19","867","","j","","","","","","","","","","","","","key","j","8.330852017937344","768","428","j","true","img/S_28.png","朋友","prac_friend","","朋友"
"","","","","","html-keyboard-response","377","624638","0.0-16.0-0.0-1.19","null","<span style='color:GreenYellow; font-size: 70px;'>正确! </span>","null","","","","","","","","","","","","","","","","","","","","","","","feedback_test",""
"","","","","","psychophysics","378","626468","0.0-16.0-0.0-0.20","827","","j","","","","","","","","","","","","","key","j","8.330520547945031","768","428","j","true","img/S_28.png","朋友","prac_friend","","朋友"
"","","","","","html-keyboard-response","379","626774","0.0-16.0-0.0-1.20","null","<span style='color:GreenYellow; font-size: 70px;'>正确! </span>","null","","","","","","","","","","","","","","","","","","","","","","","feedback_test",""
"","","","","","psychophysics","380","629031","0.0-16.0-0.0-0.21","1251","","f","","","","","","","","","","","","","key","f","8.330565055761726","768","428","d","false","img/C_28.png","自我","prac_friend","","生人"
"","","","","","html-keyboard-response","381","629336","0.0-16.0-0.0-1.21","null","<span style='color:red; font-size: 70px;'>错误! </span>","null","","","","","","","","","","","","","","","","","","","","","","","feedback_test",""
"","","","","","psychophysics","382","631695","0.0-16.0-0.0-0.22","1355","","d","","","","","","","","","","","","","key","d","8.330804964539047","768","428","d","true","img/C_28.png","朋友","prac_friend","","生人"
"","","","","","html-keyboard-response","383","632000","0.0-16.0-0.0-1.22","null","<span style='color:GreenYellow; font-size: 70px;'>正确! </span>","null","","","","","","","","","","","","","","","","","","","","","","","feedback_test",""
"","","","","","psychophysics","384","634494","0.0-16.0-0.0-0.23","1489","","f","","","","","","","","","","","","","key","f","8.330738255033355","768","428","f","true","img/C_28.png","生人","prac_friend","","生人"
"","","","","","html-keyboard-response","385","634808","0.0-16.0-0.0-1.23","null","<span style='color:GreenYellow; font-size: 70px;'>正确! </span>","null","","","","","","","","","","","","","","","","","","","","","","","feedback_test",""
"","","","","","html-keyboard-response","386","635528","0.0-16.0-1.0-0.0","718","<style>.context{color:white; font-size: 35px; line-height:40px}</style>                              <div><p class='context'>您正确回答了67% 的试次。</p><p class='context'>您的平均反应时为1068毫秒。</p>","f","","","","","","","","","","","","","","","","","","","","","","","",""
"","","","","","instructions","387","685578","0.0-16.0-1.0-1.0","50044","","","","","","","","","","","","","","[{""page_index"":0,""viewing_time"":2882},{""page_index"":1,""viewing_time"":40621},{""page_index"":2,""viewing_time"":6541}]","","","","","","","","","","","",""
"","","","","","psychophysics","388","687992","0.0-16.1-0.1-0.24","1409","","d","","","","","","","","","","","","","key","d","8.3308788927334","768","428","d","true","img/C_28.png","朋友","prac_friend","","生人"
"","","","","","html-keyboard-response","389","688301","0.0-16.1-0.1-1.24","null","<span style='color:GreenYellow; font-size: 70px;'>正确! </span>","null","","","","","","","","","","","","","","","","","","","","","","","feedback_test",""
"","","","","","psychophysics","390","690045","0.0-16.1-0.1-0.25","737","","f","","","","","","","","","","","","","key","f","8.330894230769236","768","428","f","true","img/C_28.png","生人","prac_friend","","生人"
"","","","","","html-keyboard-response","391","690349","0.0-16.1-0.1-1.25","null","<span style='color:GreenYellow; font-size: 70px;'>正确! </span>","null","","","","","","","","","","","","","","","","","","","","","","","feedback_test",""
"","","","","","psychophysics","392","692248","0.0-16.1-0.1-0.26","899","","d","","","","","","","","","","","","","key","d","8.330707964601729","768","428","d","true","img/C_28.png","自我","prac_friend","","生人"
"","","","","","html-keyboard-response","393","692554","0.0-16.1-0.1-1.26","null","<span style='color:GreenYellow; font-size: 70px;'>正确! </span>","null","","","","","","","","","","","","","","","","","","","","","","","feedback_test",""
"","","","","","psychophysics","394","694376","0.0-16.1-0.1-0.27","820","","j","","","","","","","","","","","","","key","j","8.330788990825527","768","428","d","false","img/H_28.png","朋友","prac_friend","","自我"
"","","","","","html-keyboard-response","395","694690","0.0-16.1-0.1-1.27","null","<span style='color:red; font-size: 70px;'>错误! </span>","null","","","","","","","","","","","","","","","","","","","","","","","feedback_test",""
"","","","","","psychophysics","396","696331","0.0-16.1-0.1-0.28","639","","j","","","","","","","","","","","","","key","j","8.330907692307703","768","428","j","true","img/S_28.png","朋友","prac_friend","","朋友"
"","","","","","html-keyboard-response","397","696646","0.0-16.1-0.1-1.28","null","<span style='color:GreenYellow; font-size: 70px;'>正确! </span>","null","","","","","","","","","","","","","","","","","","","","","","","feedback_test",""
"","","","","","psychophysics","398","698720","0.0-16.1-0.1-0.29","1073","","f","","","","","","","","","","","","","key","f","8.337711382114017","768","428","f","true","img/H_28.png","自我","prac_friend","","自我"
"","","","","","html-keyboard-response","399","699029","0.0-16.1-0.1-1.29","null","<span style='color:GreenYellow; font-size: 70px;'>正确! </span>","null","","","","","","","","","","","","","","","","","","","","","","","feedback_test",""
"","","","","","psychophysics","400","701228","0.0-16.1-0.1-0.30","1198","","f","","","","","","","","","","","","","key","f","8.303389312977146","768","428","f","true","img/H_28.png","自我","prac_friend","","自我"
"","","","","","html-keyboard-response","401","701539","0.0-16.1-0.1-1.30","null","<span style='color:GreenYellow; font-size: 70px;'>正确! </span>","null","","","","","","","","","","","","","","","","","","","","","","","feedback_test",""
"","","","","","psychophysics","402","703577","0.0-16.1-0.1-0.31","1031","","d","","","","","","","","","","","","","key","d","8.330818930041014","768","428","k","false","img/S_28.png","自我","prac_friend","","朋友"
"","","","","","html-keyboard-response","403","703883","0.0-16.1-0.1-1.31","null","<span style='color:red; font-size: 70px;'>错误! </span>","null","","","","","","","","","","","","","","","","","","","","","","","feedback_test",""
"","","","","","psychophysics","404","706152","0.0-16.1-0.1-0.32","1266","","f","","","","","","","","","","","","","key","f","8.330520295203367","768","428","d","false","img/H_28.png","生人","prac_friend","","自我"
"","","","","","html-keyboard-response","405","706468","0.0-16.1-0.1-1.32","null","<span style='color:red; font-size: 70px;'>错误! </span>","null","","","","","","","","","","","","","","","","","","","","","","","feedback_test",""
"","","","","","psychophysics","406","708298","0.0-16.1-0.1-0.33","829","","f","","","","","","","","","","","","","key","f","8.338488479262896","768","428","f","true","img/C_28.png","生人","prac_friend","","生人"
"","","","","","html-keyboard-response","407","708603","0.0-16.1-0.1-1.33","null","<span style='color:GreenYellow; font-size: 70px;'>正确! </span>","null","","","","","","","","","","","","","","","","","","","","","","","feedback_test",""
"","","","","","psychophysics","408","710658","0.0-16.1-0.1-0.34","1048","","f","","","","","","","","","","","","","key","f","8.330628571428397","768","428","j","false","img/S_28.png","朋友","prac_friend","","朋友"
"","","","","","html-keyboard-response","409","710964","0.0-16.1-0.1-1.34","null","<span style='color:red; font-size: 70px;'>错误! </span>","null","","","","","","","","","","","","","","","","","","","","","","","feedback_test",""
"","","","","","psychophysics","410","712811","0.0-16.1-0.1-0.35","843","","k","","","","","","","","","","","","","key","k","8.330628959275572","768","428","k","true","img/S_28.png","生人","prac_friend","","朋友"
"","","","","","html-keyboard-response","411","713114","0.0-16.1-0.1-1.35","null","<span style='color:GreenYellow; font-size: 70px;'>正确! </span>","null","","","","","","","","","","","","","","","","","","","","","","","feedback_test",""
"","","","","","psychophysics","412","714865","0.0-16.1-0.1-0.36","746","","k","","","","","","","","","","","","","key","k","8.330617224880601","768","428","k","true","img/S_28.png","生人","prac_friend","","朋友"
"","","","","","html-keyboard-response","413","715178","0.0-16.1-0.1-1.36","null","<span style='color:GreenYellow; font-size: 70px;'>正确! </span>","null","","","","","","","","","","","","","","","","","","","","","","","feedback_test",""
"","","","","","psychophysics","414","717122","0.0-16.1-0.1-0.37","942","","f","","","","","","","","","","","","","key","f","8.330857758621027","768","428","f","true","img/H_28.png","自我","prac_friend","","自我"
"","","","","","html-keyboard-response","415","717428","0.0-16.1-0.1-1.37","null","<span style='color:GreenYellow; font-size: 70px;'>正确! </span>","null","","","","","","","","","","","","","","","","","","","","","","","feedback_test",""
"","","","","","psychophysics","416","719110","0.0-16.1-0.1-0.38","679","","f","","","","","","","","","","","","","key","f","8.33082587064698","768","428","f","true","img/C_28.png","生人","prac_friend","","生人"
"","","","","","html-keyboard-response","417","719415","0.0-16.1-0.1-1.38","null","<span style='color:GreenYellow; font-size: 70px;'>正确! </span>","null","","","","","","","","","","","","","","","","","","","","","","","feedback_test",""
"","","","","","psychophysics","418","721088","0.0-16.1-0.1-0.39","671","","f","","","","","","","","","","","","","key","f","8.372552763819273","768","428","j","false","img/S_28.png","朋友","prac_friend","","朋友"
"","","","","","html-keyboard-response","419","721401","0.0-16.1-0.1-1.39","null","<span style='color:red; font-size: 70px;'>错误! </span>","null","","","","","","","","","","","","","","","","","","","","","","","feedback_test",""
"","","","","","psychophysics","420","723886","0.0-16.1-0.1-0.40","1477","","d","","","","","","","","","","","","","key","d","8.330818181817877","768","428","d","true","img/H_28.png","朋友","prac_friend","","自我"
"","","","","","html-keyboard-response","421","724200","0.0-16.1-0.1-1.40","null","<span style='color:GreenYellow; font-size: 70px;'>正确! </span>","null","","","","","","","","","","","","","","","","","","","","","","","feedback_test",""
"","","","","","psychophysics","422","726210","0.0-16.1-0.1-0.41","1003","","f","","","","","","","","","","","","","key","f","8.330904166666732","768","428","d","false","img/C_28.png","自我","prac_friend","","生人"
"","","","","","html-keyboard-response","423","726515","0.0-16.1-0.1-1.41","null","<span style='color:red; font-size: 70px;'>错误! </span>","null","","","","","","","","","","","","","","","","","","","","","","","feedback_test",""
"","","","","","psychophysics","424","728343","0.0-16.1-0.1-0.42","820","","f","","","","","","","","","","","","","key","f","8.331119266055085","768","428","f","true","img/H_28.png","自我","prac_friend","","自我"
"","","","","","html-keyboard-response","425","728644","0.0-16.1-0.1-1.42","null","<span style='color:GreenYellow; font-size: 70px;'>正确! </span>","null","","","","","","","","","","","","","","","","","","","","","","","feedback_test",""
"","","","","","psychophysics","426","730778","0.0-16.1-0.1-0.43","1130","","k","","","","","","","","","","","","","key","k","8.330745098039088","768","428","k","true","img/S_28.png","自我","prac_friend","","朋友"
"","","","","","html-keyboard-response","427","731083","0.0-16.1-0.1-1.43","null","<span style='color:GreenYellow; font-size: 70px;'>正确! </span>","null","","","","","","","","","","","","","","","","","","","","","","","feedback_test",""
"","","","","","psychophysics","428","733042","0.0-16.1-0.1-0.44","953","","j","","","","","","","","","","","","","key","j","8.330611111111162","768","428","j","true","img/S_28.png","朋友","prac_friend","","朋友"
"","","","","","html-keyboard-response","429","733350","0.0-16.1-0.1-1.44","null","<span style='color:GreenYellow; font-size: 70px;'>正确! </span>","null","","","","","","","","","","","","","","","","","","","","","","","feedback_test",""
