"success","timeout","failed_images","failed_audio","failed_video","trial_type","trial_index","time_elapsed","internal_node_id","rt","stimulus","response","value","item_width_mm","item_height_mm","item_width_px","px2mm","view_dist_mm","item_width_deg","px2deg","scale_factor","win_width_deg","win_height_deg","view_history","response_type","key_press","avg_frame_time","center_x","center_y","correct_response","correct","Image","text","condition","screen_id","label"
"true","false","[]","[]","[]","preload","0","34","0.0-0.0","","","","","","","","","","","","","","","","","","","","","","","","","","",""
"","","","","","html-keyboard-response","1","2922","0.0-1.0","2887","
  <p>您好，欢迎参加本次实验。</p>
  <p>为充分保障您的权利，请确保您已经知晓并同意《参与实验同意书》以及《数据公开知情同意书》。</p>
  <p>如果您未见过上述内容，请咨询实验员。</p>
  <p>如果您选择继续实验，则表示您已经清楚两份知情同意书的内容并同意。</p>
  <p> <div style = ""color: green""><按任意键至下页></div> </p>
  ","s","","","","","","","","","","","","","","","","","","","","","","","",""
"","","","","","html-keyboard-response","2","3546","0.0-2.0","623","
  <p>本实验首先需要您填写一些基本个人信息。</p>
  <p> <div style = ""color: green""><按任意键至下页></div></p>
  ","s","","","","","","","","","","","","","","","","","","","","","","","",""
"","","","","","call-function","3","3546","0.0-3.0-0.0","","","","","","","","","","","","","","","","","","","","","","","","","","",""
"","","","","","survey-html-form","4","6097","0.0-3.0-1.0","2551","","{""Q0"":""29""}","","","","","","","","","","","","","","","","","","","","","","","",""
"","","","","","html-button-response","5","6841","0.0-3.0-2.0","742","<p style = 'color : white'>您的性别</p>","0","","","","","","","","","","","","","","","","","","","","","","","",""
"","","","","","survey-html-form","6","9434","0.0-3.0-3.0","2592","","{""Q0"":""2001""}","","","","","","","","","","","","","","","","","","","","","","","",""
"","","","","","survey-html-form","7","11393","0.0-3.0-4.0","1958","","{""Q0"":""5""}","","","","","","","","","","","","","","","","","","","","","","","",""
"","","","","","virtual-chinrest","8","32993","0.0-4.0","21053","","","","85.6","53.98","484.9160521322848","5.663819488905086","504.5","9.698321042645695","50","0.5155531537895969","37.52","18.88","","","","","","","","","","","","",""
"true","","","","","fullscreen","9","35419","0.0-5.0","","","","","","","","","","","","","","","","","","","","","","","","","","",""
"","","","","","instructions","10","45784","0.0-6.0","10364","","","","","","","","","","","","","","[{""page_index"":0,""viewing_time"":1100},{""page_index"":1,""viewing_time"":3191},{""page_index"":2,""viewing_time"":3648},{""page_index"":3,""viewing_time"":1432},{""page_index"":4,""viewing_time"":992}]","","","","","","","","","","","",""
"","","","","","instructions","11","52112","0.0-7.0","6327","","","","","","","","","","","","","","[{""page_index"":0,""viewing_time"":6326}]","","","","","","","","","","","",""
"","","","","","psychophysics","12","54665","0.0-8.0-0.0-0.0","1548","","j","","","","","","","","","","","","","key","j","19.48639999999997","960","536","j","true","img/C_28.png","生人","freeprac_self","",""
"","","","","","html-keyboard-response","13","54967","0.0-8.0-0.0-1.0","null","<span style='color:GreenYellow; font-size: 70px;'>正确! </span>","null","","","","","","","","","","","","","","","","","","","","","","","feedback_test",""
"","","","","","psychophysics","14","56622","0.0-8.0-0.0-0.1","653","","j","","","","","","","","","","","","","key","j","20.369555555555568","960","536","j","true","img/S_28.png","朋友","freeprac_self","",""
"","","","","","html-keyboard-response","15","56925","0.0-8.0-0.0-1.1","null","<span style='color:GreenYellow; font-size: 70px;'>正确! </span>","null","","","","","","","","","","","","","","","","","","","","","","","feedback_test",""
"","","","","","psychophysics","16","58986","0.0-8.0-0.0-0.2","1059","","f","","","","","","","","","","","","","key","f","18.484109090909094","960","536","f","true","img/H_28.png","自我","freeprac_self","",""
"","","","","","html-keyboard-response","17","59287","0.0-8.0-0.0-1.2","null","<span style='color:GreenYellow; font-size: 70px;'>正确! </span>","null","","","","","","","","","","","","","","","","","","","","","","","feedback_test",""
"","","","","","psychophysics","18","61689","0.0-8.0-0.0-0.3","1399","","d","","","","","","","","","","","","","key","d","20.027210084033655","960","536","d","true","img/H_28.png","生人","freeprac_self","",""
"","","","","","html-keyboard-response","19","61991","0.0-8.0-0.0-1.3","null","<span style='color:GreenYellow; font-size: 70px;'>正确! </span>","null","","","","","","","","","","","","","","","","","","","","","","","feedback_test",""
"","","","","","psychophysics","20","64913","0.0-8.0-0.0-0.4","1921","","k","","","","","","","","","","","","","key","k","18.953490196078466","960","536","k","true","img/C_28.png","朋友","freeprac_self","",""
"","","","","","html-keyboard-response","21","65215","0.0-8.0-0.0-1.4","null","<span style='color:GreenYellow; font-size: 70px;'>正确! </span>","null","","","","","","","","","","","","","","","","","","","","","","","feedback_test",""
"","","","","","psychophysics","22","67672","0.0-8.0-0.0-0.5","1456","","k","","","","","","","","","","","","","key","k","19.44366666666674","960","536","k","true","img/S_28.png","生人","freeprac_self","",""
"","","","","","html-keyboard-response","23","67974","0.0-8.0-0.0-1.5","null","<span style='color:GreenYellow; font-size: 70px;'>正确! </span>","null","","","","","","","","","","","","","","","","","","","","","","","feedback_test",""
"","","","","","psychophysics","24","70544","0.0-8.0-0.0-0.6","1568","","d","","","","","","","","","","","","","key","d","18.61239416058395","960","536","k","false","img/C_28.png","自我","freeprac_self","",""
"","","","","","html-keyboard-response","25","70847","0.0-8.0-0.0-1.6","null","<span style='color:red; font-size: 70px;'>错误! </span>","null","","","","","","","","","","","","","","","","","","","","","","","feedback_test",""
"","","","","","psychophysics","26","73538","0.0-8.0-0.0-0.7","1689","","k","","","","","","","","","","","","","key","k","19.87574814814822","960","536","d","false","img/H_28.png","朋友","freeprac_self","",""
"","","","","","html-keyboard-response","27","73840","0.0-8.0-0.0-1.7","null","<span style='color:red; font-size: 70px;'>错误! </span>","null","","","","","","","","","","","","","","","","","","","","","","","feedback_test",""
"","","","","","psychophysics","28","75961","0.0-8.0-0.0-0.8","1119","","f","","","","","","","","","","","","","key","f","19.62538317757007","960","536","f","true","img/H_28.png","自我","freeprac_self","",""
"","","","","","html-keyboard-response","29","76262","0.0-8.0-0.0-1.8","null","<span style='color:GreenYellow; font-size: 70px;'>正确! </span>","null","","","","","","","","","","","","","","","","","","","","","","","feedback_test",""
"","","","","","psychophysics","30","78816","0.0-8.0-0.0-0.9","1552","","k","","","","","","","","","","","","","key","k","19.790875000000028","960","536","j","false","img/S_28.png","朋友","freeprac_self","",""
"","","","","","html-keyboard-response","31","79118","0.0-8.0-0.0-1.9","null","<span style='color:red; font-size: 70px;'>错误! </span>","null","","","","","","","","","","","","","","","","","","","","","","","feedback_test",""
"","","","","","psychophysics","32","81616","0.0-8.0-0.0-0.10","1497","","k","","","","","","","","","","","","","key","k","19.101800000000086","960","536","k","true","img/S_28.png","自我","freeprac_self","",""
"","","","","","html-keyboard-response","33","81918","0.0-8.0-0.0-1.10","null","<span style='color:GreenYellow; font-size: 70px;'>正确! </span>","null","","","","","","","","","","","","","","","","","","","","","","","feedback_test",""
"","","","","","psychophysics","34","84072","0.0-8.0-0.0-0.11","1147","","j","","","","","","","","","","","","","key","j","18.694904347826125","960","536","j","true","img/C_28.png","生人","freeprac_self","",""
"","","","","","html-keyboard-response","35","84374","0.0-8.0-0.0-1.11","null","<span style='color:GreenYellow; font-size: 70px;'>正确! </span>","null","","","","","","","","","","","","","","","","","","","","","","","feedback_test",""
"","","","","","html-keyboard-response","36","85488","0.0-9.0","1111","[""<style>.context{color:white; font-size: 35px; line-height:40px}</style>           <div><p class='context'>您正确回答了75% 的试次。</p><p class='context'>您的平均反应时为1311毫秒。</p><p class='context'>恭喜您完成这一阶段的练习。按任意键进入<span style='color: yellow;'>重点关注图形为“朋友”</span>的练习。</p></div><p class='footer' style='font-size:35px; line-height:30px;'>任务要求：\n           <p class='footer' style='font-size:35px; line-height:35px;'>对于与“朋友”对应的图形：如果 匹配 ，请按 <span style=\""color: lightgreen;\"">f键</span></p><p class='footer' style='font-size:35px'>如果 不匹配 ，请按<span style=\""color: lightgreen;\"">d键</p></span>\n           <p class='footer' style='font-size:35px; line-height:35px;'>对于非“朋友”对应的图形：如果 匹配 ，请按 <span style=\""color: lightgreen;\"">j键</span></p><p class='footer' style='font-size:35px'>如果 不匹配 ，请按<span style=\""color: lightgreen;\"">k键</p></span>\n           <p class='footer' style='font-size:22px; line-height:25px;'>请在实验过程中将您的<span style=\""color: lightgreen;\"">食指和中指</span>放在电脑键盘的相应键位上进行按键。</p></span>""]","j","","","","","","","","","","","","","","","","","","","","","","","",""
"","","","","","psychophysics","37","88139","0.0-10.0-0.0-0.0","1644","","j","","","","","","","","","","","","","key","j","20.572093750000022","960","536","j","true","img/C_28.png","生人","freeprac_friend","",""
"","","","","","html-keyboard-response","38","88441","0.0-10.0-0.0-1.0","null","<span style='color:GreenYellow; font-size: 70px;'>正确! </span>","null","","","","","","","","","","","","","","","","","","","","","","","feedback_test",""
"","","","","","psychophysics","39","90312","0.0-10.0-0.0-0.1","869","","j","","","","","","","","","","","","","key","j","19.07140206185574","960","536","j","true","img/C_28.png","生人","freeprac_friend","",""
"","","","","","html-keyboard-response","40","90614","0.0-10.0-0.0-1.1","null","<span style='color:GreenYellow; font-size: 70px;'>正确! </span>","null","","","","","","","","","","","","","","","","","","","","","","","feedback_test",""
"","","","","","psychophysics","41","92588","0.0-10.0-0.0-0.2","975","","j","","","","","","","","","","","","","key","j","21.375956521739166","960","536","j","true","img/H_28.png","自我","freeprac_friend","",""
"","","","","","html-keyboard-response","42","92889","0.0-10.0-0.0-1.2","null","<span style='color:GreenYellow; font-size: 70px;'>正确! </span>","null","","","","","","","","","","","","","","","","","","","","","","","feedback_test",""
"","","","","","psychophysics","43","94772","0.0-10.0-0.0-0.3","881","","f","","","","","","","","","","","","","key","f","18.665920000000042","960","536","f","true","img/S_28.png","朋友","freeprac_friend","",""
"","","","","","html-keyboard-response","44","95074","0.0-10.0-0.0-1.3","null","<span style='color:GreenYellow; font-size: 70px;'>正确! </span>","null","","","","","","","","","","","","","","","","","","","","","","","feedback_test",""
"","","","","","psychophysics","45","97151","0.0-10.0-0.0-0.4","1074","","d","","","","","","","","","","","","","key","d","19.550500000000074","960","536","k","false","img/H_28.png","朋友","freeprac_friend","",""
"","","","","","html-keyboard-response","46","97452","0.0-10.0-0.0-1.4","null","<span style='color:red; font-size: 70px;'>错误! </span>","null","","","","","","","","","","","","","","","","","","","","","","","feedback_test",""
"","","","","","psychophysics","47","99956","0.0-10.0-0.0-0.5","1501","","k","","","","","","","","","","","","","key","k","18.9559847328244","960","536","k","true","img/C_28.png","朋友","freeprac_friend","",""
"","","","","","html-keyboard-response","48","100257","0.0-10.0-0.0-1.5","null","<span style='color:GreenYellow; font-size: 70px;'>正确! </span>","null","","","","","","","","","","","","","","","","","","","","","","","feedback_test",""
"","","","","","psychophysics","49","102268","0.0-10.0-0.0-0.6","1009","","j","","","","","","","","","","","","","key","j","19.801188118811865","960","536","j","true","img/H_28.png","自我","freeprac_friend","",""
"","","","","","html-keyboard-response","50","102569","0.0-10.0-0.0-1.6","null","<span style='color:GreenYellow; font-size: 70px;'>正确! </span>","null","","","","","","","","","","","","","","","","","","","","","","","feedback_test",""
"","","","","","psychophysics","51","105259","0.0-10.0-0.0-0.7","1688","","k","","","","","","","","","","","","","key","k","20.511999999999983","960","536","k","true","img/H_28.png","生人","freeprac_friend","",""
"","","","","","html-keyboard-response","52","105560","0.0-10.0-0.0-1.7","null","<span style='color:GreenYellow; font-size: 70px;'>正确! </span>","null","","","","","","","","","","","","","","","","","","","","","","","feedback_test",""
"","","","","","psychophysics","53","108291","0.0-10.0-0.0-0.8","1730","","k","","","","","","","","","","","","","key","k","19.403985714285643","960","536","d","false","img/S_28.png","自我","freeprac_friend","",""
"","","","","","html-keyboard-response","54","108594","0.0-10.0-0.0-1.8","null","<span style='color:red; font-size: 70px;'>错误! </span>","null","","","","","","","","","","","","","","","","","","","","","","","feedback_test",""
"","","","","","psychophysics","55","111292","0.0-10.0-0.0-0.9","1696","","f","","","","","","","","","","","","","key","f","19.165899999999965","960","536","f","true","img/S_28.png","朋友","freeprac_friend","",""
"","","","","","html-keyboard-response","56","111594","0.0-10.0-0.0-1.9","null","<span style='color:GreenYellow; font-size: 70px;'>正确! </span>","null","","","","","","","","","","","","","","","","","","","","","","","feedback_test",""
"","","","","","psychophysics","57","114452","0.0-10.0-0.0-0.10","1857","","k","","","","","","","","","","","","","key","k","20.802087591240866","960","536","k","true","img/C_28.png","自我","freeprac_friend","",""
"","","","","","html-keyboard-response","58","114754","0.0-10.0-0.0-1.10","null","<span style='color:GreenYellow; font-size: 70px;'>正确! </span>","null","","","","","","","","","","","","","","","","","","","","","","","feedback_test",""
"","","","","","psychophysics","59","117259","0.0-10.0-0.0-0.11","1503","","k","","","","","","","","","","","","","key","k","19.553023622047217","960","536","d","false","img/S_28.png","生人","freeprac_friend","",""
"","","","","","html-keyboard-response","60","117561","0.0-10.0-0.0-1.11","null","<span style='color:red; font-size: 70px;'>错误! </span>","null","","","","","","","","","","","","","","","","","","","","","","","feedback_test",""
"","","","","","html-keyboard-response","61","118467","0.0-11.0","904","[""<style>.context{color:white; font-size: 35px; line-height:40px}</style>               <div><p class='context'>您正确回答了75% 的试次。</p><p class='context'>您的平均反应时为1347毫秒。</p><p class='context'>恭喜您完成这一阶段的练习。按任意键进入<span style='color: yellow;'>重点关注图形为“生人”</span>的练习。</p></div><p class='footer' style='font-size:35px; line-height:30px;'>任务要求：\n               <p class='footer' style='font-size:35px; line-height:35px;'>对与“生人”对应的图形，如果 匹配 ，请按 <span style=\""color: lightgreen;\"">f键</span></p><p class='footer' style='font-size:35px'>如果 不匹配 ，请按<span style=\""color: lightgreen;\"">d键</p></span>\n               <p class='footer' style='font-size:35px; line-height:35px;'>对非“生人”对应的图形，如果 匹配 ，请按 <span style=\""color: lightgreen;\"">j键</span></p><p class='footer' style='font-size:35px'>如果 不匹配 ，请按<span style=\""color: lightgreen;\"">k键</p></span>\n               <p class='footer' style='font-size:22px; line-height:25px;'>请在实验过程中将您的<span style=\""color: lightgreen;\"">食指和中指</span>放在电脑键盘的相应键位上进行按键。</p></span>""]","k","","","","","","","","","","","","","","","","","","","","","","","",""
"","","","","","psychophysics","62","121276","0.0-12.0-0.0-0.0","1799","","k","","","","","","","","","","","","","key","k","19.463090909090973","960","536","d","false","img/C_28.png","自我","freeprac_stranger","",""
"","","","","","html-keyboard-response","63","121578","0.0-12.0-0.0-1.0","null","<span style='color:red; font-size: 70px;'>错误! </span>","null","","","","","","","","","","","","","","","","","","","","","","","feedback_test",""
"","","","","","psychophysics","64","124364","0.0-12.0-0.0-0.1","1784","","k","","","","","","","","","","","","","key","k","19.482788732394344","960","536","d","false","img/C_28.png","朋友","freeprac_stranger","",""
"","","","","","html-keyboard-response","65","124667","0.0-12.0-0.0-1.1","null","<span style='color:red; font-size: 70px;'>错误! </span>","null","","","","","","","","","","","","","","","","","","","","","","","feedback_test",""
"","","","","","psychophysics","66","127437","0.0-12.0-0.0-0.2","1768","","k","","","","","","","","","","","","","key","k","18.455637583892614","960","536","k","true","img/H_28.png","生人","freeprac_stranger","",""
"","","","","","html-keyboard-response","67","127739","0.0-12.0-0.0-1.2","null","<span style='color:GreenYellow; font-size: 70px;'>正确! </span>","null","","","","","","","","","","","","","","","","","","","","","","","feedback_test",""
"","","","","","psychophysics","68","130579","0.0-12.0-0.0-0.3","1839","","k","","","","","","","","","","","","","key","k","18.777026666666693","960","536","k","true","img/S_28.png","生人","freeprac_stranger","",""
"","","","","","html-keyboard-response","69","130881","0.0-12.0-0.0-1.3","null","<span style='color:GreenYellow; font-size: 70px;'>正确! </span>","null","","","","","","","","","","","","","","","","","","","","","","","feedback_test",""
"","","","","","psychophysics","70","133487","0.0-12.0-0.0-0.4","1604","","k","","","","","","","","","","","","","key","k","19.42278195488719","960","536","k","true","img/H_28.png","朋友","freeprac_stranger","",""
"","","","","","html-keyboard-response","71","133789","0.0-12.0-0.0-1.4","null","<span style='color:GreenYellow; font-size: 70px;'>正确! </span>","null","","","","","","","","","","","","","","","","","","","","","","","feedback_test",""
"","","","","","psychophysics","72","136380","0.0-12.0-0.0-0.5","1589","","j","","","","","","","","","","","","","key","j","19.011585185185282","960","536","j","true","img/S_28.png","朋友","freeprac_stranger","",""
"","","","","","html-keyboard-response","73","136683","0.0-12.0-0.0-1.5","null","<span style='color:GreenYellow; font-size: 70px;'>正确! </span>","null","","","","","","","","","","","","","","","","","","","","","","","feedback_test",""
"","","","","","psychophysics","74","139139","0.0-12.0-0.0-0.6","1455","","k","","","","","","","","","","","","","key","k","20.1093884297521","960","536","k","true","img/S_28.png","自我","freeprac_stranger","",""
"","","","","","html-keyboard-response","75","139441","0.0-12.0-0.0-1.6","null","<span style='color:GreenYellow; font-size: 70px;'>正确! </span>","null","","","","","","","","","","","","","","","","","","","","","","","feedback_test",""
"","","","","","psychophysics","76","141931","0.0-12.0-0.0-0.7","1488","","j","","","","","","","","","","","","","key","j","20.053398373983732","960","536","j","true","img/H_28.png","自我","freeprac_stranger","",""
"","","","","","html-keyboard-response","77","142234","0.0-12.0-0.0-1.7","null","<span style='color:GreenYellow; font-size: 70px;'>正确! </span>","null","","","","","","","","","","","","","","","","","","","","","","","feedback_test",""
"","","","","","psychophysics","78","144211","0.0-12.0-0.0-0.8","975","","f","","","","","","","","","","","","","key","f","19.499219999999912","960","536","f","true","img/C_28.png","生人","freeprac_stranger","",""
"","","","","","html-keyboard-response","79","144512","0.0-12.0-0.0-1.8","null","<span style='color:GreenYellow; font-size: 70px;'>正确! </span>","null","","","","","","","","","","","","","","","","","","","","","","","feedback_test",""
"","","","","","psychophysics","80","147523","0.0-12.0-0.0-0.9","2010","","j","","","","","","","","","","","","","key","j","19.75638410596012","960","536","j","true","img/S_28.png","朋友","freeprac_stranger","",""
"","","","","","html-keyboard-response","81","147826","0.0-12.0-0.0-1.9","null","<span style='color:GreenYellow; font-size: 70px;'>正确! </span>","null","","","","","","","","","","","","","","","","","","","","","","","feedback_test",""
"","","","","","psychophysics","82","150467","0.0-12.0-0.0-0.10","1639","","j","","","","","","","","","","","","","key","j","19.526582089552278","960","536","j","true","img/H_28.png","自我","freeprac_stranger","",""
"","","","","","html-keyboard-response","83","150769","0.0-12.0-0.0-1.10","null","<span style='color:GreenYellow; font-size: 70px;'>正确! </span>","null","","","","","","","","","","","","","","","","","","","","","","","feedback_test",""
"","","","","","psychophysics","84","153235","0.0-12.0-0.0-0.11","1466","","j","","","","","","","","","","","","","key","j","18.420315789473698","960","536","f","false","img/C_28.png","生人","freeprac_stranger","",""
"","","","","","html-keyboard-response","85","153536","0.0-12.0-0.0-1.11","null","<span style='color:red; font-size: 70px;'>错误! </span>","null","","","","","","","","","","","","","","","","","","","","","","","feedback_test",""
"","","","","","instructions","86","171833","0.0-13.0","18295","","","","","","","","","","","","","","[{""page_index"":0,""viewing_time"":18295}]","","","","","","","","","","","",""
"","","","","","psychophysics","87","174338","0.0-14.0-0.0-0.0","null","","null","","","","","","","","","","","","","key","null","18.670932330827043","960","536","k","false","img/S_28.png","自我","prac_self","","朋友"
"","","","","","html-keyboard-response","88","174640","0.0-14.0-0.0-1.0","null","<span class='add_' style='color:yellow; font-size: 70px;'> 太慢! </span>","null","","","","","","","","","","","","","","","","","","","","","","","feedback_test",""
"","","","","","psychophysics","89","176736","0.0-14.0-0.0-0.1","1095","","f","","","","","","","","","","","","","key","f","19.840476190476192","960","536","f","true","img/H_28.png","自我","prac_self","","自我"
"","","","","","html-keyboard-response","90","177037","0.0-14.0-0.0-1.1","null","<span style='color:GreenYellow; font-size: 70px;'>正确! </span>","null","","","","","","","","","","","","","","","","","","","","","","","feedback_test",""
"","","","","","psychophysics","91","179545","0.0-14.0-0.0-0.2","null","","null","","","","","","","","","","","","","key","null","18.3943259259259","960","536","d","false","img/H_28.png","朋友","prac_self","","自我"
"","","","","","html-keyboard-response","92","179847","0.0-14.0-0.0-1.2","null","<span class='add_' style='color:yellow; font-size: 70px;'> 太慢! </span>","null","","","","","","","","","","","","","","","","","","","","","","","feedback_test",""
"","","","","","psychophysics","93","181787","0.0-14.0-0.0-0.3","938","","j","","","","","","","","","","","","","key","j","20.83249999999996","960","536","j","true","img/S_28.png","朋友","prac_self","","朋友"
"","","","","","html-keyboard-response","94","182088","0.0-14.0-0.0-1.3","null","<span style='color:GreenYellow; font-size: 70px;'>正确! </span>","null","","","","","","","","","","","","","","","","","","","","","","","feedback_test",""
"","","","","","psychophysics","95","184063","0.0-14.0-0.0-0.4","973","","k","","","","","","","","","","","","","key","k","18.74924999999992","960","536","k","true","img/S_28.png","生人","prac_self","","朋友"
"","","","","","html-keyboard-response","96","184365","0.0-14.0-0.0-1.4","null","<span style='color:GreenYellow; font-size: 70px;'>正确! </span>","null","","","","","","","","","","","","","","","","","","","","","","","feedback_test",""
"","","","","","psychophysics","97","186823","0.0-14.0-0.0-0.5","1456","","k","","","","","","","","","","","","","key","k","20.654444444444504","960","536","k","true","img/C_28.png","朋友","prac_self","","生人"
"","","","","","html-keyboard-response","98","187126","0.0-14.0-0.0-1.5","null","<span style='color:GreenYellow; font-size: 70px;'>正确! </span>","null","","","","","","","","","","","","","","","","","","","","","","","feedback_test",""
"","","","","","psychophysics","99","189527","0.0-14.0-0.0-0.6","1399","","j","","","","","","","","","","","","","key","j","18.932575999999884","960","536","k","false","img/C_28.png","自我","prac_self","","生人"
"","","","","","html-keyboard-response","100","189828","0.0-14.0-0.0-1.6","null","<span style='color:red; font-size: 70px;'>错误! </span>","null","","","","","","","","","","","","","","","","","","","","","","","feedback_test",""
"","","","","","psychophysics","101","192273","0.0-14.0-0.0-0.7","1443","","k","","","","","","","","","","","","","key","k","19.80795081967219","960","536","j","false","img/S_28.png","朋友","prac_self","","朋友"
"","","","","","html-keyboard-response","102","192575","0.0-14.0-0.0-1.7","null","<span style='color:red; font-size: 70px;'>错误! </span>","null","","","","","","","","","","","","","","","","","","","","","","","feedback_test",""
"","","","","","psychophysics","103","194679","0.0-14.0-0.0-0.8","1102","","j","","","","","","","","","","","","","key","j","18.959486238532133","960","536","j","true","img/C_28.png","生人","prac_self","","生人"
"","","","","","html-keyboard-response","104","194982","0.0-14.0-0.0-1.8","null","<span style='color:GreenYellow; font-size: 70px;'>正确! </span>","null","","","","","","","","","","","","","","","","","","","","","","","feedback_test",""
"","","","","","psychophysics","105","197207","0.0-14.0-0.0-0.9","1224","","f","","","","","","","","","","","","","key","f","19.129669565217487","960","536","f","true","img/H_28.png","自我","prac_self","","自我"
"","","","","","html-keyboard-response","106","197509","0.0-14.0-0.0-1.9","null","<span style='color:GreenYellow; font-size: 70px;'>正确! </span>","null","","","","","","","","","","","","","","","","","","","","","","","feedback_test",""
"","","","","","psychophysics","107","199520","0.0-14.0-0.0-0.10","1009","","j","","","","","","","","","","","","","key","j","18.194990825688215","960","536","j","true","img/C_28.png","生人","prac_self","","生人"
"","","","","","html-keyboard-response","108","199822","0.0-14.0-0.0-1.10","null","<span style='color:GreenYellow; font-size: 70px;'>正确! </span>","null","","","","","","","","","","","","","","","","","","","","","","","feedback_test",""
"","","","","","psychophysics","109","202047","0.0-14.0-0.0-0.11","1222","","k","","","","","","","","","","","","","key","k","19.819027027026866","960","536","d","false","img/H_28.png","生人","prac_self","","自我"
"","","","","","html-keyboard-response","110","202349","0.0-14.0-0.0-1.11","null","<span style='color:red; font-size: 70px;'>错误! </span>","null","","","","","","","","","","","","","","","","","","","","","","","feedback_test",""
"","","","","","psychophysics","111","204816","0.0-14.0-0.0-0.12","1464","","d","","","","","","","","","","","","","key","d","18.433606060606095","960","536","d","true","img/H_28.png","朋友","prac_self","","自我"
"","","","","","html-keyboard-response","112","205118","0.0-14.0-0.0-1.12","null","<span style='color:GreenYellow; font-size: 70px;'>正确! </span>","null","","","","","","","","","","","","","","","","","","","","","","","feedback_test",""
"","","","","","psychophysics","113","207175","0.0-14.0-0.0-0.13","1055","","f","","","","","","","","","","","","","key","f","20.332519999999786","960","536","f","true","img/H_28.png","自我","prac_self","","自我"
"","","","","","html-keyboard-response","114","207476","0.0-14.0-0.0-1.13","null","<span style='color:GreenYellow; font-size: 70px;'>正确! </span>","null","","","","","","","","","","","","","","","","","","","","","","","feedback_test",""
"","","","","","psychophysics","115","209823","0.0-14.0-0.0-0.14","1344","","d","","","","","","","","","","","","","key","d","18.715098360655723","960","536","k","false","img/S_28.png","自我","prac_self","","朋友"
"","","","","","html-keyboard-response","116","210124","0.0-14.0-0.0-1.14","null","<span style='color:red; font-size: 70px;'>错误! </span>","null","","","","","","","","","","","","","","","","","","","","","","","feedback_test",""
"","","","","","psychophysics","117","212563","0.0-14.0-0.0-0.15","1441","","k","","","","","","","","","","","","","key","k","19.67134426229516","960","536","d","false","img/H_28.png","生人","prac_self","","自我"
"","","","","","html-keyboard-response","118","212865","0.0-14.0-0.0-1.15","null","<span style='color:red; font-size: 70px;'>错误! </span>","null","","","","","","","","","","","","","","","","","","","","","","","feedback_test",""
"","","","","","psychophysics","119","215363","0.0-14.0-0.0-0.16","1496","","k","","","","","","","","","","","","","key","k","19.89167741935483","960","536","k","true","img/S_28.png","生人","prac_self","","朋友"
"","","","","","html-keyboard-response","120","215664","0.0-14.0-0.0-1.16","null","<span style='color:GreenYellow; font-size: 70px;'>正确! </span>","null","","","","","","","","","","","","","","","","","","","","","","","feedback_test",""
"","","","","","psychophysics","121","217651","0.0-14.0-0.0-0.17","985","","j","","","","","","","","","","","","","key","j","19.66588000000018","960","536","j","true","img/S_28.png","朋友","prac_self","","朋友"
"","","","","","html-keyboard-response","122","217952","0.0-14.0-0.0-1.17","null","<span style='color:GreenYellow; font-size: 70px;'>正确! </span>","null","","","","","","","","","","","","","","","","","","","","","","","feedback_test",""
"","","","","","psychophysics","123","219685","0.0-14.0-0.0-0.18","730","","j","","","","","","","","","","","","","key","j","18.88813333333334","960","536","j","true","img/C_28.png","生人","prac_self","","生人"
"","","","","","html-keyboard-response","124","219987","0.0-14.0-0.0-1.18","null","<span style='color:GreenYellow; font-size: 70px;'>正确! </span>","null","","","","","","","","","","","","","","","","","","","","","","","feedback_test",""
"","","","","","psychophysics","125","222442","0.0-14.0-0.0-0.19","1454","","k","","","","","","","","","","","","","key","k","19.62287096774197","960","536","k","true","img/C_28.png","朋友","prac_self","","生人"
"","","","","","html-keyboard-response","126","222745","0.0-14.0-0.0-1.19","null","<span style='color:GreenYellow; font-size: 70px;'>正确! </span>","null","","","","","","","","","","","","","","","","","","","","","","","feedback_test",""
"","","","","","psychophysics","127","225043","0.0-14.0-0.0-0.20","1296","","j","","","","","","","","","","","","","key","j","20.205681415929188","960","536","j","true","img/C_28.png","生人","prac_self","","生人"
"","","","","","html-keyboard-response","128","225344","0.0-14.0-0.0-1.20","null","<span style='color:GreenYellow; font-size: 70px;'>正确! </span>","null","","","","","","","","","","","","","","","","","","","","","","","feedback_test",""
"","","","","","psychophysics","129","227403","0.0-14.0-0.0-0.21","1056","","f","","","","","","","","","","","","","key","f","18.467729729729776","960","536","f","true","img/H_28.png","自我","prac_self","","自我"
"","","","","","html-keyboard-response","130","227705","0.0-14.0-0.0-1.21","null","<span style='color:GreenYellow; font-size: 70px;'>正确! </span>","null","","","","","","","","","","","","","","","","","","","","","","","feedback_test",""
"","","","","","psychophysics","131","230208","0.0-14.0-0.0-0.22","null","","null","","","","","","","","","","","","","key","null","19.101799999999976","960","536","k","false","img/C_28.png","自我","prac_self","","生人"
"","","","","","html-keyboard-response","132","230509","0.0-14.0-0.0-1.22","null","<span class='add_' style='color:yellow; font-size: 70px;'> 太慢! </span>","null","","","","","","","","","","","","","","","","","","","","","","","feedback_test",""
"","","","","","psychophysics","133","232786","0.0-14.0-0.0-0.23","1275","","d","","","","","","","","","","","","","key","d","19.539448275862078","960","536","j","false","img/S_28.png","朋友","prac_self","","朋友"
"","","","","","html-keyboard-response","134","233088","0.0-14.0-0.0-1.23","null","<span style='color:red; font-size: 70px;'>错误! </span>","null","","","","","","","","","","","","","","","","","","","","","","","feedback_test",""
"","","","","","html-keyboard-response","135","234754","0.0-14.0-1.0-0.0","1664","<style>.context{color:white; font-size: 35px; line-height:40px}</style>                           <div><p class='context'>您正确回答了63% 的试次。</p><p class='context'>您的平均反应时为1156毫秒。</p>","j","","","","","","","","","","","","","","","","","","","","","","","",""
"","","","","","instructions","136","239274","0.0-14.0-1.0-1.0","4515","","","","","","","","","","","","","","[{""page_index"":0,""viewing_time"":2348},{""page_index"":1,""viewing_time"":1183},{""page_index"":2,""viewing_time"":984}]","","","","","","","","","","","",""
"","","","","","psychophysics","137","241643","0.0-14.1-0.1-0.24","1366","","j","","","","","","","","","","","","","key","j","19.74710924369738","960","536","j","true","img/S_28.png","朋友","prac_self","","朋友"
"","","","","","html-keyboard-response","138","241945","0.0-14.1-0.1-1.24","null","<span style='color:GreenYellow; font-size: 70px;'>正确! </span>","null","","","","","","","","","","","","","","","","","","","","","","","feedback_test",""
"","","","","","psychophysics","139","243994","0.0-14.1-0.1-0.25","1048","","k","","","","","","","","","","","","","key","k","19.93384313725498","960","536","d","false","img/H_28.png","生人","prac_self","","自我"
"","","","","","html-keyboard-response","140","244302","0.0-14.1-0.1-1.25","null","<span style='color:red; font-size: 70px;'>错误! </span>","null","","","","","","","","","","","","","","","","","","","","","","","feedback_test",""
"","","","","","psychophysics","141","246362","0.0-14.1-0.1-0.26","1059","","j","","","","","","","","","","","","","key","j","19.181622641509232","960","536","j","true","img/C_28.png","生人","prac_self","","生人"
"","","","","","html-keyboard-response","142","246664","0.0-14.1-0.1-1.26","null","<span style='color:GreenYellow; font-size: 70px;'>正确! </span>","null","","","","","","","","","","","","","","","","","","","","","","","feedback_test",""
"","","","","","psychophysics","143","248939","0.0-14.1-0.1-0.27","1273","","f","","","","","","","","","","","","","key","f","19.73605263157898","960","536","f","true","img/H_28.png","自我","prac_self","","自我"
"","","","","","html-keyboard-response","144","249240","0.0-14.1-0.1-1.27","null","<span style='color:GreenYellow; font-size: 70px;'>正确! </span>","null","","","","","","","","","","","","","","","","","","","","","","","feedback_test",""
"","","","","","psychophysics","145","251682","0.0-14.1-0.1-0.28","1440","","k","","","","","","","","","","","","","key","k","19.64691056910551","960","536","k","true","img/C_28.png","自我","prac_self","","生人"
"","","","","","html-keyboard-response","146","251984","0.0-14.1-0.1-1.28","null","<span style='color:GreenYellow; font-size: 70px;'>正确! </span>","null","","","","","","","","","","","","","","","","","","","","","","","feedback_test",""
"","","","","","psychophysics","147","253922","0.0-14.1-0.1-0.29","936","","f","","","","","","","","","","","","","key","f","20.389255319148898","960","536","f","true","img/H_28.png","自我","prac_self","","自我"
"","","","","","html-keyboard-response","148","254223","0.0-14.1-0.1-1.29","null","<span style='color:GreenYellow; font-size: 70px;'>正确! </span>","null","","","","","","","","","","","","","","","","","","","","","","","feedback_test",""
"","","","","","psychophysics","149","256730","0.0-14.1-0.1-0.30","null","","null","","","","","","","","","","","","","key","null","18.53159701492535","960","536","d","false","img/H_28.png","朋友","prac_self","","自我"
"","","","","","html-keyboard-response","150","257032","0.0-14.1-0.1-1.30","null","<span class='add_' style='color:yellow; font-size: 70px;'> 太慢! </span>","null","","","","","","","","","","","","","","","","","","","","","","","feedback_test",""
"","","","","","psychophysics","151","259258","0.0-14.1-0.1-0.31","1225","","j","","","","","","","","","","","","","key","j","19.615734513274155","960","536","j","true","img/C_28.png","生人","prac_self","","生人"
"","","","","","html-keyboard-response","152","259560","0.0-14.1-0.1-1.31","null","<span style='color:GreenYellow; font-size: 70px;'>正确! </span>","null","","","","","","","","","","","","","","","","","","","","","","","feedback_test",""
"","","","","","psychophysics","153","261730","0.0-14.1-0.1-0.32","1169","","k","","","","","","","","","","","","","key","k","19.195660714285623","960","536","k","true","img/S_28.png","自我","prac_self","","朋友"
"","","","","","html-keyboard-response","154","262031","0.0-14.1-0.1-1.32","null","<span style='color:GreenYellow; font-size: 70px;'>正确! </span>","null","","","","","","","","","","","","","","","","","","","","","","","feedback_test",""
"","","","","","psychophysics","155","264220","0.0-14.1-0.1-0.33","1187","","j","","","","","","","","","","","","","key","j","19.49326785714298","960","536","j","true","img/S_28.png","朋友","prac_self","","朋友"
"","","","","","html-keyboard-response","156","264522","0.0-14.1-0.1-1.33","null","<span style='color:GreenYellow; font-size: 70px;'>正确! </span>","null","","","","","","","","","","","","","","","","","","","","","","","feedback_test",""
"","","","","","psychophysics","157","266610","0.0-14.1-0.1-0.34","1086","","k","","","","","","","","","","","","","key","k","20.260627450980703","960","536","k","true","img/S_28.png","生人","prac_self","","朋友"
"","","","","","html-keyboard-response","158","266911","0.0-14.1-0.1-1.34","null","<span style='color:GreenYellow; font-size: 70px;'>正确! </span>","null","","","","","","","","","","","","","","","","","","","","","","","feedback_test",""
"","","","","","psychophysics","159","269042","0.0-14.1-0.1-0.35","1129","","k","","","","","","","","","","","","","key","k","19.241654545454498","960","536","k","true","img/C_28.png","朋友","prac_self","","生人"
"","","","","","html-keyboard-response","160","269344","0.0-14.1-0.1-1.35","null","<span style='color:GreenYellow; font-size: 70px;'>正确! </span>","null","","","","","","","","","","","","","","","","","","","","","","","feedback_test",""
"","","","","","psychophysics","161","270978","0.0-14.1-0.1-0.36","631","","f","","","","","","","","","","","","","key","f","20.207525000000167","960","536","f","true","img/H_28.png","自我","prac_self","","自我"
"","","","","","html-keyboard-response","162","271280","0.0-14.1-0.1-1.36","null","<span style='color:GreenYellow; font-size: 70px;'>正确! </span>","null","","","","","","","","","","","","","","","","","","","","","","","feedback_test",""
"","","","","","psychophysics","163","273369","0.0-14.1-0.1-0.37","1089","","k","","","","","","","","","","","","","key","k","18.4358407079646","960","536","k","true","img/S_28.png","生人","prac_self","","朋友"
"","","","","","html-keyboard-response","164","273671","0.0-14.1-0.1-1.37","null","<span style='color:GreenYellow; font-size: 70px;'>正确! </span>","null","","","","","","","","","","","","","","","","","","","","","","","feedback_test",""
"","","","","","psychophysics","165","275862","0.0-14.1-0.1-0.38","1189","","k","","","","","","","","","","","","","key","k","19.696181818181966","960","536","d","false","img/H_28.png","朋友","prac_self","","自我"
"","","","","","html-keyboard-response","166","276163","0.0-14.1-0.1-1.38","null","<span style='color:red; font-size: 70px;'>错误! </span>","null","","","","","","","","","","","","","","","","","","","","","","","feedback_test",""
"","","","","","psychophysics","167","278519","0.0-14.1-0.1-0.39","1353","","k","","","","","","","","","","","","","key","k","19.443666666667074","960","536","k","true","img/S_28.png","自我","prac_self","","朋友"
"","","","","","html-keyboard-response","168","278820","0.0-14.1-0.1-1.39","null","<span style='color:GreenYellow; font-size: 70px;'>正确! </span>","null","","","","","","","","","","","","","","","","","","","","","","","feedback_test",""
"","","","","","psychophysics","169","281038","0.0-14.1-0.1-0.40","1217","","k","","","","","","","","","","","","","key","k","20.753886792452935","960","536","k","true","img/C_28.png","朋友","prac_self","","生人"
"","","","","","html-keyboard-response","170","281341","0.0-14.1-0.1-1.40","null","<span style='color:GreenYellow; font-size: 70px;'>正确! </span>","null","","","","","","","","","","","","","","","","","","","","","","","feedback_test",""
"","","","","","psychophysics","171","283335","0.0-14.1-0.1-0.41","993","","f","","","","","","","","","","","","","key","f","19.443666666666818","960","536","f","true","img/H_28.png","自我","prac_self","","自我"
"","","","","","html-keyboard-response","172","283636","0.0-14.1-0.1-1.41","null","<span style='color:GreenYellow; font-size: 70px;'>正确! </span>","null","","","","","","","","","","","","","","","","","","","","","","","feedback_test",""
"","","","","","psychophysics","173","285919","0.0-14.1-0.1-0.42","1280","","j","","","","","","","","","","","","","key","j","19.882245614035096","960","536","j","true","img/S_28.png","朋友","prac_self","","朋友"
"","","","","","html-keyboard-response","174","286222","0.0-14.1-0.1-1.42","null","<span style='color:GreenYellow; font-size: 70px;'>正确! </span>","null","","","","","","","","","","","","","","","","","","","","","","","feedback_test",""
"","","","","","psychophysics","175","287838","0.0-14.1-0.1-0.43","614","","j","","","","","","","","","","","","","key","j","19.51141463414689","960","536","j","true","img/C_28.png","生人","prac_self","","生人"
"","","","","","html-keyboard-response","176","288141","0.0-14.1-0.1-1.43","null","<span style='color:GreenYellow; font-size: 70px;'>正确! </span>","null","","","","","","","","","","","","","","","","","","","","","","","feedback_test",""
"","","","","","psychophysics","177","290102","0.0-14.1-0.1-0.44","961","","j","","","","","","","","","","","","","key","j","19.116882352941378","960","536","j","true","img/S_28.png","朋友","prac_self","","朋友"
"","","","","","html-keyboard-response","178","290404","0.0-14.1-0.1-1.44","null","<span style='color:GreenYellow; font-size: 70px;'>正确! </span>","null","","","","","","","","","","","","","","","","","","","","","","","feedback_test",""
"","","","","","psychophysics","179","292839","0.0-14.1-0.1-0.45","1432","","j","","","","","","","","","","","","","key","j","19.332560000000054","960","536","k","false","img/C_28.png","自我","prac_self","","生人"
"","","","","","html-keyboard-response","180","293141","0.0-14.1-0.1-1.45","null","<span style='color:red; font-size: 70px;'>错误! </span>","null","","","","","","","","","","","","","","","","","","","","","","","feedback_test",""
"","","","","","psychophysics","181","295644","0.0-14.1-0.1-0.46","null","","null","","","","","","","","","","","","","key","null","18.973600000000218","960","536","d","false","img/H_28.png","生人","prac_self","","自我"
"","","","","","html-keyboard-response","182","295946","0.0-14.1-0.1-1.46","null","<span class='add_' style='color:yellow; font-size: 70px;'> 太慢! </span>","null","","","","","","","","","","","","","","","","","","","","","","","feedback_test",""
"","","","","","psychophysics","183","298449","0.0-14.1-0.1-0.47","null","","null","","","","","","","","","","","","","key","null","19.421795275590775","960","536","j","false","img/C_28.png","生人","prac_self","","生人"
"","","","","","html-keyboard-response","184","298751","0.0-14.1-0.1-1.47","null","<span class='add_' style='color:yellow; font-size: 70px;'> 太慢! </span>","null","","","","","","","","","","","","","","","","","","","","","","","feedback_test",""
"","","","","","html-keyboard-response","185","305270","0.0-15.0","6517","[""<style>.context{color:white; font-size: 35px; line-height:40px}</style>           <div><p class='context'>您正确回答了75% 的试次。</p><p class='context'>您的平均反应时为1112毫秒。</p><p class='context'>恭喜您完成这一阶段的练习。按任意键进入<span style='color: yellow;'>重点关注图形为“朋友”</span>的练习。</p></div><p class='footer' style='font-size:35px; line-height:30px;'>任务要求：\n           <p class='footer' style='font-size:35px; line-height:35px;'>对于与“朋友”对应的图形：如果 匹配 ，请按 <span style=\""color: lightgreen;\"">f键</span></p><p class='footer' style='font-size:35px'>如果 不匹配 ，请按<span style=\""color: lightgreen;\"">d键</p></span>\n           <p class='footer' style='font-size:35px; line-height:35px;'>对于非“朋友”对应的图形：如果 匹配 ，请按 <span style=\""color: lightgreen;\"">j键</span></p><p class='footer' style='font-size:35px'>如果 不匹配 ，请按<span style=\""color: lightgreen;\"">k键</p></span>\n           <p class='footer' style='font-size:22px; line-height:25px;'>请在实验过程中将您的<span style=\""color: lightgreen;\"">食指和中指</span>放在电脑键盘的相应键位上进行按键。</p></span>""]","j","","","","","","","","","","","","","","","","","","","","","","","",""
"","","","","","psychophysics","186","307606","0.0-16.0-0.0-0.0","1327","","k","","","","","","","","","","","","","key","k","20.320824561403704","960","536","k","true","img/H_28.png","生人","prac_friend","","自我"
"","","","","","html-keyboard-response","187","307908","0.0-16.0-0.0-1.0","null","<span style='color:GreenYellow; font-size: 70px;'>正确! </span>","null","","","","","","","","","","","","","","","","","","","","","","","feedback_test",""
"","","","","","psychophysics","188","309622","0.0-16.0-0.0-0.1","711","","f","","","","","","","","","","","","","key","f","19.100359550562132","960","536","k","false","img/C_28.png","朋友","prac_friend","","生人"
"","","","","","html-keyboard-response","189","309923","0.0-16.0-0.0-1.1","null","<span style='color:red; font-size: 70px;'>错误! </span>","null","","","","","","","","","","","","","","","","","","","","","","","feedback_test",""
"","","","","","psychophysics","190","312150","0.0-16.0-0.0-0.2","1225","","j","","","","","","","","","","","","","key","j","19.668882882882745","960","536","k","false","img/C_28.png","自我","prac_friend","","生人"
"","","","","","html-keyboard-response","191","312451","0.0-16.0-0.0-1.2","null","<span style='color:red; font-size: 70px;'>错误! </span>","null","","","","","","","","","","","","","","","","","","","","","","","feedback_test",""
"","","","","","psychophysics","192","314734","0.0-16.0-0.0-0.3","1281","","k","","","","","","","","","","","","","key","k","18.441885245901428","960","536","d","false","img/S_28.png","自我","prac_friend","","朋友"
"","","","","","html-keyboard-response","193","315035","0.0-16.0-0.0-1.3","null","<span style='color:red; font-size: 70px;'>错误! </span>","null","","","","","","","","","","","","","","","","","","","","","","","feedback_test",""
"","","","","","psychophysics","194","317538","0.0-16.0-0.0-0.4","null","","null","","","","","","","","","","","","","key","null","19.421795275590775","960","536","k","false","img/H_28.png","朋友","prac_friend","","自我"
"","","","","","html-keyboard-response","195","317840","0.0-16.0-0.0-1.4","null","<span class='add_' style='color:yellow; font-size: 70px;'> 太慢! </span>","null","","","","","","","","","","","","","","","","","","","","","","","feedback_test",""
"","","","","","psychophysics","196","319773","0.0-16.0-0.0-0.5","932","","j","","","","","","","","","","","","","key","j","18.428750000000246","960","536","j","true","img/C_28.png","生人","prac_friend","","生人"
"","","","","","html-keyboard-response","197","320076","0.0-16.0-0.0-1.5","null","<span style='color:GreenYellow; font-size: 70px;'>正确! </span>","null","","","","","","","","","","","","","","","","","","","","","","","feedback_test",""
"","","","","","psychophysics","198","322229","0.0-16.0-0.0-0.6","1150","","j","","","","","","","","","","","","","key","j","17.926453781512784","960","536","j","true","img/H_28.png","自我","prac_friend","","自我"
"","","","","","html-keyboard-response","199","322530","0.0-16.0-0.0-1.6","null","<span style='color:GreenYellow; font-size: 70px;'>正确! </span>","null","","","","","","","","","","","","","","","","","","","","","","","feedback_test",""
"","","","","","psychophysics","200","324704","0.0-16.0-0.0-0.7","1172","","d","","","","","","","","","","","","","key","d","17.915949999999913","960","536","f","false","img/S_28.png","朋友","prac_friend","","朋友"
"","","","","","html-keyboard-response","201","325005","0.0-16.0-0.0-1.7","null","<span style='color:red; font-size: 70px;'>错误! </span>","null","","","","","","","","","","","","","","","","","","","","","","","feedback_test",""
"","","","","","psychophysics","202","327165","0.0-16.0-0.0-0.8","1157","","j","","","","","","","","","","","","","key","j","19.571082568807537","960","536","j","true","img/H_28.png","自我","prac_friend","","自我"
"","","","","","html-keyboard-response","203","327467","0.0-16.0-0.0-1.8","null","<span style='color:GreenYellow; font-size: 70px;'>正确! </span>","null","","","","","","","","","","","","","","","","","","","","","","","feedback_test",""
"","","","","","psychophysics","204","329558","0.0-16.0-0.0-0.9","1088","","k","","","","","","","","","","","","","key","k","18.78712727272703","960","536","d","false","img/S_28.png","生人","prac_friend","","朋友"
"","","","","","html-keyboard-response","205","329860","0.0-16.0-0.0-1.9","null","<span style='color:red; font-size: 70px;'>错误! </span>","null","","","","","","","","","","","","","","","","","","","","","","","feedback_test",""
"","","","","","psychophysics","206","332359","0.0-16.0-0.0-0.10","null","","null","","","","","","","","","","","","","key","null","19.421795275590775","960","536","f","false","img/S_28.png","朋友","prac_friend","","朋友"
"","","","","","html-keyboard-response","207","332661","0.0-16.0-0.0-1.10","null","<span class='add_' style='color:yellow; font-size: 70px;'> 太慢! </span>","null","","","","","","","","","","","","","","","","","","","","","","","feedback_test",""
"","","","","","psychophysics","208","334689","0.0-16.0-0.0-0.11","1026","","j","","","","","","","","","","","","","key","j","19.99919999999984","960","536","j","true","img/C_28.png","生人","prac_friend","","生人"
"","","","","","html-keyboard-response","209","334992","0.0-16.0-0.0-1.11","null","<span style='color:GreenYellow; font-size: 70px;'>正确! </span>","null","","","","","","","","","","","","","","","","","","","","","","","feedback_test",""
"","","","","","psychophysics","210","337009","0.0-16.0-0.0-0.12","1014","","k","","","","","","","","","","","","","key","k","18.729409523809416","960","536","k","true","img/C_28.png","朋友","prac_friend","","生人"
"","","","","","html-keyboard-response","211","337311","0.0-16.0-0.0-1.12","null","<span style='color:GreenYellow; font-size: 70px;'>正确! </span>","null","","","","","","","","","","","","","","","","","","","","","","","feedback_test",""
"","","","","","psychophysics","212","338993","0.0-16.0-0.0-0.13","681","","j","","","","","","","","","","","","","key","j","20.88524050632922","960","536","f","false","img/S_28.png","朋友","prac_friend","","朋友"
"","","","","","html-keyboard-response","213","339294","0.0-16.0-0.0-1.13","null","<span style='color:red; font-size: 70px;'>错误! </span>","null","","","","","","","","","","","","","","","","","","","","","","","feedback_test",""
"","","","","","psychophysics","214","341506","0.0-16.0-0.0-0.14","1210","","k","","","","","","","","","","","","","key","k","17.895459016393318","960","536","d","false","img/S_28.png","生人","prac_friend","","朋友"
"","","","","","html-keyboard-response","215","341808","0.0-16.0-0.0-1.14","null","<span style='color:red; font-size: 70px;'>错误! </span>","null","","","","","","","","","","","","","","","","","","","","","","","feedback_test",""
"","","","","","psychophysics","216","343753","0.0-16.0-0.0-0.15","943","","j","","","","","","","","","","","","","key","j","19.964479166666933","960","536","j","true","img/H_28.png","自我","prac_friend","","自我"
"","","","","","html-keyboard-response","217","344054","0.0-16.0-0.0-1.15","null","<span style='color:GreenYellow; font-size: 70px;'>正确! </span>","null","","","","","","","","","","","","","","","","","","","","","","","feedback_test",""
"","","","","","psychophysics","218","346217","0.0-16.0-0.0-0.16","1158","","j","","","","","","","","","","","","","key","j","19.046857142857334","960","536","j","true","img/C_28.png","生人","prac_friend","","生人"
"","","","","","html-keyboard-response","219","346518","0.0-16.0-0.0-1.16","null","<span style='color:GreenYellow; font-size: 70px;'>正确! </span>","null","","","","","","","","","","","","","","","","","","","","","","","feedback_test",""
"","","","","","psychophysics","220","348553","0.0-16.0-0.0-0.17","1033","","k","","","","","","","","","","","","","key","k","19.578504854368468","960","536","k","true","img/H_28.png","生人","prac_friend","","自我"
"","","","","","html-keyboard-response","221","348855","0.0-16.0-0.0-1.17","null","<span style='color:GreenYellow; font-size: 70px;'>正确! </span>","null","","","","","","","","","","","","","","","","","","","","","","","feedback_test",""
"","","","","","psychophysics","222","350769","0.0-16.0-0.0-0.18","912","","j","","","","","","","","","","","","","key","j","19.21691836734725","960","536","j","true","img/H_28.png","自我","prac_friend","","自我"
"","","","","","html-keyboard-response","223","351071","0.0-16.0-0.0-1.18","null","<span style='color:GreenYellow; font-size: 70px;'>正确! </span>","null","","","","","","","","","","","","","","","","","","","","","","","feedback_test",""
"","","","","","psychophysics","224","353162","0.0-16.0-0.0-0.19","1089","","k","","","","","","","","","","","","","key","k","19.135037037037332","960","536","d","false","img/S_28.png","自我","prac_friend","","朋友"
"","","","","","html-keyboard-response","225","353464","0.0-16.0-0.0-1.19","null","<span style='color:red; font-size: 70px;'>错误! </span>","null","","","","","","","","","","","","","","","","","","","","","","","feedback_test",""
"","","","","","psychophysics","226","355729","0.0-16.0-0.0-0.20","1263","","j","","","","","","","","","","","","","key","j","19.252103448275914","960","536","j","true","img/C_28.png","生人","prac_friend","","生人"
"","","","","","html-keyboard-response","227","356031","0.0-16.0-0.0-1.20","null","<span style='color:GreenYellow; font-size: 70px;'>正确! </span>","null","","","","","","","","","","","","","","","","","","","","","","","feedback_test",""
"","","","","","psychophysics","228","358241","0.0-16.0-0.0-0.21","1208","","d","","","","","","","","","","","","","key","d","19.8476909090913","960","536","k","false","img/H_28.png","朋友","prac_friend","","自我"
"","","","","","html-keyboard-response","229","358543","0.0-16.0-0.0-1.21","null","<span style='color:red; font-size: 70px;'>错误! </span>","null","","","","","","","","","","","","","","","","","","","","","","","feedback_test",""
"","","","","","psychophysics","230","360465","0.0-16.0-0.0-0.22","920","","f","","","","","","","","","","","","","key","f","18.463313725490497","960","536","f","true","img/S_28.png","朋友","prac_friend","","朋友"
"","","","","","html-keyboard-response","231","360767","0.0-16.0-0.0-1.22","null","<span style='color:GreenYellow; font-size: 70px;'>正确! </span>","null","","","","","","","","","","","","","","","","","","","","","","","feedback_test",""
"","","","","","psychophysics","232","362729","0.0-16.0-0.0-0.23","961","","j","","","","","","","","","","","","","key","j","18.223570093457592","960","536","k","false","img/C_28.png","自我","prac_friend","","生人"
"","","","","","html-keyboard-response","233","363030","0.0-16.0-0.0-1.23","null","<span style='color:red; font-size: 70px;'>错误! </span>","null","","","","","","","","","","","","","","","","","","","","","","","feedback_test",""
"","","","","","html-keyboard-response","234","364050","0.0-16.0-1.0-0.0","1017","<style>.context{color:white; font-size: 35px; line-height:40px}</style>                           <div><p class='context'>您正确回答了50% 的试次。</p><p class='context'>您的平均反应时为1070毫秒。</p>","j","","","","","","","","","","","","","","","","","","","","","","","",""
"","","","","","instructions","235","367825","0.0-16.0-1.0-1.0","3771","","","","","","","","","","","","","","[{""page_index"":0,""viewing_time"":1843},{""page_index"":1,""viewing_time"":943},{""page_index"":2,""viewing_time"":984}]","","","","","","","","","","","",""
"","","","","","psychophysics","236","370220","0.0-16.1-0.1-0.24","1389","","k","","","","","","","","","","","","","key","k","19.398131147541342","960","536","k","true","img/C_28.png","朋友","prac_friend","","生人"
"","","","","","html-keyboard-response","237","370523","0.0-16.1-0.1-1.24","null","<span style='color:GreenYellow; font-size: 70px;'>正确! </span>","null","","","","","","","","","","","","","","","","","","","","","","","feedback_test",""
"","","","","","psychophysics","238","373009","0.0-16.1-0.1-0.25","1484","","k","","","","","","","","","","","","","key","k","18.574320610686833","960","536","k","true","img/H_28.png","朋友","prac_friend","","自我"
"","","","","","html-keyboard-response","239","373310","0.0-16.1-0.1-1.25","null","<span style='color:GreenYellow; font-size: 70px;'>正确! </span>","null","","","","","","","","","","","","","","","","","","","","","","","feedback_test",""
"","","","","","psychophysics","240","375161","0.0-16.1-0.1-0.26","850","","f","","","","","","","","","","","","","key","f","20.88039080459817","960","536","f","true","img/S_28.png","朋友","prac_friend","","朋友"
"","","","","","html-keyboard-response","241","375463","0.0-16.1-0.1-1.26","null","<span style='color:GreenYellow; font-size: 70px;'>正确! </span>","null","","","","","","","","","","","","","","","","","","","","","","","feedback_test",""
"","","","","","psychophysics","242","377425","0.0-16.1-0.1-0.27","960","","j","","","","","","","","","","","","","key","j","19.116882352940806","960","536","j","true","img/H_28.png","自我","prac_friend","","自我"
"","","","","","html-keyboard-response","243","377726","0.0-16.1-0.1-1.27","null","<span style='color:GreenYellow; font-size: 70px;'>正确! </span>","null","","","","","","","","","","","","","","","","","","","","","","","feedback_test",""
"","","","","","psychophysics","244","379906","0.0-16.1-0.1-0.28","1178","","k","","","","","","","","","","","","","key","k","19.173274336282816","960","536","k","true","img/C_28.png","自我","prac_friend","","生人"
"","","","","","html-keyboard-response","245","380208","0.0-16.1-0.1-1.28","null","<span style='color:GreenYellow; font-size: 70px;'>正确! </span>","null","","","","","","","","","","","","","","","","","","","","","","","feedback_test",""
"","","","","","psychophysics","246","382241","0.0-16.1-0.1-0.29","1032","","k","","","","","","","","","","","","","key","k","18.332599999999562","960","536","k","true","img/H_28.png","生人","prac_friend","","自我"
"","","","","","html-keyboard-response","247","382544","0.0-16.1-0.1-1.29","null","<span style='color:GreenYellow; font-size: 70px;'>正确! </span>","null","","","","","","","","","","","","","","","","","","","","","","","feedback_test",""
"","","","","","psychophysics","248","384324","0.0-16.1-0.1-0.30","779","","j","","","","","","","","","","","","","key","j","19.413142857142432","960","536","f","false","img/S_28.png","朋友","prac_friend","","朋友"
"","","","","","html-keyboard-response","249","384626","0.0-16.1-0.1-1.30","null","<span style='color:red; font-size: 70px;'>错误! </span>","null","","","","","","","","","","","","","","","","","","","","","","","feedback_test",""
"","","","","","psychophysics","250","386626","0.0-16.1-0.1-0.31","998","","k","","","","","","","","","","","","","key","k","19.254893203883643","960","536","j","false","img/C_28.png","生人","prac_friend","","生人"
"","","","","","html-keyboard-response","251","386928","0.0-16.1-0.1-1.31","null","<span style='color:red; font-size: 70px;'>错误! </span>","null","","","","","","","","","","","","","","","","","","","","","","","feedback_test",""
"","","","","","psychophysics","252","389201","0.0-16.1-0.1-0.32","1271","","k","","","","","","","","","","","","","key","k","18.30527868852464","960","536","d","false","img/S_28.png","自我","prac_friend","","朋友"
"","","","","","html-keyboard-response","253","389502","0.0-16.1-0.1-1.32","null","<span style='color:red; font-size: 70px;'>错误! </span>","null","","","","","","","","","","","","","","","","","","","","","","","feedback_test",""
"","","","","","psychophysics","254","392007","0.0-16.1-0.1-0.33","null","","null","","","","","","","","","","","","","key","null","18.796240601503495","960","536","d","false","img/S_28.png","生人","prac_friend","","朋友"
"","","","","","html-keyboard-response","255","392306","0.0-16.1-0.1-1.33","null","<span class='add_' style='color:yellow; font-size: 70px;'> 太慢! </span>","null","","","","","","","","","","","","","","","","","","","","","","","feedback_test",""
"","","","","","psychophysics","256","394382","0.0-16.1-0.1-0.34","1073","","j","","","","","","","","","","","","","key","j","18.46772972972925","960","536","j","true","img/H_28.png","自我","prac_friend","","自我"
"","","","","","html-keyboard-response","257","394684","0.0-16.1-0.1-1.34","null","<span style='color:GreenYellow; font-size: 70px;'>正确! </span>","null","","","","","","","","","","","","","","","","","","","","","","","feedback_test",""
"","","","","","psychophysics","258","396862","0.0-16.1-0.1-0.35","1177","","k","","","","","","","","","","","","","key","k","19.368594594595027","960","536","j","false","img/C_28.png","生人","prac_friend","","生人"
"","","","","","html-keyboard-response","259","397164","0.0-16.1-0.1-1.35","null","<span style='color:red; font-size: 70px;'>错误! </span>","null","","","","","","","","","","","","","","","","","","","","","","","feedback_test",""
"","","","","","psychophysics","260","399205","0.0-16.1-0.1-0.36","1040","","j","","","","","","","","","","","","","key","j","19.024396226415192","960","536","j","true","img/H_28.png","自我","prac_friend","","自我"
"","","","","","html-keyboard-response","261","399508","0.0-16.1-0.1-1.36","null","<span style='color:GreenYellow; font-size: 70px;'>正确! </span>","null","","","","","","","","","","","","","","","","","","","","","","","feedback_test",""
"","","","","","psychophysics","262","401736","0.0-16.1-0.1-0.37","1226","","k","","","","","","","","","","","","","key","k","19.969171171170988","960","536","k","true","img/H_28.png","朋友","prac_friend","","自我"
"","","","","","html-keyboard-response","263","402037","0.0-16.1-0.1-1.37","null","<span style='color:GreenYellow; font-size: 70px;'>正确! </span>","null","","","","","","","","","","","","","","","","","","","","","","","feedback_test",""
"","","","","","psychophysics","264","404519","0.0-16.1-0.1-0.38","1480","","j","","","","","","","","","","","","","key","j","19.421795275590775","960","536","j","true","img/H_28.png","自我","prac_friend","","自我"
"","","","","","html-keyboard-response","265","404821","0.0-16.1-0.1-1.38","null","<span style='color:GreenYellow; font-size: 70px;'>正确! </span>","null","","","","","","","","","","","","","","","","","","","","","","","feedback_test",""
"","","","","","psychophysics","266","406573","0.0-16.1-0.1-0.39","751","","f","","","","","","","","","","","","","key","f","20.634095238095533","960","536","k","false","img/C_28.png","朋友","prac_friend","","生人"
"","","","","","html-keyboard-response","267","406874","0.0-16.1-0.1-1.39","null","<span style='color:red; font-size: 70px;'>错误! </span>","null","","","","","","","","","","","","","","","","","","","","","","","feedback_test",""
"","","","","","psychophysics","268","408798","0.0-16.1-0.1-0.40","922","","f","","","","","","","","","","","","","key","f","18.99923999999999","960","536","f","true","img/S_28.png","朋友","prac_friend","","朋友"
"","","","","","html-keyboard-response","269","409099","0.0-16.1-0.1-1.40","null","<span style='color:GreenYellow; font-size: 70px;'>正确! </span>","null","","","","","","","","","","","","","","","","","","","","","","","feedback_test",""
"","","","","","psychophysics","270","411165","0.0-16.1-0.1-0.41","1065","","k","","","","","","","","","","","","","key","k","19.71075000000005","960","536","k","true","img/C_28.png","自我","prac_friend","","生人"
"","","","","","html-keyboard-response","271","411466","0.0-16.1-0.1-1.41","null","<span style='color:GreenYellow; font-size: 70px;'>正确! </span>","null","","","","","","","","","","","","","","","","","","","","","","","feedback_test",""
"","","","","","psychophysics","272","413397","0.0-16.1-0.1-0.42","929","","j","","","","","","","","","","","","","key","j","18.445864077669892","960","536","j","true","img/C_28.png","生人","prac_friend","","生人"
"","","","","","html-keyboard-response","273","413699","0.0-16.1-0.1-1.42","null","<span style='color:GreenYellow; font-size: 70px;'>正确! </span>","null","","","","","","","","","","","","","","","","","","","","","","","feedback_test",""
"","","","","","psychophysics","274","415565","0.0-16.1-0.1-0.43","865","","j","","","","","","","","","","","","","key","j","19.680063829786995","960","536","f","false","img/S_28.png","朋友","prac_friend","","朋友"
"","","","","","html-keyboard-response","275","415866","0.0-16.1-0.1-1.43","null","<span style='color:red; font-size: 70px;'>错误! </span>","null","","","","","","","","","","","","","","","","","","","","","","","feedback_test",""
"","","","","","psychophysics","276","417966","0.0-16.1-0.1-0.44","1097","","k","","","","","","","","","","","","","key","k","19.496075471697864","960","536","d","false","img/S_28.png","自我","prac_friend","","朋友"
"","","","","","html-keyboard-response","277","418268","0.0-16.1-0.1-1.44","null","<span style='color:red; font-size: 70px;'>错误! </span>","null","","","","","","","","","","","","","","","","","","","","","","","feedback_test",""
"","","","","","psychophysics","278","420526","0.0-16.1-0.1-0.45","1256","","k","","","","","","","","","","","","","key","k","18.610366666666717","960","536","k","true","img/H_28.png","生人","prac_friend","","自我"
"","","","","","html-keyboard-response","279","420828","0.0-16.1-0.1-1.45","null","<span style='color:GreenYellow; font-size: 70px;'>正确! </span>","null","","","","","","","","","","","","","","","","","","","","","","","feedback_test",""
"","","","","","psychophysics","280","422597","0.0-16.1-0.1-0.46","767","","j","","","","","","","","","","","","","key","j","19.696181818182097","960","536","j","true","img/C_28.png","生人","prac_friend","","生人"
"","","","","","html-keyboard-response","281","422900","0.0-16.1-0.1-1.46","null","<span style='color:GreenYellow; font-size: 70px;'>正确! </span>","null","","","","","","","","","","","","","","","","","","","","","","","feedback_test",""
"","","","","","psychophysics","282","424941","0.0-16.1-0.1-0.47","1038","","k","","","","","","","","","","","","","key","k","18.69084112149572","960","536","d","false","img/S_28.png","生人","prac_friend","","朋友"
"","","","","","html-keyboard-response","283","425244","0.0-16.1-0.1-1.47","null","<span style='color:red; font-size: 70px;'>错误! </span>","null","","","","","","","","","","","","","","","","","","","","","","","feedback_test",""
"","","","","","html-keyboard-response","284","426221","0.0-16.1-1.1-0.1","975","<style>.context{color:white; font-size: 35px; line-height:40px}</style>                           <div><p class='context'>您正确回答了63% 的试次。</p><p class='context'>您的平均反应时为1110毫秒。</p>","k","","","","","","","","","","","","","","","","","","","","","","","",""
"","","","","","instructions","285","429364","0.0-16.1-1.1-1.1","3139","","","","","","","","","","","","","","[{""page_index"":0,""viewing_time"":1596},{""page_index"":1,""viewing_time"":799},{""page_index"":2,""viewing_time"":744}]","","","","","","","","","","","",""
"","","","","","psychophysics","286","431605","0.0-16.2-0.2-0.48","1237","","j","","","","","","","","","","","","","key","j","18.76675630252106","960","536","j","true","img/H_28.png","自我","prac_friend","","自我"
"","","","","","html-keyboard-response","287","431907","0.0-16.2-0.2-1.48","null","<span style='color:GreenYellow; font-size: 70px;'>正确! </span>","null","","","","","","","","","","","","","","","","","","","","","","","feedback_test",""
"","","","","","psychophysics","288","434197","0.0-16.2-0.2-0.49","1288","","j","","","","","","","","","","","","","key","j","19.04685714285715","960","536","j","true","img/H_28.png","自我","prac_friend","","自我"
"","","","","","html-keyboard-response","289","434499","0.0-16.2-0.2-1.49","null","<span style='color:GreenYellow; font-size: 70px;'>正确! </span>","null","","","","","","","","","","","","","","","","","","","","","","","feedback_test",""
"","","","","","psychophysics","290","436717","0.0-16.2-0.2-0.50","1216","","k","","","","","","","","","","","","","key","k","18.19371666666654","960","536","k","true","img/C_28.png","自我","prac_friend","","生人"
"","","","","","html-keyboard-response","291","437019","0.0-16.2-0.2-1.50","null","<span style='color:GreenYellow; font-size: 70px;'>正确! </span>","null","","","","","","","","","","","","","","","","","","","","","","","feedback_test",""
"","","","","","psychophysics","292","439205","0.0-16.2-0.2-0.51","1184","","j","","","","","","","","","","","","","key","j","20.439433962264303","960","536","k","false","img/H_28.png","朋友","prac_friend","","自我"
"","","","","","html-keyboard-response","293","439506","0.0-16.2-0.2-1.51","null","<span style='color:red; font-size: 70px;'>错误! </span>","null","","","","","","","","","","","","","","","","","","","","","","","feedback_test",""
"","","","","","psychophysics","294","441677","0.0-16.2-0.2-0.52","1169","","j","","","","","","","","","","","","","key","j","18.858894736842014","960","536","j","true","img/C_28.png","生人","prac_friend","","生人"
"","","","","","html-keyboard-response","295","441979","0.0-16.2-0.2-1.52","null","<span style='color:GreenYellow; font-size: 70px;'>正确! </span>","null","","","","","","","","","","","","","","","","","","","","","","","feedback_test",""
"","","","","","psychophysics","296","443973","0.0-16.2-0.2-0.53","993","","k","","","","","","","","","","","","","key","k","19.280274509803814","960","536","d","false","img/S_28.png","生人","prac_friend","","朋友"
"","","","","","html-keyboard-response","297","444274","0.0-16.2-0.2-1.53","null","<span style='color:red; font-size: 70px;'>错误! </span>","null","","","","","","","","","","","","","","","","","","","","","","","feedback_test",""
"","","","","","psychophysics","298","446479","0.0-16.2-0.2-0.54","1204","","k","","","","","","","","","","","","","key","k","19.34446428571391","960","536","d","false","img/S_28.png","自我","prac_friend","","朋友"
"","","","","","html-keyboard-response","299","446781","0.0-16.2-0.2-1.54","null","<span style='color:red; font-size: 70px;'>错误! </span>","null","","","","","","","","","","","","","","","","","","","","","","","feedback_test",""
"","","","","","psychophysics","300","448861","0.0-16.2-0.2-0.55","1078","","j","","","","","","","","","","","","","key","j","19.15811214953276","960","536","j","true","img/C_28.png","生人","prac_friend","","生人"
"","","","","","html-keyboard-response","301","449162","0.0-16.2-0.2-1.55","null","<span style='color:GreenYellow; font-size: 70px;'>正确! </span>","null","","","","","","","","","","","","","","","","","","","","","","","feedback_test",""
"","","","","","psychophysics","302","451373","0.0-16.2-0.2-0.56","1208","","f","","","","","","","","","","","","","key","f","18.33260000000009","960","536","f","true","img/S_28.png","朋友","prac_friend","","朋友"
"","","","","","html-keyboard-response","303","451675","0.0-16.2-0.2-1.56","null","<span style='color:GreenYellow; font-size: 70px;'>正确! </span>","null","","","","","","","","","","","","","","","","","","","","","","","feedback_test",""
"","","","","","psychophysics","304","454009","0.0-16.2-0.2-0.57","1336","","k","","","","","","","","","","","","","key","k","20.320824561403704","960","536","k","true","img/C_28.png","朋友","prac_friend","","生人"
"","","","","","html-keyboard-response","305","454311","0.0-16.2-0.2-1.57","null","<span style='color:GreenYellow; font-size: 70px;'>正确! </span>","null","","","","","","","","","","","","","","","","","","","","","","","feedback_test",""
"","","","","","psychophysics","306","456433","0.0-16.2-0.2-0.58","1120","","f","","","","","","","","","","","","","key","f","18.600446428571427","960","536","f","true","img/S_28.png","朋友","prac_friend","","朋友"
"","","","","","html-keyboard-response","307","456734","0.0-16.2-0.2-1.58","null","<span style='color:GreenYellow; font-size: 70px;'>正确! </span>","null","","","","","","","","","","","","","","","","","","","","","","","feedback_test",""
"","","","","","psychophysics","308","458721","0.0-16.2-0.2-0.59","986","","k","","","","","","","","","","","","","key","k","20.067224489795805","960","536","k","true","img/H_28.png","生人","prac_friend","","自我"
"","","","","","html-keyboard-response","309","459023","0.0-16.2-0.2-1.59","null","<span style='color:GreenYellow; font-size: 70px;'>正确! </span>","null","","","","","","","","","","","","","","","","","","","","","","","feedback_test",""
"","","","","","psychophysics","310","461153","0.0-16.2-0.2-0.60","1128","","k","","","","","","","","","","","","","key","k","18.898053571428527","960","536","k","true","img/H_28.png","生人","prac_friend","","自我"
"","","","","","html-keyboard-response","311","461454","0.0-16.2-0.2-1.60","null","<span style='color:GreenYellow; font-size: 70px;'>正确! </span>","null","","","","","","","","","","","","","","","","","","","","","","","feedback_test",""
"","","","","","psychophysics","312","463852","0.0-16.2-0.2-0.61","1396","","k","","","","","","","","","","","","","key","k","20.227111111110986","960","536","d","false","img/S_28.png","自我","prac_friend","","朋友"
"","","","","","html-keyboard-response","313","464154","0.0-16.2-0.2-1.61","null","<span style='color:red; font-size: 70px;'>错误! </span>","null","","","","","","","","","","","","","","","","","","","","","","","feedback_test",""
"","","","","","psychophysics","314","466241","0.0-16.2-0.2-0.62","1086","","f","","","","","","","","","","","","","key","f","18.959486238531866","960","536","f","true","img/S_28.png","朋友","prac_friend","","朋友"
"","","","","","html-keyboard-response","315","466542","0.0-16.2-0.2-1.62","null","<span style='color:GreenYellow; font-size: 70px;'>正确! </span>","null","","","","","","","","","","","","","","","","","","","","","","","feedback_test",""
"","","","","","psychophysics","316","468681","0.0-16.2-0.2-0.63","1138","","k","","","","","","","","","","","","","key","k","19.967754716981084","960","536","k","true","img/H_28.png","朋友","prac_friend","","自我"
"","","","","","html-keyboard-response","317","468983","0.0-16.2-0.2-1.63","null","<span style='color:GreenYellow; font-size: 70px;'>正确! </span>","null","","","","","","","","","","","","","","","","","","","","","","","feedback_test",""
"","","","","","psychophysics","318","471020","0.0-16.2-0.2-0.64","1034","","f","","","","","","","","","","","","","key","f","19.39024999999954","960","536","f","true","img/S_28.png","朋友","prac_friend","","朋友"
"","","","","","html-keyboard-response","319","471321","0.0-16.2-0.2-1.64","null","<span style='color:GreenYellow; font-size: 70px;'>正确! </span>","null","","","","","","","","","","","","","","","","","","","","","","","feedback_test",""
"","","","","","psychophysics","320","473004","0.0-16.2-0.2-0.65","681","","j","","","","","","","","","","","","","key","j","19.607058823529137","960","536","j","true","img/C_28.png","生人","prac_friend","","生人"
"","","","","","html-keyboard-response","321","473307","0.0-16.2-0.2-1.65","null","<span style='color:GreenYellow; font-size: 70px;'>正确! </span>","null","","","","","","","","","","","","","","","","","","","","","","","feedback_test",""
"","","","","","psychophysics","322","475329","0.0-16.2-0.2-0.66","1020","","k","","","","","","","","","","","","","key","k","19.41669902912662","960","536","d","false","img/S_28.png","生人","prac_friend","","朋友"
"","","","","","html-keyboard-response","323","475630","0.0-16.2-0.2-1.66","null","<span style='color:red; font-size: 70px;'>错误! </span>","null","","","","","","","","","","","","","","","","","","","","","","","feedback_test",""
"","","","","","psychophysics","324","477857","0.0-16.2-0.2-0.67","1225","","j","","","","","","","","","","","","","key","j","17.741225806451233","960","536","j","true","img/H_28.png","自我","prac_friend","","自我"
"","","","","","html-keyboard-response","325","478159","0.0-16.2-0.2-1.67","null","<span style='color:GreenYellow; font-size: 70px;'>正确! </span>","null","","","","","","","","","","","","","","","","","","","","","","","feedback_test",""
"","","","","","psychophysics","326","479993","0.0-16.2-0.2-0.68","832","","j","","","","","","","","","","","","","key","j","19.745586956521553","960","536","j","true","img/C_28.png","生人","prac_friend","","生人"
"","","","","","html-keyboard-response","327","480295","0.0-16.2-0.2-1.68","null","<span style='color:GreenYellow; font-size: 70px;'>正确! </span>","null","","","","","","","","","","","","","","","","","","","","","","","feedback_test",""
"","","","","","psychophysics","328","482620","0.0-16.2-0.2-0.69","1323","","k","","","","","","","","","","","","","key","k","18.86976859504107","960","536","k","true","img/C_28.png","自我","prac_friend","","生人"
"","","","","","html-keyboard-response","329","482922","0.0-16.2-0.2-1.69","null","<span style='color:GreenYellow; font-size: 70px;'>正确! </span>","null","","","","","","","","","","","","","","","","","","","","","","","feedback_test",""
"","","","","","psychophysics","330","485249","0.0-16.2-0.2-0.70","1324","","k","","","","","","","","","","","","","key","k","20.35316814159288","960","536","k","true","img/C_28.png","朋友","prac_friend","","生人"
"","","","","","html-keyboard-response","331","485549","0.0-16.2-0.2-1.70","null","<span style='color:GreenYellow; font-size: 70px;'>正确! </span>","null","","","","","","","","","","","","","","","","","","","","","","","feedback_test",""
"","","","","","psychophysics","332","487561","0.0-16.2-0.2-0.71","1009","","j","","","","","","","","","","","","","key","j","18.535084112149676","960","536","j","true","img/H_28.png","自我","prac_friend","","自我"
"","","","","","html-keyboard-response","333","487863","0.0-16.2-0.2-1.71","null","<span style='color:GreenYellow; font-size: 70px;'>正确! </span>","null","","","","","","","","","","","","","","","","","","","","","","","feedback_test",""
"","","","","","html-keyboard-response","334","492393","0.0-17.0","4525","[""<style>.context{color:white; font-size: 35px; line-height:40px}</style>               <div><p class='context'>您正确回答了79% 的试次。</p><p class='context'>您的平均反应时为1127毫秒。</p><p class='context'>恭喜您完成这一阶段的练习。按任意键进入<span style='color: yellow;'>重点关注图形为“生人”</span>的练习。</p></div><p class='footer' style='font-size:35px; line-height:30px;'>任务要求：\n               <p class='footer' style='font-size:35px; line-height:35px;'>对与“生人”对应的图形，如果 匹配 ，请按 <span style=\""color: lightgreen;\"">f键</span></p><p class='footer' style='font-size:35px'>如果 不匹配 ，请按<span style=\""color: lightgreen;\"">d键</p></span>\n               <p class='footer' style='font-size:35px; line-height:35px;'>对非“生人”对应的图形，如果 匹配 ，请按 <span style=\""color: lightgreen;\"">j键</span></p><p class='footer' style='font-size:35px'>如果 不匹配 ，请按<span style=\""color: lightgreen;\"">k键</p></span>\n               <p class='footer' style='font-size:22px; line-height:25px;'>请在实验过程中将您的<span style=\""color: lightgreen;\"">食指和中指</span>放在电脑键盘的相应键位上进行按键。</p></span>""]","j","","","","","","","","","","","","","","","","","","","","","","","",""
"","","","","","psychophysics","335","494338","0.0-18.0-0.0-0.0","936","","j","","","","","","","","","","","","","key","j","19.557040816326197","960","536","j","true","img/H_28.png","自我","prac_stranger","","自我"
"","","","","","html-keyboard-response","336","494641","0.0-18.0-0.0-1.0","null","<span style='color:GreenYellow; font-size: 70px;'>正确! </span>","null","","","","","","","","","","","","","","","","","","","","","","","feedback_test",""
"","","","","","psychophysics","337","496521","0.0-18.0-0.0-0.1","878","","j","","","","","","","","","","","","","key","j","20.07088172043015","960","536","j","true","img/H_28.png","自我","prac_stranger","","自我"
"","","","","","html-keyboard-response","338","496823","0.0-18.0-0.0-1.1","null","<span style='color:GreenYellow; font-size: 70px;'>正确! </span>","null","","","","","","","","","","","","","","","","","","","","","","","feedback_test",""
"","","","","","psychophysics","339","498992","0.0-18.0-0.0-0.2","1168","","k","","","","","","","","","","","","","key","k","18.375333333333245","960","536","d","false","img/C_28.png","自我","prac_stranger","","生人"
"","","","","","html-keyboard-response","340","499293","0.0-18.0-0.0-1.2","null","<span style='color:red; font-size: 70px;'>错误! </span>","null","","","","","","","","","","","","","","","","","","","","","","","feedback_test",""
"","","","","","psychophysics","341","501648","0.0-18.0-0.0-0.3","1353","","j","","","","","","","","","","","","","key","j","19.79977777777797","960","536","j","true","img/S_28.png","朋友","prac_stranger","","朋友"
"","","","","","html-keyboard-response","342","501950","0.0-18.0-0.0-1.3","null","<span style='color:GreenYellow; font-size: 70px;'>正确! </span>","null","","","","","","","","","","","","","","","","","","","","","","","feedback_test",""
"","","","","","psychophysics","343","504329","0.0-18.0-0.0-0.4","1377","","k","","","","","","","","","","","","","key","k","18.950854838709347","960","536","k","true","img/S_28.png","生人","prac_stranger","","朋友"
"","","","","","html-keyboard-response","344","504631","0.0-18.0-0.0-1.4","null","<span style='color:GreenYellow; font-size: 70px;'>正确! </span>","null","","","","","","","","","","","","","","","","","","","","","","","feedback_test",""
"","","","","","psychophysics","345","507112","0.0-18.0-0.0-0.5","1479","","k","","","","","","","","","","","","","key","k","19.599216000000016","960","536","k","true","img/H_28.png","朋友","prac_stranger","","自我"
"","","","","","html-keyboard-response","346","507413","0.0-18.0-0.0-1.5","null","<span style='color:GreenYellow; font-size: 70px;'>正确! </span>","null","","","","","","","","","","","","","","","","","","","","","","","feedback_test",""
"","","","","","psychophysics","347","509625","0.0-18.0-0.0-0.6","1210","","k","","","","","","","","","","","","","key","k","18.517777777777916","960","536","d","false","img/C_28.png","朋友","prac_stranger","","生人"
"","","","","","html-keyboard-response","348","509927","0.0-18.0-0.0-1.6","null","<span style='color:red; font-size: 70px;'>错误! </span>","null","","","","","","","","","","","","","","","","","","","","","","","feedback_test",""
"","","","","","psychophysics","349","512426","0.0-18.0-0.0-0.7","null","","null","","","","","","","","","","","","","key","null","19.139859375000015","960","536","k","false","img/H_28.png","生人","prac_stranger","","自我"
"","","","","","html-keyboard-response","350","512728","0.0-18.0-0.0-1.7","null","<span class='add_' style='color:yellow; font-size: 70px;'> 太慢! </span>","null","","","","","","","","","","","","","","","","","","","","","","","feedback_test",""
"","","","","","psychophysics","351","514780","0.0-18.0-0.0-0.8","1050","","f","","","","","","","","","","","","","key","f","18.672092592592147","960","536","f","true","img/C_28.png","生人","prac_stranger","","生人"
"","","","","","html-keyboard-response","352","515082","0.0-18.0-0.0-1.8","null","<span style='color:GreenYellow; font-size: 70px;'>正确! </span>","null","","","","","","","","","","","","","","","","","","","","","","","feedback_test",""
"","","","","","psychophysics","353","516980","0.0-18.0-0.0-0.9","896","","f","","","","","","","","","","","","","key","f","19.44366666666671","960","536","f","true","img/C_28.png","生人","prac_stranger","","生人"
"","","","","","html-keyboard-response","354","517282","0.0-18.0-0.0-1.9","null","<span style='color:GreenYellow; font-size: 70px;'>正确! </span>","null","","","","","","","","","","","","","","","","","","","","","","","feedback_test",""
"","","","","","psychophysics","355","519302","0.0-18.0-0.0-0.10","1017","","k","","","","","","","","","","","","","key","k","19.416699029126054","960","536","k","true","img/S_28.png","自我","prac_stranger","","朋友"
"","","","","","html-keyboard-response","356","519604","0.0-18.0-0.0-1.10","null","<span style='color:GreenYellow; font-size: 70px;'>正确! </span>","null","","","","","","","","","","","","","","","","","","","","","","","feedback_test",""
"","","","","","psychophysics","357","521860","0.0-18.0-0.0-0.11","1255","","j","","","","","","","","","","","","","key","j","20.18267889908267","960","536","j","true","img/S_28.png","朋友","prac_stranger","","朋友"
"","","","","","html-keyboard-response","358","522162","0.0-18.0-0.0-1.11","null","<span style='color:GreenYellow; font-size: 70px;'>正确! </span>","null","","","","","","","","","","","","","","","","","","","","","","","feedback_test",""
"","","","","","psychophysics","359","524028","0.0-18.0-0.0-0.12","863","","j","","","","","","","","","","","","","key","j","19.07140206185604","960","536","j","true","img/S_28.png","朋友","prac_stranger","","朋友"
"","","","","","html-keyboard-response","360","524329","0.0-18.0-0.0-1.12","null","<span style='color:GreenYellow; font-size: 70px;'>正确! </span>","null","","","","","","","","","","","","","","","","","","","","","","","feedback_test",""
"","","","","","psychophysics","361","525940","0.0-18.0-0.0-0.13","609","","f","","","","","","","","","","","","","key","f","20.041392405063526","960","536","f","true","img/C_28.png","生人","prac_stranger","","生人"
"","","","","","html-keyboard-response","362","526242","0.0-18.0-0.0-1.13","null","<span style='color:GreenYellow; font-size: 70px;'>正确! </span>","null","","","","","","","","","","","","","","","","","","","","","","","feedback_test",""
"","","","","","psychophysics","363","528228","0.0-18.0-0.0-0.14","984","","k","","","","","","","","","","","","","key","k","17.88919266055065","960","536","k","true","img/H_28.png","生人","prac_stranger","","自我"
"","","","","","html-keyboard-response","364","528530","0.0-18.0-0.0-1.14","null","<span style='color:GreenYellow; font-size: 70px;'>正确! </span>","null","","","","","","","","","","","","","","","","","","","","","","","feedback_test",""
"","","","","","psychophysics","365","530836","0.0-18.0-0.0-0.15","1303","","d","","","","","","","","","","","","","key","d","18.265935999999755","960","536","d","true","img/C_28.png","自我","prac_stranger","","生人"
"","","","","","html-keyboard-response","366","531138","0.0-18.0-0.0-1.15","null","<span style='color:GreenYellow; font-size: 70px;'>正确! </span>","null","","","","","","","","","","","","","","","","","","","","","","","feedback_test",""
"","","","","","psychophysics","367","533465","0.0-18.0-0.0-0.16","1320","","j","","","","","","","","","","","","","key","j","19.490745762712322","960","536","j","true","img/S_28.png","朋友","prac_stranger","","朋友"
"","","","","","html-keyboard-response","368","533768","0.0-18.0-0.0-1.16","null","<span style='color:GreenYellow; font-size: 70px;'>正确! </span>","null","","","","","","","","","","","","","","","","","","","","","","","feedback_test",""
"","","","","","psychophysics","369","535675","0.0-18.0-0.0-0.17","906","","j","","","","","","","","","","","","","key","j","18.28405825242748","960","536","j","true","img/H_28.png","自我","prac_stranger","","自我"
"","","","","","html-keyboard-response","370","535977","0.0-18.0-0.0-1.17","null","<span style='color:GreenYellow; font-size: 70px;'>正确! </span>","null","","","","","","","","","","","","","","","","","","","","","","","feedback_test",""
"","","","","","psychophysics","371","538070","0.0-18.0-0.0-0.18","1091","","k","","","","","","","","","","","","","key","k","19.313869158878802","960","536","k","true","img/S_28.png","自我","prac_stranger","","朋友"
"","","","","","html-keyboard-response","372","538372","0.0-18.0-0.0-1.18","null","<span style='color:GreenYellow; font-size: 70px;'>正确! </span>","null","","","","","","","","","","","","","","","","","","","","","","","feedback_test",""
"","","","","","psychophysics","373","540531","0.0-18.0-0.0-0.19","1159","","j","","","","","","","","","","","","","key","j","17.48563934426247","960","536","k","false","img/H_28.png","朋友","prac_stranger","","自我"
"","","","","","html-keyboard-response","374","540833","0.0-18.0-0.0-1.19","null","<span style='color:red; font-size: 70px;'>错误! </span>","null","","","","","","","","","","","","","","","","","","","","","","","feedback_test",""
"","","","","","psychophysics","375","542860","0.0-18.0-0.0-0.20","1024","","j","","","","","","","","","","","","","key","j","19.390250000000098","960","536","f","false","img/C_28.png","生人","prac_stranger","","生人"
"","","","","","html-keyboard-response","376","543162","0.0-18.0-0.0-1.20","null","<span style='color:red; font-size: 70px;'>错误! </span>","null","","","","","","","","","","","","","","","","","","","","","","","feedback_test",""
"","","","","","psychophysics","377","545372","0.0-18.0-0.0-0.21","1208","","d","","","","","","","","","","","","","key","d","18.486655462184967","960","536","k","false","img/S_28.png","生人","prac_stranger","","朋友"
"","","","","","html-keyboard-response","378","545674","0.0-18.0-0.0-1.21","null","<span style='color:red; font-size: 70px;'>错误! </span>","null","","","","","","","","","","","","","","","","","","","","","","","feedback_test",""
"","","","","","psychophysics","379","548178","0.0-18.0-0.0-0.22","null","","null","","","","","","","","","","","","","key","null","19.708206349206787","960","536","d","false","img/C_28.png","朋友","prac_stranger","","生人"
"","","","","","html-keyboard-response","380","548480","0.0-18.0-0.0-1.22","null","<span class='add_' style='color:yellow; font-size: 70px;'> 太慢! </span>","null","","","","","","","","","","","","","","","","","","","","","","","feedback_test",""
"","","","","","psychophysics","381","550427","0.0-18.0-0.0-0.23","946","","j","","","","","","","","","","","","","key","j","19.332560000000523","960","536","j","true","img/H_28.png","自我","prac_stranger","","自我"
"","","","","","html-keyboard-response","382","550730","0.0-18.0-0.0-1.23","null","<span style='color:GreenYellow; font-size: 70px;'>正确! </span>","null","","","","","","","","","","","","","","","","","","","","","","","feedback_test",""
"","","","","","html-keyboard-response","383","552492","0.0-19.0","1757","[""<style>.context{color:white; font-size: 35px; line-height:40px}</style>                                     <div><p class='context'>您正确回答了71% 的试次。</p><p class='context'>您的平均反应时为1074毫秒。</p><p class='context'>恭喜您完成练习。您可以在此时休息一段时间，准备好后按任意键进入正式实验。</p><p class='footer' style='font-size: 35px; line-height:40px;'>请在进入正式实验实验之前将您的<span style='color: lightgreen;'>食指和中指</span>放在电脑键盘的相应键位上，做好按键准备。</p>""]","j","","","","","","","","","","","","","","","","","","","","","","","",""
"","","","","","html-keyboard-response","384","556460","0.0-20.0-0.0-0.0","3961","
                 <p>请您将食指和中指放在相应按键上，准备进入<span style='color: yellow;'>重点图形为“自我”对应图形</span>的正式匹配任务</p>
                 <p> <div style = ""color: green""><按任意键开始></div></p>
                 ","j","","","","","","","","","","","","","","","","","","","","","","","",""
"","","","","","psychophysics","385","558884","0.0-20.0-0.0-1.0-0.0-0.0","1421","","k","","","","","","","","","","","","","key","k","19.534737704918133","960","536","k","true","img/S_28.png","生人","self","","朋友"
"","","","","","html-keyboard-response","386","559185","0.0-20.0-0.0-1.0-0.0-1.0","null","<span style='color:GreenYellow; font-size: 70px;'>正确! </span>","null","","","","","","","","","","","","","","","","","","","","","","","feedback_test",""
"","","","","","psychophysics","387","561547","0.0-20.0-0.0-1.0-0.0-0.1","1360","","k","","","","","","","","","","","","","key","k","18.517777777777702","960","536","k","true","img/C_28.png","朋友","self","","生人"
"","","","","","html-keyboard-response","388","561849","0.0-20.0-0.0-1.0-0.0-1.1","null","<span style='color:GreenYellow; font-size: 70px;'>正确! </span>","null","","","","","","","","","","","","","","","","","","","","","","","feedback_test",""
"","","","","","psychophysics","389","563958","0.0-20.0-0.0-1.0-0.0-0.2","1107","","f","","","","","","","","","","","","","key","f","18.918162162162925","960","536","f","true","img/H_28.png","自我","self","","自我"
"","","","","","html-keyboard-response","390","564259","0.0-20.0-0.0-1.0-0.0-1.2","null","<span style='color:GreenYellow; font-size: 70px;'>正确! </span>","null","","","","","","","","","","","","","","","","","","","","","","","feedback_test",""
"","","","","","psychophysics","391","566572","0.0-20.0-0.0-1.0-0.0-0.3","1311","","j","","","","","","","","","","","","","key","j","19.02701666666641","960","536","j","true","img/C_28.png","生人","self","","生人"
"","","","","","html-keyboard-response","392","566873","0.0-20.0-0.0-1.0-0.0-1.3","null","<span style='color:GreenYellow; font-size: 70px;'>正确! </span>","null","","","","","","","","","","","","","","","","","","","","","","","feedback_test",""
"","","","","","psychophysics","393","568772","0.0-20.0-0.0-1.0-0.0-0.4","897","","j","","","","","","","","","","","","","key","j","19.21691836734725","960","536","j","true","img/C_28.png","生人","self","","生人"
"","","","","","html-keyboard-response","394","569074","0.0-20.0-0.0-1.0-0.0-1.4","null","<span style='color:GreenYellow; font-size: 70px;'>正确! </span>","null","","","","","","","","","","","","","","","","","","","","","","","feedback_test",""
"","","","","","psychophysics","395","571132","0.0-20.0-0.0-1.0-0.0-0.5","1056","","j","","","","","","","","","","","","","key","j","19.002355140187802","960","536","f","false","img/H_28.png","自我","self","","自我"
"","","","","","html-keyboard-response","396","571433","0.0-20.0-0.0-1.0-0.0-1.5","null","<span style='color:red; font-size: 70px;'>错误! </span>","null","","","","","","","","","","","","","","","","","","","","","","","feedback_test",""
"","","","","","psychophysics","397","573408","0.0-20.0-0.0-1.0-0.0-0.6","976","","j","","","","","","","","","","","","","key","j","20.96690322580667","960","536","j","true","img/S_28.png","朋友","self","","朋友"
"","","","","","html-keyboard-response","398","573710","0.0-20.0-0.0-1.0-0.0-1.6","null","<span style='color:GreenYellow; font-size: 70px;'>正确! </span>","null","","","","","","","","","","","","","","","","","","","","","","","feedback_test",""
"","","","","","psychophysics","399","575776","0.0-20.0-0.0-1.0-0.0-0.7","1064","","k","","","","","","","","","","","","","key","k","19.158112149532215","960","536","j","false","img/S_28.png","朋友","self","","朋友"
"","","","","","html-keyboard-response","400","576078","0.0-20.0-0.0-1.0-0.0-1.7","null","<span style='color:red; font-size: 70px;'>错误! </span>","null","","","","","","","","","","","","","","","","","","","","","","","feedback_test",""
"","","","","","psychophysics","401","578560","0.0-20.0-0.0-1.0-0.0-0.8","1480","","d","","","","","","","","","","","","","key","d","19.891677419354597","960","536","k","false","img/S_28.png","自我","self","","朋友"
"","","","","","html-keyboard-response","402","578862","0.0-20.0-0.0-1.0-0.0-1.8","null","<span style='color:red; font-size: 70px;'>错误! </span>","null","","","","","","","","","","","","","","","","","","","","","","","feedback_test",""
"","","","","","psychophysics","403","581169","0.0-20.0-0.0-1.0-0.0-0.9","1304","","k","","","","","","","","","","","","","key","k","19.683120689654906","960","536","d","false","img/H_28.png","生人","self","","自我"
"","","","","","html-keyboard-response","404","581471","0.0-20.0-0.0-1.0-0.0-1.9","null","<span style='color:red; font-size: 70px;'>错误! </span>","null","","","","","","","","","","","","","","","","","","","","","","","feedback_test",""
"","","","","","psychophysics","405","583880","0.0-20.0-0.0-1.0-0.0-0.10","1407","","f","","","","","","","","","","","","","key","f","19.37591869918709","960","536","d","false","img/H_28.png","朋友","self","","自我"
"","","","","","html-keyboard-response","406","584181","0.0-20.0-0.0-1.0-0.0-1.10","null","<span style='color:red; font-size: 70px;'>错误! </span>","null","","","","","","","","","","","","","","","","","","","","","","","feedback_test",""
"","","","","","psychophysics","407","586685","0.0-20.0-0.0-1.0-0.0-0.11","null","","null","","","","","","","","","","","","","key","null","18.531597014924916","960","536","k","false","img/C_28.png","自我","self","","生人"
"","","","","","html-keyboard-response","408","586986","0.0-20.0-0.0-1.0-0.0-1.11","null","<span class='add_' style='color:yellow; font-size: 70px;'> 太慢! </span>","null","","","","","","","","","","","","","","","","","","","","","","","feedback_test",""
"","","","","","psychophysics","409","589489","0.0-20.0-0.0-1.0-0.0-0.12","null","","null","","","","","","","","","","","","","key","null","19.40026562499952","960","536","d","false","img/H_28.png","生人","self","","自我"
"","","","","","html-keyboard-response","410","589791","0.0-20.0-0.0-1.0-0.0-1.12","null","<span class='add_' style='color:yellow; font-size: 70px;'> 太慢! </span>","null","","","","","","","","","","","","","","","","","","","","","","","feedback_test",""
"","","","","","psychophysics","411","591720","0.0-20.0-0.0-1.0-0.0-0.13","928","","j","","","","","","","","","","","","","key","j","19.557040816327387","960","536","j","true","img/C_28.png","生人","self","","生人"
"","","","","","html-keyboard-response","412","592021","0.0-20.0-0.0-1.0-0.0-1.13","null","<span style='color:GreenYellow; font-size: 70px;'>正确! </span>","null","","","","","","","","","","","","","","","","","","","","","","","feedback_test",""
"","","","","","psychophysics","413","594272","0.0-20.0-0.0-1.0-0.0-0.14","1249","","j","","","","","","","","","","","","","key","j","18.925796610169048","960","536","j","true","img/S_28.png","朋友","self","","朋友"
"","","","","","html-keyboard-response","414","594573","0.0-20.0-0.0-1.0-0.0-1.14","null","<span style='color:GreenYellow; font-size: 70px;'>正确! </span>","null","","","","","","","","","","","","","","","","","","","","","","","feedback_test",""
"","","","","","psychophysics","415","596787","0.0-20.0-0.0-1.0-0.0-0.15","1212","","j","","","","","","","","","","","","","key","j","18.48665546218399","960","536","k","false","img/C_28.png","自我","self","","生人"
"","","","","","html-keyboard-response","416","597089","0.0-20.0-0.0-1.0-0.0-1.15","null","<span style='color:red; font-size: 70px;'>错误! </span>","null","","","","","","","","","","","","","","","","","","","","","","","feedback_test",""
"","","","","","psychophysics","417","599440","0.0-20.0-0.0-1.0-0.0-0.16","1349","","j","","","","","","","","","","","","","key","j","18.81645161290315","960","536","f","false","img/H_28.png","自我","self","","自我"
"","","","","","html-keyboard-response","418","599742","0.0-20.0-0.0-1.0-0.0-1.16","null","<span style='color:red; font-size: 70px;'>错误! </span>","null","","","","","","","","","","","","","","","","","","","","","","","feedback_test",""
"","","","","","psychophysics","419","602105","0.0-20.0-0.0-1.0-0.0-0.17","1361","","k","","","","","","","","","","","","","key","k","19.10492682926796","960","536","k","true","img/C_28.png","朋友","self","","生人"
"","","","","","html-keyboard-response","420","602407","0.0-20.0-0.0-1.0-0.0-1.17","null","<span style='color:GreenYellow; font-size: 70px;'>正确! </span>","null","","","","","","","","","","","","","","","","","","","","","","","feedback_test",""
"","","","","","psychophysics","421","604680","0.0-20.0-0.0-1.0-0.0-0.18","1271","","k","","","","","","","","","","","","","key","k","19.56443478260898","960","536","d","false","img/H_28.png","朋友","self","","自我"
"","","","","","html-keyboard-response","422","604982","0.0-20.0-0.0-1.0-0.0-1.18","null","<span style='color:red; font-size: 70px;'>错误! </span>","null","","","","","","","","","","","","","","","","","","","","","","","feedback_test",""
"","","","","","psychophysics","423","607344","0.0-20.0-0.0-1.0-0.0-0.19","1359","","j","","","","","","","","","","","","","key","j","19.44366666666659","960","536","j","true","img/S_28.png","朋友","self","","朋友"
