"success","timeout","failed_images","failed_audio","failed_video","trial_type","trial_index","time_elapsed","internal_node_id","rt","stimulus","response","value","item_width_mm","item_height_mm","item_width_px","px2mm","view_dist_mm","item_width_deg","px2deg","scale_factor","win_width_deg","win_height_deg","view_history","response_type","key_press","avg_frame_time","center_x","center_y","correct_response","correct","Image","LeftLable","RightLable","condition","screen_id"
"true","false","[]","[]","[]","preload","0","20","0.0-0.0","","","","","","","","","","","","","","","","","","","","","","","","","","",""
"","","","","","html-keyboard-response","1","29390","0.0-1.0","29367","
     <p>您好，欢迎参加本次实验。</p>
     <p>为充分保障您的权利，请确保您已经知晓并同意《参与实验同意书》以及《数据公开知情同意书》。</p>
     <p>如果您未见过上述内容，请咨询实验员。</p>
     <p>如果您选择继续实验，则表示您已经清楚两份知情同意书的内容并同意。</p>
     <p> <div style = ""color: green""><按任意键至下页></div> </p>
     "," ","","","","","","","","","","","","","","","","","","","","","","","",""
"","","","","","html-keyboard-response","2","30985","0.0-2.0","1595","
     <p>本实验首先需要您填写一些基本个人信息。</p>
     <p> <div style = ""color: green""><按任意键至下页></div></p>
     "," ","","","","","","","","","","","","","","","","","","","","","","","",""
"","","","","","call-function","3","30986","0.0-3.0-0.0","","","","","","","","","","","","","","","","","","","","","","","","","","",""
"","","","","","survey-html-form","4","37114","0.0-3.0-1.0","6124","","{""Q0"":""100""}","","","","","","","","","","","","","","","","","","","","","","","",""
"","","","","","html-button-response","5","38655","0.0-3.0-2.0","1540","<p style = 'color : white'>您的性别</p>","1","","","","","","","","","","","","","","","","","","","","","","","",""
"","","","","","survey-html-form","6","43341","0.0-3.0-3.0","4685","","{""Q0"":""2001""}","","","","","","","","","","","","","","","","","","","","","","","",""
"","","","","","survey-html-form","7","49854","0.0-3.0-4.0","6512","","{""Q0"":""6""}","","","","","","","","","","","","","","","","","","","","","","","",""
"","","","","","virtual-chinrest","8","299451","0.0-4.0","249586","","","","85.6","53.98","417.5337539646817","4.876794246307482","586.28","8.350675079293634","50","0.5987539872552363","29.76","14.8","","","","","","","","","","","","",""
"true","","","","","fullscreen","9","305802","0.0-5.0","","","","","","","","","","","","","","","","","","","","","","","","","","",""
"","","","","","instructions","10","338067","0.0-6.0","32262","","","","","","","","","","","","","","[{""page_index"":0,""viewing_time"":14929},{""page_index"":1,""viewing_time"":4988},{""page_index"":2,""viewing_time"":9786},{""page_index"":3,""viewing_time"":2559}]","","","","","","","","","","","",""
"","","","","","instructions","11","353748","0.0-7.0","15680","","","","","","","","","","","","","","[{""page_index"":0,""viewing_time"":15680}]","","","","","","","","","","","",""
"","","","","","psychophysics","12","360367","0.0-8.0-0.0-0.0","5599","","j","","","","","","","","","","","","","key","j","16.673232323232412","768","428","j","true","img/S_28.png","自我","非自我","freeprac_self",""
"","","","","","html-keyboard-response","13","360679","0.0-8.0-0.0-1.0","null","<span style='color:GreenYellow; font-size: 70px;'>正确! </span>","null","","","","","","","","","","","","","","","","","","","","","","","","feedback_test"
"","","","","","psychophysics","14","362382","0.0-8.0-0.0-0.1","702","","f","","","","","","","","","","","","","key","f","16.669306930692837","768","428","f","true","img/H_28.png","自我","非自我","freeprac_self",""
"","","","","","html-keyboard-response","15","362689","0.0-8.0-0.0-1.1","null","<span style='color:GreenYellow; font-size: 70px;'>正确! </span>","null","","","","","","","","","","","","","","","","","","","","","","","","feedback_test"
"","","","","","psychophysics","16","364245","0.0-8.0-0.0-0.2","547","","j","","","","","","","","","","","","","key","j","16.67499999999975","768","428","j","true","img/C_28.png","自我","非自我","freeprac_self",""
"","","","","","html-keyboard-response","17","364547","0.0-8.0-0.0-1.2","null","<span style='color:GreenYellow; font-size: 70px;'>正确! </span>","null","","","","","","","","","","","","","","","","","","","","","","","","feedback_test"
"","","","","","psychophysics","18","366191","0.0-8.0-0.0-0.3","628","","j","","","","","","","","","","","","","key","j","16.67422680412395","768","428","j","true","img/S_28.png","自我","非自我","freeprac_self",""
"","","","","","html-keyboard-response","19","366494","0.0-8.0-0.0-1.3","null","<span style='color:GreenYellow; font-size: 70px;'>正确! </span>","null","","","","","","","","","","","","","","","","","","","","","","","","feedback_test"
"","","","","","psychophysics","20","368124","0.0-8.0-0.0-0.4","625","","j","","","","","","","","","","","","","key","j","16.67422680412395","768","428","j","true","img/C_28.png","自我","非自我","freeprac_self",""
"","","","","","html-keyboard-response","21","368431","0.0-8.0-0.0-1.4","null","<span style='color:GreenYellow; font-size: 70px;'>正确! </span>","null","","","","","","","","","","","","","","","","","","","","","","","","feedback_test"
"","","","","","psychophysics","22","369895","0.0-8.0-0.0-0.5","462","","f","","","","","","","","","","","","","key","f","16.67325581395376","768","428","f","true","img/H_28.png","自我","非自我","freeprac_self",""
"","","","","","html-keyboard-response","23","370198","0.0-8.0-0.0-1.5","null","<span style='color:GreenYellow; font-size: 70px;'>正确! </span>","null","","","","","","","","","","","","","","","","","","","","","","","","feedback_test"
"","","","","","psychophysics","24","371592","0.0-8.0-0.0-0.6","392","","j","","","","","","","","","","","","","key","j","16.669512195121527","768","428","j","true","img/S_28.png","自我","非自我","freeprac_self",""
"","","","","","html-keyboard-response","25","371896","0.0-8.0-0.0-1.6","null","<span style='color:GreenYellow; font-size: 70px;'>正确! </span>","null","","","","","","","","","","","","","","","","","","","","","","","","feedback_test"
"","","","","","psychophysics","26","373409","0.0-8.0-0.0-0.7","509","","f","","","","","","","","","","","","","key","f","16.671910112360074","768","428","f","true","img/H_28.png","自我","非自我","freeprac_self",""
"","","","","","html-keyboard-response","27","373713","0.0-8.0-0.0-1.7","null","<span style='color:GreenYellow; font-size: 70px;'>正确! </span>","null","","","","","","","","","","","","","","","","","","","","","","","","feedback_test"
"","","","","","psychophysics","28","375088","0.0-8.0-0.0-0.8","370","","j","","","","","","","","","","","","","key","j","16.67195121951262","768","428","j","true","img/C_28.png","自我","非自我","freeprac_self",""
"","","","","","html-keyboard-response","29","375399","0.0-8.0-0.0-1.8","null","<span style='color:GreenYellow; font-size: 70px;'>正确! </span>","null","","","","","","","","","","","","","","","","","","","","","","","","feedback_test"
"","","","","","psychophysics","30","376822","0.0-8.0-0.0-0.9","420","","j","","","","","","","","","","","","","key","j","16.6715058823527","768","428","j","true","img/C_28.png","自我","非自我","freeprac_self",""
"","","","","","html-keyboard-response","31","377133","0.0-8.0-0.0-1.9","null","<span style='color:GreenYellow; font-size: 70px;'>正确! </span>","null","","","","","","","","","","","","","","","","","","","","","","","","feedback_test"
"","","","","","psychophysics","32","378601","0.0-8.0-0.0-0.10","464","","j","","","","","","","","","","","","","key","j","16.674712643678294","768","428","j","true","img/S_28.png","自我","非自我","freeprac_self",""
"","","","","","html-keyboard-response","33","378911","0.0-8.0-0.0-1.10","null","<span style='color:GreenYellow; font-size: 70px;'>正确! </span>","null","","","","","","","","","","","","","","","","","","","","","","","","feedback_test"
"","","","","","psychophysics","34","380353","0.0-8.0-0.0-0.11","433","","f","","","","","","","","","","","","","key","f","16.674117647058686","768","428","f","true","img/H_28.png","自我","非自我","freeprac_self",""
"","","","","","html-keyboard-response","35","380669","0.0-8.0-0.0-1.11","null","<span style='color:GreenYellow; font-size: 70px;'>正确! </span>","null","","","","","","","","","","","","","","","","","","","","","","","","feedback_test"
"","","","","","instructions","36","399469","0.0-9.0","18796","","","","","","","","","","","","","","[{""page_index"":0,""viewing_time"":18795}]","","","","","","","","","","","",""
"","","","","","psychophysics","37","403268","0.0-10.0-0.0-0.0","2788","","j","","","","","","","","","","","","","key","j","16.67356828193843","768","428","j","true","img/H_28.png","朋友","非朋友","freeprac_self",""
"","","","","","html-keyboard-response","38","403576","0.0-10.0-0.0-1.0","null","<span style='color:GreenYellow; font-size: 70px;'>正确! </span>","null","","","","","","","","","","","","","","","","","","","","","","","","feedback_test"
"","","","","","psychophysics","39","405197","0.0-10.0-0.0-0.1","615","","f","","","","","","","","","","","","","key","f","16.676041666666304","768","428","f","true","img/C_28.png","朋友","非朋友","freeprac_self",""
"","","","","","html-keyboard-response","40","405506","0.0-10.0-0.0-1.1","null","<span style='color:GreenYellow; font-size: 70px;'>正确! </span>","null","","","","","","","","","","","","","","","","","","","","","","","","feedback_test"
"","","","","","psychophysics","41","407553","0.0-10.0-0.0-0.2","1037","","j","","","","","","","","","","","","","key","j","17.537068965517644","768","428","j","true","img/S_28.png","朋友","非朋友","freeprac_self",""
"","","","","","html-keyboard-response","42","407858","0.0-10.0-0.0-1.2","null","<span style='color:GreenYellow; font-size: 70px;'>正确! </span>","null","","","","","","","","","","","","","","","","","","","","","","","","feedback_test"
"","","","","","psychophysics","43","410075","0.0-10.0-0.0-0.3","1215","","j","","","","","","","","","","","","","key","j","16.673484848485025","768","428","j","true","img/S_28.png","朋友","非朋友","freeprac_self",""
"","","","","","html-keyboard-response","44","410385","0.0-10.0-0.0-1.3","null","<span style='color:GreenYellow; font-size: 70px;'>正确! </span>","null","","","","","","","","","","","","","","","","","","","","","","","","feedback_test"
"","","","","","psychophysics","45","412199","0.0-10.0-0.0-0.4","801","","j","","","","","","","","","","","","","key","j","16.672897196261683","768","428","j","true","img/H_28.png","朋友","非朋友","freeprac_self",""
"","","","","","html-keyboard-response","46","412507","0.0-10.0-0.0-1.4","null","<span style='color:GreenYellow; font-size: 70px;'>正确! </span>","null","","","","","","","","","","","","","","","","","","","","","","","","feedback_test"
"","","","","","psychophysics","47","414321","0.0-10.0-0.0-0.5","812","","f","","","","","","","","","","","","","key","f","16.673148148148258","768","428","f","true","img/C_28.png","朋友","非朋友","freeprac_self",""
"","","","","","html-keyboard-response","48","414635","0.0-10.0-0.0-1.5","null","<span style='color:GreenYellow; font-size: 70px;'>正确! </span>","null","","","","","","","","","","","","","","","","","","","","","","","","feedback_test"
"","","","","","psychophysics","49","416185","0.0-10.0-0.0-0.6","550","","j","","","","","","","","","","","","","key","j","16.671428571428955","768","428","j","true","img/S_28.png","朋友","非朋友","freeprac_self",""
"","","","","","html-keyboard-response","50","416490","0.0-10.0-0.0-1.6","null","<span style='color:GreenYellow; font-size: 70px;'>正确! </span>","null","","","","","","","","","","","","","","","","","","","","","","","","feedback_test"
"","","","","","psychophysics","51","418090","0.0-10.0-0.0-0.7","588","","f","","","","","","","","","","","","","key","f","16.6715789473683","768","428","f","true","img/C_28.png","朋友","非朋友","freeprac_self",""
"","","","","","html-keyboard-response","52","418406","0.0-10.0-0.0-1.7","null","<span style='color:GreenYellow; font-size: 70px;'>正确! </span>","null","","","","","","","","","","","","","","","","","","","","","","","","feedback_test"
"","","","","","psychophysics","53","420153","0.0-10.0-0.0-0.8","739","","j","","","","","","","","","","","","","key","j","16.672815533981034","768","428","j","true","img/H_28.png","朋友","非朋友","freeprac_self",""
"","","","","","html-keyboard-response","54","420459","0.0-10.0-0.0-1.8","null","<span style='color:GreenYellow; font-size: 70px;'>正确! </span>","null","","","","","","","","","","","","","","","","","","","","","","","","feedback_test"
"","","","","","psychophysics","55","421932","0.0-10.0-0.0-0.9","464","","j","","","","","","","","","","","","","key","j","16.674712643678294","768","428","j","true","img/H_28.png","朋友","非朋友","freeprac_self",""
"","","","","","html-keyboard-response","56","422235","0.0-10.0-0.0-1.9","null","<span style='color:GreenYellow; font-size: 70px;'>正确! </span>","null","","","","","","","","","","","","","","","","","","","","","","","","feedback_test"
"","","","","","psychophysics","57","423922","0.0-10.0-0.0-0.10","684","","f","","","","","","","","","","","","","key","f","16.672999999999885","768","428","f","true","img/C_28.png","朋友","非朋友","freeprac_self",""
"","","","","","html-keyboard-response","58","424232","0.0-10.0-0.0-1.10","null","<span style='color:GreenYellow; font-size: 70px;'>正确! </span>","null","","","","","","","","","","","","","","","","","","","","","","","","feedback_test"
"","","","","","psychophysics","59","425902","0.0-10.0-0.0-0.11","662","","j","","","","","","","","","","","","","key","j","16.674747474747356","768","428","j","true","img/S_28.png","朋友","非朋友","freeprac_self",""
"","","","","","html-keyboard-response","60","426210","0.0-10.0-0.0-1.11","null","<span style='color:GreenYellow; font-size: 70px;'>正确! </span>","null","","","","","","","","","","","","","","","","","","","","","","","","feedback_test"
"","","","","","instructions","61","431673","0.0-11.0","5463","","","","","","","","","","","","","","[{""page_index"":0,""viewing_time"":5463}]","","","","","","","","","","","",""
"","","","","","psychophysics","62","433712","0.0-12.0-0.0-0.0","1037","","j","","","","","","","","","","","","","key","j","16.664462809917065","768","428","j","true","img/H_28.png","生人","非生人","freeprac_self",""
"","","","","","html-keyboard-response","63","434015","0.0-12.0-0.0-1.0","null","<span style='color:GreenYellow; font-size: 70px;'>正确! </span>","null","","","","","","","","","","","","","","","","","","","","","","","","feedback_test"
"","","","","","psychophysics","64","435805","0.0-12.0-0.0-0.1","778","","f","","","","","","","","","","","","","key","f","16.673584905660597","768","428","f","true","img/S_28.png","生人","非生人","freeprac_self",""
"","","","","","html-keyboard-response","65","436113","0.0-12.0-0.0-1.1","null","<span style='color:GreenYellow; font-size: 70px;'>正确! </span>","null","","","","","","","","","","","","","","","","","","","","","","","","feedback_test"
"","","","","","psychophysics","66","438214","0.0-12.0-0.0-0.2","1098","","j","","","","","","","","","","","","","key","j","17.22479338842985","768","428","j","true","img/C_28.png","生人","非生人","freeprac_self",""
"","","","","","html-keyboard-response","67","438522","0.0-12.0-0.0-1.2","null","<span style='color:GreenYellow; font-size: 70px;'>正确! </span>","null","","","","","","","","","","","","","","","","","","","","","","","","feedback_test"
"","","","","","psychophysics","68","439981","0.0-12.0-0.0-0.3","453","","f","","","","","","","","","","","","","key","f","16.675862068965383","768","428","f","true","img/S_28.png","生人","非生人","freeprac_self",""
"","","","","","html-keyboard-response","69","440284","0.0-12.0-0.0-1.3","null","<span style='color:GreenYellow; font-size: 70px;'>正确! </span>","null","","","","","","","","","","","","","","","","","","","","","","","","feedback_test"
"","","","","","psychophysics","70","441711","0.0-12.0-0.0-0.4","416","","j","","","","","","","","","","","","","key","j","16.673809523809247","768","428","j","true","img/C_28.png","生人","非生人","freeprac_self",""
"","","","","","html-keyboard-response","71","442015","0.0-12.0-0.0-1.4","null","<span style='color:GreenYellow; font-size: 70px;'>正确! </span>","null","","","","","","","","","","","","","","","","","","","","","","","","feedback_test"
"","","","","","psychophysics","72","443535","0.0-12.0-0.0-0.5","506","","j","","","","","","","","","","","","","key","j","16.674444444444575","768","428","j","true","img/H_28.png","生人","非生人","freeprac_self",""
"","","","","","html-keyboard-response","73","443839","0.0-12.0-0.0-1.5","null","<span style='color:GreenYellow; font-size: 70px;'>正确! </span>","null","","","","","","","","","","","","","","","","","","","","","","","","feedback_test"
"","","","","","psychophysics","74","445283","0.0-12.0-0.0-0.6","436","","f","","","","","","","","","","","","","key","f","16.67325581395376","768","428","f","true","img/S_28.png","生人","非生人","freeprac_self",""
"","","","","","html-keyboard-response","75","445585","0.0-12.0-0.0-1.6","null","<span style='color:GreenYellow; font-size: 70px;'>正确! </span>","null","","","","","","","","","","","","","","","","","","","","","","","","feedback_test"
"","","","","","psychophysics","76","447002","0.0-12.0-0.0-0.7","403","","j","","","","","","","","","","","","","key","j","16.67500000000014","768","428","j","true","img/C_28.png","生人","非生人","freeprac_self",""
"","","","","","html-keyboard-response","77","447316","0.0-12.0-0.0-1.7","null","<span style='color:GreenYellow; font-size: 70px;'>正确! </span>","null","","","","","","","","","","","","","","","","","","","","","","","","feedback_test"
"","","","","","psychophysics","78","449043","0.0-12.0-0.0-0.8","726","","j","","","","","","","","","","","","","key","j","16.672815533981034","768","428","j","true","img/H_28.png","生人","非生人","freeprac_self",""
"","","","","","html-keyboard-response","79","449348","0.0-12.0-0.0-1.8","null","<span style='color:GreenYellow; font-size: 70px;'>正确! </span>","null","","","","","","","","","","","","","","","","","","","","","","","","feedback_test"
"","","","","","psychophysics","80","451198","0.0-12.0-0.0-0.9","849","","j","","","","","","","","","","","","","key","j","16.675229357797953","768","428","f","false","img/S_28.png","生人","非生人","freeprac_self",""
"","","","","","html-keyboard-response","81","451511","0.0-12.0-0.0-1.9","null","<span style='color:red; font-size: 70px;'>错误! </span>","null","","","","","","","","","","","","","","","","","","","","","","","","feedback_test"
"","","","","","psychophysics","82","453410","0.0-12.0-0.0-0.10","892","","j","","","","","","","","","","","","","key","j","16.672566371681416","768","428","j","true","img/H_28.png","生人","非生人","freeprac_self",""
"","","","","","html-keyboard-response","83","453720","0.0-12.0-0.0-1.10","null","<span style='color:GreenYellow; font-size: 70px;'>正确! </span>","null","","","","","","","","","","","","","","","","","","","","","","","","feedback_test"
"","","","","","psychophysics","84","455738","0.0-12.0-0.0-0.11","1004","","j","","","","","","","","","","","","","key","j","16.67416666666686","768","428","j","true","img/C_28.png","生人","非生人","freeprac_self",""
"","","","","","html-keyboard-response","85","456050","0.0-12.0-0.0-1.11","null","<span style='color:GreenYellow; font-size: 70px;'>正确! </span>","null","","","","","","","","","","","","","","","","","","","","","","","","feedback_test"
"","","","","","html-keyboard-response","86","470403","0.0-13.0","14349","[""<style>.context{color:white; font-size: 35px; line-height:40px}</style>                                        <div><p class='context'>您正确回答了92% 的试次。</p><p class='context'>您的平均反应时为704毫秒。</p><p class='context'>恭喜您完成练习。您可以在此时休息一段时间，准备好后按任意键进入正式实验。</p><p class='footer' style='font-size: 35px; line-height:40px;'>请在进入正式实验实验之前将您的<span style='color: lightgreen;'>食指和中指</span>放在电脑键盘的相应键位上，做好按键准备。</p>""]"," ","","","","","","","","","","","","","","","","","","","","","","","",""
"","","","","","html-keyboard-response","87","475610","0.0-14.0-2.0-0.0","5205","
      <p>请您将食指和中指放在相应按键上，准备进入<span style='color: yellow;'>生人图形分类任务</span></p>
      <p> <div style = ""color: green""><按任意键开始></div></p>
      "," ","","","","","","","","","","","","","","","","","","","","","","","",""
"","","","","","psychophysics","88","478112","0.0-14.0-2.0-1.0-0.0-0.0","null","","null","","","","","","","","","","","","","key","null","16.675167785235132","768","428","f","false","img/S_28.png","生人","非生人","stranger",""
"","","","","","html-keyboard-response","89","478415","0.0-14.0-2.0-1.0-0.0-1.0","null","<span class='add_' style='color:yellow; font-size: 70px;'> 太慢! </span>","null","","","","","","","","","","","","","","","","","","","","","","","","feedback_test"
"","","","","","psychophysics","90","479967","0.0-14.0-2.0-1.0-0.0-0.1","538","","j","","","","","","","","","","","","","key","j","16.67499999999975","768","428","j","true","img/H_28.png","生人","非生人","stranger",""
"","","","","","html-keyboard-response","91","480270","0.0-14.0-2.0-1.0-0.0-1.1","null","<span style='color:GreenYellow; font-size: 70px;'>正确! </span>","null","","","","","","","","","","","","","","","","","","","","","","","","feedback_test"
"","","","","","psychophysics","92","481914","0.0-14.0-2.0-1.0-0.0-0.2","635","","j","","","","","","","","","","","","","key","j","16.6734693877551","768","428","j","true","img/C_28.png","生人","非生人","stranger",""
"","","","","","html-keyboard-response","93","482221","0.0-14.0-2.0-1.0-0.0-1.2","null","<span style='color:GreenYellow; font-size: 70px;'>正确! </span>","null","","","","","","","","","","","","","","","","","","","","","","","","feedback_test"
"","","","","","psychophysics","94","483841","0.0-14.0-2.0-1.0-0.0-0.3","611","","j","","","","","","","","","","","","","key","j","16.67395833333285","768","428","j","true","img/C_28.png","生人","非生人","stranger",""
"","","","","","html-keyboard-response","95","484155","0.0-14.0-2.0-1.0-0.0-1.3","null","<span style='color:GreenYellow; font-size: 70px;'>正确! </span>","null","","","","","","","","","","","","","","","","","","","","","","","","feedback_test"
"","","","","","psychophysics","96","485916","0.0-14.0-2.0-1.0-0.0-0.4","752","","j","","","","","","","","","","","","","key","j","16.67333333333289","768","428","j","true","img/H_28.png","生人","非生人","stranger",""
"","","","","","html-keyboard-response","97","486231","0.0-14.0-2.0-1.0-0.0-1.4","null","<span style='color:GreenYellow; font-size: 70px;'>正确! </span>","null","","","","","","","","","","","","","","","","","","","","","","","","feedback_test"
"","","","","","psychophysics","98","488298","0.0-14.0-2.0-1.0-0.0-0.5","1066","","j","","","","","","","","","","","","","key","j","16.67459016393433","768","428","f","false","img/S_28.png","生人","非生人","stranger",""
"","","","","","html-keyboard-response","99","488602","0.0-14.0-2.0-1.0-0.0-1.5","null","<span style='color:red; font-size: 70px;'>错误! </span>","null","","","","","","","","","","","","","","","","","","","","","","","","feedback_test"
"","","","","","psychophysics","100","490799","0.0-14.0-2.0-1.0-0.0-0.6","1193","","j","","","","","","","","","","","","","key","j","16.673076923076923","768","428","f","false","img/S_28.png","生人","非生人","stranger",""
"","","","","","html-keyboard-response","101","491106","0.0-14.0-2.0-1.0-0.0-1.6","null","<span style='color:red; font-size: 70px;'>错误! </span>","null","","","","","","","","","","","","","","","","","","","","","","","","feedback_test"
"","","","","","psychophysics","102","493060","0.0-14.0-2.0-1.0-0.0-0.7","951","","j","","","","","","","","","","","","","key","j","16.673275862069268","768","428","j","true","img/H_28.png","生人","非生人","stranger",""
"","","","","","html-keyboard-response","103","493371","0.0-14.0-2.0-1.0-0.0-1.7","null","<span style='color:GreenYellow; font-size: 70px;'>正确! </span>","null","","","","","","","","","","","","","","","","","","","","","","","","feedback_test"
"","","","","","psychophysics","104","495113","0.0-14.0-2.0-1.0-0.0-0.8","741","","j","","","","","","","","","","","","","key","j","16.67281553398047","768","428","j","true","img/C_28.png","生人","非生人","stranger",""
"","","","","","html-keyboard-response","105","495420","0.0-14.0-2.0-1.0-0.0-1.8","null","<span style='color:GreenYellow; font-size: 70px;'>正确! </span>","null","","","","","","","","","","","","","","","","","","","","","","","","feedback_test"
"","","","","","psychophysics","106","496983","0.0-14.0-2.0-1.0-0.0-0.9","556","","f","","","","","","","","","","","","","key","f","16.67065217391317","768","428","f","true","img/S_28.png","生人","非生人","stranger",""
"","","","","","html-keyboard-response","107","497285","0.0-14.0-2.0-1.0-0.0-1.9","null","<span style='color:GreenYellow; font-size: 70px;'>正确! </span>","null","","","","","","","","","","","","","","","","","","","","","","","","feedback_test"
"","","","","","psychophysics","108","498829","0.0-14.0-2.0-1.0-0.0-0.10","543","","j","","","","","","","","","","","","","key","j","16.673626373626245","768","428","j","true","img/H_28.png","生人","非生人","stranger",""
"","","","","","html-keyboard-response","109","499141","0.0-14.0-2.0-1.0-0.0-1.10","null","<span style='color:GreenYellow; font-size: 70px;'>正确! </span>","null","","","","","","","","","","","","","","","","","","","","","","","","feedback_test"
"","","","","","psychophysics","110","501447","0.0-14.0-2.0-1.0-0.0-0.11","1294","","j","","","","","","","","","","","","","key","j","16.672992700730013","768","428","j","true","img/C_28.png","生人","非生人","stranger",""
"","","","","","html-keyboard-response","111","501751","0.0-14.0-2.0-1.0-0.0-1.11","null","<span style='color:GreenYellow; font-size: 70px;'>正确! </span>","null","","","","","","","","","","","","","","","","","","","","","","","","feedback_test"
"","","","","","html-keyboard-response","112","506825","0.0-14.0-2.0-1.0-1.0","5073","<style>.context{color:white; font-size: 35px; line-height:40px}</style>                          <div><p class='context'>您正确回答了75% 的试次。</p><p class='context'>您的平均反应时为736毫秒。</p><p class='context'>请按任意键进入休息</p></div>"," ","","","","","","","","","","","","","","","","","","","","","","","",""
"","","","","","html-button-response","113","537783","0.0-14.0-2.0-1.0-2.0","30954","
                  <p>生人图形分类任务中，您还剩余4组实验</p>
                  <p>现在是休息时间，当您结束休息后，您可以点击 结束休息 按钮 继续</p>
                  <p>建议休息时间还剩余<span id=""iii"">60</span>秒</p>","0","","","","","","","","","","","","","","","","","","","","","","","",""
"","","","","","psychophysics","114","540118","0.0-14.0-2.0-1.0-0.1-0.12","1332","","j","","","","","","","","","","","","","key","j","16.67316546762553","768","428","j","true","img/C_28.png","生人","非生人","stranger",""
"","","","","","html-keyboard-response","115","540433","0.0-14.0-2.0-1.0-0.1-1.12","null","<span style='color:GreenYellow; font-size: 70px;'>正确! </span>","null","","","","","","","","","","","","","","","","","","","","","","","","feedback_test"
"","","","","","psychophysics","116","542244","0.0-14.0-2.0-1.0-0.1-0.13","806","","f","","","","","","","","","","","","","key","f","17.484466019417702","768","428","f","true","img/S_28.png","生人","非生人","stranger",""
"","","","","","html-keyboard-response","117","542546","0.0-14.0-2.0-1.0-0.1-1.13","null","<span style='color:GreenYellow; font-size: 70px;'>正确! </span>","null","","","","","","","","","","","","","","","","","","","","","","","","feedback_test"
"","","","","","psychophysics","118","544021","0.0-14.0-2.0-1.0-0.1-0.14","466","","j","","","","","","","","","","","","","key","j","16.673563218390537","768","428","j","true","img/H_28.png","生人","非生人","stranger",""
"","","","","","html-keyboard-response","119","544338","0.0-14.0-2.0-1.0-0.1-1.14","null","<span style='color:GreenYellow; font-size: 70px;'>正确! </span>","null","","","","","","","","","","","","","","","","","","","","","","","","feedback_test"
"","","","","","psychophysics","120","545761","0.0-14.0-2.0-1.0-0.1-0.15","422","","f","","","","","","","","","","","","","key","f","16.675000000000832","768","428","f","true","img/S_28.png","生人","非生人","stranger",""
"","","","","","html-keyboard-response","121","546070","0.0-14.0-2.0-1.0-0.1-1.15","null","<span style='color:GreenYellow; font-size: 70px;'>正确! </span>","null","","","","","","","","","","","","","","","","","","","","","","","","feedback_test"
"","","","","","psychophysics","122","547519","0.0-14.0-2.0-1.0-0.1-0.16","446","","j","","","","","","","","","","","","","key","j","16.675581395348566","768","428","j","true","img/H_28.png","生人","非生人","stranger",""
"","","","","","html-keyboard-response","123","547833","0.0-14.0-2.0-1.0-0.1-1.16","null","<span style='color:GreenYellow; font-size: 70px;'>正确! </span>","null","","","","","","","","","","","","","","","","","","","","","","","","feedback_test"
"","","","","","psychophysics","124","549291","0.0-14.0-2.0-1.0-0.1-0.17","450","","j","","","","","","","","","","","","","key","j","16.674418604651162","768","428","j","true","img/C_28.png","生人","非生人","stranger",""
"","","","","","html-keyboard-response","125","549595","0.0-14.0-2.0-1.0-0.1-1.17","null","<span style='color:GreenYellow; font-size: 70px;'>正确! </span>","null","","","","","","","","","","","","","","","","","","","","","","","","feedback_test"
"","","","","","psychophysics","126","550939","0.0-14.0-2.0-1.0-0.1-0.18","335","","f","","","","","","","","","","","","","key","f","16.673417721518398","768","428","f","true","img/S_28.png","生人","非生人","stranger",""
"","","","","","html-keyboard-response","127","551249","0.0-14.0-2.0-1.0-0.1-1.18","null","<span style='color:GreenYellow; font-size: 70px;'>正确! </span>","null","","","","","","","","","","","","","","","","","","","","","","","","feedback_test"
"","","","","","psychophysics","128","552693","0.0-14.0-2.0-1.0-0.1-0.19","433","","j","","","","","","","","","","","","","key","j","17.485365853657683","768","428","j","true","img/H_28.png","生人","非生人","stranger",""
"","","","","","html-keyboard-response","129","552994","0.0-14.0-2.0-1.0-0.1-1.19","null","<span style='color:GreenYellow; font-size: 70px;'>正确! </span>","null","","","","","","","","","","","","","","","","","","","","","","","","feedback_test"
"","","","","","psychophysics","130","554398","0.0-14.0-2.0-1.0-0.1-0.20","403","","j","","","","","","","","","","","","","key","j","16.672289156627066","768","428","j","true","img/C_28.png","生人","非生人","stranger",""
"","","","","","html-keyboard-response","131","554700","0.0-14.0-2.0-1.0-0.1-1.20","null","<span style='color:GreenYellow; font-size: 70px;'>正确! </span>","null","","","","","","","","","","","","","","","","","","","","","","","","feedback_test"
"","","","","","psychophysics","132","556059","0.0-14.0-2.0-1.0-0.1-0.21","349","","f","","","","","","","","","","","","","key","f","16.675","768","428","f","true","img/S_28.png","生人","非生人","stranger",""
"","","","","","html-keyboard-response","133","556369","0.0-14.0-2.0-1.0-0.1-1.21","null","<span style='color:GreenYellow; font-size: 70px;'>正确! </span>","null","","","","","","","","","","","","","","","","","","","","","","","","feedback_test"
"","","","","","psychophysics","134","557738","0.0-14.0-2.0-1.0-0.1-0.22","367","","j","","","","","","","","","","","","","key","j","16.674074074073786","768","428","j","true","img/C_28.png","生人","非生人","stranger",""
"","","","","","html-keyboard-response","135","558041","0.0-14.0-2.0-1.0-0.1-1.22","null","<span style='color:GreenYellow; font-size: 70px;'>正确! </span>","null","","","","","","","","","","","","","","","","","","","","","","","","feedback_test"
"","","","","","psychophysics","136","559428","0.0-14.0-2.0-1.0-0.1-0.23","384","","j","","","","","","","","","","","","","key","j","16.675609756097845","768","428","j","true","img/H_28.png","生人","非生人","stranger",""
"","","","","","html-keyboard-response","137","559739","0.0-14.0-2.0-1.0-0.1-1.23","null","<span style='color:GreenYellow; font-size: 70px;'>正确! </span>","null","","","","","","","","","","","","","","","","","","","","","","","","feedback_test"
"","","","","","html-keyboard-response","138","562860","0.0-14.0-2.0-1.0-1.1","3121","<style>.context{color:white; font-size: 35px; line-height:40px}</style>                          <div><p class='context'>您正确回答了100% 的试次。</p><p class='context'>您的平均反应时为516毫秒。</p><p class='context'>请按任意键进入休息</p></div>"," ","","","","","","","","","","","","","","","","","","","","","","","",""
"","","","","","html-button-response","139","567740","0.0-14.0-2.0-1.0-2.1","4877","
                  <p>生人图形分类任务中，您还剩余3组实验</p>
                  <p>现在是休息时间，当您结束休息后，您可以点击 结束休息 按钮 继续</p>
                  <p>建议休息时间还剩余<span id=""iii"">60</span>秒</p>","0","","","","","","","","","","","","","","","","","","","","","","","",""
"","","","","","psychophysics","140","569336","0.0-14.0-2.0-1.0-0.2-0.24","592","","j","","","","","","","","","","","","","key","j","16.673684210526314","768","428","j","true","img/C_28.png","生人","非生人","stranger",""
"","","","","","html-keyboard-response","141","569637","0.0-14.0-2.0-1.0-0.2-1.24","null","<span style='color:GreenYellow; font-size: 70px;'>正确! </span>","null","","","","","","","","","","","","","","","","","","","","","","","","feedback_test"
"","","","","","psychophysics","142","571272","0.0-14.0-2.0-1.0-0.2-0.25","622","","j","","","","","","","","","","","","","key","j","16.675257731958762","768","428","j","true","img/H_28.png","生人","非生人","stranger",""
"","","","","","html-keyboard-response","143","571573","0.0-14.0-2.0-1.0-0.2-1.25","null","<span style='color:GreenYellow; font-size: 70px;'>正确! </span>","null","","","","","","","","","","","","","","","","","","","","","","","","feedback_test"
"","","","","","psychophysics","144","572952","0.0-14.0-2.0-1.0-0.2-0.26","377","","f","","","","","","","","","","","","","key","f","16.66987951807201","768","428","f","true","img/S_28.png","生人","非生人","stranger",""
"","","","","","html-keyboard-response","145","573259","0.0-14.0-2.0-1.0-0.2-1.26","null","<span style='color:GreenYellow; font-size: 70px;'>正确! </span>","null","","","","","","","","","","","","","","","","","","","","","","","","feedback_test"
"","","","","","psychophysics","146","574770","0.0-14.0-2.0-1.0-0.2-0.27","504","","j","","","","","","","","","","","","","key","j","16.67444444444522","768","428","j","true","img/H_28.png","生人","非生人","stranger",""
"","","","","","html-keyboard-response","147","575082","0.0-14.0-2.0-1.0-0.2-1.27","null","<span style='color:GreenYellow; font-size: 70px;'>正确! </span>","null","","","","","","","","","","","","","","","","","","","","","","","","feedback_test"
"","","","","","psychophysics","148","576563","0.0-14.0-2.0-1.0-0.2-0.28","479","","j","","","","","","","","","","","","","key","j","16.674712643678962","768","428","j","true","img/C_28.png","生人","非生人","stranger",""
"","","","","","html-keyboard-response","149","576870","0.0-14.0-2.0-1.0-0.2-1.28","null","<span style='color:GreenYellow; font-size: 70px;'>正确! </span>","null","","","","","","","","","","","","","","","","","","","","","","","","feedback_test"
"","","","","","psychophysics","150","578189","0.0-14.0-2.0-1.0-0.2-0.29","304","","f","","","","","","","","","","","","","key","f","16.673076923076923","768","428","f","true","img/S_28.png","生人","非生人","stranger",""
"","","","","","html-keyboard-response","151","578492","0.0-14.0-2.0-1.0-0.2-1.29","null","<span style='color:GreenYellow; font-size: 70px;'>正确! </span>","null","","","","","","","","","","","","","","","","","","","","","","","","feedback_test"
"","","","","","psychophysics","152","579824","0.0-14.0-2.0-1.0-0.2-0.30","322","","j","","","","","","","","","","","","","key","j","16.670886075949365","768","428","j","true","img/H_28.png","生人","非生人","stranger",""
"","","","","","html-keyboard-response","153","580131","0.0-14.0-2.0-1.0-0.2-1.30","null","<span style='color:GreenYellow; font-size: 70px;'>正确! </span>","null","","","","","","","","","","","","","","","","","","","","","","","","feedback_test"
"","","","","","psychophysics","154","581512","0.0-14.0-2.0-1.0-0.2-0.31","376","","j","","","","","","","","","","","","","key","j","17.75584415584355","768","428","j","true","img/C_28.png","生人","非生人","stranger",""
"","","","","","html-keyboard-response","155","581815","0.0-14.0-2.0-1.0-0.2-1.31","null","<span style='color:GreenYellow; font-size: 70px;'>正确! </span>","null","","","","","","","","","","","","","","","","","","","","","","","","feedback_test"
"","","","","","psychophysics","156","583327","0.0-14.0-2.0-1.0-0.2-0.32","507","","f","","","","","","","","","","","","","key","f","16.676666666666925","768","428","f","true","img/S_28.png","生人","非生人","stranger",""
"","","","","","html-keyboard-response","157","583637","0.0-14.0-2.0-1.0-0.2-1.32","null","<span style='color:GreenYellow; font-size: 70px;'>正确! </span>","null","","","","","","","","","","","","","","","","","","","","","","","","feedback_test"
"","","","","","psychophysics","158","585115","0.0-14.0-2.0-1.0-0.2-0.33","476","","f","","","","","","","","","","","","","key","f","16.67126436781636","768","428","f","true","img/S_28.png","生人","非生人","stranger",""
"","","","","","html-keyboard-response","159","585416","0.0-14.0-2.0-1.0-0.2-1.33","null","<span style='color:GreenYellow; font-size: 70px;'>正确! </span>","null","","","","","","","","","","","","","","","","","","","","","","","","feedback_test"
"","","","","","psychophysics","160","586895","0.0-14.0-2.0-1.0-0.2-0.34","473","","j","","","","","","","","","","","","","key","j","16.673863636362842","768","428","j","true","img/H_28.png","生人","非生人","stranger",""
"","","","","","html-keyboard-response","161","587207","0.0-14.0-2.0-1.0-0.2-1.34","null","<span style='color:GreenYellow; font-size: 70px;'>正确! </span>","null","","","","","","","","","","","","","","","","","","","","","","","","feedback_test"
"","","","","","psychophysics","162","588569","0.0-14.0-2.0-1.0-0.2-0.35","348","","j","","","","","","","","","","","","","key","j","16.675","768","428","j","true","img/C_28.png","生人","非生人","stranger",""
"","","","","","html-keyboard-response","163","588877","0.0-14.0-2.0-1.0-0.2-1.35","null","<span style='color:GreenYellow; font-size: 70px;'>正确! </span>","null","","","","","","","","","","","","","","","","","","","","","","","","feedback_test"
"","","","","","html-keyboard-response","164","590768","0.0-14.0-2.0-1.0-1.2","1889","<style>.context{color:white; font-size: 35px; line-height:40px}</style>                          <div><p class='context'>您正确回答了100% 的试次。</p><p class='context'>您的平均反应时为448毫秒。</p><p class='context'>请按任意键进入休息</p></div>"," ","","","","","","","","","","","","","","","","","","","","","","","",""
"","","","","","html-button-response","165","592720","0.0-14.0-2.0-1.0-2.2","1947","
                  <p>生人图形分类任务中，您还剩余2组实验</p>
                  <p>现在是休息时间，当您结束休息后，您可以点击 结束休息 按钮 继续</p>
                  <p>建议休息时间还剩余<span id=""iii"">60</span>秒</p>","0","","","","","","","","","","","","","","","","","","","","","","","",""
"","","","","","psychophysics","166","594238","0.0-14.0-2.0-1.0-0.3-0.36","511","","j","","","","","","","","","","","","","key","j","16.67333333333437","768","428","j","true","img/H_28.png","生人","非生人","stranger",""
"","","","","","html-keyboard-response","167","594545","0.0-14.0-2.0-1.0-0.3-1.36","null","<span style='color:GreenYellow; font-size: 70px;'>正确! </span>","null","","","","","","","","","","","","","","","","","","","","","","","","feedback_test"
"","","","","","psychophysics","168","595832","0.0-14.0-2.0-1.0-0.3-0.37","285","","j","","","","","","","","","","","","","key","j","16.672368421052326","768","428","j","true","img/C_28.png","生人","非生人","stranger",""
"","","","","","html-keyboard-response","169","596141","0.0-14.0-2.0-1.0-0.3-1.37","null","<span style='color:GreenYellow; font-size: 70px;'>正确! </span>","null","","","","","","","","","","","","","","","","","","","","","","","","feedback_test"
"","","","","","psychophysics","170","597644","0.0-14.0-2.0-1.0-0.3-0.38","499","","f","","","","","","","","","","","","","key","f","16.67528089887745","768","428","f","true","img/S_28.png","生人","非生人","stranger",""
"","","","","","html-keyboard-response","171","597960","0.0-14.0-2.0-1.0-0.3-1.38","null","<span style='color:GreenYellow; font-size: 70px;'>正确! </span>","null","","","","","","","","","","","","","","","","","","","","","","","","feedback_test"
"","","","","","psychophysics","172","599387","0.0-14.0-2.0-1.0-0.3-0.39","425","","f","","","","","","","","","","","","","key","f","16.66428571428627","768","428","f","true","img/S_28.png","生人","非生人","stranger",""
"","","","","","html-keyboard-response","173","599690","0.0-14.0-2.0-1.0-0.3-1.39","null","<span style='color:GreenYellow; font-size: 70px;'>正确! </span>","null","","","","","","","","","","","","","","","","","","","","","","","","feedback_test"
"","","","","","psychophysics","174","601083","0.0-14.0-2.0-1.0-0.3-0.40","386","","j","","","","","","","","","","","","","key","j","16.67590361445755","768","428","j","true","img/C_28.png","生人","非生人","stranger",""
"","","","","","html-keyboard-response","175","601385","0.0-14.0-2.0-1.0-0.3-1.40","null","<span style='color:GreenYellow; font-size: 70px;'>正确! </span>","null","","","","","","","","","","","","","","","","","","","","","","","","feedback_test"
"","","","","","psychophysics","176","602755","0.0-14.0-2.0-1.0-0.3-0.41","358","","j","","","","","","","","","","","","","key","j","16.674074074073786","768","428","j","true","img/H_28.png","生人","非生人","stranger",""
"","","","","","html-keyboard-response","177","603056","0.0-14.0-2.0-1.0-0.3-1.41","null","<span style='color:GreenYellow; font-size: 70px;'>正确! </span>","null","","","","","","","","","","","","","","","","","","","","","","","","feedback_test"
"","","","","","psychophysics","178","604463","0.0-14.0-2.0-1.0-0.3-0.42","399","","j","","","","","","","","","","","","","key","j","16.673493975903895","768","428","j","true","img/C_28.png","生人","非生人","stranger",""
"","","","","","html-keyboard-response","179","604771","0.0-14.0-2.0-1.0-0.3-1.42","null","<span style='color:GreenYellow; font-size: 70px;'>正确! </span>","null","","","","","","","","","","","","","","","","","","","","","","","","feedback_test"
"","","","","","psychophysics","180","606125","0.0-14.0-2.0-1.0-0.3-0.43","344","","f","","","","","","","","","","","","","key","f","16.673749999998837","768","428","f","true","img/S_28.png","生人","非生人","stranger",""
"","","","","","html-keyboard-response","181","606437","0.0-14.0-2.0-1.0-0.3-1.43","null","<span style='color:GreenYellow; font-size: 70px;'>正确! </span>","null","","","","","","","","","","","","","","","","","","","","","","","","feedback_test"
"","","","","","psychophysics","182","607855","0.0-14.0-2.0-1.0-0.3-0.44","407","","j","","","","","","","","","","","","","key","j","16.671428571428848","768","428","j","true","img/H_28.png","生人","非生人","stranger",""
"","","","","","html-keyboard-response","183","608166","0.0-14.0-2.0-1.0-0.3-1.44","null","<span style='color:GreenYellow; font-size: 70px;'>正确! </span>","null","","","","","","","","","","","","","","","","","","","","","","","","feedback_test"
"","","","","","psychophysics","184","609571","0.0-14.0-2.0-1.0-0.3-0.45","405","","f","","","","","","","","","","","","","key","f","16.672289156625663","768","428","f","true","img/S_28.png","生人","非生人","stranger",""
"","","","","","html-keyboard-response","185","609878","0.0-14.0-2.0-1.0-0.3-1.45","null","<span style='color:GreenYellow; font-size: 70px;'>正确! </span>","null","","","","","","","","","","","","","","","","","","","","","","","","feedback_test"
"","","","","","psychophysics","186","611267","0.0-14.0-2.0-1.0-0.3-0.46","387","","j","","","","","","","","","","","","","key","j","16.672289156625663","768","428","j","true","img/C_28.png","生人","非生人","stranger",""
"","","","","","html-keyboard-response","187","611580","0.0-14.0-2.0-1.0-0.3-1.46","null","<span style='color:GreenYellow; font-size: 70px;'>正确! </span>","null","","","","","","","","","","","","","","","","","","","","","","","","feedback_test"
"","","","","","psychophysics","188","612953","0.0-14.0-2.0-1.0-0.3-0.47","369","","j","","","","","","","","","","","","","key","j","16.673243902439093","768","428","j","true","img/H_28.png","生人","非生人","stranger",""
"","","","","","html-keyboard-response","189","613264","0.0-14.0-2.0-1.0-0.3-1.47","null","<span style='color:GreenYellow; font-size: 70px;'>正确! </span>","null","","","","","","","","","","","","","","","","","","","","","","","","feedback_test"
"","","","","","html-keyboard-response","190","615066","0.0-14.0-2.0-1.0-1.3","1802","<style>.context{color:white; font-size: 35px; line-height:40px}</style>                          <div><p class='context'>您正确回答了100% 的试次。</p><p class='context'>您的平均反应时为398毫秒。</p><p class='context'>请按任意键进入休息</p></div>"," ","","","","","","","","","","","","","","","","","","","","","","","",""
"","","","","","html-button-response","191","617197","0.0-14.0-2.0-1.0-2.3","2129","
                  <p>生人图形分类任务中，您还剩余1组实验</p>
                  <p>现在是休息时间，当您结束休息后，您可以点击 结束休息 按钮 继续</p>
                  <p>建议休息时间还剩余<span id=""iii"">60</span>秒</p>","0","","","","","","","","","","","","","","","","","","","","","","","",""
"","","","","","psychophysics","192","618773","0.0-14.0-2.0-1.0-0.4-0.48","570","","j","","","","","","","","","","","","","key","j","16.67234042553142","768","428","j","true","img/H_28.png","生人","非生人","stranger",""
"","","","","","html-keyboard-response","193","619082","0.0-14.0-2.0-1.0-0.4-1.48","null","<span style='color:GreenYellow; font-size: 70px;'>正确! </span>","null","","","","","","","","","","","","","","","","","","","","","","","","feedback_test"
"","","","","","psychophysics","194","620410","0.0-14.0-2.0-1.0-0.4-0.49","323","","j","","","","","","","","","","","","","key","j","16.674358974358675","768","428","j","true","img/C_28.png","生人","非生人","stranger",""
"","","","","","html-keyboard-response","195","620718","0.0-14.0-2.0-1.0-0.4-1.49","null","<span style='color:GreenYellow; font-size: 70px;'>正确! </span>","null","","","","","","","","","","","","","","","","","","","","","","","","feedback_test"
"","","","","","psychophysics","196","622165","0.0-14.0-2.0-1.0-0.4-0.50","444","","f","","","","","","","","","","","","","key","f","16.67294117647004","768","428","f","true","img/S_28.png","生人","非生人","stranger",""
"","","","","","html-keyboard-response","197","622480","0.0-14.0-2.0-1.0-0.4-1.50","null","<span style='color:GreenYellow; font-size: 70px;'>正确! </span>","null","","","","","","","","","","","","","","","","","","","","","","","","feedback_test"
"","","","","","psychophysics","198","623856","0.0-14.0-2.0-1.0-0.4-0.51","375","","j","","","","","","","","","","","","","key","j","16.671951219513332","768","428","j","true","img/H_28.png","生人","非生人","stranger",""
"","","","","","html-keyboard-response","199","624165","0.0-14.0-2.0-1.0-0.4-1.51","null","<span style='color:GreenYellow; font-size: 70px;'>正确! </span>","null","","","","","","","","","","","","","","","","","","","","","","","","feedback_test"
"","","","","","psychophysics","200","625694","0.0-14.0-2.0-1.0-0.4-0.52","528","","f","","","","","","","","","","","","","key","f","16.673626373626885","768","428","f","true","img/S_28.png","生人","非生人","stranger",""
"","","","","","html-keyboard-response","201","626008","0.0-14.0-2.0-1.0-0.4-1.52","null","<span style='color:GreenYellow; font-size: 70px;'>正确! </span>","null","","","","","","","","","","","","","","","","","","","","","","","","feedback_test"
"","","","","","psychophysics","202","627586","0.0-14.0-2.0-1.0-0.4-0.53","566","","j","","","","","","","","","","","","","key","j","16.674193548386597","768","428","j","true","img/C_28.png","生人","非生人","stranger",""
"","","","","","html-keyboard-response","203","627891","0.0-14.0-2.0-1.0-0.4-1.53","null","<span style='color:GreenYellow; font-size: 70px;'>正确! </span>","null","","","","","","","","","","","","","","","","","","","","","","","","feedback_test"
"","","","","","psychophysics","204","629345","0.0-14.0-2.0-1.0-0.4-0.54","442","","f","","","","","","","","","","","","","key","f","16.672093023255","768","428","f","true","img/S_28.png","生人","非生人","stranger",""
"","","","","","html-keyboard-response","205","629654","0.0-14.0-2.0-1.0-0.4-1.54","null","<span style='color:GreenYellow; font-size: 70px;'>正确! </span>","null","","","","","","","","","","","","","","","","","","","","","","","","feedback_test"
"","","","","","psychophysics","206","631065","0.0-14.0-2.0-1.0-0.4-0.55","408","","j","","","","","","","","","","","","","key","j","16.667857142856867","768","428","j","true","img/C_28.png","生人","非生人","stranger",""
"","","","","","html-keyboard-response","207","631369","0.0-14.0-2.0-1.0-0.4-1.55","null","<span style='color:GreenYellow; font-size: 70px;'>正确! </span>","null","","","","","","","","","","","","","","","","","","","","","","","","feedback_test"
"","","","","","psychophysics","208","632821","0.0-14.0-2.0-1.0-0.4-0.56","447","","f","","","","","","","","","","","","","key","f","16.675581395348566","768","428","j","false","img/H_28.png","生人","非生人","stranger",""
"","","","","","html-keyboard-response","209","633129","0.0-14.0-2.0-1.0-0.4-1.56","null","<span style='color:red; font-size: 70px;'>错误! </span>","null","","","","","","","","","","","","","","","","","","","","","","","","feedback_test"
"","","","","","psychophysics","210","634644","0.0-14.0-2.0-1.0-0.4-0.57","502","","f","","","","","","","","","","","","","key","f","16.67222222222222","768","428","f","true","img/S_28.png","生人","非生人","stranger",""
"","","","","","html-keyboard-response","211","634955","0.0-14.0-2.0-1.0-0.4-1.57","null","<span style='color:GreenYellow; font-size: 70px;'>正确! </span>","null","","","","","","","","","","","","","","","","","","","","","","","","feedback_test"
"","","","","","psychophysics","212","636386","0.0-14.0-2.0-1.0-0.4-0.58","427","","j","","","","","","","","","","","","","key","j","16.675294117647333","768","428","j","true","img/C_28.png","生人","非生人","stranger",""
"","","","","","html-keyboard-response","213","636693","0.0-14.0-2.0-1.0-0.4-1.58","null","<span style='color:GreenYellow; font-size: 70px;'>正确! </span>","null","","","","","","","","","","","","","","","","","","","","","","","","feedback_test"
"","","","","","psychophysics","214","638118","0.0-14.0-2.0-1.0-0.4-0.59","424","","j","","","","","","","","","","","","","key","j","16.671428571427462","768","428","j","true","img/H_28.png","生人","非生人","stranger",""
"","","","","","html-keyboard-response","215","638429","0.0-14.0-2.0-1.0-0.4-1.59","null","<span style='color:GreenYellow; font-size: 70px;'>正确! </span>","null","","","","","","","","","","","","","","","","","","","","","","","","feedback_test"
"","","","","","html-keyboard-response","216","640020","0.0-14.0-2.0-1.0-1.4","1590","<style>.context{color:white; font-size: 35px; line-height:40px}</style>                          <div><p class='context'>您正确回答了92% 的试次。</p><p class='context'>您的平均反应时为455毫秒。</p><p class='context'>请按任意键进入休息</p></div>"," ","","","","","","","","","","","","","","","","","","","","","","","",""
"","","","","","html-button-response","217","687449","0.0-14.0-2.0-1.0-2.4","47424","
                  <p>生人图形分类任务中，您还剩余0组实验</p>
                  <p>现在是休息时间，当您结束休息后，您可以点击 结束休息 按钮 继续</p>
                  <p>建议休息时间还剩余<span id=""iii"">60</span>秒</p>","0","","","","","","","","","","","","","","","","","","","","","","","",""
"","","","","","html-keyboard-response","218","691612","0.0-14.0-2.0-2.0","4163","
  <p>恭喜您，正式实验中生人图形的分类任务已完成。</p>
  <p> <div style = ""color: green""><按任意键继续></div></p>
  "," ","","","","","","","","","","","","","","","","","","","","","","","",""
"","","","","","html-keyboard-response","219","696835","0.0-14.0-1.1-0.1","5222","
      <p>请您将食指和中指放在相应按键上，准备进入<span style='color: yellow;'>朋友图形分类任务</span></p>
      <p> <div style = ""color: green""><按任意键开始></div></p>
      "," ","","","","","","","","","","","","","","","","","","","","","","","",""
"","","","","","psychophysics","220","698471","0.0-14.0-1.1-1.1-0.1-0.1","635","","f","","","","","","","","","","","","","key","f","16.671134020618318","768","428","f","true","img/C_28.png","朋友","非朋友","friend",""
"","","","","","html-keyboard-response","221","698776","0.0-14.0-1.1-1.1-0.1-1.1","null","<span style='color:GreenYellow; font-size: 70px;'>正确! </span>","null","","","","","","","","","","","","","","","","","","","","","","","","feedback_test"
"","","","","","psychophysics","222","700356","0.0-14.0-1.1-1.1-0.1-0.2","571","","j","","","","","","","","","","","","","key","j","16.673404255318406","768","428","j","true","img/S_28.png","朋友","非朋友","friend",""
"","","","","","html-keyboard-response","223","700665","0.0-14.0-1.1-1.1-0.1-1.2","null","<span style='color:GreenYellow; font-size: 70px;'>正确! </span>","null","","","","","","","","","","","","","","","","","","","","","","","","feedback_test"
"","","","","","psychophysics","224","702110","0.0-14.0-1.1-1.1-0.1-0.3","439","","j","","","","","","","","","","","","","key","j","16.67325581395376","768","428","j","true","img/H_28.png","朋友","非朋友","friend",""
"","","","","","html-keyboard-response","225","702418","0.0-14.0-1.1-1.1-0.1-1.3","null","<span style='color:GreenYellow; font-size: 70px;'>正确! </span>","null","","","","","","","","","","","","","","","","","","","","","","","","feedback_test"
"","","","","","psychophysics","226","703834","0.0-14.0-1.1-1.1-0.1-0.4","413","","j","","","","","","","","","","","","","key","j","16.666265060241525","768","428","j","true","img/S_28.png","朋友","非朋友","friend",""
"","","","","","html-keyboard-response","227","704150","0.0-14.0-1.1-1.1-0.1-1.4","null","<span style='color:GreenYellow; font-size: 70px;'>正确! </span>","null","","","","","","","","","","","","","","","","","","","","","","","","feedback_test"
"","","","","","psychophysics","228","705575","0.0-14.0-1.1-1.1-0.1-0.5","424","","j","","","","","","","","","","","","","key","j","16.675294117647333","768","428","j","true","img/H_28.png","朋友","非朋友","friend",""
"","","","","","html-keyboard-response","229","705887","0.0-14.0-1.1-1.1-0.1-1.5","null","<span style='color:GreenYellow; font-size: 70px;'>正确! </span>","null","","","","","","","","","","","","","","","","","","","","","","","","feedback_test"
"","","","","","psychophysics","230","707282","0.0-14.0-1.1-1.1-0.1-0.6","394","","f","","","","","","","","","","","","","key","f","16.67195121951191","768","428","f","true","img/C_28.png","朋友","非朋友","friend",""
"","","","","","html-keyboard-response","231","707586","0.0-14.0-1.1-1.1-0.1-1.6","null","<span style='color:GreenYellow; font-size: 70px;'>正确! </span>","null","","","","","","","","","","","","","","","","","","","","","","","","feedback_test"
"","","","","","psychophysics","232","709001","0.0-14.0-1.1-1.1-0.1-0.7","412","","f","","","","","","","","","","","","","key","f","16.66867469879518","768","428","f","true","img/C_28.png","朋友","非朋友","friend",""
"","","","","","html-keyboard-response","233","709307","0.0-14.0-1.1-1.1-0.1-1.7","null","<span style='color:GreenYellow; font-size: 70px;'>正确! </span>","null","","","","","","","","","","","","","","","","","","","","","","","","feedback_test"
"","","","","","psychophysics","234","710679","0.0-14.0-1.1-1.1-0.1-0.8","371","","j","","","","","","","","","","","","","key","j","16.67283950617284","768","428","j","true","img/H_28.png","朋友","非朋友","friend",""
"","","","","","html-keyboard-response","235","710989","0.0-14.0-1.1-1.1-0.1-1.8","null","<span style='color:GreenYellow; font-size: 70px;'>正确! </span>","null","","","","","","","","","","","","","","","","","","","","","","","","feedback_test"
"","","","","","psychophysics","236","712395","0.0-14.0-1.1-1.1-0.1-0.9","402","","j","","","","","","","","","","","","","key","j","16.673493975902492","768","428","j","true","img/S_28.png","朋友","非朋友","friend",""
"","","","","","html-keyboard-response","237","712708","0.0-14.0-1.1-1.1-0.1-1.9","null","<span style='color:GreenYellow; font-size: 70px;'>正确! </span>","null","","","","","","","","","","","","","","","","","","","","","","","","feedback_test"
"","","","","","psychophysics","238","714182","0.0-14.0-1.1-1.1-0.1-0.10","473","","j","","","","","","","","","","","","","key","j","16.672727272726743","768","428","j","true","img/S_28.png","朋友","非朋友","friend",""
"","","","","","html-keyboard-response","239","714490","0.0-14.0-1.1-1.1-0.1-1.10","null","<span style='color:GreenYellow; font-size: 70px;'>正确! </span>","null","","","","","","","","","","","","","","","","","","","","","","","","feedback_test"
"","","","","","psychophysics","240","715893","0.0-14.0-1.1-1.1-0.1-0.11","399","","j","","","","","","","","","","","","","key","j","16.674698795180724","768","428","f","false","img/C_28.png","朋友","非朋友","friend",""
"","","","","","html-keyboard-response","241","716194","0.0-14.0-1.1-1.1-0.1-1.11","null","<span style='color:red; font-size: 70px;'>错误! </span>","null","","","","","","","","","","","","","","","","","","","","","","","","feedback_test"
"","","","","","psychophysics","242","717654","0.0-14.0-1.1-1.1-0.1-0.12","460","","j","","","","","","","","","","","","","key","j","16.673255813952405","768","428","j","true","img/H_28.png","朋友","非朋友","friend",""
"","","","","","html-keyboard-response","243","717957","0.0-14.0-1.1-1.1-0.1-1.12","null","<span style='color:GreenYellow; font-size: 70px;'>正确! </span>","null","","","","","","","","","","","","","","","","","","","","","","","","feedback_test"
"","","","","","html-keyboard-response","244","720043","0.0-14.0-1.1-1.1-1.1","2085","<style>.context{color:white; font-size: 35px; line-height:40px}</style>                          <div><p class='context'>您正确回答了92% 的试次。</p><p class='context'>您的平均反应时为454毫秒。</p><p class='context'>请按任意键进入休息</p></div>"," ","","","","","","","","","","","","","","","","","","","","","","","",""
"","","","","","html-button-response","245","723356","0.0-14.0-1.1-1.1-2.1","3311","
                  <p>朋友图形分类任务中，您还剩余4组实验</p>
                  <p>现在是休息时间，当您结束休息后，您可以点击 结束休息 按钮 继续</p>
                  <p>建议休息时间还剩余<span id=""iii"">60</span>秒</p>","0","","","","","","","","","","","","","","","","","","","","","","","",""
"","","","","","psychophysics","246","724871","0.0-14.0-1.1-1.1-0.2-0.13","507","","f","","","","","","","","","","","","","key","f","16.674444444443928","768","428","f","true","img/C_28.png","朋友","非朋友","friend",""
"","","","","","html-keyboard-response","247","725182","0.0-14.0-1.1-1.1-0.2-1.13","null","<span style='color:GreenYellow; font-size: 70px;'>正确! </span>","null","","","","","","","","","","","","","","","","","","","","","","","","feedback_test"
"","","","","","psychophysics","248","726571","0.0-14.0-1.1-1.1-0.2-0.14","389","","j","","","","","","","","","","","","","key","j","16.669512195120817","768","428","j","true","img/S_28.png","朋友","非朋友","friend",""
"","","","","","html-keyboard-response","249","726883","0.0-14.0-1.1-1.1-0.2-1.14","null","<span style='color:GreenYellow; font-size: 70px;'>正确! </span>","null","","","","","","","","","","","","","","","","","","","","","","","","feedback_test"
"","","","","","psychophysics","250","728658","0.0-14.0-1.1-1.1-0.2-0.15","774","","j","","","","","","","","","","","","","key","j","16.673333333334","768","428","j","true","img/H_28.png","朋友","非朋友","friend",""
"","","","","","html-keyboard-response","251","728973","0.0-14.0-1.1-1.1-0.2-1.15","null","<span style='color:GreenYellow; font-size: 70px;'>正确! </span>","null","","","","","","","","","","","","","","","","","","","","","","","","feedback_test"
"","","","","","psychophysics","252","730360","0.0-14.0-1.1-1.1-0.2-0.16","378","","j","","","","","","","","","","","","","key","j","16.674390243901588","768","428","j","true","img/H_28.png","朋友","非朋友","friend",""
"","","","","","html-keyboard-response","253","730676","0.0-14.0-1.1-1.1-0.2-1.16","null","<span style='color:GreenYellow; font-size: 70px;'>正确! </span>","null","","","","","","","","","","","","","","","","","","","","","","","","feedback_test"
"","","","","","psychophysics","254","732157","0.0-14.0-1.1-1.1-0.2-0.17","473","","j","","","","","","","","","","","","","key","j","17.4666666666675","768","428","j","true","img/S_28.png","朋友","非朋友","friend",""
"","","","","","html-keyboard-response","255","732465","0.0-14.0-1.1-1.1-0.2-1.17","null","<span style='color:GreenYellow; font-size: 70px;'>正确! </span>","null","","","","","","","","","","","","","","","","","","","","","","","","feedback_test"
"","","","","","psychophysics","256","733880","0.0-14.0-1.1-1.1-0.2-0.18","411","","f","","","","","","","","","","","","","key","f","16.66626506024012","768","428","f","true","img/C_28.png","朋友","非朋友","friend",""
"","","","","","html-keyboard-response","257","734190","0.0-14.0-1.1-1.1-0.2-1.18","null","<span style='color:GreenYellow; font-size: 70px;'>正确! </span>","null","","","","","","","","","","","","","","","","","","","","","","","","feedback_test"
"","","","","","psychophysics","258","735582","0.0-14.0-1.1-1.1-0.2-0.19","381","","j","","","","","","","","","","","","","key","j","16.674390243903005","768","428","j","true","img/S_28.png","朋友","非朋友","friend",""
"","","","","","html-keyboard-response","259","735893","0.0-14.0-1.1-1.1-0.2-1.19","null","<span style='color:GreenYellow; font-size: 70px;'>正确! </span>","null","","","","","","","","","","","","","","","","","","","","","","","","feedback_test"
"","","","","","psychophysics","260","737289","0.0-14.0-1.1-1.1-0.2-0.20","387","","j","","","","","","","","","","","","","key","j","16.672289156627066","768","428","j","true","img/H_28.png","朋友","非朋友","friend",""
"","","","","","html-keyboard-response","261","737593","0.0-14.0-1.1-1.1-0.2-1.20","null","<span style='color:GreenYellow; font-size: 70px;'>正确! </span>","null","","","","","","","","","","","","","","","","","","","","","","","","feedback_test"
"","","","","","psychophysics","262","739081","0.0-14.0-1.1-1.1-0.2-0.21","478","","f","","","","","","","","","","","","","key","f","16.673863636362842","768","428","f","true","img/C_28.png","朋友","非朋友","friend",""
"","","","","","html-keyboard-response","263","739387","0.0-14.0-1.1-1.1-0.2-1.21","null","<span style='color:GreenYellow; font-size: 70px;'>正确! </span>","null","","","","","","","","","","","","","","","","","","","","","","","","feedback_test"
"","","","","","psychophysics","264","740889","0.0-14.0-1.1-1.1-0.2-0.22","500","","f","","","","","","","","","","","","","key","f","16.671910112360074","768","428","f","true","img/C_28.png","朋友","非朋友","friend",""
"","","","","","html-keyboard-response","265","741193","0.0-14.0-1.1-1.1-0.2-1.22","null","<span style='color:GreenYellow; font-size: 70px;'>正确! </span>","null","","","","","","","","","","","","","","","","","","","","","","","","feedback_test"
"","","","","","psychophysics","266","742640","0.0-14.0-1.1-1.1-0.2-0.23","436","","j","","","","","","","","","","","","","key","j","16.672093023255","768","428","j","true","img/S_28.png","朋友","非朋友","friend",""
"","","","","","html-keyboard-response","267","742952","0.0-14.0-1.1-1.1-0.2-1.23","null","<span style='color:GreenYellow; font-size: 70px;'>正确! </span>","null","","","","","","","","","","","","","","","","","","","","","","","","feedback_test"
"","","","","","psychophysics","268","744355","0.0-14.0-1.1-1.1-0.2-0.24","400","","j","","","","","","","","","","","","","key","j","16.673547619047376","768","428","j","true","img/H_28.png","朋友","非朋友","friend",""
"","","","","","html-keyboard-response","269","744672","0.0-14.0-1.1-1.1-0.2-1.24","null","<span style='color:GreenYellow; font-size: 70px;'>正确! </span>","null","","","","","","","","","","","","","","","","","","","","","","","","feedback_test"
"","","","","","html-keyboard-response","270","747865","0.0-14.0-1.1-1.1-1.2","3193","<style>.context{color:white; font-size: 35px; line-height:40px}</style>                          <div><p class='context'>您正确回答了100% 的试次。</p><p class='context'>您的平均反应时为460毫秒。</p><p class='context'>请按任意键进入休息</p></div>"," ","","","","","","","","","","","","","","","","","","","","","","","",""
"","","","","","html-button-response","271","753704","0.0-14.0-1.1-1.1-2.2","5837","
                  <p>朋友图形分类任务中，您还剩余3组实验</p>
                  <p>现在是休息时间，当您结束休息后，您可以点击 结束休息 按钮 继续</p>
                  <p>建议休息时间还剩余<span id=""iii"">60</span>秒</p>","0","","","","","","","","","","","","","","","","","","","","","","","",""
"","","","","","psychophysics","272","755134","0.0-14.0-1.1-1.1-0.3-0.25","425","","f","","","","","","","","","","","","","key","f","16.67619047619103","768","428","f","true","img/C_28.png","朋友","非朋友","friend",""
"","","","","","html-keyboard-response","273","755446","0.0-14.0-1.1-1.1-0.3-1.25","null","<span style='color:GreenYellow; font-size: 70px;'>正确! </span>","null","","","","","","","","","","","","","","","","","","","","","","","","feedback_test"
"","","","","","psychophysics","274","756755","0.0-14.0-1.1-1.1-0.3-0.26","300","","j","","","","","","","","","","","","","key","j","16.672727272727876","768","428","j","true","img/S_28.png","朋友","非朋友","friend",""
"","","","","","html-keyboard-response","275","757059","0.0-14.0-1.1-1.1-0.3-1.26","null","<span style='color:GreenYellow; font-size: 70px;'>正确! </span>","null","","","","","","","","","","","","","","","","","","","","","","","","feedback_test"
"","","","","","psychophysics","276","758451","0.0-14.0-1.1-1.1-0.3-0.27","391","","j","","","","","","","","","","","","","key","j","16.674390243901588","768","428","j","true","img/H_28.png","朋友","非朋友","friend",""
"","","","","","html-keyboard-response","277","758759","0.0-14.0-1.1-1.1-0.3-1.27","null","<span style='color:GreenYellow; font-size: 70px;'>正确! </span>","null","","","","","","","","","","","","","","","","","","","","","","","","feedback_test"
"","","","","","psychophysics","278","760213","0.0-14.0-1.1-1.1-0.3-0.28","452","","f","","","","","","","","","","","","","key","f","16.666279069767985","768","428","f","true","img/C_28.png","朋友","非朋友","friend",""
"","","","","","html-keyboard-response","279","760520","0.0-14.0-1.1-1.1-0.3-1.28","null","<span style='color:GreenYellow; font-size: 70px;'>正确! </span>","null","","","","","","","","","","","","","","","","","","","","","","","","feedback_test"
"","","","","","psychophysics","280","761891","0.0-14.0-1.1-1.1-0.3-0.29","361","","j","","","","","","","","","","","","","key","j","16.67530864197617","768","428","j","true","img/H_28.png","朋友","非朋友","friend",""
"","","","","","html-keyboard-response","281","762206","0.0-14.0-1.1-1.1-0.3-1.29","null","<span style='color:GreenYellow; font-size: 70px;'>正确! </span>","null","","","","","","","","","","","","","","","","","","","","","","","","feedback_test"
"","","","","","psychophysics","282","763597","0.0-14.0-1.1-1.1-0.3-0.30","385","","j","","","","","","","","","","","","","key","j","16.67195121951191","768","428","j","true","img/S_28.png","朋友","非朋友","friend",""
"","","","","","html-keyboard-response","283","763900","0.0-14.0-1.1-1.1-0.3-1.30","null","<span style='color:GreenYellow; font-size: 70px;'>正确! </span>","null","","","","","","","","","","","","","","","","","","","","","","","","feedback_test"
"","","","","","psychophysics","284","765376","0.0-14.0-1.1-1.1-0.3-0.31","463","","j","","","","","","","","","","","","","key","j","16.674712643677626","768","428","f","false","img/C_28.png","朋友","非朋友","friend",""
"","","","","","html-keyboard-response","285","765681","0.0-14.0-1.1-1.1-0.3-1.31","null","<span style='color:red; font-size: 70px;'>错误! </span>","null","","","","","","","","","","","","","","","","","","","","","","","","feedback_test"
"","","","","","psychophysics","286","767124","0.0-14.0-1.1-1.1-0.3-0.32","442","","j","","","","","","","","","","","","","key","j","16.67294117647004","768","428","j","true","img/H_28.png","朋友","非朋友","friend",""
"","","","","","html-keyboard-response","287","767427","0.0-14.0-1.1-1.1-0.3-1.32","null","<span style='color:GreenYellow; font-size: 70px;'>正确! </span>","null","","","","","","","","","","","","","","","","","","","","","","","","feedback_test"
"","","","","","psychophysics","288","768887","0.0-14.0-1.1-1.1-0.3-0.33","458","","j","","","","","","","","","","","","","key","j","16.67216091954026","768","428","j","true","img/S_28.png","朋友","非朋友","friend",""
"","","","","","html-keyboard-response","289","769196","0.0-14.0-1.1-1.1-0.3-1.33","null","<span style='color:GreenYellow; font-size: 70px;'>正确! </span>","null","","","","","","","","","","","","","","","","","","","","","","","","feedback_test"
"","","","","","psychophysics","290","770847","0.0-14.0-1.1-1.1-0.3-0.34","648","","f","","","","","","","","","","","","","key","f","16.656701030927355","768","428","f","true","img/C_28.png","朋友","非朋友","friend",""
"","","","","","html-keyboard-response","291","771152","0.0-14.0-1.1-1.1-0.3-1.34","null","<span style='color:GreenYellow; font-size: 70px;'>正确! </span>","null","","","","","","","","","","","","","","","","","","","","","","","","feedback_test"
"","","","","","psychophysics","292","772688","0.0-14.0-1.1-1.1-0.3-0.35","536","","j","","","","","","","","","","","","","key","j","16.67472527472553","768","428","j","true","img/H_28.png","朋友","非朋友","friend",""
"","","","","","html-keyboard-response","293","772997","0.0-14.0-1.1-1.1-0.3-1.35","null","<span style='color:GreenYellow; font-size: 70px;'>正确! </span>","null","","","","","","","","","","","","","","","","","","","","","","","","feedback_test"
"","","","","","psychophysics","294","774431","0.0-14.0-1.1-1.1-0.3-0.36","428","","j","","","","","","","","","","","","","key","j","16.67294117647141","768","428","j","true","img/S_28.png","朋友","非朋友","friend",""
"","","","","","html-keyboard-response","295","774746","0.0-14.0-1.1-1.1-0.3-1.36","null","<span style='color:GreenYellow; font-size: 70px;'>正确! </span>","null","","","","","","","","","","","","","","","","","","","","","","","","feedback_test"
"","","","","","html-keyboard-response","296","777989","0.0-14.0-1.1-1.1-1.3","3242","<style>.context{color:white; font-size: 35px; line-height:40px}</style>                          <div><p class='context'>您正确回答了92% 的试次。</p><p class='context'>您的平均反应时为439毫秒。</p><p class='context'>请按任意键进入休息</p></div>"," ","","","","","","","","","","","","","","","","","","","","","","","",""
"","","","","","html-button-response","297","783882","0.0-14.0-1.1-1.1-2.3","5891","
                  <p>朋友图形分类任务中，您还剩余2组实验</p>
                  <p>现在是休息时间，当您结束休息后，您可以点击 结束休息 按钮 继续</p>
                  <p>建议休息时间还剩余<span id=""iii"">60</span>秒</p>","0","","","","","","","","","","","","","","","","","","","","","","","",""
"","","","","","psychophysics","298","785427","0.0-14.0-1.1-1.1-0.4-0.37","538","","j","","","","","","","","","","","","","key","j","16.672826086956775","768","428","j","true","img/H_28.png","朋友","非朋友","friend",""
"","","","","","html-keyboard-response","299","785743","0.0-14.0-1.1-1.1-0.4-1.37","null","<span style='color:GreenYellow; font-size: 70px;'>正确! </span>","null","","","","","","","","","","","","","","","","","","","","","","","","feedback_test"
"","","","","","psychophysics","300","787281","0.0-14.0-1.1-1.1-0.4-0.38","530","","f","","","","","","","","","","","","","key","f","17.440229885058006","768","428","f","true","img/C_28.png","朋友","非朋友","friend",""
"","","","","","html-keyboard-response","301","787590","0.0-14.0-1.1-1.1-0.4-1.38","null","<span style='color:GreenYellow; font-size: 70px;'>正确! </span>","null","","","","","","","","","","","","","","","","","","","","","","","","feedback_test"
"","","","","","psychophysics","302","788954","0.0-14.0-1.1-1.1-0.4-0.39","363","","j","","","","","","","","","","","","","key","j","16.673749999998837","768","428","j","true","img/S_28.png","朋友","非朋友","friend",""
"","","","","","html-keyboard-response","303","789258","0.0-14.0-1.1-1.1-0.4-1.39","null","<span style='color:GreenYellow; font-size: 70px;'>正确! </span>","null","","","","","","","","","","","","","","","","","","","","","","","","feedback_test"
"","","","","","psychophysics","304","790618","0.0-14.0-1.1-1.1-0.4-0.40","346","","f","","","","","","","","","","","","","key","f","16.675","768","428","f","true","img/C_28.png","朋友","非朋友","friend",""
"","","","","","html-keyboard-response","305","790925","0.0-14.0-1.1-1.1-0.4-1.40","null","<span style='color:GreenYellow; font-size: 70px;'>正确! </span>","null","","","","","","","","","","","","","","","","","","","","","","","","feedback_test"
"","","","","","psychophysics","306","792288","0.0-14.0-1.1-1.1-0.4-0.41","362","","j","","","","","","","","","","","","","key","j","16.67375000000029","768","428","j","true","img/H_28.png","朋友","非朋友","friend",""
"","","","","","html-keyboard-response","307","792591","0.0-14.0-1.1-1.1-0.4-1.41","null","<span style='color:GreenYellow; font-size: 70px;'>正确! </span>","null","","","","","","","","","","","","","","","","","","","","","","","","feedback_test"
"","","","","","psychophysics","308","794168","0.0-14.0-1.1-1.1-0.4-0.42","575","","j","","","","","","","","","","","","","key","j","16.673118279570893","768","428","j","true","img/S_28.png","朋友","非朋友","friend",""
"","","","","","html-keyboard-response","309","794479","0.0-14.0-1.1-1.1-0.4-1.42","null","<span style='color:GreenYellow; font-size: 70px;'>正确! </span>","null","","","","","","","","","","","","","","","","","","","","","","","","feedback_test"
"","","","","","psychophysics","310","795816","0.0-14.0-1.1-1.1-0.4-0.43","322","","f","","","","","","","","","","","","","key","f","16.673417721519872","768","428","f","true","img/C_28.png","朋友","非朋友","friend",""
"","","","","","html-keyboard-response","311","796118","0.0-14.0-1.1-1.1-0.4-1.43","null","<span style='color:GreenYellow; font-size: 70px;'>正确! </span>","null","","","","","","","","","","","","","","","","","","","","","","","","feedback_test"
"","","","","","psychophysics","312","797521","0.0-14.0-1.1-1.1-0.4-0.44","400","","j","","","","","","","","","","","","","key","j","17.518987341772153","768","428","j","true","img/S_28.png","朋友","非朋友","friend",""
"","","","","","html-keyboard-response","313","797824","0.0-14.0-1.1-1.1-0.4-1.44","null","<span style='color:GreenYellow; font-size: 70px;'>正确! </span>","null","","","","","","","","","","","","","","","","","","","","","","","","feedback_test"
"","","","","","psychophysics","314","799217","0.0-14.0-1.1-1.1-0.4-0.45","389","","j","","","","","","","","","","","","","key","j","16.673493975902492","768","428","j","true","img/H_28.png","朋友","非朋友","friend",""
"","","","","","html-keyboard-response","315","799526","0.0-14.0-1.1-1.1-0.4-1.45","null","<span style='color:GreenYellow; font-size: 70px;'>正确! </span>","null","","","","","","","","","","","","","","","","","","","","","","","","feedback_test"
"","","","","","psychophysics","316","800924","0.0-14.0-1.1-1.1-0.4-0.46","396","","j","","","","","","","","","","","","","key","j","16.674698795180724","768","428","j","true","img/H_28.png","朋友","非朋友","friend",""
"","","","","","html-keyboard-response","317","801230","0.0-14.0-1.1-1.1-0.4-1.46","null","<span style='color:GreenYellow; font-size: 70px;'>正确! </span>","null","","","","","","","","","","","","","","","","","","","","","","","","feedback_test"
"","","","","","psychophysics","318","802538","0.0-14.0-1.1-1.1-0.4-0.47","306","","f","","","","","","","","","","","","","key","f","16.672727272726366","768","428","f","true","img/C_28.png","朋友","非朋友","friend",""
"","","","","","html-keyboard-response","319","802853","0.0-14.0-1.1-1.1-0.4-1.47","null","<span style='color:GreenYellow; font-size: 70px;'>正确! </span>","null","","","","","","","","","","","","","","","","","","","","","","","","feedback_test"
"","","","","","psychophysics","320","804200","0.0-14.0-1.1-1.1-0.4-0.48","336","","j","","","","","","","","","","","","","key","j","16.67375000000029","768","428","j","true","img/S_28.png","朋友","非朋友","friend",""
"","","","","","html-keyboard-response","321","804506","0.0-14.0-1.1-1.1-0.4-1.48","null","<span style='color:GreenYellow; font-size: 70px;'>正确! </span>","null","","","","","","","","","","","","","","","","","","","","","","","","feedback_test"
"","","","","","html-keyboard-response","322","805853","0.0-14.0-1.1-1.1-1.4","1346","<style>.context{color:white; font-size: 35px; line-height:40px}</style>                          <div><p class='context'>您正确回答了100% 的试次。</p><p class='context'>您的平均反应时为405毫秒。</p><p class='context'>请按任意键进入休息</p></div>"," ","","","","","","","","","","","","","","","","","","","","","","","",""
"","","","","","html-button-response","323","807332","0.0-14.0-1.1-1.1-2.4","1477","
                  <p>朋友图形分类任务中，您还剩余1组实验</p>
                  <p>现在是休息时间，当您结束休息后，您可以点击 结束休息 按钮 继续</p>
                  <p>建议休息时间还剩余<span id=""iii"">60</span>秒</p>","0","","","","","","","","","","","","","","","","","","","","","","","",""
"","","","","","psychophysics","324","808793","0.0-14.0-1.1-1.1-0.5-0.49","459","","j","","","","","","","","","","","","","key","j","16.67325581395376","768","428","j","true","img/H_28.png","朋友","非朋友","friend",""
"","","","","","html-keyboard-response","325","809095","0.0-14.0-1.1-1.1-0.5-1.49","null","<span style='color:GreenYellow; font-size: 70px;'>正确! </span>","null","","","","","","","","","","","","","","","","","","","","","","","","feedback_test"
"","","","","","psychophysics","326","810452","0.0-14.0-1.1-1.1-0.5-0.50","353","","f","","","","","","","","","","","","","key","f","16.67283950617284","768","428","f","true","img/C_28.png","朋友","非朋友","friend",""
"","","","","","html-keyboard-response","327","810759","0.0-14.0-1.1-1.1-0.5-1.50","null","<span style='color:GreenYellow; font-size: 70px;'>正确! </span>","null","","","","","","","","","","","","","","","","","","","","","","","","feedback_test"
"","","","","","psychophysics","328","812073","0.0-14.0-1.1-1.1-0.5-0.51","306","","j","","","","","","","","","","","","","key","j","16.673076923076923","768","428","j","true","img/S_28.png","朋友","非朋友","friend",""
"","","","","","html-keyboard-response","329","812386","0.0-14.0-1.1-1.1-0.5-1.51","null","<span style='color:GreenYellow; font-size: 70px;'>正确! </span>","null","","","","","","","","","","","","","","","","","","","","","","","","feedback_test"
"","","","","","psychophysics","330","813739","0.0-14.0-1.1-1.1-0.5-0.52","343","","j","","","","","","","","","","","","","key","j","16.675","768","428","j","true","img/S_28.png","朋友","非朋友","friend",""
"","","","","","html-keyboard-response","331","814049","0.0-14.0-1.1-1.1-0.5-1.52","null","<span style='color:GreenYellow; font-size: 70px;'>正确! </span>","null","","","","","","","","","","","","","","","","","","","","","","","","feedback_test"
"","","","","","psychophysics","332","815426","0.0-14.0-1.1-1.1-0.5-0.53","375","","j","","","","","","","","","","","","","key","j","16.66296296296239","768","428","j","true","img/H_28.png","朋友","非朋友","friend",""
"","","","","","html-keyboard-response","333","815733","0.0-14.0-1.1-1.1-0.5-1.53","null","<span style='color:GreenYellow; font-size: 70px;'>正确! </span>","null","","","","","","","","","","","","","","","","","","","","","","","","feedback_test"
"","","","","","psychophysics","334","817097","0.0-14.0-1.1-1.1-0.5-0.54","361","","f","","","","","","","","","","","","","key","f","16.67375000000029","768","428","f","true","img/C_28.png","朋友","非朋友","friend",""
"","","","","","html-keyboard-response","335","817406","0.0-14.0-1.1-1.1-0.5-1.54","null","<span style='color:GreenYellow; font-size: 70px;'>正确! </span>","null","","","","","","","","","","","","","","","","","","","","","","","","feedback_test"
"","","","","","psychophysics","336","818804","0.0-14.0-1.1-1.1-0.5-0.55","385","","j","","","","","","","","","","","","","key","j","16.672289156627066","768","428","j","true","img/S_28.png","朋友","非朋友","friend",""
"","","","","","html-keyboard-response","337","819112","0.0-14.0-1.1-1.1-0.5-1.55","null","<span style='color:GreenYellow; font-size: 70px;'>正确! </span>","null","","","","","","","","","","","","","","","","","","","","","","","","feedback_test"
"","","","","","psychophysics","338","820448","0.0-14.0-1.1-1.1-0.5-0.56","329","","j","","","","","","","","","","","","","key","j","16.670886075949365","768","428","j","true","img/H_28.png","朋友","非朋友","friend",""
"","","","","","html-keyboard-response","339","820752","0.0-14.0-1.1-1.1-0.5-1.56","null","<span style='color:GreenYellow; font-size: 70px;'>正确! </span>","null","","","","","","","","","","","","","","","","","","","","","","","","feedback_test"
"","","","","","psychophysics","340","822160","0.0-14.0-1.1-1.1-0.5-0.57","406","","f","","","","","","","","","","","","","key","f","17.5126582278481","768","428","f","true","img/C_28.png","朋友","非朋友","friend",""
"","","","","","html-keyboard-response","341","822472","0.0-14.0-1.1-1.1-0.5-1.57","null","<span style='color:GreenYellow; font-size: 70px;'>正确! </span>","null","","","","","","","","","","","","","","","","","","","","","","","","feedback_test"
"","","","","","psychophysics","342","823775","0.0-14.0-1.1-1.1-0.5-0.58","292","","j","","","","","","","","","","","","","key","j","16.676623376624587","768","428","j","true","img/H_28.png","朋友","非朋友","friend",""
"","","","","","html-keyboard-response","343","824090","0.0-14.0-1.1-1.1-0.5-1.58","null","<span style='color:GreenYellow; font-size: 70px;'>正确! </span>","null","","","","","","","","","","","","","","","","","","","","","","","","feedback_test"
"","","","","","psychophysics","344","825422","0.0-14.0-1.1-1.1-0.5-0.59","331","","j","","","","","","","","","","","","","key","j","16.672151898733883","768","428","j","true","img/S_28.png","朋友","非朋友","friend",""
"","","","","","html-keyboard-response","345","825727","0.0-14.0-1.1-1.1-0.5-1.59","null","<span style='color:GreenYellow; font-size: 70px;'>正确! </span>","null","","","","","","","","","","","","","","","","","","","","","","","","feedback_test"
"","","","","","psychophysics","346","827037","0.0-14.0-1.1-1.1-0.5-0.60","307","","f","","","","","","","","","","","","","key","f","16.67142857142948","768","428","f","true","img/C_28.png","朋友","非朋友","friend",""
"","","","","","html-keyboard-response","347","827351","0.0-14.0-1.1-1.1-0.5-1.60","null","<span style='color:GreenYellow; font-size: 70px;'>正确! </span>","null","","","","","","","","","","","","","","","","","","","","","","","","feedback_test"
"","","","","","html-keyboard-response","348","828950","0.0-14.0-1.1-1.1-1.5","1599","<style>.context{color:white; font-size: 35px; line-height:40px}</style>                          <div><p class='context'>您正确回答了100% 的试次。</p><p class='context'>您的平均反应时为354毫秒。</p><p class='context'>请按任意键进入休息</p></div>"," ","","","","","","","","","","","","","","","","","","","","","","","",""
"","","","","","html-button-response","349","863361","0.0-14.0-1.1-1.1-2.5","34407","
                  <p>朋友图形分类任务中，您还剩余0组实验</p>
                  <p>现在是休息时间，当您结束休息后，您可以点击 结束休息 按钮 继续</p>
                  <p>建议休息时间还剩余<span id=""iii"">60</span>秒</p>","0","","","","","","","","","","","","","","","","","","","","","","","",""
"","","","","","html-keyboard-response","350","865815","0.0-14.0-1.1-2.1","2453","
  <p>恭喜您，正式实验中朋友图形的分类任务已完成。</p>
  <p> <div style = ""color: green""><按任意键继续></div></p>
  "," ","","","","","","","","","","","","","","","","","","","","","","","",""
"","","","","","html-keyboard-response","351","867268","0.0-14.0-0.2-0.2","1453","
      <p>请您将食指和中指放在相应按键上，准备进入<span style='color: yellow;'>自我图形分类任务</span></p>
      <p> <div style = ""color: green""><按任意键开始></div></p>
      "," ","","","","","","","","","","","","","","","","","","","","","","","",""
"","","","","","psychophysics","352","869117","0.0-14.0-0.2-1.2-0.2-0.2","843","","j","","","","","","","","","","","","","key","j","16.673636363636152","768","428","j","true","img/C_28.png","自我","非自我","self",""
"","","","","","html-keyboard-response","353","869426","0.0-14.0-0.2-1.2-0.2-1.2","null","<span style='color:GreenYellow; font-size: 70px;'>正确! </span>","null","","","","","","","","","","","","","","","","","","","","","","","","feedback_test"
"","","","","","psychophysics","354","870721","0.0-14.0-0.2-1.2-0.2-0.3","281","","f","","","","","","","","","","","","","key","f","16.673684210525703","768","428","j","false","img/S_28.png","自我","非自我","self",""
"","","","","","html-keyboard-response","355","871035","0.0-14.0-0.2-1.2-0.2-1.3","null","<span style='color:red; font-size: 70px;'>错误! </span>","null","","","","","","","","","","","","","","","","","","","","","","","","feedback_test"
"","","","","","psychophysics","356","872480","0.0-14.0-0.2-1.2-0.2-0.4","439","","j","","","","","","","","","","","","","key","j","16.677906976744726","768","428","f","false","img/H_28.png","自我","非自我","self",""
"","","","","","html-keyboard-response","357","872792","0.0-14.0-0.2-1.2-0.2-1.4","null","<span style='color:red; font-size: 70px;'>错误! </span>","null","","","","","","","","","","","","","","","","","","","","","","","","feedback_test"
"","","","","","psychophysics","358","874421","0.0-14.0-0.2-1.2-0.2-0.5","628","","j","","","","","","","","","","","","","key","j","16.672916666666424","768","428","j","true","img/C_28.png","自我","非自我","self",""
"","","","","","html-keyboard-response","359","874734","0.0-14.0-0.2-1.2-0.2-1.5","null","<span style='color:GreenYellow; font-size: 70px;'>正确! </span>","null","","","","","","","","","","","","","","","","","","","","","","","","feedback_test"
"","","","","","psychophysics","360","876096","0.0-14.0-0.2-1.2-0.2-0.6","353","","f","","","","","","","","","","","","","key","f","16.67283950617284","768","428","f","true","img/H_28.png","自我","非自我","self",""
"","","","","","html-keyboard-response","361","876401","0.0-14.0-0.2-1.2-0.2-1.6","null","<span style='color:GreenYellow; font-size: 70px;'>正确! </span>","null","","","","","","","","","","","","","","","","","","","","","","","","feedback_test"
"","","","","","psychophysics","362","877788","0.0-14.0-0.2-1.2-0.2-0.7","377","","j","","","","","","","","","","","","","key","j","16.674390243903005","768","428","j","true","img/S_28.png","自我","非自我","self",""
"","","","","","html-keyboard-response","363","878096","0.0-14.0-0.2-1.2-0.2-1.7","null","<span style='color:GreenYellow; font-size: 70px;'>正确! </span>","null","","","","","","","","","","","","","","","","","","","","","","","","feedback_test"
"","","","","","psychophysics","364","879660","0.0-14.0-0.2-1.2-0.2-0.8","550","","f","","","","","","","","","","","","","key","f","16.67391304347826","768","428","f","true","img/H_28.png","自我","非自我","self",""
"","","","","","html-keyboard-response","365","879970","0.0-14.0-0.2-1.2-0.2-1.8","null","<span style='color:GreenYellow; font-size: 70px;'>正确! </span>","null","","","","","","","","","","","","","","","","","","","","","","","","feedback_test"
"","","","","","psychophysics","366","881504","0.0-14.0-0.2-1.2-0.2-0.9","526","","j","","","","","","","","","","","","","key","j","17.64186046511709","768","428","j","true","img/S_28.png","自我","非自我","self",""
"","","","","","html-keyboard-response","367","881810","0.0-14.0-0.2-1.2-0.2-1.9","null","<span style='color:GreenYellow; font-size: 70px;'>正确! </span>","null","","","","","","","","","","","","","","","","","","","","","","","","feedback_test"
"","","","","","psychophysics","368","883308","0.0-14.0-0.2-1.2-0.2-0.10","495","","j","","","","","","","","","","","","","key","j","16.671910112360074","768","428","j","true","img/C_28.png","自我","非自我","self",""
"","","","","","html-keyboard-response","369","883623","0.0-14.0-0.2-1.2-0.2-1.10","null","<span style='color:GreenYellow; font-size: 70px;'>正确! </span>","null","","","","","","","","","","","","","","","","","","","","","","","","feedback_test"
"","","","","","psychophysics","370","884976","0.0-14.0-0.2-1.2-0.2-0.11","347","","f","","","","","","","","","","","","","key","f","16.67375000000029","768","428","f","true","img/H_28.png","自我","非自我","self",""
"","","","","","html-keyboard-response","371","885289","0.0-14.0-0.2-1.2-0.2-1.11","null","<span style='color:GreenYellow; font-size: 70px;'>正确! </span>","null","","","","","","","","","","","","","","","","","","","","","","","","feedback_test"
"","","","","","psychophysics","372","886659","0.0-14.0-0.2-1.2-0.2-0.12","368","","j","","","","","","","","","","","","","key","j","16.67530864197617","768","428","j","true","img/C_28.png","自我","非自我","self",""
"","","","","","html-keyboard-response","373","886965","0.0-14.0-0.2-1.2-0.2-1.12","null","<span style='color:GreenYellow; font-size: 70px;'>正确! </span>","null","","","","","","","","","","","","","","","","","","","","","","","","feedback_test"
"","","","","","psychophysics","374","888506","0.0-14.0-0.2-1.2-0.2-0.13","532","","j","","","","","","","","","","","","","key","j","16.673626373626885","768","428","j","true","img/S_28.png","自我","非自我","self",""
"","","","","","html-keyboard-response","375","888816","0.0-14.0-0.2-1.2-0.2-1.13","null","<span style='color:GreenYellow; font-size: 70px;'>正确! </span>","null","","","","","","","","","","","","","","","","","","","","","","","","feedback_test"
"","","","","","html-keyboard-response","376","890901","0.0-14.0-0.2-1.2-1.2","2084","<style>.context{color:white; font-size: 35px; line-height:40px}</style>                          <div><p class='context'>您正确回答了83% 的试次。</p><p class='context'>您的平均反应时为502毫秒。</p><p class='context'>请按任意键进入休息</p></div>"," ","","","","","","","","","","","","","","","","","","","","","","","",""
"","","","","","html-button-response","377","892368","0.0-14.0-0.2-1.2-2.2","1463","
                  <p>自我图形分类任务中，您还剩余4组实验</p>
                  <p>现在是休息时间，当您结束休息后，您可以点击 结束休息 按钮 继续</p>
                  <p>建议休息时间还剩余<span id=""iii"">60</span>秒</p>","0","","","","","","","","","","","","","","","","","","","","","","","",""
"","","","","","psychophysics","378","893773","0.0-14.0-0.2-1.2-0.3-0.14","404","","j","","","","","","","","","","","","","key","j","16.674698795180724","768","428","j","true","img/C_28.png","自我","非自我","self",""
"","","","","","html-keyboard-response","379","894090","0.0-14.0-0.2-1.2-0.3-1.14","null","<span style='color:GreenYellow; font-size: 70px;'>正确! </span>","null","","","","","","","","","","","","","","","","","","","","","","","","feedback_test"
"","","","","","psychophysics","380","895535","0.0-14.0-0.2-1.2-0.3-0.15","432","","f","","","","","","","","","","","","","key","f","16.675294117647333","768","428","f","true","img/H_28.png","自我","非自我","self",""
"","","","","","html-keyboard-response","381","895838","0.0-14.0-0.2-1.2-0.3-1.15","null","<span style='color:GreenYellow; font-size: 70px;'>正确! </span>","null","","","","","","","","","","","","","","","","","","","","","","","","feedback_test"
"","","","","","psychophysics","382","897321","0.0-14.0-0.2-1.2-0.3-0.16","482","","j","","","","","","","","","","","","","key","j","16.671590909090643","768","428","j","true","img/S_28.png","自我","非自我","self",""
"","","","","","html-keyboard-response","383","897631","0.0-14.0-0.2-1.2-0.3-1.16","null","<span style='color:GreenYellow; font-size: 70px;'>正确! </span>","null","","","","","","","","","","","","","","","","","","","","","","","","feedback_test"
"","","","","","psychophysics","384","898995","0.0-14.0-0.2-1.2-0.3-0.17","357","","f","","","","","","","","","","","","","key","f","16.67283950617284","768","428","f","true","img/H_28.png","自我","非自我","self",""
"","","","","","html-keyboard-response","385","899296","0.0-14.0-0.2-1.2-0.3-1.17","null","<span style='color:GreenYellow; font-size: 70px;'>正确! </span>","null","","","","","","","","","","","","","","","","","","","","","","","","feedback_test"
"","","","","","psychophysics","386","900717","0.0-14.0-0.2-1.2-0.3-0.18","411","","j","","","","","","","","","","","","","key","j","16.673809523809247","768","428","j","true","img/S_28.png","自我","非自我","self",""
"","","","","","html-keyboard-response","387","901031","0.0-14.0-0.2-1.2-0.3-1.18","null","<span style='color:GreenYellow; font-size: 70px;'>正确! </span>","null","","","","","","","","","","","","","","","","","","","","","","","","feedback_test"
"","","","","","psychophysics","388","902422","0.0-14.0-0.2-1.2-0.3-0.19","384","","j","","","","","","","","","","","","","key","j","16.674390243903005","768","428","j","true","img/C_28.png","自我","非自我","self",""
"","","","","","html-keyboard-response","389","902726","0.0-14.0-0.2-1.2-0.3-1.19","null","<span style='color:GreenYellow; font-size: 70px;'>正确! </span>","null","","","","","","","","","","","","","","","","","","","","","","","","feedback_test"
"","","","","","psychophysics","390","904087","0.0-14.0-0.2-1.2-0.3-0.20","360","","f","","","","","","","","","","","","","key","f","16.671249999999418","768","428","f","true","img/H_28.png","自我","非自我","self",""
"","","","","","html-keyboard-response","391","904398","0.0-14.0-0.2-1.2-0.3-1.20","null","<span style='color:GreenYellow; font-size: 70px;'>正确! </span>","null","","","","","","","","","","","","","","","","","","","","","","","","feedback_test"
"","","","","","psychophysics","392","905802","0.0-14.0-0.2-1.2-0.3-0.21","402","","j","","","","","","","","","","","","","key","j","16.673493975903895","768","428","j","true","img/S_28.png","自我","非自我","self",""
"","","","","","html-keyboard-response","393","906117","0.0-14.0-0.2-1.2-0.3-1.21","null","<span style='color:GreenYellow; font-size: 70px;'>正确! </span>","null","","","","","","","","","","","","","","","","","","","","","","","","feedback_test"
"","","","","","psychophysics","394","907503","0.0-14.0-0.2-1.2-0.3-0.22","379","","j","","","","","","","","","","","","","key","j","16.673170731706747","768","428","j","true","img/C_28.png","自我","非自我","self",""
"","","","","","html-keyboard-response","395","907806","0.0-14.0-0.2-1.2-0.3-1.22","null","<span style='color:GreenYellow; font-size: 70px;'>正确! </span>","null","","","","","","","","","","","","","","","","","","","","","","","","feedback_test"
"","","","","","psychophysics","396","909235","0.0-14.0-0.2-1.2-0.3-0.23","426","","j","","","","","","","","","","","","","key","j","16.673809523809247","768","428","j","true","img/C_28.png","自我","非自我","self",""
"","","","","","html-keyboard-response","397","909543","0.0-14.0-0.2-1.2-0.3-1.23","null","<span style='color:GreenYellow; font-size: 70px;'>正确! </span>","null","","","","","","","","","","","","","","","","","","","","","","","","feedback_test"
"","","","","","psychophysics","398","910879","0.0-14.0-0.2-1.2-0.3-0.24","323","","f","","","","","","","","","","","","","key","f","16.673417721518398","768","428","f","true","img/H_28.png","自我","非自我","self",""
"","","","","","html-keyboard-response","399","911194","0.0-14.0-0.2-1.2-0.3-1.24","null","<span style='color:GreenYellow; font-size: 70px;'>正确! </span>","null","","","","","","","","","","","","","","","","","","","","","","","","feedback_test"
"","","","","","psychophysics","400","912680","0.0-14.0-0.2-1.2-0.3-0.25","473","","j","","","","","","","","","","","","","key","j","16.673863636364164","768","428","j","true","img/S_28.png","自我","非自我","self",""
"","","","","","html-keyboard-response","401","912986","0.0-14.0-0.2-1.2-0.3-1.25","null","<span style='color:GreenYellow; font-size: 70px;'>正确! </span>","null","","","","","","","","","","","","","","","","","","","","","","","","feedback_test"
"","","","","","html-keyboard-response","402","914723","0.0-14.0-0.2-1.2-1.3","1737","<style>.context{color:white; font-size: 35px; line-height:40px}</style>                          <div><p class='context'>您正确回答了100% 的试次。</p><p class='context'>您的平均反应时为403毫秒。</p><p class='context'>请按任意键进入休息</p></div>"," ","","","","","","","","","","","","","","","","","","","","","","","",""
"","","","","","html-button-response","403","917340","0.0-14.0-0.2-1.2-2.3","2613","
                  <p>自我图形分类任务中，您还剩余3组实验</p>
                  <p>现在是休息时间，当您结束休息后，您可以点击 结束休息 按钮 继续</p>
                  <p>建议休息时间还剩余<span id=""iii"">60</span>秒</p>","0","","","","","","","","","","","","","","","","","","","","","","","",""
"","","","","","psychophysics","404","918748","0.0-14.0-0.2-1.2-0.4-0.26","403","","f","","","","","","","","","","","","","key","f","16.67590361445755","768","428","f","true","img/H_28.png","自我","非自我","self",""
"","","","","","html-keyboard-response","405","919051","0.0-14.0-0.2-1.2-0.4-1.26","null","<span style='color:GreenYellow; font-size: 70px;'>正确! </span>","null","","","","","","","","","","","","","","","","","","","","","","","","feedback_test"
"","","","","","psychophysics","406","920344","0.0-14.0-0.2-1.2-0.4-0.27","282","","j","","","","","","","","","","","","","key","j","16.67763157894737","768","428","j","true","img/C_28.png","自我","非自我","self",""
"","","","","","html-keyboard-response","407","920647","0.0-14.0-0.2-1.2-0.4-1.27","null","<span style='color:GreenYellow; font-size: 70px;'>正确! </span>","null","","","","","","","","","","","","","","","","","","","","","","","","feedback_test"
"","","","","","psychophysics","408","922147","0.0-14.0-0.2-1.2-0.4-0.28","490","","j","","","","","","","","","","","","","key","j","16.671910112360074","768","428","j","true","img/S_28.png","自我","非自我","self",""
"","","","","","html-keyboard-response","409","922452","0.0-14.0-0.2-1.2-0.4-1.28","null","<span style='color:GreenYellow; font-size: 70px;'>正确! </span>","null","","","","","","","","","","","","","","","","","","","","","","","","feedback_test"
"","","","","","psychophysics","410","923828","0.0-14.0-0.2-1.2-0.4-0.29","366","","j","","","","","","","","","","","","","key","j","16.67283950617284","768","428","j","true","img/C_28.png","自我","非自我","self",""
"","","","","","html-keyboard-response","411","924133","0.0-14.0-0.2-1.2-0.4-1.29","null","<span style='color:GreenYellow; font-size: 70px;'>正确! </span>","null","","","","","","","","","","","","","","","","","","","","","","","","feedback_test"
"","","","","","psychophysics","412","925536","0.0-14.0-0.2-1.2-0.4-0.30","391","","j","","","","","","","","","","","","","key","j","16.67590361445755","768","428","j","true","img/S_28.png","自我","非自我","self",""
"","","","","","html-keyboard-response","413","925848","0.0-14.0-0.2-1.2-0.4-1.30","null","<span style='color:GreenYellow; font-size: 70px;'>正确! </span>","null","","","","","","","","","","","","","","","","","","","","","","","","feedback_test"
"","","","","","psychophysics","414","927183","0.0-14.0-0.2-1.2-0.4-0.31","334","","f","","","","","","","","","","","","","key","f","16.674683544304386","768","428","f","true","img/H_28.png","自我","非自我","self",""
"","","","","","html-keyboard-response","415","927496","0.0-14.0-0.2-1.2-0.4-1.31","null","<span style='color:GreenYellow; font-size: 70px;'>正确! </span>","null","","","","","","","","","","","","","","","","","","","","","","","","feedback_test"
"","","","","","psychophysics","416","928823","0.0-14.0-0.2-1.2-0.4-0.32","324","","j","","","","","","","","","","","","","key","j","16.661538461539656","768","428","j","true","img/C_28.png","自我","非自我","self",""
"","","","","","html-keyboard-response","417","929135","0.0-14.0-0.2-1.2-0.4-1.32","null","<span style='color:GreenYellow; font-size: 70px;'>正确! </span>","null","","","","","","","","","","","","","","","","","","","","","","","","feedback_test"
"","","","","","psychophysics","418","930562","0.0-14.0-0.2-1.2-0.4-0.33","412","","j","","","","","","","","","","","","","key","j","16.672619047619047","768","428","j","true","img/S_28.png","自我","非自我","self",""
"","","","","","html-keyboard-response","419","930870","0.0-14.0-0.2-1.2-0.4-1.33","null","<span style='color:GreenYellow; font-size: 70px;'>正确! </span>","null","","","","","","","","","","","","","","","","","","","","","","","","feedback_test"
"","","","","","psychophysics","420","932327","0.0-14.0-0.2-1.2-0.4-0.34","448","","f","","","","","","","","","","","","","key","f","16.673255813952405","768","428","f","true","img/H_28.png","自我","非自我","self",""
