"success","timeout","failed_images","failed_audio","failed_video","trial_type","trial_index","time_elapsed","internal_node_id","rt","stimulus","response","value","item_width_mm","item_height_mm","item_width_px","px2mm","view_dist_mm","item_width_deg","px2deg","scale_factor","win_width_deg","win_height_deg","view_history","response_type","key_press","avg_frame_time","center_x","center_y","condition","correct_response","correct","Image","LeftLable","RightLable","shape","screen_id"
"true","false","[]","[]","[]","preload","0","34","0.0-0.0","","","","","","","","","","","","","","","","","","","","","","","","","","","",""
"","","","","","html-keyboard-response","1","1335","0.0-1.0","1301","
     <p>您好，欢迎参加本次实验。</p>
     <p>为充分保障您的权利，请确保您已经知晓并同意《参与实验同意书》以及《数据公开知情同意书》。</p>
     <p>如果您未见过上述内容，请咨询实验员。</p>
     <p>如果您选择继续实验，则表示您已经清楚两份知情同意书的内容并同意。</p>
     <p> <div style = ""color: green""><按任意键至下页></div> </p>
     "," ","","","","","","","","","","","","","","","","","","","","","","","","",""
"","","","","","html-keyboard-response","2","1840","0.0-2.0","504","
     <p>本实验首先需要您填写一些基本个人信息。</p>
     <p> <div style = ""color: green""><按任意键至下页></div></p>
     "," ","","","","","","","","","","","","","","","","","","","","","","","","",""
"","","","","","call-function","3","1842","0.0-3.0-0.0","","","","","","","","","","","","","","","","","","","","","","","","","","","",""
"","","","","","survey-html-form","4","4700","0.0-3.0-1.0","2855","","{""Q0"":""101""}","","","","","","","","","","","","","","","","","","","","","","","","",""
"","","","","","html-button-response","5","5794","0.0-3.0-2.0","1092","<p style = 'color : white'>您的性别</p>","1","","","","","","","","","","","","","","","","","","","","","","","","",""
"","","","","","survey-html-form","6","7119","0.0-3.0-3.0","1323","","{""Q0"":""1900""}","","","","","","","","","","","","","","","","","","","","","","","","",""
"","","","","","survey-html-form","7","8935","0.0-3.0-4.0","1814","","{""Q0"":""6""}","","","","","","","","","","","","","","","","","","","","","","","","",""
"","","","","","virtual-chinrest","8","23818","0.0-4.0","14879","","","","85.6","53.98","426.270973538592","4.9827620555524605","574.22","8.525419470771839","50","0.6943939849875843","22.32","11.44","","","","","","","","","","","","","",""
"true","","","","","fullscreen","9","25402","0.0-5.0","","","","","","","","","","","","","","","","","","","","","","","","","","","",""
"","","","","","instructions","10","31326","0.0-6.0","5924","","","","","","","","","","","","","","[{""page_index"":0,""viewing_time"":1717},{""page_index"":1,""viewing_time"":2582},{""page_index"":2,""viewing_time"":1124},{""page_index"":3,""viewing_time"":500}]","","","","","","","","","","","","",""
"","","","","","instructions","11","32287","0.0-7.0","960","","","","","","","","","","","","","","[{""page_index"":0,""viewing_time"":960}]","","","","","","","","","","","","",""
"","","","","","psychophysics","12","33766","0.0-8.0-0.0-0.0","473","","f","","","","","","","","","","","","","key","f","16.670114942528727","581.8181692076126","359.9999921972103","prac_self","f","true","img/C_28.png","自我","非自我","生人",""
"","","","","","html-keyboard-response","13","34069","0.0-8.0-0.0-1.0","null","<span style='color:GreenYellow; font-size: 70px;'>正确! </span>","null","","","","","","","","","","","","","","","","","","","","","","","","","feedback_test"
"","","","","","psychophysics","14","35979","0.0-8.0-0.0-0.1","906","","f","","","","","","","","","","","","","key","f","16.669026548672555","581.8181692076126","359.9999921972103","prac_self","f","true","img/S_28.png","自我","非自我","朋友",""
"","","","","","html-keyboard-response","15","36294","0.0-8.0-0.0-1.1","null","<span style='color:GreenYellow; font-size: 70px;'>正确! </span>","null","","","","","","","","","","","","","","","","","","","","","","","","","feedback_test"
"","","","","","psychophysics","16","37653","0.0-8.0-0.0-0.2","355","","j","","","","","","","","","","","","","key","j","16.66875","581.8181692076126","359.9999921972103","prac_self","j","true","img/H_28.png","自我","非自我","自我",""
"","","","","","html-keyboard-response","17","37969","0.0-8.0-0.0-1.2","null","<span style='color:GreenYellow; font-size: 70px;'>正确! </span>","null","","","","","","","","","","","","","","","","","","","","","","","","","feedback_test"
"","","","","","psychophysics","18","39516","0.0-8.0-0.0-0.3","541","","f","","","","","","","","","","","","","key","f","16.66739130434784","581.8181692076126","359.9999921972103","prac_self","f","true","img/S_28.png","自我","非自我","朋友",""
"","","","","","html-keyboard-response","19","39820","0.0-8.0-0.0-1.3","null","<span style='color:GreenYellow; font-size: 70px;'>正确! </span>","null","","","","","","","","","","","","","","","","","","","","","","","","","feedback_test"
"","","","","","psychophysics","20","41116","0.0-8.0-0.0-0.4","294","","f","","","","","","","","","","","","","key","f","16.669736842105284","581.8181692076126","359.9999921972103","prac_self","f","true","img/C_28.png","自我","非自我","生人",""
"","","","","","html-keyboard-response","21","41421","0.0-8.0-0.0-1.4","null","<span style='color:GreenYellow; font-size: 70px;'>正确! </span>","null","","","","","","","","","","","","","","","","","","","","","","","","","feedback_test"
"","","","","","psychophysics","22","42600","0.0-8.0-0.0-0.5","175","","j","","","","","","","","","","","","","key","j","16.672463768115964","581.8181692076126","359.9999921972103","prac_self","j","true","img/H_28.png","自我","非自我","自我",""
"","","","","","html-keyboard-response","23","42906","0.0-8.0-0.0-1.5","null","<span style='color:GreenYellow; font-size: 70px;'>正确! </span>","null","","","","","","","","","","","","","","","","","","","","","","","","","feedback_test"
"","","","","","psychophysics","24","44367","0.0-8.0-0.0-0.6","460","","j","","","","","","","","","","","","","key","j","16.674418604651162","581.8181692076126","359.9999921972103","prac_self","j","true","img/H_28.png","自我","非自我","自我",""
"","","","","","html-keyboard-response","25","44675","0.0-8.0-0.0-1.6","null","<span style='color:GreenYellow; font-size: 70px;'>正确! </span>","null","","","","","","","","","","","","","","","","","","","","","","","","","feedback_test"
"","","","","","psychophysics","26","46021","0.0-8.0-0.0-0.7","343","","f","","","","","","","","","","","","","key","f","16.664556962025316","581.8181692076126","359.9999921972103","prac_self","f","true","img/S_28.png","自我","非自我","朋友",""
"","","","","","html-keyboard-response","27","46330","0.0-8.0-0.0-1.7","null","<span style='color:GreenYellow; font-size: 70px;'>正确! </span>","null","","","","","","","","","","","","","","","","","","","","","","","","","feedback_test"
"","","","","","psychophysics","28","47567","0.0-8.0-0.0-0.8","226","","f","","","","","","","","","","","","","key","f","16.66986301369865","581.8181692076126","359.9999921972103","prac_self","f","true","img/C_28.png","自我","非自我","生人",""
"","","","","","html-keyboard-response","29","47878","0.0-8.0-0.0-1.8","null","<span style='color:GreenYellow; font-size: 70px;'>正确! </span>","null","","","","","","","","","","","","","","","","","","","","","","","","","feedback_test"
"","","","","","psychophysics","30","49168","0.0-8.0-0.0-0.9","280","","j","","","","","","","","","","","","","key","j","16.66842105263162","581.8181692076126","359.9999921972103","prac_self","f","false","img/C_28.png","自我","非自我","生人",""
"","","","","","html-keyboard-response","31","49484","0.0-8.0-0.0-1.9","null","<span style='color:red; font-size: 70px;'>错误! </span>","null","","","","","","","","","","","","","","","","","","","","","","","","","feedback_test"
"","","","","","psychophysics","32","51013","0.0-8.0-0.0-0.10","526","","j","","","","","","","","","","","","","key","j","16.67222222222222","581.8181692076126","359.9999921972103","prac_self","j","true","img/H_28.png","自我","非自我","自我",""
"","","","","","html-keyboard-response","33","51318","0.0-8.0-0.0-1.10","null","<span style='color:GreenYellow; font-size: 70px;'>正确! </span>","null","","","","","","","","","","","","","","","","","","","","","","","","","feedback_test"
"","","","","","psychophysics","34","52565","0.0-8.0-0.0-0.11","242","","f","","","","","","","","","","","","","key","f","16.667123287671192","581.8181692076126","359.9999921972103","prac_self","f","true","img/S_28.png","自我","非自我","朋友",""
"","","","","","html-keyboard-response","35","52871","0.0-8.0-0.0-1.11","null","<span style='color:GreenYellow; font-size: 70px;'>正确! </span>","null","","","","","","","","","","","","","","","","","","","","","","","","","feedback_test"
"","","","","","instructions","36","54171","0.0-9.0","1297","","","","","","","","","","","","","","[{""page_index"":0,""viewing_time"":1297}]","","","","","","","","","","","","",""
"","","","","","psychophysics","37","55795","0.0-10.0-0.0-0.0","623","","f","","","","","","","","","","","","","key","f","16.67083333333335","581.8181692076126","359.9999921972103","prac_friend","f","true","img/H_28.png","朋友","非朋友","自我",""
"","","","","","html-keyboard-response","38","56097","0.0-10.0-0.0-1.0","null","<span style='color:GreenYellow; font-size: 70px;'>正确! </span>","null","","","","","","","","","","","","","","","","","","","","","","","","","feedback_test"
"","","","","","psychophysics","39","57513","0.0-10.0-0.0-0.1","414","","j","","","","","","","","","","","","","key","j","16.66867469879518","581.8181692076126","359.9999921972103","prac_friend","j","true","img/S_28.png","朋友","非朋友","朋友",""
"","","","","","html-keyboard-response","40","57819","0.0-10.0-0.0-1.1","null","<span style='color:GreenYellow; font-size: 70px;'>正确! </span>","null","","","","","","","","","","","","","","","","","","","","","","","","","feedback_test"
"","","","","","psychophysics","41","58902","0.0-10.0-0.0-0.2","76","","f","","","","","","","","","","","","","key","f","16.674999999999955","581.8181692076126","359.9999921972103","prac_friend","f","true","img/C_28.png","朋友","非朋友","生人",""
"","","","","","html-keyboard-response","42","59211","0.0-10.0-0.0-1.2","null","<span style='color:GreenYellow; font-size: 70px;'>正确! </span>","null","","","","","","","","","","","","","","","","","","","","","","","","","feedback_test"
"","","","","","psychophysics","43","60705","0.0-10.0-0.0-0.3","480","","f","","","","","","","","","","","","","key","f","16.675000000000015","581.8181692076126","359.9999921972103","prac_friend","f","true","img/H_28.png","朋友","非朋友","自我",""
"","","","","","html-keyboard-response","44","61022","0.0-10.0-0.0-1.3","null","<span style='color:GreenYellow; font-size: 70px;'>正确! </span>","null","","","","","","","","","","","","","","","","","","","","","","","","","feedback_test"
"","","","","","psychophysics","45","62580","0.0-10.0-0.0-0.4","554","","f","","","","","","","","","","","","","key","f","16.66135483870969","581.8181692076126","359.9999921972103","prac_friend","f","true","img/C_28.png","朋友","非朋友","生人",""
"","","","","","html-keyboard-response","46","62884","0.0-10.0-0.0-1.4","null","<span style='color:GreenYellow; font-size: 70px;'>正确! </span>","null","","","","","","","","","","","","","","","","","","","","","","","","","feedback_test"
"","","","","","psychophysics","47","64198","0.0-10.0-0.0-0.5","310","","j","","","","","","","","","","","","","key","j","16.622717948717952","581.8181692076126","359.9999921972103","prac_friend","j","true","img/S_28.png","朋友","非朋友","朋友",""
"","","","","","html-keyboard-response","48","64506","0.0-10.0-0.0-1.5","null","<span style='color:GreenYellow; font-size: 70px;'>正确! </span>","null","","","","","","","","","","","","","","","","","","","","","","","","","feedback_test"
"","","","","","psychophysics","49","66738","0.0-10.0-0.0-0.6","1229","","j","","","","","","","","","","","","","key","j","16.668939393939414","581.8181692076126","359.9999921972103","prac_friend","j","true","img/S_28.png","朋友","非朋友","朋友",""
"","","","","","html-keyboard-response","50","67048","0.0-10.0-0.0-1.6","null","<span style='color:GreenYellow; font-size: 70px;'>正确! </span>","null","","","","","","","","","","","","","","","","","","","","","","","","","feedback_test"
"","","","","","psychophysics","51","68420","0.0-10.0-0.0-0.7","365","","f","","","","","","","","","","","","","key","f","16.671604938271532","581.8181692076126","359.9999921972103","prac_friend","f","true","img/H_28.png","朋友","非朋友","自我",""
"","","","","","html-keyboard-response","52","68736","0.0-10.0-0.0-1.7","null","<span style='color:GreenYellow; font-size: 70px;'>正确! </span>","null","","","","","","","","","","","","","","","","","","","","","","","","","feedback_test"
"","","","","","psychophysics","53","70052","0.0-10.0-0.0-0.8","308","","f","","","","","","","","","","","","","key","f","16.664935064935026","581.8181692076126","359.9999921972103","prac_friend","f","true","img/C_28.png","朋友","非朋友","生人",""
"","","","","","html-keyboard-response","54","70360","0.0-10.0-0.0-1.8","null","<span style='color:GreenYellow; font-size: 70px;'>正确! </span>","null","","","","","","","","","","","","","","","","","","","","","","","","","feedback_test"
"","","","","","psychophysics","55","71735","0.0-10.0-0.0-0.9","371","","f","","","","","","","","","","","","","key","f","16.670370370370225","581.8181692076126","359.9999921972103","prac_friend","f","true","img/C_28.png","朋友","非朋友","生人",""
"","","","","","html-keyboard-response","56","72047","0.0-10.0-0.0-1.9","null","<span style='color:GreenYellow; font-size: 70px;'>正确! </span>","null","","","","","","","","","","","","","","","","","","","","","","","","","feedback_test"
"","","","","","psychophysics","57","73617","0.0-10.0-0.0-0.10","569","","f","","","","","","","","","","","","","key","f","16.6655913978494","581.8181692076126","359.9999921972103","prac_friend","f","true","img/H_28.png","朋友","非朋友","自我",""
"","","","","","html-keyboard-response","58","73932","0.0-10.0-0.0-1.10","null","<span style='color:GreenYellow; font-size: 70px;'>正确! </span>","null","","","","","","","","","","","","","","","","","","","","","","","","","feedback_test"
"","","","","","psychophysics","59","75276","0.0-10.0-0.0-0.11","341","","j","","","","","","","","","","","","","key","j","16.66875","581.8181692076126","359.9999921972103","prac_friend","j","true","img/S_28.png","朋友","非朋友","朋友",""
"","","","","","html-keyboard-response","60","75592","0.0-10.0-0.0-1.11","null","<span style='color:GreenYellow; font-size: 70px;'>正确! </span>","null","","","","","","","","","","","","","","","","","","","","","","","","","feedback_test"
"","","","","","instructions","61","76567","0.0-11.0","971","","","","","","","","","","","","","","[{""page_index"":0,""viewing_time"":971}]","","","","","","","","","","","","",""
"","","","","","psychophysics","62","78763","0.0-12.0-0.0-0.0","1182","","f","","","","","","","","","","","","","key","f","16.66870229007638","581.8181692076126","359.9999921972103","prac_stranger","f","true","img/S_28.png","生人","非生人","朋友",""
"","","","","","html-keyboard-response","63","79064","0.0-12.0-0.0-1.0","null","<span style='color:GreenYellow; font-size: 70px;'>正确! </span>","null","","","","","","","","","","","","","","","","","","","","","","","","","feedback_test"
"","","","","","psychophysics","64","80485","0.0-12.0-0.0-0.1","412","","f","","","","","","","","","","","","","key","f","16.666666666666668","581.8181692076126","359.9999921972103","prac_stranger","f","true","img/H_28.png","生人","非生人","自我",""
"","","","","","html-keyboard-response","65","80792","0.0-12.0-0.0-1.1","null","<span style='color:GreenYellow; font-size: 70px;'>正确! </span>","null","","","","","","","","","","","","","","","","","","","","","","","","","feedback_test"
"","","","","","psychophysics","66","82081","0.0-12.0-0.0-0.2","287","","j","","","","","","","","","","","","","key","j","16.667105263157858","581.8181692076126","359.9999921972103","prac_stranger","j","true","img/C_28.png","生人","非生人","生人",""
"","","","","","html-keyboard-response","67","82390","0.0-12.0-0.0-1.2","null","<span style='color:GreenYellow; font-size: 70px;'>正确! </span>","null","","","","","","","","","","","","","","","","","","","","","","","","","feedback_test"
"","","","","","psychophysics","68","83866","0.0-12.0-0.0-0.3","470","","f","","","","","","","","","","","","","key","f","16.67011494252877","581.8181692076126","359.9999921972103","prac_stranger","f","true","img/H_28.png","生人","非生人","自我",""
"","","","","","html-keyboard-response","69","84180","0.0-12.0-0.0-1.3","null","<span style='color:GreenYellow; font-size: 70px;'>正确! </span>","null","","","","","","","","","","","","","","","","","","","","","","","","","feedback_test"
"","","","","","psychophysics","70","85576","0.0-12.0-0.0-0.4","387","","j","","","","","","","","","","","","","key","j","16.661999999999956","581.8181692076126","359.9999921972103","prac_stranger","j","true","img/C_28.png","生人","非生人","生人",""
"","","","","","html-keyboard-response","71","85880","0.0-12.0-0.0-1.4","null","<span style='color:GreenYellow; font-size: 70px;'>正确! </span>","null","","","","","","","","","","","","","","","","","","","","","","","","","feedback_test"
"","","","","","psychophysics","72","87143","0.0-12.0-0.0-0.5","259","","f","","","","","","","","","","","","","key","f","16.669333333333295","581.8181692076126","359.9999921972103","prac_stranger","f","true","img/S_28.png","生人","非生人","朋友",""
"","","","","","html-keyboard-response","73","87452","0.0-12.0-0.0-1.5","null","<span style='color:GreenYellow; font-size: 70px;'>正确! </span>","null","","","","","","","","","","","","","","","","","","","","","","","","","feedback_test"
"","","","","","psychophysics","74","88830","0.0-12.0-0.0-0.6","375","","f","","","","","","","","","","","","","key","f","16.670370370370406","581.8181692076126","359.9999921972103","prac_stranger","f","true","img/S_28.png","生人","非生人","朋友",""
"","","","","","html-keyboard-response","75","89135","0.0-12.0-0.0-1.6","null","<span style='color:GreenYellow; font-size: 70px;'>正确! </span>","null","","","","","","","","","","","","","","","","","","","","","","","","","feedback_test"
"","","","","","psychophysics","76","90529","0.0-12.0-0.0-0.7","391","","j","","","","","","","","","","","","","key","j","16.668292682926865","581.8181692076126","359.9999921972103","prac_stranger","j","true","img/C_28.png","生人","非生人","生人",""
"","","","","","html-keyboard-response","77","90843","0.0-12.0-0.0-1.7","null","<span style='color:GreenYellow; font-size: 70px;'>正确! </span>","null","","","","","","","","","","","","","","","","","","","","","","","","","feedback_test"
"","","","","","psychophysics","78","92118","0.0-12.0-0.0-0.8","265","","f","","","","","","","","","","","","","key","f","16.671999999999922","581.8181692076126","359.9999921972103","prac_stranger","f","true","img/H_28.png","生人","非生人","自我",""
"","","","","","html-keyboard-response","79","92421","0.0-12.0-0.0-1.8","null","<span style='color:GreenYellow; font-size: 70px;'>正确! </span>","null","","","","","","","","","","","","","","","","","","","","","","","","","feedback_test"
"","","","","","psychophysics","80","93950","0.0-12.0-0.0-0.9","528","","f","","","","","","","","","","","","","key","f","16.670000000000034","581.8181692076126","359.9999921972103","prac_stranger","f","true","img/H_28.png","生人","非生人","自我",""
"","","","","","html-keyboard-response","81","94263","0.0-12.0-0.0-1.9","null","<span style='color:GreenYellow; font-size: 70px;'>正确! </span>","null","","","","","","","","","","","","","","","","","","","","","","","","","feedback_test"
"","","","","","psychophysics","82","95719","0.0-12.0-0.0-0.10","448","","f","","","","","","","","","","","","","key","f","16.669767441860362","581.8181692076126","359.9999921972103","prac_stranger","f","true","img/S_28.png","生人","非生人","朋友",""
"","","","","","html-keyboard-response","83","96023","0.0-12.0-0.0-1.10","null","<span style='color:GreenYellow; font-size: 70px;'>正确! </span>","null","","","","","","","","","","","","","","","","","","","","","","","","","feedback_test"
"","","","","","psychophysics","84","97331","0.0-12.0-0.0-0.11","306","","j","","","","","","","","","","","","","key","j","16.66883116883117","581.8181692076126","359.9999921972103","prac_stranger","j","true","img/C_28.png","生人","非生人","生人",""
"","","","","","html-keyboard-response","85","97637","0.0-12.0-0.0-1.11","null","<span style='color:GreenYellow; font-size: 70px;'>正确! </span>","null","","","","","","","","","","","","","","","","","","","","","","","","","feedback_test"
"","","","","","html-keyboard-response","86","98446","0.0-13.0","804","[""<style>.context{color:white; font-size: 35px; line-height:40px}</style>                                        <div><p class='context'>您正确回答了100% 的试次。</p><p class='context'>您的平均反应时为443毫秒。</p><p class='context'>恭喜您完成练习。您可以在此时休息一段时间，准备好后按任意键进入正式实验。</p><p class='footer' style='font-size: 35px; line-height:40px;'>请在进入正式实验实验之前将您的<span style='color: lightgreen;'>食指</span>放在电脑键盘的相应键位上，做好按键准备。</p>""]"," ","","","","","","","","","","","","","","","","","","","","","","","","",""
"","","","","","html-keyboard-response","87","98994","0.0-14.0-1.0-0.0","546","
      <p>请您将食指放在相应按键上，准备进入<span style='color: yellow;'>朋友图形分类任务</span></p>
      <p> <div style = ""color: green""><按任意键开始></div></p>
      "," ","","","","","","","","","","","","","","","","","","","","","","","","",""
"","","","","","psychophysics","88","100512","0.0-14.0-1.0-1.0-0.0-0.0","512","","f","","","","","","","","","","","","","key","f","16.668539325842698","581.8181692076126","359.9999921972103","friend","f","true","img/C_28.png","朋友","非朋友","生人",""
"","","","","","html-keyboard-response","89","100814","0.0-14.0-1.0-1.0-0.0-1.0","null","<span style='color:GreenYellow; font-size: 70px;'>正确! </span>","null","","","","","","","","","","","","","","","","","","","","","","","","","feedback_test"
"","","","","","psychophysics","90","102282","0.0-14.0-1.0-1.0-0.0-0.1","466","","j","","","","","","","","","","","","","key","j","16.667441860465047","581.8181692076126","359.9999921972103","friend","j","true","img/S_28.png","朋友","非朋友","朋友",""
"","","","","","html-keyboard-response","91","102585","0.0-14.0-1.0-1.0-0.0-1.1","null","<span style='color:GreenYellow; font-size: 70px;'>正确! </span>","null","","","","","","","","","","","","","","","","","","","","","","","","","feedback_test"
"","","","","","psychophysics","92","103842","0.0-14.0-1.0-1.0-0.0-0.2","255","","f","","","","","","","","","","","","","key","f","16.66891891891892","581.8181692076126","359.9999921972103","friend","f","true","img/H_28.png","朋友","非朋友","自我",""
"","","","","","html-keyboard-response","93","104149","0.0-14.0-1.0-1.0-0.0-1.2","null","<span style='color:GreenYellow; font-size: 70px;'>正确! </span>","null","","","","","","","","","","","","","","","","","","","","","","","","","feedback_test"
"","","","","","psychophysics","94","105642","0.0-14.0-1.0-1.0-0.0-0.3","491","","j","","","","","","","","","","","","","key","j","16.67272727272724","581.8181692076126","359.9999921972103","friend","j","true","img/S_28.png","朋友","非朋友","朋友",""
"","","","","","html-keyboard-response","95","105946","0.0-14.0-1.0-1.0-0.0-1.3","null","<span style='color:GreenYellow; font-size: 70px;'>正确! </span>","null","","","","","","","","","","","","","","","","","","","","","","","","","feedback_test"
"","","","","","psychophysics","96","107113","0.0-14.0-1.0-1.0-0.0-0.4","161","","f","","","","","","","","","","","","","key","f","16.667647058823658","581.8181692076126","359.9999921972103","friend","f","true","img/C_28.png","朋友","非朋友","生人",""
"","","","","","html-keyboard-response","97","107427","0.0-14.0-1.0-1.0-0.0-1.4","null","<span style='color:yellow; font-size: 70px;'>过快! </span>","null","","","","","","","","","","","","","","","","","","","","","","","","","feedback_test"
"","","","","","psychophysics","98","108896","0.0-14.0-1.0-1.0-0.0-0.5","463","","f","","","","","","","","","","","","","key","f","16.673563218390704","581.8181692076126","359.9999921972103","friend","f","true","img/H_28.png","朋友","非朋友","自我",""
"","","","","","html-keyboard-response","99","109204","0.0-14.0-1.0-1.0-0.0-1.5","null","<span style='color:GreenYellow; font-size: 70px;'>正确! </span>","null","","","","","","","","","","","","","","","","","","","","","","","","","feedback_test"
"","","","","","psychophysics","100","110725","0.0-14.0-1.0-1.0-0.0-0.6","518","","j","","","","","","","","","","","","","key","j","16.663333333333302","581.8181692076126","359.9999921972103","friend","j","true","img/S_28.png","朋友","非朋友","朋友",""
"","","","","","html-keyboard-response","101","111038","0.0-14.0-1.0-1.0-0.0-1.6","null","<span style='color:GreenYellow; font-size: 70px;'>正确! </span>","null","","","","","","","","","","","","","","","","","","","","","","","","","feedback_test"
"","","","","","psychophysics","102","112582","0.0-14.0-1.0-1.0-0.0-0.7","529","","f","","","","","","","","","","","","","key","f","16.66813186813174","581.8181692076126","359.9999921972103","friend","f","true","img/C_28.png","朋友","非朋友","生人",""
"","","","","","html-keyboard-response","103","112886","0.0-14.0-1.0-1.0-0.0-1.7","null","<span style='color:GreenYellow; font-size: 70px;'>正确! </span>","null","","","","","","","","","","","","","","","","","","","","","","","","","feedback_test"
"","","","","","psychophysics","104","114475","0.0-14.0-1.0-1.0-0.0-0.8","587","","f","","","","","","","","","","","","","key","f","16.671276595744743","581.8181692076126","359.9999921972103","friend","f","true","img/H_28.png","朋友","非朋友","自我",""
"","","","","","html-keyboard-response","105","114787","0.0-14.0-1.0-1.0-0.0-1.8","null","<span style='color:GreenYellow; font-size: 70px;'>正确! </span>","null","","","","","","","","","","","","","","","","","","","","","","","","","feedback_test"
"","","","","","psychophysics","106","116294","0.0-14.0-1.0-1.0-0.0-0.9","505","","f","","","","","","","","","","","","","key","f","16.670786516854065","581.8181692076126","359.9999921972103","friend","f","true","img/H_28.png","朋友","非朋友","自我",""
"","","","","","html-keyboard-response","107","116600","0.0-14.0-1.0-1.0-0.0-1.9","null","<span style='color:GreenYellow; font-size: 70px;'>正确! </span>","null","","","","","","","","","","","","","","","","","","","","","","","","","feedback_test"
"","","","","","psychophysics","108","118163","0.0-14.0-1.0-1.0-0.0-0.10","560","","f","","","","","","","","","","","","","key","f","16.66630434782612","581.8181692076126","359.9999921972103","friend","f","true","img/C_28.png","朋友","非朋友","生人",""
"","","","","","html-keyboard-response","109","118475","0.0-14.0-1.0-1.0-0.0-1.10","null","<span style='color:GreenYellow; font-size: 70px;'>正确! </span>","null","","","","","","","","","","","","","","","","","","","","","","","","","feedback_test"
"","","","","","psychophysics","110","119868","0.0-14.0-1.0-1.0-0.0-0.11","386","","j","","","","","","","","","","","","","key","j","16.67654320987658","581.8181692076126","359.9999921972103","friend","j","true","img/S_28.png","朋友","非朋友","朋友",""
"","","","","","html-keyboard-response","111","120171","0.0-14.0-1.0-1.0-0.0-1.11","null","<span style='color:GreenYellow; font-size: 70px;'>正确! </span>","null","","","","","","","","","","","","","","","","","","","","","","","","","feedback_test"
"","","","","","html-keyboard-response","112","120931","0.0-14.0-1.0-1.0-1.0","755","<style>.context{color:white; font-size: 35px; line-height:40px}</style>                          <div><p class='context'>您正确回答了100% 的试次。</p><p class='context'>您的平均反应时为453毫秒。</p><p class='context'>请按任意键进入休息</p></div>"," ","","","","","","","","","","","","","","","","","","","","","","","","",""
"","","","","","html-button-response","113","123359","0.0-14.0-1.0-1.0-2.0","2423","
                  <p>朋友图形分类任务中，您还剩余4组实验</p>
                  <p>现在是休息时间，当您结束休息后，您可以点击 结束休息 按钮 继续</p>
                  <p>建议休息时间还剩余<span id=""iii"">60</span>秒</p>","0","","","","","","","","","","","","","","","","","","","","","","","","",""
"","","","","","psychophysics","114","124924","0.0-14.0-1.0-1.0-0.1-0.12","561","","j","","","","","","","","","","","","","key","j","16.670652173913012","581.8181692076126","359.9999921972103","friend","j","true","img/S_28.png","朋友","非朋友","朋友",""
"","","","","","html-keyboard-response","115","125238","0.0-14.0-1.0-1.0-0.1-1.12","null","<span style='color:GreenYellow; font-size: 70px;'>正确! </span>","null","","","","","","","","","","","","","","","","","","","","","","","","","feedback_test"
"","","","","","psychophysics","116","126320","0.0-14.0-1.0-1.0-0.1-0.13","76","","f","","","","","","","","","","","","","key","f","16.670406250000042","581.8181692076126","359.9999921972103","friend","f","true","img/H_28.png","朋友","非朋友","自我",""
"","","","","","html-keyboard-response","117","126624","0.0-14.0-1.0-1.0-0.1-1.13","null","<span style='color:yellow; font-size: 70px;'>过快! </span>","null","","","","","","","","","","","","","","","","","","","","","","","","","feedback_test"
"","","","","","psychophysics","118","127846","0.0-14.0-1.0-1.0-0.1-0.14","218","","f","","","","","","","","","","","","","key","f","16.666666666666668","581.8181692076126","359.9999921972103","friend","f","true","img/C_28.png","朋友","非朋友","生人",""
"","","","","","html-keyboard-response","119","128159","0.0-14.0-1.0-1.0-0.1-1.14","null","<span style='color:GreenYellow; font-size: 70px;'>正确! </span>","null","","","","","","","","","","","","","","","","","","","","","","","","","feedback_test"
"","","","","","psychophysics","120","129656","0.0-14.0-1.0-1.0-0.1-0.15","496","","f","","","","","","","","","","","","","key","f","16.67272727272724","581.8181692076126","359.9999921972103","friend","f","true","img/C_28.png","朋友","非朋友","生人",""
"","","","","","html-keyboard-response","121","129965","0.0-14.0-1.0-1.0-0.1-1.15","null","<span style='color:GreenYellow; font-size: 70px;'>正确! </span>","null","","","","","","","","","","","","","","","","","","","","","","","","","feedback_test"
"","","","","","psychophysics","122","131353","0.0-14.0-1.0-1.0-0.1-0.16","385","","j","","","","","","","","","","","","","key","j","16.667073170731495","581.8181692076126","359.9999921972103","friend","j","true","img/S_28.png","朋友","非朋友","朋友",""
"","","","","","html-keyboard-response","123","131656","0.0-14.0-1.0-1.0-0.1-1.16","null","<span style='color:GreenYellow; font-size: 70px;'>正确! </span>","null","","","","","","","","","","","","","","","","","","","","","","","","","feedback_test"
"","","","","","psychophysics","124","132903","0.0-14.0-1.0-1.0-0.1-0.17","245","","f","","","","","","","","","","","","","key","f","16.66849315068517","581.8181692076126","359.9999921972103","friend","f","true","img/H_28.png","朋友","非朋友","自我",""
"","","","","","html-keyboard-response","125","133216","0.0-14.0-1.0-1.0-0.1-1.17","null","<span style='color:GreenYellow; font-size: 70px;'>正确! </span>","null","","","","","","","","","","","","","","","","","","","","","","","","","feedback_test"
"","","","","","psychophysics","126","134636","0.0-14.0-1.0-1.0-0.1-0.18","411","","f","","","","","","","","","","","","","key","f","16.666666666666668","581.8181692076126","359.9999921972103","friend","f","true","img/C_28.png","朋友","非朋友","生人",""
"","","","","","html-keyboard-response","127","134937","0.0-14.0-1.0-1.0-0.1-1.18","null","<span style='color:GreenYellow; font-size: 70px;'>正确! </span>","null","","","","","","","","","","","","","","","","","","","","","","","","","feedback_test"
"","","","","","psychophysics","128","136453","0.0-14.0-1.0-1.0-0.1-0.19","514","","j","","","","","","","","","","","","","key","j","16.66629213483133","581.8181692076126","359.9999921972103","friend","j","true","img/S_28.png","朋友","非朋友","朋友",""
"","","","","","html-keyboard-response","129","136764","0.0-14.0-1.0-1.0-0.1-1.19","null","<span style='color:GreenYellow; font-size: 70px;'>正确! </span>","null","","","","","","","","","","","","","","","","","","","","","","","","","feedback_test"
"","","","","","psychophysics","130","137999","0.0-14.0-1.0-1.0-0.1-0.20","234","","f","","","","","","","","","","","","","key","f","16.675342465753264","581.8181692076126","359.9999921972103","friend","f","true","img/H_28.png","朋友","非朋友","自我",""
"","","","","","html-keyboard-response","131","138315","0.0-14.0-1.0-1.0-0.1-1.20","null","<span style='color:GreenYellow; font-size: 70px;'>正确! </span>","null","","","","","","","","","","","","","","","","","","","","","","","","","feedback_test"
"","","","","","psychophysics","132","139806","0.0-14.0-1.0-1.0-0.1-0.21","481","","j","","","","","","","","","","","","","key","j","16.66484090909084","581.8181692076126","359.9999921972103","friend","j","true","img/S_28.png","朋友","非朋友","朋友",""
"","","","","","html-keyboard-response","133","140113","0.0-14.0-1.0-1.0-0.1-1.21","null","<span style='color:GreenYellow; font-size: 70px;'>正确! </span>","null","","","","","","","","","","","","","","","","","","","","","","","","","feedback_test"
"","","","","","psychophysics","134","141314","0.0-14.0-1.0-1.0-0.1-0.22","190","","f","","","","","","","","","","","","","key","f","16.669014084507044","581.8181692076126","359.9999921972103","friend","f","true","img/C_28.png","朋友","非朋友","生人",""
"","","","","","html-keyboard-response","135","141631","0.0-14.0-1.0-1.0-0.1-1.22","null","<span style='color:yellow; font-size: 70px;'>过快! </span>","null","","","","","","","","","","","","","","","","","","","","","","","","","feedback_test"
"","","","","","psychophysics","136","142917","0.0-14.0-1.0-1.0-0.1-0.23","275","","f","","","","","","","","","","","","","key","f","16.66594736842097","581.8181692076126","359.9999921972103","friend","f","true","img/H_28.png","朋友","非朋友","自我",""
"","","","","","html-keyboard-response","137","143222","0.0-14.0-1.0-1.0-0.1-1.23","null","<span style='color:GreenYellow; font-size: 70px;'>正确! </span>","null","","","","","","","","","","","","","","","","","","","","","","","","","feedback_test"
"","","","","","html-keyboard-response","138","143926","0.0-14.0-1.0-1.0-1.1","702","<style>.context{color:white; font-size: 35px; line-height:40px}</style>                          <div><p class='context'>您正确回答了100% 的试次。</p><p class='context'>您的平均反应时为341毫秒。</p><p class='context'>请按任意键进入休息</p></div>"," ","","","","","","","","","","","","","","","","","","","","","","","","",""
"","","","","","html-button-response","139","145089","0.0-14.0-1.0-1.0-2.1","1158","
                  <p>朋友图形分类任务中，您还剩余3组实验</p>
                  <p>现在是休息时间，当您结束休息后，您可以点击 结束休息 按钮 继续</p>
                  <p>建议休息时间还剩余<span id=""iii"">60</span>秒</p>","0","","","","","","","","","","","","","","","","","","","","","","","","",""
"","","","","","psychophysics","140","146564","0.0-14.0-1.0-1.0-0.2-0.24","468","","f","","","","","","","","","","","","","key","f","16.667045454545256","581.8181692076126","359.9999921972103","friend","f","true","img/C_28.png","朋友","非朋友","生人",""
"","","","","","html-keyboard-response","141","146866","0.0-14.0-1.0-1.0-0.2-1.24","null","<span style='color:GreenYellow; font-size: 70px;'>正确! </span>","null","","","","","","","","","","","","","","","","","","","","","","","","","feedback_test"
"","","","","","psychophysics","142","148215","0.0-14.0-1.0-1.0-0.2-0.25","343","","f","","","","","","","","","","","","","key","f","16.670000000000073","581.8181692076126","359.9999921972103","friend","f","true","img/H_28.png","朋友","非朋友","自我",""
"","","","","","html-keyboard-response","143","148526","0.0-14.0-1.0-1.0-0.2-1.25","null","<span style='color:GreenYellow; font-size: 70px;'>正确! </span>","null","","","","","","","","","","","","","","","","","","","","","","","","","feedback_test"
"","","","","","psychophysics","144","149761","0.0-14.0-1.0-1.0-0.2-0.26","225","","j","","","","","","","","","","","","","key","j","16.672602739726106","581.8181692076126","359.9999921972103","friend","j","true","img/S_28.png","朋友","非朋友","朋友",""
"","","","","","html-keyboard-response","145","150073","0.0-14.0-1.0-1.0-0.2-1.26","null","<span style='color:GreenYellow; font-size: 70px;'>正确! </span>","null","","","","","","","","","","","","","","","","","","","","","","","","","feedback_test"
"","","","","","psychophysics","146","151382","0.0-14.0-1.0-1.0-0.2-0.27","298","","f","","","","","","","","","","","","","key","f","16.667532467532393","581.8181692076126","359.9999921972103","friend","f","true","img/H_28.png","朋友","非朋友","自我",""
"","","","","","html-keyboard-response","147","151687","0.0-14.0-1.0-1.0-0.2-1.27","null","<span style='color:GreenYellow; font-size: 70px;'>正确! </span>","null","","","","","","","","","","","","","","","","","","","","","","","","","feedback_test"
"","","","","","psychophysics","148","153192","0.0-14.0-1.0-1.0-0.2-0.28","494","","j","","","","","","","","","","","","","key","j","16.66966292134838","581.8181692076126","359.9999921972103","friend","j","true","img/S_28.png","朋友","非朋友","朋友",""
"","","","","","html-keyboard-response","149","153493","0.0-14.0-1.0-1.0-0.2-1.28","null","<span style='color:GreenYellow; font-size: 70px;'>正确! </span>","null","","","","","","","","","","","","","","","","","","","","","","","","","feedback_test"
"","","","","","psychophysics","150","154717","0.0-14.0-1.0-1.0-0.2-0.29","220","","f","","","","","","","","","","","","","key","f","16.671232876712327","581.8181692076126","359.9999921972103","friend","f","true","img/C_28.png","朋友","非朋友","生人",""
"","","","","","html-keyboard-response","151","155027","0.0-14.0-1.0-1.0-0.2-1.29","null","<span style='color:GreenYellow; font-size: 70px;'>正确! </span>","null","","","","","","","","","","","","","","","","","","","","","","","","","feedback_test"
"","","","","","psychophysics","152","156508","0.0-14.0-1.0-1.0-0.2-0.30","479","","j","","","","","","","","","","","","","key","j","16.67471264367796","581.8181692076126","359.9999921972103","friend","j","true","img/S_28.png","朋友","非朋友","朋友",""
"","","","","","html-keyboard-response","153","156812","0.0-14.0-1.0-1.0-0.2-1.30","null","<span style='color:GreenYellow; font-size: 70px;'>正确! </span>","null","","","","","","","","","","","","","","","","","","","","","","","","","feedback_test"
"","","","","","psychophysics","154","158110","0.0-14.0-1.0-1.0-0.2-0.31","296","","f","","","","","","","","","","","","","key","f","16.668421052631427","581.8181692076126","359.9999921972103","friend","f","true","img/H_28.png","朋友","非朋友","自我",""
"","","","","","html-keyboard-response","155","158410","0.0-14.0-1.0-1.0-0.2-1.31","null","<span style='color:GreenYellow; font-size: 70px;'>正确! </span>","null","","","","","","","","","","","","","","","","","","","","","","","","","feedback_test"
"","","","","","psychophysics","156","159740","0.0-14.0-1.0-1.0-0.2-0.32","327","","f","","","","","","","","","","","","","key","f","16.6756410256408","581.8181692076126","359.9999921972103","friend","f","true","img/C_28.png","朋友","非朋友","生人",""
"","","","","","html-keyboard-response","157","160047","0.0-14.0-1.0-1.0-0.2-1.32","null","<span style='color:GreenYellow; font-size: 70px;'>正确! </span>","null","","","","","","","","","","","","","","","","","","","","","","","","","feedback_test"
"","","","","","psychophysics","158","161517","0.0-14.0-1.0-1.0-0.2-0.33","468","","f","","","","","","","","","","","","","key","f","16.66896551724118","581.8181692076126","359.9999921972103","friend","f","true","img/C_28.png","朋友","非朋友","生人",""
"","","","","","html-keyboard-response","159","161822","0.0-14.0-1.0-1.0-0.2-1.33","null","<span style='color:GreenYellow; font-size: 70px;'>正确! </span>","null","","","","","","","","","","","","","","","","","","","","","","","","","feedback_test"
"","","","","","psychophysics","160","163210","0.0-14.0-1.0-1.0-0.2-0.34","384","","j","","","","","","","","","","","","","key","j","16.625341463414525","581.8181692076126","359.9999921972103","friend","j","true","img/S_28.png","朋友","非朋友","朋友",""
"","","","","","html-keyboard-response","161","163519","0.0-14.0-1.0-1.0-0.2-1.34","null","<span style='color:GreenYellow; font-size: 70px;'>正确! </span>","null","","","","","","","","","","","","","","","","","","","","","","","","","feedback_test"
"","","","","","psychophysics","162","164784","0.0-14.0-1.0-1.0-0.2-0.35","256","","f","","","","","","","","","","","","","key","f","16.665333333333646","581.8181692076126","359.9999921972103","friend","f","true","img/H_28.png","朋友","非朋友","自我",""
"","","","","","html-keyboard-response","163","165093","0.0-14.0-1.0-1.0-0.2-1.35","null","<span style='color:GreenYellow; font-size: 70px;'>正确! </span>","null","","","","","","","","","","","","","","","","","","","","","","","","","feedback_test"
"","","","","","html-keyboard-response","164","165622","0.0-14.0-1.0-1.0-1.2","528","<style>.context{color:white; font-size: 35px; line-height:40px}</style>                          <div><p class='context'>您正确回答了100% 的试次。</p><p class='context'>您的平均反应时为355毫秒。</p><p class='context'>请按任意键进入休息</p></div>"," ","","","","","","","","","","","","","","","","","","","","","","","","",""
"","","","","","html-button-response","165","166696","0.0-14.0-1.0-1.0-2.2","1067","
                  <p>朋友图形分类任务中，您还剩余2组实验</p>
                  <p>现在是休息时间，当您结束休息后，您可以点击 结束休息 按钮 继续</p>
                  <p>建议休息时间还剩余<span id=""iii"">60</span>秒</p>","0","","","","","","","","","","","","","","","","","","","","","","","","",""
"","","","","","psychophysics","166","168090","0.0-14.0-1.0-1.0-0.3-0.36","390","","f","","","","","","","","","","","","","key","f","16.668292682927042","581.8181692076126","359.9999921972103","friend","j","false","img/S_28.png","朋友","非朋友","朋友",""
"","","","","","html-keyboard-response","167","168391","0.0-14.0-1.0-1.0-0.3-1.36","null","<span style='color:red; font-size: 70px;'>错误! </span>","null","","","","","","","","","","","","","","","","","","","","","","","","","feedback_test"
"","","","","","psychophysics","168","169546","0.0-14.0-1.0-1.0-0.3-0.37","148","","f","","","","","","","","","","","","","key","f","16.668656716417736","581.8181692076126","359.9999921972103","friend","f","true","img/C_28.png","朋友","非朋友","生人",""
"","","","","","html-keyboard-response","169","169857","0.0-14.0-1.0-1.0-0.3-1.37","null","<span style='color:yellow; font-size: 70px;'>过快! </span>","null","","","","","","","","","","","","","","","","","","","","","","","","","feedback_test"
"","","","","","psychophysics","170","171039","0.0-14.0-1.0-1.0-0.3-0.38","172","","f","","","","","","","","","","","","","key","f","16.67142857142857","581.8181692076126","359.9999921972103","friend","f","true","img/H_28.png","朋友","非朋友","自我",""
"","","","","","html-keyboard-response","171","171344","0.0-14.0-1.0-1.0-0.3-1.38","null","<span style='color:yellow; font-size: 70px;'>过快! </span>","null","","","","","","","","","","","","","","","","","","","","","","","","","feedback_test"
"","","","","","psychophysics","172","173179","0.0-14.0-1.0-1.0-0.3-0.39","826","","f","","","","","","","","","","","","","key","f","16.67064220183465","581.8181692076126","359.9999921972103","friend","f","true","img/C_28.png","朋友","非朋友","生人",""
"","","","","","html-keyboard-response","173","173486","0.0-14.0-1.0-1.0-0.3-1.39","null","<span style='color:GreenYellow; font-size: 70px;'>正确! </span>","null","","","","","","","","","","","","","","","","","","","","","","","","","feedback_test"
"","","","","","psychophysics","174","174874","0.0-14.0-1.0-1.0-0.3-0.40","386","","j","","","","","","","","","","","","","key","j","16.66707317073185","581.8181692076126","359.9999921972103","friend","j","true","img/S_28.png","朋友","非朋友","朋友",""
"","","","","","html-keyboard-response","175","175190","0.0-14.0-1.0-1.0-0.3-1.40","null","<span style='color:GreenYellow; font-size: 70px;'>正确! </span>","null","","","","","","","","","","","","","","","","","","","","","","","","","feedback_test"
"","","","","","psychophysics","176","176527","0.0-14.0-1.0-1.0-0.3-0.41","323","","f","","","","","","","","","","","","","key","f","16.67215189873425","581.8181692076126","359.9999921972103","friend","f","true","img/H_28.png","朋友","非朋友","自我",""
"","","","","","html-keyboard-response","177","176832","0.0-14.0-1.0-1.0-0.3-1.41","null","<span style='color:GreenYellow; font-size: 70px;'>正确! </span>","null","","","","","","","","","","","","","","","","","","","","","","","","","feedback_test"
"","","","","","psychophysics","178","178480","0.0-14.0-1.0-1.0-0.3-0.42","643","","f","","","","","","","","","","","","","key","f","16.67319587628854","581.8181692076126","359.9999921972103","friend","f","true","img/H_28.png","朋友","非朋友","自我",""
"","","","","","html-keyboard-response","179","178792","0.0-14.0-1.0-1.0-0.3-1.42","null","<span style='color:GreenYellow; font-size: 70px;'>正确! </span>","null","","","","","","","","","","","","","","","","","","","","","","","","","feedback_test"
"","","","","","psychophysics","180","180524","0.0-14.0-1.0-1.0-0.3-0.43","722","","f","","","","","","","","","","","","","key","f","16.668932038834896","581.8181692076126","359.9999921972103","friend","f","true","img/C_28.png","朋友","非朋友","生人",""
"","","","","","html-keyboard-response","181","180837","0.0-14.0-1.0-1.0-0.3-1.43","null","<span style='color:GreenYellow; font-size: 70px;'>正确! </span>","null","","","","","","","","","","","","","","","","","","","","","","","","","feedback_test"
"","","","","","psychophysics","182","182105","0.0-14.0-1.0-1.0-0.3-0.44","258","","j","","","","","","","","","","","","","key","j","16.6706666666669","581.8181692076126","359.9999921972103","friend","j","true","img/S_28.png","朋友","非朋友","朋友",""
"","","","","","html-keyboard-response","183","182412","0.0-14.0-1.0-1.0-0.3-1.44","null","<span style='color:GreenYellow; font-size: 70px;'>正确! </span>","null","","","","","","","","","","","","","","","","","","","","","","","","","feedback_test"
"","","","","","psychophysics","184","184024","0.0-14.0-1.0-1.0-0.3-0.45","597","","j","","","","","","","","","","","","","key","j","16.6715789473683","581.8181692076126","359.9999921972103","friend","j","true","img/S_28.png","朋友","非朋友","朋友",""
"","","","","","html-keyboard-response","185","184334","0.0-14.0-1.0-1.0-0.3-1.45","null","<span style='color:GreenYellow; font-size: 70px;'>正确! </span>","null","","","","","","","","","","","","","","","","","","","","","","","","","feedback_test"
"","","","","","psychophysics","186","185603","0.0-14.0-1.0-1.0-0.3-0.46","262","","f","","","","","","","","","","","","","key","f","16.666666666666668","581.8181692076126","359.9999921972103","friend","f","true","img/H_28.png","朋友","非朋友","自我",""
"","","","","","html-keyboard-response","187","185913","0.0-14.0-1.0-1.0-0.3-1.46","null","<span style='color:GreenYellow; font-size: 70px;'>正确! </span>","null","","","","","","","","","","","","","","","","","","","","","","","","","feedback_test"
"","","","","","psychophysics","188","187246","0.0-14.0-1.0-1.0-0.3-0.47","321","","f","","","","","","","","","","","","","key","f","16.669620253164485","581.8181692076126","359.9999921972103","friend","f","true","img/C_28.png","朋友","非朋友","生人",""
"","","","","","html-keyboard-response","189","187552","0.0-14.0-1.0-1.0-0.3-1.47","null","<span style='color:GreenYellow; font-size: 70px;'>正确! </span>","null","","","","","","","","","","","","","","","","","","","","","","","","","feedback_test"
"","","","","","html-keyboard-response","190","188187","0.0-14.0-1.0-1.0-1.3","631","<style>.context{color:white; font-size: 35px; line-height:40px}</style>                          <div><p class='context'>您正确回答了92% 的试次。</p><p class='context'>您的平均反应时为423毫秒。</p><p class='context'>请按任意键进入休息</p></div>"," ","","","","","","","","","","","","","","","","","","","","","","","","",""
"","","","","","html-button-response","191","189287","0.0-14.0-1.0-1.0-2.3","1095","
                  <p>朋友图形分类任务中，您还剩余1组实验</p>
                  <p>现在是休息时间，当您结束休息后，您可以点击 结束休息 按钮 继续</p>
                  <p>建议休息时间还剩余<span id=""iii"">60</span>秒</p>","0","","","","","","","","","","","","","","","","","","","","","","","","",""
"","","","","","psychophysics","192","190776","0.0-14.0-1.0-1.0-0.4-0.48","480","","f","","","","","","","","","","","","","key","f","16.672727272727073","581.8181692076126","359.9999921972103","friend","f","true","img/C_28.png","朋友","非朋友","生人",""
"","","","","","html-keyboard-response","193","191077","0.0-14.0-1.0-1.0-0.4-1.48","null","<span style='color:GreenYellow; font-size: 70px;'>正确! </span>","null","","","","","","","","","","","","","","","","","","","","","","","","","feedback_test"
"","","","","","psychophysics","194","192509","0.0-14.0-1.0-1.0-0.4-0.49","430","","f","","","","","","","","","","","","","key","f","16.664285714285576","581.8181692076126","359.9999921972103","friend","f","true","img/H_28.png","朋友","非朋友","自我",""
"","","","","","html-keyboard-response","195","192819","0.0-14.0-1.0-1.0-0.4-1.49","null","<span style='color:GreenYellow; font-size: 70px;'>正确! </span>","null","","","","","","","","","","","","","","","","","","","","","","","","","feedback_test"
"","","","","","psychophysics","196","194465","0.0-14.0-1.0-1.0-0.4-0.50","640","","j","","","","","","","","","","","","","key","j","16.670408163265424","581.8181692076126","359.9999921972103","friend","j","true","img/S_28.png","朋友","非朋友","朋友",""
"","","","","","html-keyboard-response","197","194772","0.0-14.0-1.0-1.0-0.4-1.50","null","<span style='color:GreenYellow; font-size: 70px;'>正确! </span>","null","","","","","","","","","","","","","","","","","","","","","","","","","feedback_test"
"","","","","","psychophysics","198","196148","0.0-14.0-1.0-1.0-0.4-0.51","371","","f","","","","","","","","","","","","","key","f","16.66913580246928","581.8181692076126","359.9999921972103","friend","f","true","img/C_28.png","朋友","非朋友","生人",""
"","","","","","html-keyboard-response","199","196454","0.0-14.0-1.0-1.0-0.4-1.51","null","<span style='color:GreenYellow; font-size: 70px;'>正确! </span>","null","","","","","","","","","","","","","","","","","","","","","","","","","feedback_test"
"","","","","","psychophysics","200","197936","0.0-14.0-1.0-1.0-0.4-0.52","477","","f","","","","","","","","","","","","","key","f","16.670114942528937","581.8181692076126","359.9999921972103","friend","f","true","img/H_28.png","朋友","非朋友","自我",""
"","","","","","html-keyboard-response","201","198237","0.0-14.0-1.0-1.0-0.4-1.52","null","<span style='color:GreenYellow; font-size: 70px;'>正确! </span>","null","","","","","","","","","","","","","","","","","","","","","","","","","feedback_test"
"","","","","","psychophysics","202","199789","0.0-14.0-1.0-1.0-0.4-0.53","544","","j","","","","","","","","","","","","","key","j","16.669230769230705","581.8181692076126","359.9999921972103","friend","j","true","img/S_28.png","朋友","非朋友","朋友",""
"","","","","","html-keyboard-response","203","200093","0.0-14.0-1.0-1.0-0.4-1.53","null","<span style='color:GreenYellow; font-size: 70px;'>正确! </span>","null","","","","","","","","","","","","","","","","","","","","","","","","","feedback_test"
"","","","","","psychophysics","204","201452","0.0-14.0-1.0-1.0-0.4-0.54","342","","f","","","","","","","","","","","","","key","f","16.672499999999854","581.8181692076126","359.9999921972103","friend","f","true","img/C_28.png","朋友","非朋友","生人",""
"","","","","","html-keyboard-response","205","201753","0.0-14.0-1.0-1.0-0.4-1.54","null","<span style='color:GreenYellow; font-size: 70px;'>正确! </span>","null","","","","","","","","","","","","","","","","","","","","","","","","","feedback_test"
"","","","","","psychophysics","206","203270","0.0-14.0-1.0-1.0-0.4-0.55","508","","f","","","","","","","","","","","","","key","f","16.667415730337012","581.8181692076126","359.9999921972103","friend","f","true","img/H_28.png","朋友","非朋友","自我",""
"","","","","","html-keyboard-response","207","203576","0.0-14.0-1.0-1.0-0.4-1.55","null","<span style='color:GreenYellow; font-size: 70px;'>正确! </span>","null","","","","","","","","","","","","","","","","","","","","","","","","","feedback_test"
"","","","","","psychophysics","208","205474","0.0-14.0-1.0-1.0-0.4-0.56","885","","j","","","","","","","","","","","","","key","j","16.673214285714234","581.8181692076126","359.9999921972103","friend","j","true","img/S_28.png","朋友","非朋友","朋友",""
"","","","","","html-keyboard-response","209","205775","0.0-14.0-1.0-1.0-0.4-1.56","null","<span style='color:GreenYellow; font-size: 70px;'>正确! </span>","null","","","","","","","","","","","","","","","","","","","","","","","","","feedback_test"
"","","","","","psychophysics","210","207185","0.0-14.0-1.0-1.0-0.4-0.57","408","","f","","","","","","","","","","","","","key","f","16.671084337349537","581.8181692076126","359.9999921972103","friend","f","true","img/C_28.png","朋友","非朋友","生人",""
"","","","","","html-keyboard-response","211","207495","0.0-14.0-1.0-1.0-0.4-1.57","null","<span style='color:GreenYellow; font-size: 70px;'>正确! </span>","null","","","","","","","","","","","","","","","","","","","","","","","","","feedback_test"
"","","","","","psychophysics","212","209060","0.0-14.0-1.0-1.0-0.4-0.58","562","","f","","","","","","","","","","","","","key","f","16.667391304347763","581.8181692076126","359.9999921972103","friend","j","false","img/S_28.png","朋友","非朋友","朋友",""
"","","","","","html-keyboard-response","213","209370","0.0-14.0-1.0-1.0-0.4-1.58","null","<span style='color:red; font-size: 70px;'>错误! </span>","null","","","","","","","","","","","","","","","","","","","","","","","","","feedback_test"
"","","","","","psychophysics","214","210935","0.0-14.0-1.0-1.0-0.4-0.59","564","","f","","","","","","","","","","","","","key","f","16.67096774193542","581.8181692076126","359.9999921972103","friend","f","true","img/H_28.png","朋友","非朋友","自我",""
"","","","","","html-keyboard-response","215","211250","0.0-14.0-1.0-1.0-0.4-1.59","null","<span style='color:GreenYellow; font-size: 70px;'>正确! </span>","null","","","","","","","","","","","","","","","","","","","","","","","","","feedback_test"
"","","","","","html-keyboard-response","216","211919","0.0-14.0-1.0-1.0-1.4","663","<style>.context{color:white; font-size: 35px; line-height:40px}</style>                          <div><p class='context'>您正确回答了92% 的试次。</p><p class='context'>您的平均反应时为514毫秒。</p><p class='context'>请按任意键进入休息</p></div>"," ","","","","","","","","","","","","","","","","","","","","","","","","",""
"","","","","","html-button-response","217","213099","0.0-14.0-1.0-1.0-2.4","1172","
                  <p>朋友图形分类任务中，您还剩余0组实验</p>
                  <p>现在是休息时间，当您结束休息后，您可以点击 结束休息 按钮 继续</p>
                  <p>建议休息时间还剩余<span id=""iii"">60</span>秒</p>","0","","","","","","","","","","","","","","","","","","","","","","","","",""
"","","","","","html-keyboard-response","218","213779","0.0-14.0-1.0-2.0","678","
  <p>恭喜您，正式实验中朋友图形的分类任务已完成。</p>
  <p> <div style = ""color: green""><按任意键继续></div></p>
  "," ","","","","","","","","","","","","","","","","","","","","","","","","",""
"","","","","","html-keyboard-response","219","214126","0.0-14.0-2.1-0.1","347","
      <p>请您将食指放在相应按键上，准备进入<span style='color: yellow;'>生人图形分类任务</span></p>
      <p> <div style = ""color: green""><按任意键开始></div></p>
      "," ","","","","","","","","","","","","","","","","","","","","","","","","",""
"","","","","","psychophysics","220","215892","0.0-14.0-2.1-1.1-0.1-0.1","755","","f","","","","","","","","","","","","","key","f","16.66571428571423","581.8181692076126","359.9999921972103","stranger","j","false","img/C_28.png","生人","非生人","生人",""
"","","","","","html-keyboard-response","221","216194","0.0-14.0-2.1-1.1-0.1-1.1","null","<span style='color:red; font-size: 70px;'>错误! </span>","null","","","","","","","","","","","","","","","","","","","","","","","","","feedback_test"
"","","","","","psychophysics","222","217681","0.0-14.0-2.1-1.1-0.1-0.2","475","","f","","","","","","","","","","","","","key","f","16.671590909090977","581.8181692076126","359.9999921972103","stranger","f","true","img/S_28.png","生人","非生人","朋友",""
"","","","","","html-keyboard-response","223","217996","0.0-14.0-2.1-1.1-0.1-1.2","null","<span style='color:GreenYellow; font-size: 70px;'>正确! </span>","null","","","","","","","","","","","","","","","","","","","","","","","","","feedback_test"
"","","","","","psychophysics","224","219243","0.0-14.0-2.1-1.1-0.1-0.3","239","","f","","","","","","","","","","","","","key","f","16.66891891891892","581.8181692076126","359.9999921972103","stranger","f","true","img/H_28.png","生人","非生人","自我",""
"","","","","","html-keyboard-response","225","219552","0.0-14.0-2.1-1.1-0.1-1.3","null","<span style='color:GreenYellow; font-size: 70px;'>正确! </span>","null","","","","","","","","","","","","","","","","","","","","","","","","","feedback_test"
"","","","","","psychophysics","226","221794","0.0-14.0-2.1-1.1-0.1-0.4","1240","","f","","","","","","","","","","","","","key","f","16.6699248120299","581.8181692076126","359.9999921972103","stranger","f","true","img/S_28.png","生人","非生人","朋友",""
"","","","","","html-keyboard-response","227","222101","0.0-14.0-2.1-1.1-0.1-1.4","null","<span style='color:GreenYellow; font-size: 70px;'>正确! </span>","null","","","","","","","","","","","","","","","","","","","","","","","","","feedback_test"
"","","","","","psychophysics","228","224511","0.0-14.0-2.1-1.1-0.1-0.5","1407","","f","","","","","","","","","","","","","key","f","16.670629370629534","581.8181692076126","359.9999921972103","stranger","f","true","img/H_28.png","生人","非生人","自我",""
"","","","","","html-keyboard-response","229","224826","0.0-14.0-2.1-1.1-0.1-1.5","null","<span style='color:GreenYellow; font-size: 70px;'>正确! </span>","null","","","","","","","","","","","","","","","","","","","","","","","","","feedback_test"
"","","","","","psychophysics","230","226211","0.0-14.0-2.1-1.1-0.1-0.6","381","","j","","","","","","","","","","","","","key","j","16.670731707317074","581.8181692076126","359.9999921972103","stranger","j","true","img/C_28.png","生人","非生人","生人",""
"","","","","","html-keyboard-response","231","226520","0.0-14.0-2.1-1.1-0.1-1.6","null","<span style='color:GreenYellow; font-size: 70px;'>正确! </span>","null","","","","","","","","","","","","","","","","","","","","","","","","","feedback_test"
"","","","","","psychophysics","232","228002","0.0-14.0-2.1-1.1-0.1-0.7","479","","f","","","","","","","","","","","","","key","f","16.666666666666668","581.8181692076126","359.9999921972103","stranger","f","true","img/H_28.png","生人","非生人","自我",""
"","","","","","html-keyboard-response","233","228317","0.0-14.0-2.1-1.1-0.1-1.7","null","<span style='color:GreenYellow; font-size: 70px;'>正确! </span>","null","","","","","","","","","","","","","","","","","","","","","","","","","feedback_test"
"","","","","","psychophysics","234","229719","0.0-14.0-2.1-1.1-0.1-0.8","395","","f","","","","","","","","","","","","","key","f","16.673170731707458","581.8181692076126","359.9999921972103","stranger","f","true","img/S_28.png","生人","非生人","朋友",""
"","","","","","html-keyboard-response","235","230027","0.0-14.0-2.1-1.1-0.1-1.8","null","<span style='color:GreenYellow; font-size: 70px;'>正确! </span>","null","","","","","","","","","","","","","","","","","","","","","","","","","feedback_test"
"","","","","","psychophysics","236","231242","0.0-14.0-2.1-1.1-0.1-0.9","209","","j","","","","","","","","","","","","","key","j","16.668055555555636","581.8181692076126","359.9999921972103","stranger","j","true","img/C_28.png","生人","非生人","生人",""
"","","","","","html-keyboard-response","237","231551","0.0-14.0-2.1-1.1-0.1-1.9","null","<span style='color:GreenYellow; font-size: 70px;'>正确! </span>","null","","","","","","","","","","","","","","","","","","","","","","","","","feedback_test"
"","","","","","psychophysics","238","233099","0.0-14.0-2.1-1.1-0.1-0.10","545","","j","","","","","","","","","","","","","key","j","16.669230769230705","581.8181692076126","359.9999921972103","stranger","j","true","img/C_28.png","生人","非生人","生人",""
"","","","","","html-keyboard-response","239","233415","0.0-14.0-2.1-1.1-0.1-1.10","null","<span style='color:GreenYellow; font-size: 70px;'>正确! </span>","null","","","","","","","","","","","","","","","","","","","","","","","","","feedback_test"
"","","","","","psychophysics","240","234777","0.0-14.0-2.1-1.1-0.1-0.11","352","","f","","","","","","","","","","","","","key","f","16.667901234567974","581.8181692076126","359.9999921972103","stranger","f","true","img/H_28.png","生人","非生人","自我",""
"","","","","","html-keyboard-response","241","235085","0.0-14.0-2.1-1.1-0.1-1.11","null","<span style='color:GreenYellow; font-size: 70px;'>正确! </span>","null","","","","","","","","","","","","","","","","","","","","","","","","","feedback_test"
"","","","","","psychophysics","242","236879","0.0-14.0-2.1-1.1-0.1-0.12","781","","f","","","","","","","","","","","","","key","f","16.666981132075307","581.8181692076126","359.9999921972103","stranger","f","true","img/S_28.png","生人","非生人","朋友",""
"","","","","","html-keyboard-response","243","237184","0.0-14.0-2.1-1.1-0.1-1.12","null","<span style='color:GreenYellow; font-size: 70px;'>正确! </span>","null","","","","","","","","","","","","","","","","","","","","","","","","","feedback_test"
"","","","","","html-keyboard-response","244","237916","0.0-14.0-2.1-1.1-1.1","728","<style>.context{color:white; font-size: 35px; line-height:40px}</style>                          <div><p class='context'>您正确回答了92% 的试次。</p><p class='context'>您的平均反应时为591毫秒。</p><p class='context'>请按任意键进入休息</p></div>"," ","","","","","","","","","","","","","","","","","","","","","","","","",""
"","","","","","html-button-response","245","238950","0.0-14.0-2.1-1.1-2.1","1032","
                  <p>生人图形分类任务中，您还剩余4组实验</p>
                  <p>现在是休息时间，当您结束休息后，您可以点击 结束休息 按钮 继续</p>
                  <p>建议休息时间还剩余<span id=""iii"">60</span>秒</p>","0","","","","","","","","","","","","","","","","","","","","","","","","",""
"","","","","","psychophysics","246","240615","0.0-14.0-2.1-1.1-0.2-0.13","657","","f","","","","","","","","","","","","","key","f","16.672404040404032","581.8181692076126","359.9999921972103","stranger","f","true","img/S_28.png","生人","非生人","朋友",""
"","","","","","html-keyboard-response","247","240929","0.0-14.0-2.1-1.1-0.2-1.13","null","<span style='color:GreenYellow; font-size: 70px;'>正确! </span>","null","","","","","","","","","","","","","","","","","","","","","","","","","feedback_test"
"","","","","","psychophysics","248","242482","0.0-14.0-2.1-1.1-0.2-0.14","538","","f","","","","","","","","","","","","","key","f","16.66956521739137","581.8181692076126","359.9999921972103","stranger","f","true","img/H_28.png","生人","非生人","自我",""
"","","","","","html-keyboard-response","249","242792","0.0-14.0-2.1-1.1-0.2-1.14","null","<span style='color:GreenYellow; font-size: 70px;'>正确! </span>","null","","","","","","","","","","","","","","","","","","","","","","","","","feedback_test"
"","","","","","psychophysics","250","244085","0.0-14.0-2.1-1.1-0.2-0.15","291","","j","","","","","","","","","","","","","key","j","16.66842105263181","581.8181692076126","359.9999921972103","stranger","j","true","img/C_28.png","生人","非生人","生人",""
"","","","","","html-keyboard-response","251","244393","0.0-14.0-2.1-1.1-0.2-1.15","null","<span style='color:GreenYellow; font-size: 70px;'>正确! </span>","null","","","","","","","","","","","","","","","","","","","","","","","","","feedback_test"
"","","","","","psychophysics","252","245868","0.0-14.0-2.1-1.1-0.2-0.16","466","","j","","","","","","","","","","","","","key","j","16.670114942528603","581.8181692076126","359.9999921972103","stranger","j","true","img/C_28.png","生人","非生人","生人",""
"","","","","","html-keyboard-response","253","246183","0.0-14.0-2.1-1.1-0.2-1.16","null","<span style='color:GreenYellow; font-size: 70px;'>正确! </span>","null","","","","","","","","","","","","","","","","","","","","","","","","","feedback_test"
"","","","","","psychophysics","254","247521","0.0-14.0-2.1-1.1-0.2-0.17","335","","f","","","","","","","","","","","","","key","f","16.6658227848102","581.8181692076126","359.9999921972103","stranger","f","true","img/S_28.png","生人","非生人","朋友",""
"","","","","","html-keyboard-response","255","247826","0.0-14.0-2.1-1.1-0.2-1.17","null","<span style='color:GreenYellow; font-size: 70px;'>正确! </span>","null","","","","","","","","","","","","","","","","","","","","","","","","","feedback_test"
"","","","","","psychophysics","256","249205","0.0-14.0-2.1-1.1-0.2-0.18","377","","f","","","","","","","","","","","","","key","f","16.670370370370588","581.8181692076126","359.9999921972103","stranger","f","true","img/H_28.png","生人","非生人","自我",""
"","","","","","html-keyboard-response","257","249517","0.0-14.0-2.1-1.1-0.2-1.18","null","<span style='color:GreenYellow; font-size: 70px;'>正确! </span>","null","","","","","","","","","","","","","","","","","","","","","","","","","feedback_test"
"","","","","","psychophysics","258","251169","0.0-14.0-2.1-1.1-0.2-0.19","646","","f","","","","","","","","","","","","","key","f","16.6693877551021","581.8181692076126","359.9999921972103","stranger","f","true","img/S_28.png","生人","非生人","朋友",""
"","","","","","html-keyboard-response","259","251472","0.0-14.0-2.1-1.1-0.2-1.19","null","<span style='color:GreenYellow; font-size: 70px;'>正确! </span>","null","","","","","","","","","","","","","","","","","","","","","","","","","feedback_test"
"","","","","","psychophysics","260","252994","0.0-14.0-2.1-1.1-0.2-0.20","517","","f","","","","","","","","","","","","","key","f","16.66888888888902","581.8181692076126","359.9999921972103","stranger","f","true","img/H_28.png","生人","非生人","自我",""
"","","","","","html-keyboard-response","261","253297","0.0-14.0-2.1-1.1-0.2-1.20","null","<span style='color:GreenYellow; font-size: 70px;'>正确! </span>","null","","","","","","","","","","","","","","","","","","","","","","","","","feedback_test"
"","","","","","psychophysics","262","254648","0.0-14.0-2.1-1.1-0.2-0.21","348","","j","","","","","","","","","","","","","key","j","16.670000000000073","581.8181692076126","359.9999921972103","stranger","j","true","img/C_28.png","生人","非生人","生人",""
"","","","","","html-keyboard-response","263","254960","0.0-14.0-2.1-1.1-0.2-1.21","null","<span style='color:GreenYellow; font-size: 70px;'>正确! </span>","null","","","","","","","","","","","","","","","","","","","","","","","","","feedback_test"
"","","","","","psychophysics","264","256604","0.0-14.0-2.1-1.1-0.2-0.22","639","","f","","","","","","","","","","","","","key","f","16.668367346938776","581.8181692076126","359.9999921972103","stranger","j","false","img/C_28.png","生人","非生人","生人",""
"","","","","","html-keyboard-response","265","256913","0.0-14.0-2.1-1.1-0.2-1.22","null","<span style='color:red; font-size: 70px;'>错误! </span>","null","","","","","","","","","","","","","","","","","","","","","","","","","feedback_test"
"","","","","","psychophysics","266","258557","0.0-14.0-2.1-1.1-0.2-0.23","638","","f","","","","","","","","","","","","","key","f","16.66701030927847","581.8181692076126","359.9999921972103","stranger","f","true","img/H_28.png","生人","非生人","自我",""
"","","","","","html-keyboard-response","267","258863","0.0-14.0-2.1-1.1-0.2-1.23","null","<span style='color:GreenYellow; font-size: 70px;'>正确! </span>","null","","","","","","","","","","","","","","","","","","","","","","","","","feedback_test"
"","","","","","psychophysics","268","260241","0.0-14.0-2.1-1.1-0.2-0.24","374","","f","","","","","","","","","","","","","key","f","16.674074074074145","581.8181692076126","359.9999921972103","stranger","f","true","img/S_28.png","生人","非生人","朋友",""
"","","","","","html-keyboard-response","269","260554","0.0-14.0-2.1-1.1-0.2-1.24","null","<span style='color:GreenYellow; font-size: 70px;'>正确! </span>","null","","","","","","","","","","","","","","","","","","","","","","","","","feedback_test"
"","","","","","html-keyboard-response","270","261337","0.0-14.0-2.1-1.1-1.2","781","<style>.context{color:white; font-size: 35px; line-height:40px}</style>                          <div><p class='context'>您正确回答了92% 的试次。</p><p class='context'>您的平均反应时为472毫秒。</p><p class='context'>请按任意键进入休息</p></div>"," ","","","","","","","","","","","","","","","","","","","","","","","","",""
"","","","","","html-button-response","271","262374","0.0-14.0-2.1-1.1-2.2","1029","
                  <p>生人图形分类任务中，您还剩余3组实验</p>
                  <p>现在是休息时间，当您结束休息后，您可以点击 结束休息 按钮 继续</p>
                  <p>建议休息时间还剩余<span id=""iii"">60</span>秒</p>","0","","","","","","","","","","","","","","","","","","","","","","","","",""
"","","","","","psychophysics","272","263769","0.0-14.0-2.1-1.1-0.3-0.25","390","","f","","","","","","","","","","","","","key","f","16.67195121951262","581.8181692076126","359.9999921972103","stranger","f","true","img/H_28.png","生人","非生人","自我",""
"","","","","","html-keyboard-response","273","264078","0.0-14.0-2.1-1.1-0.3-1.25","null","<span style='color:GreenYellow; font-size: 70px;'>正确! </span>","null","","","","","","","","","","","","","","","","","","","","","","","","","feedback_test"
"","","","","","psychophysics","274","265568","0.0-14.0-2.1-1.1-0.3-0.26","488","","j","","","","","","","","","","","","","key","j","16.671590909090643","581.8181692076126","359.9999921972103","stranger","j","true","img/C_28.png","生人","非生人","生人",""
"","","","","","html-keyboard-response","275","265870","0.0-14.0-2.1-1.1-0.3-1.26","null","<span style='color:GreenYellow; font-size: 70px;'>正确! </span>","null","","","","","","","","","","","","","","","","","","","","","","","","","feedback_test"
"","","","","","psychophysics","276","267089","0.0-14.0-2.1-1.1-0.3-0.27","216","","f","","","","","","","","","","","","","key","f","16.67042253521176","581.8181692076126","359.9999921972103","stranger","f","true","img/S_28.png","生人","非生人","朋友",""
"","","","","","html-keyboard-response","277","267406","0.0-14.0-2.1-1.1-0.3-1.27","null","<span style='color:GreenYellow; font-size: 70px;'>正确! </span>","null","","","","","","","","","","","","","","","","","","","","","","","","","feedback_test"
"","","","","","psychophysics","278","268880","0.0-14.0-2.1-1.1-0.3-0.28","470","","f","","","","","","","","","","","","","key","f","16.66256818181798","581.8181692076126","359.9999921972103","stranger","f","true","img/S_28.png","生人","非生人","朋友",""
"","","","","","html-keyboard-response","279","269184","0.0-14.0-2.1-1.1-0.3-1.28","null","<span style='color:GreenYellow; font-size: 70px;'>正确! </span>","null","","","","","","","","","","","","","","","","","","","","","","","","","feedback_test"
"","","","","","psychophysics","280","270584","0.0-14.0-2.1-1.1-0.3-0.29","392","","f","","","","","","","","","","","","","key","f","16.665060240963296","581.8181692076126","359.9999921972103","stranger","f","true","img/H_28.png","生人","非生人","自我",""
"","","","","","html-keyboard-response","281","270899","0.0-14.0-2.1-1.1-0.3-1.29","null","<span style='color:GreenYellow; font-size: 70px;'>正确! </span>","null","","","","","","","","","","","","","","","","","","","","","","","","","feedback_test"
"","","","","","psychophysics","282","272267","0.0-14.0-2.1-1.1-0.3-0.30","358","","j","","","","","","","","","","","","","key","j","16.671604938271173","581.8181692076126","359.9999921972103","stranger","j","true","img/C_28.png","生人","非生人","生人",""
"","","","","","html-keyboard-response","283","272573","0.0-14.0-2.1-1.1-0.3-1.30","null","<span style='color:GreenYellow; font-size: 70px;'>正确! </span>","null","","","","","","","","","","","","","","","","","","","","","","","","","feedback_test"
"","","","","","psychophysics","284","273898","0.0-14.0-2.1-1.1-0.3-0.31","323","","f","","","","","","","","","","","","","key","f","16.67051282051267","581.8181692076126","359.9999921972103","stranger","f","true","img/S_28.png","生人","非生人","朋友",""
"","","","","","html-keyboard-response","285","274202","0.0-14.0-2.1-1.1-0.3-1.31","null","<span style='color:GreenYellow; font-size: 70px;'>正确! </span>","null","","","","","","","","","","","","","","","","","","","","","","","","","feedback_test"
"","","","","","psychophysics","286","275627","0.0-14.0-2.1-1.1-0.3-0.32","418","","f","","","","","","","","","","","","","key","f","16.666666666666668","581.8181692076126","359.9999921972103","stranger","f","true","img/H_28.png","生人","非生人","自我",""
"","","","","","html-keyboard-response","287","275937","0.0-14.0-2.1-1.1-0.3-1.32","null","<span style='color:GreenYellow; font-size: 70px;'>正确! </span>","null","","","","","","","","","","","","","","","","","","","","","","","","","feedback_test"
"","","","","","psychophysics","288","277300","0.0-14.0-2.1-1.1-0.3-0.33","359","","j","","","","","","","","","","","","","key","j","16.66875","581.8181692076126","359.9999921972103","stranger","j","true","img/C_28.png","生人","非生人","生人",""
"","","","","","html-keyboard-response","289","277611","0.0-14.0-2.1-1.1-0.3-1.33","null","<span style='color:GreenYellow; font-size: 70px;'>正确! </span>","null","","","","","","","","","","","","","","","","","","","","","","","","","feedback_test"
"","","","","","psychophysics","290","278948","0.0-14.0-2.1-1.1-0.3-0.34","324","","f","","","","","","","","","","","","","key","f","16.670886075949365","581.8181692076126","359.9999921972103","stranger","f","true","img/H_28.png","生人","非生人","自我",""
"","","","","","html-keyboard-response","291","279252","0.0-14.0-2.1-1.1-0.3-1.34","null","<span style='color:GreenYellow; font-size: 70px;'>正确! </span>","null","","","","","","","","","","","","","","","","","","","","","","","","","feedback_test"
"","","","","","psychophysics","292","280783","0.0-14.0-2.1-1.1-0.3-0.35","528","","j","","","","","","","","","","","","","key","j","16.673333333333076","581.8181692076126","359.9999921972103","stranger","j","true","img/C_28.png","生人","非生人","生人",""
"","","","","","html-keyboard-response","293","281085","0.0-14.0-2.1-1.1-0.3-1.35","null","<span style='color:GreenYellow; font-size: 70px;'>正确! </span>","null","","","","","","","","","","","","","","","","","","","","","","","","","feedback_test"
"","","","","","psychophysics","294","282335","0.0-14.0-2.1-1.1-0.3-0.36","242","","f","","","","","","","","","","","","","key","f","16.673972602739088","581.8181692076126","359.9999921972103","stranger","f","true","img/S_28.png","生人","非生人","朋友",""
"","","","","","html-keyboard-response","295","282649","0.0-14.0-2.1-1.1-0.3-1.36","null","<span style='color:GreenYellow; font-size: 70px;'>正确! </span>","null","","","","","","","","","","","","","","","","","","","","","","","","","feedback_test"
"","","","","","html-keyboard-response","296","283310","0.0-14.0-2.1-1.1-1.3","659","<style>.context{color:white; font-size: 35px; line-height:40px}</style>                          <div><p class='context'>您正确回答了100% 的试次。</p><p class='context'>您的平均反应时为376毫秒。</p><p class='context'>请按任意键进入休息</p></div>"," ","","","","","","","","","","","","","","","","","","","","","","","","",""
"","","","","","html-button-response","297","284155","0.0-14.0-2.1-1.1-2.3","840","
                  <p>生人图形分类任务中，您还剩余2组实验</p>
                  <p>现在是休息时间，当您结束休息后，您可以点击 结束休息 按钮 继续</p>
                  <p>建议休息时间还剩余<span id=""iii"">60</span>秒</p>","0","","","","","","","","","","","","","","","","","","","","","","","","",""
"","","","","","psychophysics","298","285756","0.0-14.0-2.1-1.1-0.4-0.37","592","","j","","","","","","","","","","","","","key","j","16.670212765957448","581.8181692076126","359.9999921972103","stranger","j","true","img/C_28.png","生人","非生人","生人",""
"","","","","","html-keyboard-response","299","286058","0.0-14.0-2.1-1.1-0.4-1.37","null","<span style='color:GreenYellow; font-size: 70px;'>正确! </span>","null","","","","","","","","","","","","","","","","","","","","","","","","","feedback_test"
"","","","","","psychophysics","300","287357","0.0-14.0-2.1-1.1-0.4-0.38","294","","f","","","","","","","","","","","","","key","f","16.668421052631427","581.8181692076126","359.9999921972103","stranger","f","true","img/H_28.png","生人","非生人","自我",""
"","","","","","html-keyboard-response","301","287659","0.0-14.0-2.1-1.1-0.4-1.38","null","<span style='color:GreenYellow; font-size: 70px;'>正确! </span>","null","","","","","","","","","","","","","","","","","","","","","","","","","feedback_test"
"","","","","","psychophysics","302","288896","0.0-14.0-2.1-1.1-0.4-0.39","234","","f","","","","","","","","","","","","","key","f","16.672222222222544","581.8181692076126","359.9999921972103","stranger","f","true","img/S_28.png","生人","非生人","朋友",""
"","","","","","html-keyboard-response","303","289200","0.0-14.0-2.1-1.1-0.4-1.39","null","<span style='color:GreenYellow; font-size: 70px;'>正确! </span>","null","","","","","","","","","","","","","","","","","","","","","","","","","feedback_test"
"","","","","","psychophysics","304","290689","0.0-14.0-2.1-1.1-0.4-0.40","486","","j","","","","","","","","","","","","","key","j","16.673863636363503","581.8181692076126","359.9999921972103","stranger","j","true","img/C_28.png","生人","非生人","生人",""
"","","","","","html-keyboard-response","305","291000","0.0-14.0-2.1-1.1-0.4-1.40","null","<span style='color:GreenYellow; font-size: 70px;'>正确! </span>","null","","","","","","","","","","","","","","","","","","","","","","","","","feedback_test"
"","","","","","psychophysics","306","292260","0.0-14.0-2.1-1.1-0.4-0.41","253","","f","","","","","","","","","","","","","key","f","16.671621621621778","581.8181692076126","359.9999921972103","stranger","f","true","img/S_28.png","生人","非生人","朋友",""
"","","","","","html-keyboard-response","307","292565","0.0-14.0-2.1-1.1-0.4-1.41","null","<span style='color:GreenYellow; font-size: 70px;'>正确! </span>","null","","","","","","","","","","","","","","","","","","","","","","","","","feedback_test"
"","","","","","psychophysics","308","293940","0.0-14.0-2.1-1.1-0.4-0.42","360","","f","","","","","","","","","","","","","key","f","16.66913580246928","581.8181692076126","359.9999921972103","stranger","f","true","img/H_28.png","生人","非生人","自我",""
"","","","","","html-keyboard-response","309","294255","0.0-14.0-2.1-1.1-0.4-1.42","null","<span style='color:GreenYellow; font-size: 70px;'>正确! </span>","null","","","","","","","","","","","","","","","","","","","","","","","","","feedback_test"
"","","","","","psychophysics","310","295689","0.0-14.0-2.1-1.1-0.4-0.43","424","","f","","","","","","","","","","","","","key","f","16.668235294117512","581.8181692076126","359.9999921972103","stranger","f","true","img/H_28.png","生人","非生人","自我",""
"","","","","","html-keyboard-response","311","295993","0.0-14.0-2.1-1.1-0.4-1.43","null","<span style='color:GreenYellow; font-size: 70px;'>正确! </span>","null","","","","","","","","","","","","","","","","","","","","","","","","","feedback_test"
"","","","","","psychophysics","312","297334","0.0-14.0-2.1-1.1-0.4-0.44","330","","f","","","","","","","","","","","","","key","f","16.674683544304386","581.8181692076126","359.9999921972103","stranger","f","true","img/S_28.png","生人","非生人","朋友",""
"","","","","","html-keyboard-response","313","297647","0.0-14.0-2.1-1.1-0.4-1.44","null","<span style='color:GreenYellow; font-size: 70px;'>正确! </span>","null","","","","","","","","","","","","","","","","","","","","","","","","","feedback_test"
"","","","","","psychophysics","314","299029","0.0-14.0-2.1-1.1-0.4-0.45","373","","j","","","","","","","","","","","","","key","j","16.66585365853701","581.8181692076126","359.9999921972103","stranger","j","true","img/C_28.png","生人","非生人","生人",""
"","","","","","html-keyboard-response","315","299334","0.0-14.0-2.1-1.1-0.4-1.45","null","<span style='color:GreenYellow; font-size: 70px;'>正确! </span>","null","","","","","","","","","","","","","","","","","","","","","","","","","feedback_test"
"","","","","","psychophysics","316","300651","0.0-14.0-2.1-1.1-0.4-0.46","312","","f","","","","","","","","","","","","","key","f","16.674025974025522","581.8181692076126","359.9999921972103","stranger","j","false","img/C_28.png","生人","非生人","生人",""
"","","","","","html-keyboard-response","317","300955","0.0-14.0-2.1-1.1-0.4-1.46","null","<span style='color:red; font-size: 70px;'>错误! </span>","null","","","","","","","","","","","","","","","","","","","","","","","","","feedback_test"
"","","","","","psychophysics","318","302230","0.0-14.0-2.1-1.1-0.4-0.47","273","","f","","","","","","","","","","","","","key","f","16.665333333333646","581.8181692076126","359.9999921972103","stranger","f","true","img/H_28.png","生人","非生人","自我",""
"","","","","","html-keyboard-response","319","302532","0.0-14.0-2.1-1.1-0.4-1.47","null","<span style='color:GreenYellow; font-size: 70px;'>正确! </span>","null","","","","","","","","","","","","","","","","","","","","","","","","","feedback_test"
"","","","","","psychophysics","320","303793","0.0-14.0-2.1-1.1-0.4-0.48","258","","f","","","","","","","","","","","","","key","f","16.670666666666513","581.8181692076126","359.9999921972103","stranger","f","true","img/S_28.png","生人","非生人","朋友",""
"","","","","","html-keyboard-response","321","304106","0.0-14.0-2.1-1.1-0.4-1.48","null","<span style='color:GreenYellow; font-size: 70px;'>正确! </span>","null","","","","","","","","","","","","","","","","","","","","","","","","","feedback_test"
"","","","","","html-keyboard-response","322","304792","0.0-14.0-2.1-1.1-1.4","681","<style>.context{color:white; font-size: 35px; line-height:40px}</style>                          <div><p class='context'>您正确回答了92% 的试次。</p><p class='context'>您的平均反应时为352毫秒。</p><p class='context'>请按任意键进入休息</p></div>"," ","","","","","","","","","","","","","","","","","","","","","","","","",""
"","","","","","html-button-response","323","305830","0.0-14.0-2.1-1.1-2.4","1035","
                  <p>生人图形分类任务中，您还剩余1组实验</p>
                  <p>现在是休息时间，当您结束休息后，您可以点击 结束休息 按钮 继续</p>
                  <p>建议休息时间还剩余<span id=""iii"">60</span>秒</p>","0","","","","","","","","","","","","","","","","","","","","","","","","",""
"","","","","","psychophysics","324","307318","0.0-14.0-2.1-1.1-0.5-0.49","482","","f","","","","","","","","","","","","","key","f","16.668181818181687","581.8181692076126","359.9999921972103","stranger","f","true","img/H_28.png","生人","非生人","自我",""
"","","","","","html-keyboard-response","325","307620","0.0-14.0-2.1-1.1-0.5-1.49","null","<span style='color:GreenYellow; font-size: 70px;'>正确! </span>","null","","","","","","","","","","","","","","","","","","","","","","","","","feedback_test"
"","","","","","psychophysics","326","309226","0.0-14.0-2.1-1.1-0.5-0.50","597","","f","","","","","","","","","","","","","key","f","16.673404255319024","581.8181692076126","359.9999921972103","stranger","f","true","img/S_28.png","生人","非生人","朋友",""
"","","","","","html-keyboard-response","327","309540","0.0-14.0-2.1-1.1-0.5-1.50","null","<span style='color:GreenYellow; font-size: 70px;'>正确! </span>","null","","","","","","","","","","","","","","","","","","","","","","","","","feedback_test"
"","","","","","psychophysics","328","310882","0.0-14.0-2.1-1.1-0.5-0.51","340","","j","","","","","","","","","","","","","key","j","16.66507500000007","581.8181692076126","359.9999921972103","stranger","j","true","img/C_28.png","生人","非生人","生人",""
"","","","","","html-keyboard-response","329","311188","0.0-14.0-2.1-1.1-0.5-1.51","null","<span style='color:GreenYellow; font-size: 70px;'>正确! </span>","null","","","","","","","","","","","","","","","","","","","","","","","","","feedback_test"
"","","","","","psychophysics","330","312520","0.0-14.0-2.1-1.1-0.5-0.52","330","","f","","","","","","","","","","","","","key","f","16.66025641025641","581.8181692076126","359.9999921972103","stranger","f","true","img/S_28.png","生人","非生人","朋友",""
"","","","","","html-keyboard-response","331","312824","0.0-14.0-2.1-1.1-0.5-1.52","null","<span style='color:GreenYellow; font-size: 70px;'>正确! </span>","null","","","","","","","","","","","","","","","","","","","","","","","","","feedback_test"
"","","","","","psychophysics","332","314289","0.0-14.0-2.1-1.1-0.5-0.53","463","","f","","","","","","","","","","","","","key","f","16.666279069767306","581.8181692076126","359.9999921972103","stranger","f","true","img/H_28.png","生人","非生人","自我",""
"","","","","","html-keyboard-response","333","314601","0.0-14.0-2.1-1.1-0.5-1.53","null","<span style='color:GreenYellow; font-size: 70px;'>正确! </span>","null","","","","","","","","","","","","","","","","","","","","","","","","","feedback_test"
"","","","","","psychophysics","334","316096","0.0-14.0-2.1-1.1-0.5-0.54","492","","j","","","","","","","","","","","","","key","j","16.669662921348053","581.8181692076126","359.9999921972103","stranger","j","true","img/C_28.png","生人","非生人","生人",""
"","","","","","html-keyboard-response","335","316404","0.0-14.0-2.1-1.1-0.5-1.54","null","<span style='color:GreenYellow; font-size: 70px;'>正确! </span>","null","","","","","","","","","","","","","","","","","","","","","","","","","feedback_test"
"","","","","","psychophysics","336","317820","0.0-14.0-2.1-1.1-0.5-0.55","411","","f","","","","","","","","","","","","","key","f","16.66987951807201","581.8181692076126","359.9999921972103","stranger","j","false","img/C_28.png","生人","非生人","生人",""
"","","","","","html-keyboard-response","337","318135","0.0-14.0-2.1-1.1-0.5-1.55","null","<span style='color:red; font-size: 70px;'>错误! </span>","null","","","","","","","","","","","","","","","","","","","","","","","","","feedback_test"
"","","","","","psychophysics","338","319617","0.0-14.0-2.1-1.1-0.5-0.56","475","","f","","","","","","","","","","","","","key","f","16.666363636363794","581.8181692076126","359.9999921972103","stranger","f","true","img/H_28.png","生人","非生人","自我",""
"","","","","","html-keyboard-response","339","319921","0.0-14.0-2.1-1.1-0.5-1.56","null","<span style='color:GreenYellow; font-size: 70px;'>正确! </span>","null","","","","","","","","","","","","","","","","","","","","","","","","","feedback_test"
"","","","","","psychophysics","340","321452","0.0-14.0-2.1-1.1-0.5-0.57","529","","f","","","","","","","","","","","","","key","f","16.674444444444575","581.8181692076126","359.9999921972103","stranger","f","true","img/S_28.png","生人","非生人","朋友",""
"","","","","","html-keyboard-response","341","321761","0.0-14.0-2.1-1.1-0.5-1.57","null","<span style='color:GreenYellow; font-size: 70px;'>正确! </span>","null","","","","","","","","","","","","","","","","","","","","","","","","","feedback_test"
"","","","","","psychophysics","342","323232","0.0-14.0-2.1-1.1-0.5-0.58","466","","f","","","","","","","","","","","","","key","f","16.668965517241514","581.8181692076126","359.9999921972103","stranger","f","true","img/S_28.png","生人","非生人","朋友",""
"","","","","","html-keyboard-response","343","323533","0.0-14.0-2.1-1.1-0.5-1.58","null","<span style='color:GreenYellow; font-size: 70px;'>正确! </span>","null","","","","","","","","","","","","","","","","","","","","","","","","","feedback_test"
"","","","","","psychophysics","344","325000","0.0-14.0-2.1-1.1-0.5-0.59","462","","j","","","","","","","","","","","","","key","j","16.67126436781569","581.8181692076126","359.9999921972103","stranger","j","true","img/C_28.png","生人","非生人","生人",""
"","","","","","html-keyboard-response","345","325315","0.0-14.0-2.1-1.1-0.5-1.59","null","<span style='color:GreenYellow; font-size: 70px;'>正确! </span>","null","","","","","","","","","","","","","","","","","","","","","","","","","feedback_test"
"","","","","","psychophysics","346","326864","0.0-14.0-2.1-1.1-0.5-0.60","544","","f","","","","","","","","","","","","","key","f","16.67391304347826","581.8181692076126","359.9999921972103","stranger","f","true","img/H_28.png","生人","非生人","自我",""
"","","","","","html-keyboard-response","347","327175","0.0-14.0-2.1-1.1-0.5-1.60","null","<span style='color:GreenYellow; font-size: 70px;'>正确! </span>","null","","","","","","","","","","","","","","","","","","","","","","","","","feedback_test"
"","","","","","html-keyboard-response","348","327966","0.0-14.0-2.1-1.1-1.5","786","<style>.context{color:white; font-size: 35px; line-height:40px}</style>                          <div><p class='context'>您正确回答了92% 的试次。</p><p class='context'>您的平均反应时为471毫秒。</p><p class='context'>请按任意键进入休息</p></div>"," ","","","","","","","","","","","","","","","","","","","","","","","","",""
"","","","","","html-button-response","349","329285","0.0-14.0-2.1-1.1-2.5","1311","
                  <p>生人图形分类任务中，您还剩余0组实验</p>
                  <p>现在是休息时间，当您结束休息后，您可以点击 结束休息 按钮 继续</p>
                  <p>建议休息时间还剩余<span id=""iii"">60</span>秒</p>","0","","","","","","","","","","","","","","","","","","","","","","","","",""
"","","","","","html-keyboard-response","350","329949","0.0-14.0-2.1-2.1","662","
  <p>恭喜您，正式实验中生人图形的分类任务已完成。</p>
  <p> <div style = ""color: green""><按任意键继续></div></p>
  "," ","","","","","","","","","","","","","","","","","","","","","","","","",""
"","","","","","html-keyboard-response","351","330534","0.0-14.0-0.2-0.2","584","
      <p>请您将食指放在相应按键上，准备进入<span style='color: yellow;'>自我图形分类任务</span></p>
      <p> <div style = ""color: green""><按任意键开始></div></p>
      "," ","","","","","","","","","","","","","","","","","","","","","","","","",""
"","","","","","psychophysics","352","332208","0.0-14.0-0.2-1.2-0.2-0.2","672","","f","","","","","","","","","","","","","key","f","16.667676767676532","581.8181692076126","359.9999921972103","self","f","true","img/C_28.png","自我","非自我","生人",""
"","","","","","html-keyboard-response","353","332509","0.0-14.0-0.2-1.2-0.2-1.2","null","<span style='color:GreenYellow; font-size: 70px;'>正确! </span>","null","","","","","","","","","","","","","","","","","","","","","","","","","feedback_test"
"","","","","","psychophysics","354","333884","0.0-14.0-0.2-1.2-0.2-0.3","371","","f","","","","","","","","","","","","","key","f","16.656790123456933","581.8181692076126","359.9999921972103","self","f","true","img/S_28.png","自我","非自我","朋友",""
"","","","","","html-keyboard-response","355","334200","0.0-14.0-0.2-1.2-0.2-1.3","null","<span style='color:GreenYellow; font-size: 70px;'>正确! </span>","null","","","","","","","","","","","","","","","","","","","","","","","","","feedback_test"
"","","","","","psychophysics","356","335550","0.0-14.0-0.2-1.2-0.2-0.4","337","","j","","","","","","","","","","","","","key","j","16.666249999999856","581.8181692076126","359.9999921972103","self","j","true","img/H_28.png","自我","非自我","自我",""
"","","","","","html-keyboard-response","357","335857","0.0-14.0-0.2-1.2-0.2-1.4","null","<span style='color:GreenYellow; font-size: 70px;'>正确! </span>","null","","","","","","","","","","","","","","","","","","","","","","","","","feedback_test"
"","","","","","psychophysics","358","337234","0.0-14.0-0.2-1.2-0.2-0.5","370","","f","","","","","","","","","","","","","key","f","16.667901234567612","581.8181692076126","359.9999921972103","self","f","true","img/S_28.png","自我","非自我","朋友",""
"","","","","","html-keyboard-response","359","337539","0.0-14.0-0.2-1.2-0.2-1.5","null","<span style='color:GreenYellow; font-size: 70px;'>正确! </span>","null","","","","","","","","","","","","","","","","","","","","","","","","","feedback_test"
"","","","","","psychophysics","360","338904","0.0-14.0-0.2-1.2-0.2-0.6","363","","f","","","","","","","","","","","","","key","f","16.670370370370225","581.8181692076126","359.9999921972103","self","f","true","img/C_28.png","自我","非自我","生人",""
"","","","","","html-keyboard-response","361","339212","0.0-14.0-0.2-1.2-0.2-1.6","null","<span style='color:GreenYellow; font-size: 70px;'>正确! </span>","null","","","","","","","","","","","","","","","","","","","","","","","","","feedback_test"
"","","","","","psychophysics","362","340466","0.0-14.0-0.2-1.2-0.2-0.7","243","","j","","","","","","","","","","","","","key","j","16.670270270269956","581.8181692076126","359.9999921972103","self","j","true","img/H_28.png","自我","非自我","自我",""
"","","","","","html-keyboard-response","363","340772","0.0-14.0-0.2-1.2-0.2-1.7","null","<span style='color:GreenYellow; font-size: 70px;'>正确! </span>","null","","","","","","","","","","","","","","","","","","","","","","","","","feedback_test"
"","","","","","psychophysics","364","342075","0.0-14.0-0.2-1.2-0.2-0.8","300","","f","","","","","","","","","","","","","key","f","16.67105263157895","581.8181692076126","359.9999921972103","self","f","true","img/C_28.png","自我","非自我","生人",""
"","","","","","html-keyboard-response","365","342385","0.0-14.0-0.2-1.2-0.2-1.8","null","<span style='color:GreenYellow; font-size: 70px;'>正确! </span>","null","","","","","","","","","","","","","","","","","","","","","","","","","feedback_test"
"","","","","","psychophysics","366","343805","0.0-14.0-0.2-1.2-0.2-0.9","411","","f","","","","","","","","","","","","","key","f","16.665547619047825","581.8181692076126","359.9999921972103","self","f","true","img/S_28.png","自我","非自我","朋友",""
"","","","","","html-keyboard-response","367","344119","0.0-14.0-0.2-1.2-0.2-1.9","null","<span style='color:GreenYellow; font-size: 70px;'>正确! </span>","null","","","","","","","","","","","","","","","","","","","","","","","","","feedback_test"
"","","","","","psychophysics","368","345346","0.0-14.0-0.2-1.2-0.2-0.10","226","","j","","","","","","","","","","","","","key","j","16.671232876712327","581.8181692076126","359.9999921972103","self","j","true","img/H_28.png","自我","非自我","自我",""
"","","","","","html-keyboard-response","369","345654","0.0-14.0-0.2-1.2-0.2-1.10","null","<span style='color:GreenYellow; font-size: 70px;'>正确! </span>","null","","","","","","","","","","","","","","","","","","","","","","","","","feedback_test"
"","","","","","psychophysics","370","346962","0.0-14.0-0.2-1.2-0.2-0.11","306","","f","","","","","","","","","","","","","key","f","16.664473684210527","581.8181692076126","359.9999921972103","self","j","false","img/H_28.png","自我","非自我","自我",""
"","","","","","html-keyboard-response","371","347276","0.0-14.0-0.2-1.2-0.2-1.11","null","<span style='color:red; font-size: 70px;'>错误! </span>","null","","","","","","","","","","","","","","","","","","","","","","","","","feedback_test"
"","","","","","psychophysics","372","348580","0.0-14.0-0.2-1.2-0.2-0.12","303","","f","","","","","","","","","","","","","key","f","16.670129870129568","581.8181692076126","359.9999921972103","self","f","true","img/S_28.png","自我","非自我","朋友",""
"","","","","","html-keyboard-response","373","348896","0.0-14.0-0.2-1.2-0.2-1.12","null","<span style='color:GreenYellow; font-size: 70px;'>正确! </span>","null","","","","","","","","","","","","","","","","","","","","","","","","","feedback_test"
"","","","","","psychophysics","374","350172","0.0-14.0-0.2-1.2-0.2-0.13","265","","f","","","","","","","","","","","","","key","f","17.131506849315546","581.8181692076126","359.9999921972103","self","f","true","img/C_28.png","自我","非自我","生人",""
"","","","","","html-keyboard-response","375","350489","0.0-14.0-0.2-1.2-0.2-1.13","null","<span style='color:GreenYellow; font-size: 70px;'>正确! </span>","null","","","","","","","","","","","","","","","","","","","","","","","","","feedback_test"
"","","","","","html-keyboard-response","376","351410","0.0-14.0-0.2-1.2-1.2","917","<style>.context{color:white; font-size: 35px; line-height:40px}</style>                          <div><p class='context'>您正确回答了92% 的试次。</p><p class='context'>您的平均反应时为351毫秒。</p><p class='context'>请按任意键进入休息</p></div>"," ","","","","","","","","","","","","","","","","","","","","","","","","",""
"","","","","","html-button-response","377","352292","0.0-14.0-0.2-1.2-2.2","879","
                  <p>自我图形分类任务中，您还剩余4组实验</p>
                  <p>现在是休息时间，当您结束休息后，您可以点击 结束休息 按钮 继续</p>
                  <p>建议休息时间还剩余<span id=""iii"">60</span>秒</p>","0","","","","","","","","","","","","","","","","","","","","","","","","",""
"","","","","","psychophysics","378","353738","0.0-14.0-0.2-1.2-0.3-0.14","440","","f","","","","","","","","","","","","","key","f","16.667058823529548","581.8181692076126","359.9999921972103","self","f","true","img/S_28.png","自我","非自我","朋友",""
"","","","","","html-keyboard-response","379","354040","0.0-14.0-0.2-1.2-0.3-1.14","null","<span style='color:GreenYellow; font-size: 70px;'>正确! </span>","null","","","","","","","","","","","","","","","","","","","","","","","","","feedback_test"
"","","","","","psychophysics","380","355473","0.0-14.0-0.2-1.2-0.3-0.15","424","","f","","","","","","","","","","","","","key","f","16.67176470588208","581.8181692076126","359.9999921972103","self","f","true","img/C_28.png","自我","非自我","生人",""
"","","","","","html-keyboard-response","381","355779","0.0-14.0-0.2-1.2-0.3-1.15","null","<span style='color:GreenYellow; font-size: 70px;'>正确! </span>","null","","","","","","","","","","","","","","","","","","","","","","","","","feedback_test"
"","","","","","psychophysics","382","357037","0.0-14.0-0.2-1.2-0.3-0.16","255","","j","","","","","","","","","","","","","key","j","16.672972972973604","581.8181692076126","359.9999921972103","self","j","true","img/H_28.png","自我","非自我","自我",""
"","","","","","html-keyboard-response","383","357349","0.0-14.0-0.2-1.2-0.3-1.16","null","<span style='color:GreenYellow; font-size: 70px;'>正确! </span>","null","","","","","","","","","","","","","","","","","","","","","","","","","feedback_test"
"","","","","","psychophysics","384","358764","0.0-14.0-0.2-1.2-0.3-0.17","412","","f","","","","","","","","","","","","","key","f","16.673493975903195","581.8181692076126","359.9999921972103","self","f","true","img/S_28.png","自我","非自我","朋友",""
"","","","","","html-keyboard-response","385","359066","0.0-14.0-0.2-1.2-0.3-1.17","null","<span style='color:GreenYellow; font-size: 70px;'>正确! </span>","null","","","","","","","","","","","","","","","","","","","","","","","","","feedback_test"
"","","","","","psychophysics","386","360807","0.0-14.0-0.2-1.2-0.3-0.18","740","","f","","","","","","","","","","","","","key","f","16.66990291262136","581.8181692076126","359.9999921972103","self","f","true","img/C_28.png","自我","非自我","生人",""
"","","","","","html-keyboard-response","387","361119","0.0-14.0-0.2-1.2-0.3-1.18","null","<span style='color:GreenYellow; font-size: 70px;'>正确! </span>","null","","","","","","","","","","","","","","","","","","","","","","","","","feedback_test"
"","","","","","psychophysics","388","362510","0.0-14.0-0.2-1.2-0.3-0.19","390","","j","","","","","","","","","","","","","key","j","16.668292682926687","581.8181692076126","359.9999921972103","self","j","true","img/H_28.png","自我","非自我","自我",""
"","","","","","html-keyboard-response","389","362823","0.0-14.0-0.2-1.2-0.3-1.19","null","<span style='color:GreenYellow; font-size: 70px;'>正确! </span>","null","","","","","","","","","","","","","","","","","","","","","","","","","feedback_test"
"","","","","","psychophysics","390","364215","0.0-14.0-0.2-1.2-0.3-0.20","383","","f","","","","","","","","","","","","","key","f","16.674390243902298","581.8181692076126","359.9999921972103","self","f","true","img/C_28.png","自我","非自我","生人",""
"","","","","","html-keyboard-response","391","364524","0.0-14.0-0.2-1.2-0.3-1.20","null","<span style='color:GreenYellow; font-size: 70px;'>正确! </span>","null","","","","","","","","","","","","","","","","","","","","","","","","","feedback_test"
"","","","","","psychophysics","392","366028","0.0-14.0-0.2-1.2-0.3-0.21","493","","f","","","","","","","","","","","","","key","f","16.675280898876796","581.8181692076126","359.9999921972103","self","f","true","img/S_28.png","自我","非自我","朋友",""
"","","","","","html-keyboard-response","393","366340","0.0-14.0-0.2-1.2-0.3-1.21","null","<span style='color:GreenYellow; font-size: 70px;'>正确! </span>","null","","","","","","","","","","","","","","","","","","","","","","","","","feedback_test"
"","","","","","psychophysics","394","367660","0.0-14.0-0.2-1.2-0.3-0.22","314","","j","","","","","","","","","","","","","key","j","16.67179487179517","581.8181692076126","359.9999921972103","self","j","true","img/H_28.png","自我","非自我","自我",""
