"success","timeout","failed_images","failed_audio","failed_video","trial_type","trial_index","time_elapsed","internal_node_id","rt","stimulus","response","value","item_width_mm","item_height_mm","item_width_px","px2mm","view_dist_mm","item_width_deg","px2deg","scale_factor","win_width_deg","win_height_deg","view_history","response_type","key_press","avg_frame_time","center_x","center_y","correct_response","correct","Image","text","condition","screen_id","label"
"true","false","[]","[]","[]","preload","0","4151","0.0-0.0","","","","","","","","","","","","","","","","","","","","","","","","","","",""
"","","","","","html-keyboard-response","1","10308","0.0-1.0","6156","
  <p>您好，欢迎参加本次实验。</p>
  <p>为充分保障您的权利，请确保您已经知晓并同意《参与实验同意书》以及《数据公开知情同意书》。</p>
  <p>如果您未见过上述内容，请咨询实验员。</p>
  <p>如果您选择继续实验，则表示您已经清楚两份知情同意书的内容并同意。</p>
  <p> <div style = ""color: green""><按任意键至下页></div> </p>
  ","audiovolumeup","","","","","","","","","","","","","","","","","","","","","","","",""
"","","","","","html-keyboard-response","2","10561","0.0-2.0","253","
  <p>本实验首先需要您填写一些基本个人信息。</p>
  <p> <div style = ""color: green""><按任意键至下页></div></p>
  ","audiovolumeup","","","","","","","","","","","","","","","","","","","","","","","",""
"","","","","","call-function","3","10563","0.0-3.0-0.0","","","","","","","","","","","","","","","","","","","","","","","","","","",""
"","","","","","survey-html-form","4","59643","0.0-3.0-1.0","49078","","{""Q0"":""11""}","","","","","","","","","","","","","","","","","","","","","","","",""
"","","","","","html-button-response","5","61164","0.0-3.0-2.0","1519","<p style = 'color : white'>您的性别</p>","1","","","","","","","","","","","","","","","","","","","","","","","",""
"","","","","","survey-html-form","6","66766","0.0-3.0-3.0","5601","","{""Q0"":""2002""}","","","","","","","","","","","","","","","","","","","","","","","",""
"","","","","","survey-html-form","7","70064","0.0-3.0-4.0","3297","","{""Q0"":""5""}","","","","","","","","","","","","","","","","","","","","","","","",""
"","","","","","virtual-chinrest","8","221273","0.0-4.0","151207","","","","85.6","53.98","458.9981983742832","5.362230137405725","533.12","9.179963967485664","50","0.9193935869349239","28.74","16.3","","","","","","","","","","","","",""
"true","","","","","fullscreen","9","227609","0.0-5.0","","","","","","","","","","","","","","","","","","","","","","","","","","",""
"","","","","","instructions","10","316448","0.0-6.0","88837","","","","","","","","","","","","","","[{""page_index"":0,""viewing_time"":9716},{""page_index"":1,""viewing_time"":15615},{""page_index"":2,""viewing_time"":42218},{""page_index"":3,""viewing_time"":18411},{""page_index"":4,""viewing_time"":2877}]","","","","","","","","","","","",""
"","","","","","instructions","11","346032","0.0-7.0","29584","","","","","","","","","","","","","","[{""page_index"":0,""viewing_time"":29584}]","","","","","","","","","","","",""
"","","","","","psychophysics","12","348532","0.0-8.0-0.0-0.0","1488","","j","","","","","","","","","","","","","key","j","16.581777027027044","747","463","k","false","img/S_28.png","生人","freeprac_self","",""
"","","","","","html-keyboard-response","13","348845","0.0-8.0-0.0-1.0","null","<span style='color:red; font-size: 70px;'>错误! </span>","null","","","","","","","","","","","","","","","","","","","","","","","feedback_test",""
"","","","","","psychophysics","14","351178","0.0-8.0-0.0-0.1","1329","","f","","","","","","","","","","","","","key","f","16.66629496402871","747","463","f","true","img/H_28.png","自我","freeprac_self","",""
"","","","","","html-keyboard-response","15","351481","0.0-8.0-0.0-1.1","null","<span style='color:GreenYellow; font-size: 70px;'>正确! </span>","null","","","","","","","","","","","","","","","","","","","","","","","feedback_test",""
"","","","","","psychophysics","16","354747","0.0-8.0-0.0-0.2","2264","","k","","","","","","","","","","","","","key","k","16.666225641025587","747","463","k","true","img/C_28.png","自我","freeprac_self","",""
"","","","","","html-keyboard-response","17","355048","0.0-8.0-0.0-1.2","null","<span style='color:GreenYellow; font-size: 70px;'>正确! </span>","null","","","","","","","","","","","","","","","","","","","","","","","feedback_test",""
"","","","","","psychophysics","18","356784","0.0-8.0-0.0-0.3","735","","k","","","","","","","","","","","","","key","k","16.532679611650856","747","463","j","false","img/C_28.png","生人","freeprac_self","",""
"","","","","","html-keyboard-response","19","357085","0.0-8.0-0.0-1.3","null","<span style='color:red; font-size: 70px;'>错误! </span>","null","","","","","","","","","","","","","","","","","","","","","","","feedback_test",""
"","","","","","psychophysics","20","359322","0.0-8.0-0.0-0.4","1228","","j","","","","","","","","","","","","","key","j","16.666248120300565","747","463","j","true","img/C_28.png","生人","freeprac_self","",""
"","","","","","html-keyboard-response","21","359625","0.0-8.0-0.0-1.4","null","<span style='color:GreenYellow; font-size: 70px;'>正确! </span>","null","","","","","","","","","","","","","","","","","","","","","","","feedback_test",""
"","","","","","psychophysics","22","361984","0.0-8.0-0.0-0.5","1351","","j","","","","","","","","","","","","","key","j","16.666290780141743","747","463","j","true","img/S_28.png","朋友","freeprac_self","",""
"","","","","","html-keyboard-response","23","362286","0.0-8.0-0.0-1.5","null","<span style='color:GreenYellow; font-size: 70px;'>正确! </span>","null","","","","","","","","","","","","","","","","","","","","","","","feedback_test",""
"","","","","","psychophysics","24","364158","0.0-8.0-0.0-0.6","864","","j","","","","","","","","","","","","","key","j","16.665954954955236","747","463","j","true","img/S_28.png","朋友","freeprac_self","",""
"","","","","","html-keyboard-response","25","364464","0.0-8.0-0.0-1.6","null","<span style='color:GreenYellow; font-size: 70px;'>正确! </span>","null","","","","","","","","","","","","","","","","","","","","","","","feedback_test",""
"","","","","","psychophysics","26","366308","0.0-8.0-0.0-0.7","843","","k","","","","","","","","","","","","","key","k","16.666400000000035","747","463","k","true","img/C_28.png","朋友","freeprac_self","",""
"","","","","","html-keyboard-response","27","366614","0.0-8.0-0.0-1.7","null","<span style='color:GreenYellow; font-size: 70px;'>正确! </span>","null","","","","","","","","","","","","","","","","","","","","","","","feedback_test",""
"","","","","","psychophysics","28","368939","0.0-8.0-0.0-0.8","1323","","k","","","","","","","","","","","","","key","k","16.66646043165493","747","463","d","false","img/H_28.png","朋友","freeprac_self","",""
"","","","","","html-keyboard-response","29","369252","0.0-8.0-0.0-1.8","null","<span style='color:red; font-size: 70px;'>错误! </span>","null","","","","","","","","","","","","","","","","","","","","","","","feedback_test",""
"","","","","","psychophysics","30","372533","0.0-8.0-0.0-0.9","2272","","f","","","","","","","","","","","","","key","f","16.666285714285735","747","463","f","true","img/H_28.png","自我","freeprac_self","",""
"","","","","","html-keyboard-response","31","372847","0.0-8.0-0.0-1.9","null","<span style='color:GreenYellow; font-size: 70px;'>正确! </span>","null","","","","","","","","","","","","","","","","","","","","","","","feedback_test",""
"","","","","","psychophysics","32","376290","0.0-8.0-0.0-0.10","2442","","k","","","","","","","","","","","","","key","k","16.59932195121939","747","463","k","true","img/S_28.png","自我","freeprac_self","",""
"","","","","","html-keyboard-response","33","376598","0.0-8.0-0.0-1.10","null","<span style='color:GreenYellow; font-size: 70px;'>正确! </span>","null","","","","","","","","","","","","","","","","","","","","","","","feedback_test",""
"","","","","","psychophysics","34","379198","0.0-8.0-0.0-0.11","1599","","k","","","","","","","","","","","","","key","k","16.66607792207793","747","463","d","false","img/H_28.png","生人","freeprac_self","",""
"","","","","","html-keyboard-response","35","379505","0.0-8.0-0.0-1.11","null","<span style='color:red; font-size: 70px;'>错误! </span>","null","","","","","","","","","","","","","","","","","","","","","","","feedback_test",""
"","","","","","html-keyboard-response","36","393124","0.0-8.0-1.0-0.0","13618","<style>.context{color:white; font-size: 35px; line-height:40px}</style>                           <div><p class='context'>您正确回答了67% 的试次。</p><p class='context'>您的平均反应时为1574毫秒。</p>"," ","","","","","","","","","","","","","","","","","","","","","","","",""
"","","","","","instructions","37","423323","0.0-8.0-1.0-1.0","30198","","","","","","","","","","","","","","[{""page_index"":0,""viewing_time"":4963},{""page_index"":1,""viewing_time"":23151},{""page_index"":2,""viewing_time"":2084}]","","","","","","","","","","","",""
"","","","","","psychophysics","38","425503","0.0-8.1-0.1-0.12","1173","","k","","","","","","","","","","","","","key","k","16.666146153846057","747","463","j","false","img/S_28.png","朋友","freeprac_self","",""
"","","","","","html-keyboard-response","39","425819","0.0-8.1-0.1-1.12","null","<span style='color:red; font-size: 70px;'>错误! </span>","null","","","","","","","","","","","","","","","","","","","","","","","feedback_test",""
"","","","","","psychophysics","40","433362","0.0-8.1-0.1-0.13","6531","","f","","","","","","","","","","","","","key","f","16.66609977827056","747","463","k","false","img/C_28.png","自我","freeprac_self","",""
"","","","","","html-keyboard-response","41","433664","0.0-8.1-0.1-1.13","null","<span style='color:red; font-size: 70px;'>错误! </span>","null","","","","","","","","","","","","","","","","","","","","","","","feedback_test",""
"","","","","","psychophysics","42","436675","0.0-8.1-0.1-0.14","2005","","d","","","","","","","","","","","","","key","d","16.666022346368678","747","463","d","true","img/H_28.png","生人","freeprac_self","",""
"","","","","","html-keyboard-response","43","436981","0.0-8.1-0.1-1.14","null","<span style='color:GreenYellow; font-size: 70px;'>正确! </span>","null","","","","","","","","","","","","","","","","","","","","","","","feedback_test",""
"","","","","","psychophysics","44","439125","0.0-8.1-0.1-0.15","1138","","d","","","","","","","","","","","","","key","d","16.66584251968531","747","463","d","true","img/H_28.png","朋友","freeprac_self","",""
"","","","","","html-keyboard-response","45","439433","0.0-8.1-0.1-1.15","null","<span style='color:GreenYellow; font-size: 70px;'>正确! </span>","null","","","","","","","","","","","","","","","","","","","","","","","feedback_test",""
"","","","","","psychophysics","46","441424","0.0-8.1-0.1-0.16","981","","f","","","","","","","","","","","","","key","f","16.6660423728813","747","463","f","true","img/H_28.png","自我","freeprac_self","",""
"","","","","","html-keyboard-response","47","441735","0.0-8.1-0.1-1.16","null","<span style='color:GreenYellow; font-size: 70px;'>正确! </span>","null","","","","","","","","","","","","","","","","","","","","","","","feedback_test",""
"","","","","","psychophysics","48","444214","0.0-8.1-0.1-0.17","1474","","j","","","","","","","","","","","","","key","j","16.666060810810745","747","463","j","true","img/C_28.png","生人","freeprac_self","",""
"","","","","","html-keyboard-response","49","444521","0.0-8.1-0.1-1.17","null","<span style='color:GreenYellow; font-size: 70px;'>正确! </span>","null","","","","","","","","","","","","","","","","","","","","","","","feedback_test",""
"","","","","","psychophysics","50","447091","0.0-8.1-0.1-0.18","1562","","d","","","","","","","","","","","","","key","d","16.6660653594771","747","463","k","false","img/S_28.png","自我","freeprac_self","",""
"","","","","","html-keyboard-response","51","447392","0.0-8.1-0.1-1.18","null","<span style='color:red; font-size: 70px;'>错误! </span>","null","","","","","","","","","","","","","","","","","","","","","","","feedback_test",""
"","","","","","psychophysics","52","449626","0.0-8.1-0.1-0.19","1229","","k","","","","","","","","","","","","","key","k","16.66603007518793","747","463","k","true","img/S_28.png","生人","freeprac_self","",""
"","","","","","html-keyboard-response","53","449927","0.0-8.1-0.1-1.19","null","<span style='color:GreenYellow; font-size: 70px;'>正确! </span>","null","","","","","","","","","","","","","","","","","","","","","","","feedback_test",""
"","","","","","psychophysics","54","452215","0.0-8.1-0.1-0.20","1285","","j","","","","","","","","","","","","","key","j","16.666277372262552","747","463","j","true","img/C_28.png","生人","freeprac_self","",""
"","","","","","html-keyboard-response","55","452517","0.0-8.1-0.1-1.20","null","<span style='color:GreenYellow; font-size: 70px;'>正确! </span>","null","","","","","","","","","","","","","","","","","","","","","","","feedback_test",""
"","","","","","psychophysics","56","455645","0.0-8.1-0.1-0.21","2119","","j","","","","","","","","","","","","","key","j","16.66605913978488","747","463","j","true","img/S_28.png","朋友","freeprac_self","",""
"","","","","","html-keyboard-response","57","455960","0.0-8.1-0.1-1.21","null","<span style='color:GreenYellow; font-size: 70px;'>正确! </span>","null","","","","","","","","","","","","","","","","","","","","","","","feedback_test",""
"","","","","","psychophysics","58","459606","0.0-8.1-0.1-0.22","2643","","k","","","","","","","","","","","","","key","k","16.66626605504607","747","463","k","true","img/C_28.png","朋友","freeprac_self","",""
"","","","","","html-keyboard-response","59","459915","0.0-8.1-0.1-1.22","null","<span style='color:GreenYellow; font-size: 70px;'>正确! </span>","null","","","","","","","","","","","","","","","","","","","","","","","feedback_test",""
"","","","","","psychophysics","60","461767","0.0-8.1-0.1-0.23","842","","f","","","","","","","","","","","","","key","f","16.66593636363607","747","463","f","true","img/H_28.png","自我","freeprac_self","",""
"","","","","","html-keyboard-response","61","462076","0.0-8.1-0.1-1.23","null","<span style='color:GreenYellow; font-size: 70px;'>正确! </span>","null","","","","","","","","","","","","","","","","","","","","","","","feedback_test",""
"","","","","","html-keyboard-response","62","469699","0.0-9.0","7621","[""<style>.context{color:white; font-size: 35px; line-height:40px}</style>           <div><p class='context'>您正确回答了75% 的试次。</p><p class='context'>您的平均反应时为1524毫秒。</p><p class='context'>恭喜您完成这一阶段的练习。按任意键进入<span style='color: yellow;'>重点关注图形为“朋友”</span>的练习。</p></div><p class='footer' style='font-size:35px; line-height:30px;'>任务要求：\n           <p class='footer' style='font-size:35px; line-height:35px;'>对于与“朋友”对应的图形：如果 匹配 ，请按 <span style=\""color: lightgreen;\"">f键</span></p><p class='footer' style='font-size:35px'>如果 不匹配 ，请按<span style=\""color: lightgreen;\"">d键</p></span>\n           <p class='footer' style='font-size:35px; line-height:35px;'>对于非“朋友”对应的图形：如果 匹配 ，请按 <span style=\""color: lightgreen;\"">j键</span></p><p class='footer' style='font-size:35px'>如果 不匹配 ，请按<span style=\""color: lightgreen;\"">k键</p></span>\n           <p class='footer' style='font-size:22px; line-height:25px;'>请在实验过程中将您的<span style=\""color: lightgreen;\"">食指和中指</span>放在电脑键盘的相应键位上进行按键。</p></span>""]"," ","","","","","","","","","","","","","","","","","","","","","","","",""
"","","","","","psychophysics","63","472036","0.0-10.0-0.0-0.0","1328","","f","","","","","","","","","","","","","key","f","16.66665467625884","747","463","f","true","img/S_28.png","朋友","freeprac_friend","",""
"","","","","","html-keyboard-response","64","472342","0.0-10.0-0.0-1.0","null","<span style='color:GreenYellow; font-size: 70px;'>正确! </span>","null","","","","","","","","","","","","","","","","","","","","","","","feedback_test",""
"","","","","","psychophysics","65","474073","0.0-10.0-0.0-0.1","730","","f","","","","","","","","","","","","","key","f","16.666019417475503","747","463","f","true","img/S_28.png","朋友","freeprac_friend","",""
"","","","","","html-keyboard-response","66","474389","0.0-10.0-0.0-1.1","null","<span style='color:GreenYellow; font-size: 70px;'>正确! </span>","null","","","","","","","","","","","","","","","","","","","","","","","feedback_test",""
"","","","","","psychophysics","67","476936","0.0-10.0-0.0-0.2","1540","","j","","","","","","","","","","","","","key","j","16.66634868421036","747","463","j","true","img/H_28.png","自我","freeprac_friend","",""
"","","","","","html-keyboard-response","68","477241","0.0-10.0-0.0-1.2","null","<span style='color:GreenYellow; font-size: 70px;'>正确! </span>","null","","","","","","","","","","","","","","","","","","","","","","","feedback_test",""
"","","","","","psychophysics","69","479164","0.0-10.0-0.0-0.3","918","","k","","","","","","","","","","","","","key","k","16.666191304348025","747","463","k","true","img/H_28.png","生人","freeprac_friend","",""
"","","","","","html-keyboard-response","70","479465","0.0-10.0-0.0-1.3","null","<span style='color:GreenYellow; font-size: 70px;'>正确! </span>","null","","","","","","","","","","","","","","","","","","","","","","","feedback_test",""
"","","","","","psychophysics","71","482550","0.0-10.0-0.0-0.4","2075","","k","","","","","","","","","","","","","key","k","16.666065217391207","747","463","k","true","img/C_28.png","自我","freeprac_friend","",""
"","","","","","html-keyboard-response","72","482865","0.0-10.0-0.0-1.4","null","<span style='color:GreenYellow; font-size: 70px;'>正确! </span>","null","","","","","","","","","","","","","","","","","","","","","","","feedback_test",""
"","","","","","psychophysics","73","484935","0.0-10.0-0.0-0.5","1058","","k","","","","","","","","","","","","","key","k","16.666300813008263","747","463","k","true","img/C_28.png","朋友","freeprac_friend","",""
"","","","","","html-keyboard-response","74","485239","0.0-10.0-0.0-1.5","null","<span style='color:GreenYellow; font-size: 70px;'>正确! </span>","null","","","","","","","","","","","","","","","","","","","","","","","feedback_test",""
"","","","","","psychophysics","75","487859","0.0-10.0-0.0-0.6","1614","","d","","","","","","","","","","","","","key","d","16.666461538461498","747","463","d","true","img/S_28.png","自我","freeprac_friend","",""
"","","","","","html-keyboard-response","76","488173","0.0-10.0-0.0-1.6","null","<span style='color:GreenYellow; font-size: 70px;'>正确! </span>","null","","","","","","","","","","","","","","","","","","","","","","","feedback_test",""
"","","","","","psychophysics","77","490452","0.0-10.0-0.0-0.7","1274","","j","","","","","","","","","","","","","key","j","16.666198529411787","747","463","j","true","img/H_28.png","自我","freeprac_friend","",""
"","","","","","html-keyboard-response","78","490766","0.0-10.0-0.0-1.7","null","<span style='color:GreenYellow; font-size: 70px;'>正确! </span>","null","","","","","","","","","","","","","","","","","","","","","","","feedback_test",""
"","","","","","psychophysics","79","493542","0.0-10.0-0.0-0.8","1769","","k","","","","","","","","","","","","","key","k","16.66616363636373","747","463","k","true","img/H_28.png","朋友","freeprac_friend","",""
"","","","","","html-keyboard-response","80","493857","0.0-10.0-0.0-1.8","null","<span style='color:GreenYellow; font-size: 70px;'>正确! </span>","null","","","","","","","","","","","","","","","","","","","","","","","feedback_test",""
"","","","","","psychophysics","81","495890","0.0-10.0-0.0-0.9","1028","","j","","","","","","","","","","","","","key","j","16.665942148760074","747","463","j","true","img/C_28.png","生人","freeprac_friend","",""
"","","","","","html-keyboard-response","82","496202","0.0-10.0-0.0-1.9","null","<span style='color:GreenYellow; font-size: 70px;'>正确! </span>","null","","","","","","","","","","","","","","","","","","","","","","","feedback_test",""
"","","","","","psychophysics","83","497966","0.0-10.0-0.0-0.10","754","","j","","","","","","","","","","","","","key","j","16.66620000000001","747","463","j","true","img/C_28.png","生人","freeprac_friend","",""
"","","","","","html-keyboard-response","84","498272","0.0-10.0-0.0-1.10","null","<span style='color:GreenYellow; font-size: 70px;'>正确! </span>","null","","","","","","","","","","","","","","","","","","","","","","","feedback_test",""
"","","","","","psychophysics","85","500394","0.0-10.0-0.0-0.11","1115","","k","","","","","","","","","","","","","key","k","16.666285714285635","747","463","d","false","img/S_28.png","生人","freeprac_friend","",""
"","","","","","html-keyboard-response","86","500700","0.0-10.0-0.0-1.11","null","<span style='color:red; font-size: 70px;'>错误! </span>","null","","","","","","","","","","","","","","","","","","","","","","","feedback_test",""
"","","","","","html-keyboard-response","87","504103","0.0-11.0","3402","[""<style>.context{color:white; font-size: 35px; line-height:40px}</style>               <div><p class='context'>您正确回答了92% 的试次。</p><p class='context'>您的平均反应时为1281毫秒。</p><p class='context'>恭喜您完成这一阶段的练习。按任意键进入<span style='color: yellow;'>重点关注图形为“生人”</span>的练习。</p></div><p class='footer' style='font-size:35px; line-height:30px;'>任务要求：\n               <p class='footer' style='font-size:35px; line-height:35px;'>对与“生人”对应的图形，如果 匹配 ，请按 <span style=\""color: lightgreen;\"">f键</span></p><p class='footer' style='font-size:35px'>如果 不匹配 ，请按<span style=\""color: lightgreen;\"">d键</p></span>\n               <p class='footer' style='font-size:35px; line-height:35px;'>对非“生人”对应的图形，如果 匹配 ，请按 <span style=\""color: lightgreen;\"">j键</span></p><p class='footer' style='font-size:35px'>如果 不匹配 ，请按<span style=\""color: lightgreen;\"">k键</p></span>\n               <p class='footer' style='font-size:22px; line-height:25px;'>请在实验过程中将您的<span style=\""color: lightgreen;\"">食指和中指</span>放在电脑键盘的相应键位上进行按键。</p></span>""]"," ","","","","","","","","","","","","","","","","","","","","","","","",""
"","","","","","psychophysics","88","506856","0.0-12.0-0.0-0.0","1744","","k","","","","","","","","","","","","","key","k","16.665957317073197","747","463","k","true","img/S_28.png","自我","freeprac_stranger","",""
"","","","","","html-keyboard-response","89","507168","0.0-12.0-0.0-1.0","null","<span style='color:GreenYellow; font-size: 70px;'>正确! </span>","null","","","","","","","","","","","","","","","","","","","","","","","feedback_test",""
"","","","","","psychophysics","90","509225","0.0-12.0-0.0-0.1","1047","","j","","","","","","","","","","","","","key","j","16.66622131147525","747","463","j","true","img/S_28.png","朋友","freeprac_stranger","",""
"","","","","","html-keyboard-response","91","509533","0.0-12.0-0.0-1.1","null","<span style='color:GreenYellow; font-size: 70px;'>正确! </span>","null","","","","","","","","","","","","","","","","","","","","","","","feedback_test",""
"","","","","","psychophysics","92","511466","0.0-12.0-0.0-0.2","922","","f","","","","","","","","","","","","","key","f","16.666478260869727","747","463","d","false","img/C_28.png","自我","freeprac_stranger","",""
"","","","","","html-keyboard-response","93","511769","0.0-12.0-0.0-1.2","null","<span style='color:red; font-size: 70px;'>错误! </span>","null","","","","","","","","","","","","","","","","","","","","","","","feedback_test",""
"","","","","","psychophysics","94","513615","0.0-12.0-0.0-0.3","838","","f","","","","","","","","","","","","","key","f","16.666163636363557","747","463","f","true","img/C_28.png","生人","freeprac_stranger","",""
"","","","","","html-keyboard-response","95","513927","0.0-12.0-0.0-1.3","null","<span style='color:GreenYellow; font-size: 70px;'>正确! </span>","null","","","","","","","","","","","","","","","","","","","","","","","feedback_test",""
"","","","","","psychophysics","96","517394","0.0-12.0-0.0-0.4","2465","","k","","","","","","","","","","","","","key","k","16.59869902912647","747","463","j","false","img/H_28.png","自我","freeprac_stranger","",""
"","","","","","html-keyboard-response","97","517708","0.0-12.0-0.0-1.4","null","<span style='color:red; font-size: 70px;'>错误! </span>","null","","","","","","","","","","","","","","","","","","","","","","","feedback_test",""
"","","","","","psychophysics","98","519810","0.0-12.0-0.0-0.5","1098","","f","","","","","","","","","","","","","key","f","16.666167999999598","747","463","f","true","img/C_28.png","生人","freeprac_stranger","",""
"","","","","","html-keyboard-response","99","520115","0.0-12.0-0.0-1.5","null","<span style='color:GreenYellow; font-size: 70px;'>正确! </span>","null","","","","","","","","","","","","","","","","","","","","","","","feedback_test",""
"","","","","","psychophysics","100","522226","0.0-12.0-0.0-0.6","1103","","k","","","","","","","","","","","","","key","k","16.66597599999979","747","463","k","true","img/H_28.png","朋友","freeprac_stranger","",""
"","","","","","html-keyboard-response","101","522535","0.0-12.0-0.0-1.6","null","<span style='color:GreenYellow; font-size: 70px;'>正确! </span>","null","","","","","","","","","","","","","","","","","","","","","","","feedback_test",""
"","","","","","psychophysics","102","524935","0.0-12.0-0.0-0.7","1391","","j","","","","","","","","","","","","","key","j","16.666356643356572","747","463","j","true","img/H_28.png","自我","freeprac_stranger","",""
"","","","","","html-keyboard-response","103","525249","0.0-12.0-0.0-1.7","null","<span style='color:GreenYellow; font-size: 70px;'>正确! </span>","null","","","","","","","","","","","","","","","","","","","","","","","feedback_test",""
"","","","","","psychophysics","104","527901","0.0-12.0-0.0-0.8","1641","","k","","","","","","","","","","","","","key","k","16.666170886075978","747","463","k","true","img/S_28.png","生人","freeprac_stranger","",""
"","","","","","html-keyboard-response","105","528206","0.0-12.0-0.0-1.8","null","<span style='color:GreenYellow; font-size: 70px;'>正确! </span>","null","","","","","","","","","","","","","","","","","","","","","","","feedback_test",""
"","","","","","psychophysics","106","530881","0.0-12.0-0.0-0.9","1671","","d","","","","","","","","","","","","","key","d","16.6661812499995","747","463","d","true","img/C_28.png","朋友","freeprac_stranger","",""
"","","","","","html-keyboard-response","107","531190","0.0-12.0-0.0-1.9","null","<span style='color:GreenYellow; font-size: 70px;'>正确! </span>","null","","","","","","","","","","","","","","","","","","","","","","","feedback_test",""
"","","","","","psychophysics","108","533755","0.0-12.0-0.0-0.10","1561","","j","","","","","","","","","","","","","key","j","16.666267973856293","747","463","j","true","img/S_28.png","朋友","freeprac_stranger","",""
"","","","","","html-keyboard-response","109","534059","0.0-12.0-0.0-1.10","null","<span style='color:GreenYellow; font-size: 70px;'>正确! </span>","null","","","","","","","","","","","","","","","","","","","","","","","feedback_test",""
"","","","","","psychophysics","110","536637","0.0-12.0-0.0-0.11","1577","","k","","","","","","","","","","","","","key","k","16.666110389610427","747","463","k","true","img/H_28.png","生人","freeprac_stranger","",""
"","","","","","html-keyboard-response","111","536939","0.0-12.0-0.0-1.11","null","<span style='color:GreenYellow; font-size: 70px;'>正确! </span>","null","","","","","","","","","","","","","","","","","","","","","","","feedback_test",""
"","","","","","instructions","112","548480","0.0-13.0","11539","","","","","","","","","","","","","","[{""page_index"":0,""viewing_time"":11539}]","","","","","","","","","","","",""
"","","","","","psychophysics","113","550739","0.0-14.0-0.0-0.0","1256","","d","","","","","","","","","","","","","key","d","16.666276119402678","747","463","k","false","img/S_28.png","自我","prac_self","","朋友"
"","","","","","html-keyboard-response","114","551049","0.0-14.0-0.0-1.0","null","<span style='color:red; font-size: 70px;'>错误! </span>","null","","","","","","","","","","","","","","","","","","","","","","","feedback_test",""
"","","","","","psychophysics","115","552875","0.0-14.0-0.0-0.1","814","","f","","","","","","","","","","","","","key","f","16.66649999999963","747","463","d","false","img/H_28.png","朋友","prac_self","","自我"
"","","","","","html-keyboard-response","116","553177","0.0-14.0-0.0-1.1","null","<span style='color:red; font-size: 70px;'>错误! </span>","null","","","","","","","","","","","","","","","","","","","","","","","feedback_test",""
"","","","","","psychophysics","117","555143","0.0-14.0-0.0-0.2","965","","f","","","","","","","","","","","","","key","f","16.666327586206847","747","463","j","false","img/C_28.png","生人","prac_self","","生人"
"","","","","","html-keyboard-response","118","555448","0.0-14.0-0.0-1.2","null","<span style='color:red; font-size: 70px;'>错误! </span>","null","","","","","","","","","","","","","","","","","","","","","","","feedback_test",""
"","","","","","psychophysics","119","557637","0.0-14.0-0.0-0.3","1181","","k","","","","","","","","","","","","","key","k","16.66592307692358","747","463","k","true","img/S_28.png","生人","prac_self","","朋友"
"","","","","","html-keyboard-response","120","557951","0.0-14.0-0.0-1.3","null","<span style='color:GreenYellow; font-size: 70px;'>正确! </span>","null","","","","","","","","","","","","","","","","","","","","","","","feedback_test",""
"","","","","","psychophysics","121","559819","0.0-14.0-0.0-0.4","863","","j","","","","","","","","","","","","","key","j","16.66627027027032","747","463","j","true","img/S_28.png","朋友","prac_self","","朋友"
"","","","","","html-keyboard-response","122","560121","0.0-14.0-0.0-1.4","null","<span style='color:GreenYellow; font-size: 70px;'>正确! </span>","null","","","","","","","","","","","","","","","","","","","","","","","feedback_test",""
"","","","","","psychophysics","123","561799","0.0-14.0-0.0-0.5","674","","f","","","","","","","","","","","","","key","f","16.666030000000028","747","463","f","true","img/H_28.png","自我","prac_self","","自我"
"","","","","","html-keyboard-response","124","562103","0.0-14.0-0.0-1.5","null","<span style='color:GreenYellow; font-size: 70px;'>正确! </span>","null","","","","","","","","","","","","","","","","","","","","","","","feedback_test",""
"","","","","","psychophysics","125","564055","0.0-14.0-0.0-0.6","945","","k","","","","","","","","","","","","","key","k","16.66616379310365","747","463","d","false","img/H_28.png","生人","prac_self","","自我"
"","","","","","html-keyboard-response","126","564363","0.0-14.0-0.0-1.6","null","<span style='color:red; font-size: 70px;'>错误! </span>","null","","","","","","","","","","","","","","","","","","","","","","","feedback_test",""
"","","","","","psychophysics","127","566862","0.0-14.0-0.0-0.7","1490","","k","","","","","","","","","","","","","key","k","16.666248322147315","747","463","k","true","img/C_28.png","自我","prac_self","","生人"
"","","","","","html-keyboard-response","128","567166","0.0-14.0-0.0-1.7","null","<span style='color:GreenYellow; font-size: 70px;'>正确! </span>","null","","","","","","","","","","","","","","","","","","","","","","","feedback_test",""
"","","","","","psychophysics","129","569676","0.0-14.0-0.0-0.8","null","","null","","","","","","","","","","","","","key","null","16.66659731543607","747","463","k","false","img/C_28.png","朋友","prac_self","","生人"
"","","","","","html-keyboard-response","130","569989","0.0-14.0-0.0-1.8","null","<span class='add_' style='color:yellow; font-size: 70px;'> 太慢! </span>","null","","","","","","","","","","","","","","","","","","","","","","","feedback_test",""
"","","","","","psychophysics","131","571850","0.0-14.0-0.0-0.9","857","","j","","","","","","","","","","","","","key","j","16.6660360360365","747","463","j","true","img/C_28.png","生人","prac_self","","生人"
"","","","","","html-keyboard-response","132","572159","0.0-14.0-0.0-1.9","null","<span style='color:GreenYellow; font-size: 70px;'>正确! </span>","null","","","","","","","","","","","","","","","","","","","","","","","feedback_test",""
"","","","","","psychophysics","133","573967","0.0-14.0-0.0-0.10","807","","j","","","","","","","","","","","","","key","j","16.54031775700947","747","463","j","true","img/S_28.png","朋友","prac_self","","朋友"
"","","","","","html-keyboard-response","134","574282","0.0-14.0-0.0-1.10","null","<span style='color:GreenYellow; font-size: 70px;'>正确! </span>","null","","","","","","","","","","","","","","","","","","","","","","","feedback_test",""
"","","","","","psychophysics","135","575937","0.0-14.0-0.0-0.11","644","","f","","","","","","","","","","","","","key","f","16.666346938775767","747","463","f","true","img/H_28.png","自我","prac_self","","自我"
"","","","","","html-keyboard-response","136","576243","0.0-14.0-0.0-1.11","null","<span style='color:GreenYellow; font-size: 70px;'>正确! </span>","null","","","","","","","","","","","","","","","","","","","","","","","feedback_test",""
"","","","","","psychophysics","137","578421","0.0-14.0-0.0-0.12","1177","","d","","","","","","","","","","","","","key","d","16.666286821705434","747","463","d","true","img/H_28.png","生人","prac_self","","自我"
"","","","","","html-keyboard-response","138","578730","0.0-14.0-0.0-1.12","null","<span style='color:GreenYellow; font-size: 70px;'>正确! </span>","null","","","","","","","","","","","","","","","","","","","","","","","feedback_test",""
"","","","","","psychophysics","139","580652","0.0-14.0-0.0-0.13","918","","d","","","","","","","","","","","","","key","d","16.666201754385327","747","463","d","true","img/H_28.png","朋友","prac_self","","自我"
"","","","","","html-keyboard-response","140","580958","0.0-14.0-0.0-1.13","null","<span style='color:GreenYellow; font-size: 70px;'>正确! </span>","null","","","","","","","","","","","","","","","","","","","","","","","feedback_test",""
"","","","","","psychophysics","141","583128","0.0-14.0-0.0-0.14","1168","","k","","","","","","","","","","","","","key","k","16.557472868216976","747","463","k","true","img/S_28.png","生人","prac_self","","朋友"
"","","","","","html-keyboard-response","142","583433","0.0-14.0-0.0-1.14","null","<span style='color:GreenYellow; font-size: 70px;'>正确! </span>","null","","","","","","","","","","","","","","","","","","","","","","","feedback_test",""
"","","","","","psychophysics","143","585147","0.0-14.0-0.0-0.15","706","","f","","","","","","","","","","","","","key","f","16.66622549019681","747","463","f","true","img/H_28.png","自我","prac_self","","自我"
"","","","","","html-keyboard-response","144","585452","0.0-14.0-0.0-1.15","null","<span style='color:GreenYellow; font-size: 70px;'>正确! </span>","null","","","","","","","","","","","","","","","","","","","","","","","feedback_test",""
"","","","","","psychophysics","145","587261","0.0-14.0-0.0-0.16","801","","j","","","","","","","","","","","","","key","j","16.66629629629595","747","463","j","true","img/S_28.png","朋友","prac_self","","朋友"
"","","","","","html-keyboard-response","146","587563","0.0-14.0-0.0-1.16","null","<span style='color:GreenYellow; font-size: 70px;'>正确! </span>","null","","","","","","","","","","","","","","","","","","","","","","","feedback_test",""
"","","","","","psychophysics","147","589199","0.0-14.0-0.0-0.17","626","","j","","","","","","","","","","","","","key","j","16.666206185566743","747","463","j","true","img/S_28.png","朋友","prac_self","","朋友"
"","","","","","html-keyboard-response","148","589502","0.0-14.0-0.0-1.17","null","<span style='color:GreenYellow; font-size: 70px;'>正确! </span>","null","","","","","","","","","","","","","","","","","","","","","","","feedback_test",""
"","","","","","psychophysics","149","591557","0.0-14.0-0.0-0.18","1047","","k","","","","","","","","","","","","","key","k","16.666459016393123","747","463","k","true","img/C_28.png","自我","prac_self","","生人"
"","","","","","html-keyboard-response","150","591871","0.0-14.0-0.0-1.18","null","<span style='color:GreenYellow; font-size: 70px;'>正确! </span>","null","","","","","","","","","","","","","","","","","","","","","","","feedback_test",""
"","","","","","psychophysics","151","593838","0.0-14.0-0.0-0.19","962","","j","","","","","","","","","","","","","key","j","16.666017094017086","747","463","j","true","img/C_28.png","生人","prac_self","","生人"
"","","","","","html-keyboard-response","152","594143","0.0-14.0-0.0-1.19","null","<span style='color:GreenYellow; font-size: 70px;'>正确! </span>","null","","","","","","","","","","","","","","","","","","","","","","","feedback_test",""
"","","","","","psychophysics","153","596632","0.0-14.0-0.0-0.20","1489","","j","","","","","","","","","","","","","key","j","16.666263513513243","747","463","j","true","img/C_28.png","生人","prac_self","","生人"
"","","","","","html-keyboard-response","154","596944","0.0-14.0-0.0-1.20","null","<span style='color:GreenYellow; font-size: 70px;'>正确! </span>","null","","","","","","","","","","","","","","","","","","","","","","","feedback_test",""
"","","","","","psychophysics","155","598732","0.0-14.0-0.0-0.21","783","","f","","","","","","","","","","","","","key","f","16.666103773585625","747","463","f","true","img/H_28.png","自我","prac_self","","自我"
"","","","","","html-keyboard-response","156","599035","0.0-14.0-0.0-1.21","null","<span style='color:GreenYellow; font-size: 70px;'>正确! </span>","null","","","","","","","","","","","","","","","","","","","","","","","feedback_test",""
"","","","","","psychophysics","157","601543","0.0-14.0-0.0-0.22","null","","null","","","","","","","","","","","","","key","null","16.66627516778539","747","463","k","false","img/C_28.png","朋友","prac_self","","生人"
"","","","","","html-keyboard-response","158","601858","0.0-14.0-0.0-1.22","null","<span class='add_' style='color:yellow; font-size: 70px;'> 太慢! </span>","null","","","","","","","","","","","","","","","","","","","","","","","feedback_test",""
"","","","","","psychophysics","159","604200","0.0-14.0-0.0-0.23","1341","","d","","","","","","","","","","","","","key","d","16.66619424460449","747","463","k","false","img/S_28.png","自我","prac_self","","朋友"
"","","","","","html-keyboard-response","160","604511","0.0-14.0-0.0-1.23","null","<span style='color:red; font-size: 70px;'>错误! </span>","null","","","","","","","","","","","","","","","","","","","","","","","feedback_test",""
"","","","","","html-keyboard-response","161","613796","0.0-15.0","9283","[""<style>.context{color:white; font-size: 35px; line-height:40px}</style>           <div><p class='context'>您正确回答了71% 的试次。</p><p class='context'>您的平均反应时为953毫秒。</p><p class='context'>恭喜您完成这一阶段的练习。按任意键进入<span style='color: yellow;'>重点关注图形为“朋友”</span>的练习。</p></div><p class='footer' style='font-size:35px; line-height:30px;'>任务要求：\n           <p class='footer' style='font-size:35px; line-height:35px;'>对于与“朋友”对应的图形：如果 匹配 ，请按 <span style=\""color: lightgreen;\"">f键</span></p><p class='footer' style='font-size:35px'>如果 不匹配 ，请按<span style=\""color: lightgreen;\"">d键</p></span>\n           <p class='footer' style='font-size:35px; line-height:35px;'>对于非“朋友”对应的图形：如果 匹配 ，请按 <span style=\""color: lightgreen;\"">j键</span></p><p class='footer' style='font-size:35px'>如果 不匹配 ，请按<span style=\""color: lightgreen;\"">k键</p></span>\n           <p class='footer' style='font-size:22px; line-height:25px;'>请在实验过程中将您的<span style=\""color: lightgreen;\"">食指和中指</span>放在电脑键盘的相应键位上进行按键。</p></span>""]"," ","","","","","","","","","","","","","","","","","","","","","","","",""
"","","","","","psychophysics","162","615445","0.0-16.0-0.0-0.0","636","","f","","","","","","","","","","","","","key","f","16.666530612244376","747","463","f","true","img/S_28.png","朋友","prac_friend","","朋友"
"","","","","","html-keyboard-response","163","615750","0.0-16.0-0.0-1.0","null","<span style='color:GreenYellow; font-size: 70px;'>正确! </span>","null","","","","","","","","","","","","","","","","","","","","","","","feedback_test",""
"","","","","","psychophysics","164","618058","0.0-16.0-0.0-0.1","1300","","k","","","","","","","","","","","","","key","k","16.666000000000626","747","463","k","true","img/H_28.png","生人","prac_friend","","自我"
"","","","","","html-keyboard-response","165","618373","0.0-16.0-0.0-1.1","null","<span style='color:GreenYellow; font-size: 70px;'>正确! </span>","null","","","","","","","","","","","","","","","","","","","","","","","feedback_test",""
"","","","","","psychophysics","166","620249","0.0-16.0-0.0-0.2","874","","k","","","","","","","","","","","","","key","k","16.66622321428544","747","463","j","false","img/H_28.png","自我","prac_friend","","自我"
"","","","","","html-keyboard-response","167","620563","0.0-16.0-0.0-1.2","null","<span style='color:red; font-size: 70px;'>错误! </span>","null","","","","","","","","","","","","","","","","","","","","","","","feedback_test",""
"","","","","","psychophysics","168","622543","0.0-16.0-0.0-0.3","977","","j","","","","","","","","","","","","","key","j","16.66632203389871","747","463","j","true","img/C_28.png","生人","prac_friend","","生人"
"","","","","","html-keyboard-response","169","622858","0.0-16.0-0.0-1.3","null","<span style='color:GreenYellow; font-size: 70px;'>正确! </span>","null","","","","","","","","","","","","","","","","","","","","","","","feedback_test",""
"","","","","","psychophysics","170","624875","0.0-16.0-0.0-0.4","1004","","j","","","","","","","","","","","","","key","j","16.666277310924464","747","463","k","false","img/C_28.png","自我","prac_friend","","生人"
"","","","","","html-keyboard-response","171","625180","0.0-16.0-0.0-1.4","null","<span style='color:red; font-size: 70px;'>错误! </span>","null","","","","","","","","","","","","","","","","","","","","","","","feedback_test",""
"","","","","","psychophysics","172","627137","0.0-16.0-0.0-0.5","947","","j","","","","","","","","","","","","","key","j","16.666181034482776","747","463","j","true","img/H_28.png","自我","prac_friend","","自我"
"","","","","","html-keyboard-response","173","627445","0.0-16.0-0.0-1.5","null","<span style='color:GreenYellow; font-size: 70px;'>正确! </span>","null","","","","","","","","","","","","","","","","","","","","","","","feedback_test",""
"","","","","","psychophysics","174","629421","0.0-16.0-0.0-0.6","964","","k","","","","","","","","","","","","","key","k","16.666017094017086","747","463","k","true","img/C_28.png","朋友","prac_friend","","生人"
"","","","","","html-keyboard-response","175","629732","0.0-16.0-0.0-1.6","null","<span style='color:GreenYellow; font-size: 70px;'>正确! </span>","null","","","","","","","","","","","","","","","","","","","","","","","feedback_test",""
"","","","","","psychophysics","176","631343","0.0-16.0-0.0-0.7","604","","f","","","","","","","","","","","","","key","f","16.666229166667716","747","463","f","true","img/S_28.png","朋友","prac_friend","","朋友"
"","","","","","html-keyboard-response","177","631654","0.0-16.0-0.0-1.7","null","<span style='color:GreenYellow; font-size: 70px;'>正确! </span>","null","","","","","","","","","","","","","","","","","","","","","","","feedback_test",""
"","","","","","psychophysics","178","633617","0.0-16.0-0.0-0.8","958","","d","","","","","","","","","","","","","key","d","16.666085470085726","747","463","d","true","img/S_28.png","自我","prac_friend","","朋友"
"","","","","","html-keyboard-response","179","633920","0.0-16.0-0.0-1.8","null","<span style='color:GreenYellow; font-size: 70px;'>正确! </span>","null","","","","","","","","","","","","","","","","","","","","","","","feedback_test",""
"","","","","","psychophysics","180","635944","0.0-16.0-0.0-0.9","1022","","f","","","","","","","","","","","","","key","f","16.665966942148238","747","463","k","false","img/H_28.png","朋友","prac_friend","","自我"
"","","","","","html-keyboard-response","181","636246","0.0-16.0-0.0-1.9","null","<span style='color:red; font-size: 70px;'>错误! </span>","null","","","","","","","","","","","","","","","","","","","","","","","feedback_test",""
"","","","","","psychophysics","182","638484","0.0-16.0-0.0-0.10","1226","","k","","","","","","","","","","","","","key","k","16.666135338345136","747","463","d","false","img/S_28.png","生人","prac_friend","","朋友"
"","","","","","html-keyboard-response","183","638793","0.0-16.0-0.0-1.10","null","<span style='color:red; font-size: 70px;'>错误! </span>","null","","","","","","","","","","","","","","","","","","","","","","","feedback_test",""
"","","","","","psychophysics","184","640943","0.0-16.0-0.0-0.11","1143","","j","","","","","","","","","","","","","key","j","16.666210937499272","747","463","j","true","img/C_28.png","生人","prac_friend","","生人"
"","","","","","html-keyboard-response","185","641259","0.0-16.0-0.0-1.11","null","<span style='color:GreenYellow; font-size: 70px;'>正确! </span>","null","","","","","","","","","","","","","","","","","","","","","","","feedback_test",""
"","","","","","psychophysics","186","643434","0.0-16.0-0.0-0.12","1166","","k","","","","","","","","","","","","","key","k","16.666395348836957","747","463","k","true","img/H_28.png","朋友","prac_friend","","自我"
"","","","","","html-keyboard-response","187","643738","0.0-16.0-0.0-1.12","null","<span style='color:GreenYellow; font-size: 70px;'>正确! </span>","null","","","","","","","","","","","","","","","","","","","","","","","feedback_test",""
"","","","","","psychophysics","188","645749","0.0-16.0-0.0-0.13","1008","","j","","","","","","","","","","","","","key","j","16.665958333333645","747","463","j","true","img/H_28.png","自我","prac_friend","","自我"
"","","","","","html-keyboard-response","189","646064","0.0-16.0-0.0-1.13","null","<span style='color:GreenYellow; font-size: 70px;'>正确! </span>","null","","","","","","","","","","","","","","","","","","","","","","","feedback_test",""
"","","","","","psychophysics","190","648142","0.0-16.0-0.0-0.14","1071","","d","","","","","","","","","","","","","key","d","16.666225806451326","747","463","k","false","img/H_28.png","生人","prac_friend","","自我"
"","","","","","html-keyboard-response","191","648452","0.0-16.0-0.0-1.14","null","<span style='color:red; font-size: 70px;'>错误! </span>","null","","","","","","","","","","","","","","","","","","","","","","","feedback_test",""
"","","","","","psychophysics","192","650480","0.0-16.0-0.0-0.15","1022","","f","","","","","","","","","","","","","key","f","16.666057851239614","747","463","f","true","img/S_28.png","朋友","prac_friend","","朋友"
"","","","","","html-keyboard-response","193","650781","0.0-16.0-0.0-1.15","null","<span style='color:GreenYellow; font-size: 70px;'>正确! </span>","null","","","","","","","","","","","","","","","","","","","","","","","feedback_test",""
"","","","","","psychophysics","194","652450","0.0-16.0-0.0-0.16","661","","f","","","","","","","","","","","","","key","f","16.66609090909061","747","463","f","true","img/S_28.png","朋友","prac_friend","","朋友"
"","","","","","html-keyboard-response","195","652753","0.0-16.0-0.0-1.16","null","<span style='color:GreenYellow; font-size: 70px;'>正确! </span>","null","","","","","","","","","","","","","","","","","","","","","","","feedback_test",""
"","","","","","psychophysics","196","654906","0.0-16.0-0.0-0.17","1148","","d","","","","","","","","","","","","","key","d","16.66608593750061","747","463","d","true","img/S_28.png","自我","prac_friend","","朋友"
"","","","","","html-keyboard-response","197","655207","0.0-16.0-0.0-1.17","null","<span style='color:GreenYellow; font-size: 70px;'>正确! </span>","null","","","","","","","","","","","","","","","","","","","","","","","feedback_test",""
"","","","","","psychophysics","198","657173","0.0-16.0-0.0-0.18","965","","j","","","","","","","","","","","","","key","j","16.666077586206015","747","463","j","true","img/C_28.png","生人","prac_friend","","生人"
"","","","","","html-keyboard-response","199","657483","0.0-16.0-0.0-1.18","null","<span style='color:GreenYellow; font-size: 70px;'>正确! </span>","null","","","","","","","","","","","","","","","","","","","","","","","feedback_test",""
"","","","","","psychophysics","200","659931","0.0-16.0-0.0-0.19","1441","","k","","","","","","","","","","","","","key","k","16.666321917808588","747","463","k","true","img/C_28.png","自我","prac_friend","","生人"
"","","","","","html-keyboard-response","201","660246","0.0-16.0-0.0-1.19","null","<span style='color:GreenYellow; font-size: 70px;'>正确! </span>","null","","","","","","","","","","","","","","","","","","","","","","","feedback_test",""
"","","","","","psychophysics","202","662520","0.0-16.0-0.0-0.20","1269","","k","","","","","","","","","","","","","key","k","16.666037037037313","747","463","k","true","img/C_28.png","朋友","prac_friend","","生人"
"","","","","","html-keyboard-response","203","662828","0.0-16.0-0.0-1.20","null","<span style='color:GreenYellow; font-size: 70px;'>正确! </span>","null","","","","","","","","","","","","","","","","","","","","","","","feedback_test",""
"","","","","","psychophysics","204","664829","0.0-16.0-0.0-0.21","995","","d","","","","","","","","","","","","","key","d","16.665823529411828","747","463","d","true","img/S_28.png","生人","prac_friend","","朋友"
"","","","","","html-keyboard-response","205","665142","0.0-16.0-0.0-1.21","null","<span style='color:GreenYellow; font-size: 70px;'>正确! </span>","null","","","","","","","","","","","","","","","","","","","","","","","feedback_test",""
"","","","","","psychophysics","206","667056","0.0-16.0-0.0-0.22","906","","j","","","","","","","","","","","","","key","j","16.66628318584104","747","463","j","true","img/H_28.png","自我","prac_friend","","自我"
"","","","","","html-keyboard-response","207","667361","0.0-16.0-0.0-1.22","null","<span style='color:GreenYellow; font-size: 70px;'>正确! </span>","null","","","","","","","","","","","","","","","","","","","","","","","feedback_test",""
"","","","","","psychophysics","208","669829","0.0-16.0-0.0-0.23","1456","","j","","","","","","","","","","","","","key","j","16.66623129251692","747","463","j","true","img/C_28.png","生人","prac_friend","","生人"
"","","","","","html-keyboard-response","209","670133","0.0-16.0-0.0-1.23","null","<span style='color:GreenYellow; font-size: 70px;'>正确! </span>","null","","","","","","","","","","","","","","","","","","","","","","","feedback_test",""
"","","","","","html-keyboard-response","210","675260","0.0-17.0","5125","[""<style>.context{color:white; font-size: 35px; line-height:40px}</style>               <div><p class='context'>您正确回答了79% 的试次。</p><p class='context'>您的平均反应时为1030毫秒。</p><p class='context'>恭喜您完成这一阶段的练习。按任意键进入<span style='color: yellow;'>重点关注图形为“生人”</span>的练习。</p></div><p class='footer' style='font-size:35px; line-height:30px;'>任务要求：\n               <p class='footer' style='font-size:35px; line-height:35px;'>对与“生人”对应的图形，如果 匹配 ，请按 <span style=\""color: lightgreen;\"">f键</span></p><p class='footer' style='font-size:35px'>如果 不匹配 ，请按<span style=\""color: lightgreen;\"">d键</p></span>\n               <p class='footer' style='font-size:35px; line-height:35px;'>对非“生人”对应的图形，如果 匹配 ，请按 <span style=\""color: lightgreen;\"">j键</span></p><p class='footer' style='font-size:35px'>如果 不匹配 ，请按<span style=\""color: lightgreen;\"">k键</p></span>\n               <p class='footer' style='font-size:22px; line-height:25px;'>请在实验过程中将您的<span style=\""color: lightgreen;\"">食指和中指</span>放在电脑键盘的相应键位上进行按键。</p></span>""]"," ","","","","","","","","","","","","","","","","","","","","","","","",""
"","","","","","psychophysics","211","676930","0.0-18.0-0.0-0.0","663","","f","","","","","","","","","","","","","key","f","16.666232323231682","747","463","f","true","img/C_28.png","生人","prac_stranger","","生人"
"","","","","","html-keyboard-response","212","677247","0.0-18.0-0.0-1.0","null","<span style='color:GreenYellow; font-size: 70px;'>正确! </span>","null","","","","","","","","","","","","","","","","","","","","","","","feedback_test",""
"","","","","","psychophysics","213","679027","0.0-18.0-0.0-0.1","770","","d","","","","","","","","","","","","","key","d","16.666216981131583","747","463","d","true","img/C_28.png","朋友","prac_stranger","","生人"
"","","","","","html-keyboard-response","214","679343","0.0-18.0-0.0-1.1","null","<span style='color:GreenYellow; font-size: 70px;'>正确! </span>","null","","","","","","","","","","","","","","","","","","","","","","","feedback_test",""
"","","","","","psychophysics","215","681133","0.0-18.0-0.0-0.2","785","","j","","","","","","","","","","","","","key","j","16.6663018867927","747","463","j","true","img/S_28.png","朋友","prac_stranger","","朋友"
"","","","","","html-keyboard-response","216","681435","0.0-18.0-0.0-1.2","null","<span style='color:GreenYellow; font-size: 70px;'>正确! </span>","null","","","","","","","","","","","","","","","","","","","","","","","feedback_test",""
"","","","","","psychophysics","217","683425","0.0-18.0-0.0-0.3","985","","j","","","","","","","","","","","","","key","j","16.66621848739519","747","463","j","true","img/H_28.png","自我","prac_stranger","","自我"
"","","","","","html-keyboard-response","218","683740","0.0-18.0-0.0-1.3","null","<span style='color:GreenYellow; font-size: 70px;'>正确! </span>","null","","","","","","","","","","","","","","","","","","","","","","","feedback_test",""
"","","","","","psychophysics","219","685764","0.0-18.0-0.0-0.4","1023","","k","","","","","","","","","","","","","key","k","16.666416666667406","747","463","k","true","img/H_28.png","朋友","prac_stranger","","自我"
"","","","","","html-keyboard-response","220","686077","0.0-18.0-0.0-1.4","null","<span style='color:GreenYellow; font-size: 70px;'>正确! </span>","null","","","","","","","","","","","","","","","","","","","","","","","feedback_test",""
"","","","","","psychophysics","221","687841","0.0-18.0-0.0-0.5","758","","j","","","","","","","","","","","","","key","j","16.666285714286467","747","463","j","true","img/S_28.png","朋友","prac_stranger","","朋友"
"","","","","","html-keyboard-response","222","688150","0.0-18.0-0.0-1.5","null","<span style='color:GreenYellow; font-size: 70px;'>正确! </span>","null","","","","","","","","","","","","","","","","","","","","","","","feedback_test",""
"","","","","","psychophysics","223","690193","0.0-18.0-0.0-0.6","1037","","j","","","","","","","","","","","","","key","j","16.666434426228975","747","463","f","false","img/C_28.png","生人","prac_stranger","","生人"
"","","","","","html-keyboard-response","224","690509","0.0-18.0-0.0-1.6","null","<span style='color:red; font-size: 70px;'>错误! </span>","null","","","","","","","","","","","","","","","","","","","","","","","feedback_test",""
"","","","","","psychophysics","225","692654","0.0-18.0-0.0-0.7","1138","","k","","","","","","","","","","","","","key","k","16.666173228345937","747","463","k","true","img/S_28.png","自我","prac_stranger","","朋友"
"","","","","","html-keyboard-response","226","692963","0.0-18.0-0.0-1.7","null","<span style='color:GreenYellow; font-size: 70px;'>正确! </span>","null","","","","","","","","","","","","","","","","","","","","","","","feedback_test",""
"","","","","","psychophysics","227","695469","0.0-18.0-0.0-0.8","null","","null","","","","","","","","","","","","","key","null","16.66625503355703","747","463","k","false","img/H_28.png","生人","prac_stranger","","自我"
"","","","","","html-keyboard-response","228","695780","0.0-18.0-0.0-1.8","null","<span class='add_' style='color:yellow; font-size: 70px;'> 太慢! </span>","null","","","","","","","","","","","","","","","","","","","","","","","feedback_test",""
"","","","","","psychophysics","229","697864","0.0-18.0-0.0-0.9","1075","","k","","","","","","","","","","","","","key","k","16.666362903225462","747","463","k","true","img/S_28.png","生人","prac_stranger","","朋友"
"","","","","","html-keyboard-response","230","698171","0.0-18.0-0.0-1.9","null","<span style='color:GreenYellow; font-size: 70px;'>正确! </span>","null","","","","","","","","","","","","","","","","","","","","","","","feedback_test",""
"","","","","","psychophysics","231","699830","0.0-18.0-0.0-0.10","657","","f","","","","","","","","","","","","","key","f","16.66599999999891","747","463","d","false","img/C_28.png","自我","prac_stranger","","生人"
"","","","","","html-keyboard-response","232","700144","0.0-18.0-0.0-1.10","null","<span style='color:red; font-size: 70px;'>错误! </span>","null","","","","","","","","","","","","","","","","","","","","","","","feedback_test",""
"","","","","","psychophysics","233","702037","0.0-18.0-0.0-0.11","884","","j","","","","","","","","","","","","","key","j","16.66613392857107","747","463","j","true","img/H_28.png","自我","prac_stranger","","自我"
"","","","","","html-keyboard-response","234","702339","0.0-18.0-0.0-1.11","null","<span style='color:GreenYellow; font-size: 70px;'>正确! </span>","null","","","","","","","","","","","","","","","","","","","","","","","feedback_test",""
"","","","","","psychophysics","235","704374","0.0-18.0-0.0-0.12","1028","","j","","","","","","","","","","","","","key","j","16.66604132231321","747","463","j","true","img/S_28.png","朋友","prac_stranger","","朋友"
"","","","","","html-keyboard-response","236","704681","0.0-18.0-0.0-1.12","null","<span style='color:GreenYellow; font-size: 70px;'>正确! </span>","null","","","","","","","","","","","","","","","","","","","","","","","feedback_test",""
"","","","","","psychophysics","237","706515","0.0-18.0-0.0-0.13","825","","j","","","","","","","","","","","","","key","j","16.666357798164352","747","463","j","true","img/S_28.png","朋友","prac_stranger","","朋友"
"","","","","","html-keyboard-response","238","706818","0.0-18.0-0.0-1.13","null","<span style='color:GreenYellow; font-size: 70px;'>正确! </span>","null","","","","","","","","","","","","","","","","","","","","","","","feedback_test",""
"","","","","","psychophysics","239","708662","0.0-18.0-0.0-0.14","840","","j","","","","","","","","","","","","","key","j","16.66635454545454","747","463","j","true","img/H_28.png","自我","prac_stranger","","自我"
"","","","","","html-keyboard-response","240","708978","0.0-18.0-0.0-1.14","null","<span style='color:GreenYellow; font-size: 70px;'>正确! </span>","null","","","","","","","","","","","","","","","","","","","","","","","feedback_test",""
"","","","","","psychophysics","241","710638","0.0-18.0-0.0-0.15","649","","j","","","","","","","","","","","","","key","j","16.66621428571418","747","463","j","true","img/H_28.png","自我","prac_stranger","","自我"
"","","","","","html-keyboard-response","242","710941","0.0-18.0-0.0-1.15","null","<span style='color:GreenYellow; font-size: 70px;'>正确! </span>","null","","","","","","","","","","","","","","","","","","","","","","","feedback_test",""
"","","","","","psychophysics","243","712939","0.0-18.0-0.0-0.16","995","","d","","","","","","","","","","","","","key","d","16.666109243697417","747","463","d","true","img/C_28.png","自我","prac_stranger","","生人"
"","","","","","html-keyboard-response","244","713248","0.0-18.0-0.0-1.16","null","<span style='color:GreenYellow; font-size: 70px;'>正确! </span>","null","","","","","","","","","","","","","","","","","","","","","","","feedback_test",""
"","","","","","psychophysics","245","715051","0.0-18.0-0.0-0.17","796","","f","","","","","","","","","","","","","key","f","16.666261682243338","747","463","f","true","img/C_28.png","生人","prac_stranger","","生人"
"","","","","","html-keyboard-response","246","715357","0.0-18.0-0.0-1.17","null","<span style='color:GreenYellow; font-size: 70px;'>正确! </span>","null","","","","","","","","","","","","","","","","","","","","","","","feedback_test",""
"","","","","","psychophysics","247","717369","0.0-18.0-0.0-0.18","1005","","f","","","","","","","","","","","","","key","f","16.66615126050418","747","463","k","false","img/H_28.png","生人","prac_stranger","","自我"
"","","","","","html-keyboard-response","248","717675","0.0-18.0-0.0-1.18","null","<span style='color:red; font-size: 70px;'>错误! </span>","null","","","","","","","","","","","","","","","","","","","","","","","feedback_test",""
"","","","","","psychophysics","249","719561","0.0-18.0-0.0-0.19","882","","j","","","","","","","","","","","","","key","j","16.66609821428574","747","463","k","false","img/S_28.png","生人","prac_stranger","","朋友"
"","","","","","html-keyboard-response","250","719864","0.0-18.0-0.0-1.19","null","<span style='color:red; font-size: 70px;'>错误! </span>","null","","","","","","","","","","","","","","","","","","","","","","","feedback_test",""
"","","","","","psychophysics","251","722247","0.0-18.0-0.0-0.20","1377","","f","","","","","","","","","","","","","key","f","16.66616197183079","747","463","f","true","img/C_28.png","生人","prac_stranger","","生人"
"","","","","","html-keyboard-response","252","722549","0.0-18.0-0.0-1.20","null","<span style='color:GreenYellow; font-size: 70px;'>正确! </span>","null","","","","","","","","","","","","","","","","","","","","","","","feedback_test",""
"","","","","","psychophysics","253","724651","0.0-18.0-0.0-0.21","1096","","d","","","","","","","","","","","","","key","d","16.666271999999882","747","463","d","true","img/C_28.png","朋友","prac_stranger","","生人"
"","","","","","html-keyboard-response","254","724954","0.0-18.0-0.0-1.21","null","<span style='color:GreenYellow; font-size: 70px;'>正确! </span>","null","","","","","","","","","","","","","","","","","","","","","","","feedback_test",""
"","","","","","psychophysics","255","727147","0.0-18.0-0.0-0.22","1192","","k","","","","","","","","","","","","","key","k","16.56283076923036","747","463","k","true","img/H_28.png","朋友","prac_stranger","","自我"
"","","","","","html-keyboard-response","256","727456","0.0-18.0-0.0-1.22","null","<span style='color:GreenYellow; font-size: 70px;'>正确! </span>","null","","","","","","","","","","","","","","","","","","","","","","","feedback_test",""
"","","","","","psychophysics","257","729690","0.0-18.0-0.0-0.23","1221","","k","","","","","","","","","","","","","key","k","16.66625563909748","747","463","k","true","img/S_28.png","自我","prac_stranger","","朋友"
"","","","","","html-keyboard-response","258","729991","0.0-18.0-0.0-1.23","null","<span style='color:GreenYellow; font-size: 70px;'>正确! </span>","null","","","","","","","","","","","","","","","","","","","","","","","feedback_test",""
"","","","","","html-keyboard-response","259","734433","0.0-19.0","4441","[""<style>.context{color:white; font-size: 35px; line-height:40px}</style>                                     <div><p class='context'>您正确回答了79% 的试次。</p><p class='context'>您的平均反应时为953毫秒。</p><p class='context'>恭喜您完成练习。您可以在此时休息一段时间，准备好后按任意键进入正式实验。</p><p class='footer' style='font-size: 35px; line-height:40px;'>请在进入正式实验实验之前将您的<span style='color: lightgreen;'>食指和中指</span>放在电脑键盘的相应键位上，做好按键准备。</p>""]"," ","","","","","","","","","","","","","","","","","","","","","","","",""
"","","","","","html-keyboard-response","260","746279","0.0-20.0-1.0-0.0","11842","
                 <p>请您将食指和中指放在相应按键上，准备进入<span style='color: yellow;'>重点图形为“朋友”对应图形</span>的正式匹配任务</p>
                 <p> <div style = ""color: green""><按任意键开始></div></p>
                 "," ","","","","","","","","","","","","","","","","","","","","","","","",""
"","","","","","psychophysics","261","748567","0.0-20.0-1.0-1.0-0.0-0.0","1280","","k","","","","","","","","","","","","","key","k","16.66624264705837","747","463","d","false","img/S_28.png","自我","friend","","朋友"
"","","","","","html-keyboard-response","262","748868","0.0-20.0-1.0-1.0-0.0-1.0","null","<span style='color:red; font-size: 70px;'>错误! </span>","null","","","","","","","","","","","","","","","","","","","","","","","feedback_test",""
"","","","","","psychophysics","263","750920","0.0-20.0-1.0-1.0-0.0-0.1","1049","","k","","","","","","","","","","","","","key","k","16.666065573770567","747","463","k","true","img/H_28.png","生人","friend","","自我"
"","","","","","html-keyboard-response","264","751227","0.0-20.0-1.0-1.0-0.0-1.1","null","<span style='color:GreenYellow; font-size: 70px;'>正确! </span>","null","","","","","","","","","","","","","","","","","","","","","","","feedback_test",""
"","","","","","psychophysics","265","752841","0.0-20.0-1.0-1.0-0.0-0.2","603","","f","","","","","","","","","","","","","key","f","16.665989583332703","747","463","f","true","img/S_28.png","朋友","friend","","朋友"
"","","","","","html-keyboard-response","266","753148","0.0-20.0-1.0-1.0-0.0-1.2","null","<span style='color:GreenYellow; font-size: 70px;'>正确! </span>","null","","","","","","","","","","","","","","","","","","","","","","","feedback_test",""
"","","","","","psychophysics","267","755200","0.0-20.0-1.0-1.0-0.0-0.3","1049","","j","","","","","","","","","","","","","key","j","16.666155737704507","747","463","j","true","img/C_28.png","生人","friend","","生人"
"","","","","","html-keyboard-response","268","755515","0.0-20.0-1.0-1.0-0.0-1.3","null","<span style='color:GreenYellow; font-size: 70px;'>正确! </span>","null","","","","","","","","","","","","","","","","","","","","","","","feedback_test",""
"","","","","","psychophysics","269","757166","0.0-20.0-1.0-1.0-0.0-0.4","646","","f","","","","","","","","","","","","","key","f","16.66610204081683","747","463","f","true","img/S_28.png","朋友","friend","","朋友"
"","","","","","html-keyboard-response","270","757473","0.0-20.0-1.0-1.0-0.0-1.4","null","<span style='color:GreenYellow; font-size: 70px;'>正确! </span>","null","","","","","","","","","","","","","","","","","","","","","","","feedback_test",""
"","","","","","psychophysics","271","759213","0.0-20.0-1.0-1.0-0.0-0.5","737","","j","","","","","","","","","","","","","key","j","16.666067961164867","747","463","j","true","img/H_28.png","自我","friend","","自我"
"","","","","","html-keyboard-response","272","759528","0.0-20.0-1.0-1.0-0.0-1.5","null","<span style='color:GreenYellow; font-size: 70px;'>正确! </span>","null","","","","","","","","","","","","","","","","","","","","","","","feedback_test",""
"","","","","","psychophysics","273","761419","0.0-20.0-1.0-1.0-0.0-0.6","882","","k","","","","","","","","","","","","","key","k","16.666241071428107","747","463","k","true","img/C_28.png","朋友","friend","","生人"
"","","","","","html-keyboard-response","274","761726","0.0-20.0-1.0-1.0-0.0-1.6","null","<span style='color:GreenYellow; font-size: 70px;'>正确! </span>","null","","","","","","","","","","","","","","","","","","","","","","","feedback_test",""
"","","","","","psychophysics","275","763556","0.0-20.0-1.0-1.0-0.0-0.7","823","","j","","","","","","","","","","","","","key","j","16.666027522935327","747","463","j","true","img/C_28.png","生人","friend","","生人"
"","","","","","html-keyboard-response","276","763865","0.0-20.0-1.0-1.0-0.0-1.7","null","<span style='color:GreenYellow; font-size: 70px;'>正确! </span>","null","","","","","","","","","","","","","","","","","","","","","","","feedback_test",""
"","","","","","psychophysics","277","765827","0.0-20.0-1.0-1.0-0.0-0.8","957","","k","","","","","","","","","","","","","key","k","16.664076923077296","747","463","k","true","img/H_28.png","朋友","friend","","自我"
"","","","","","html-keyboard-response","278","766143","0.0-20.0-1.0-1.0-0.0-1.8","null","<span style='color:GreenYellow; font-size: 70px;'>正确! </span>","null","","","","","","","","","","","","","","","","","","","","","","","feedback_test",""
"","","","","","psychophysics","279","768193","0.0-20.0-1.0-1.0-0.0-0.9","1043","","k","","","","","","","","","","","","","key","k","16.666090163934715","747","463","k","true","img/C_28.png","自我","friend","","生人"
"","","","","","html-keyboard-response","280","768501","0.0-20.0-1.0-1.0-0.0-1.9","null","<span style='color:GreenYellow; font-size: 70px;'>正确! </span>","null","","","","","","","","","","","","","","","","","","","","","","","feedback_test",""
"","","","","","psychophysics","281","770504","0.0-20.0-1.0-1.0-0.0-0.10","1001","","j","","","","","","","","","","","","","key","j","16.666008333333107","747","463","j","true","img/H_28.png","自我","friend","","自我"
"","","","","","html-keyboard-response","282","770814","0.0-20.0-1.0-1.0-0.0-1.10","null","<span style='color:GreenYellow; font-size: 70px;'>正确! </span>","null","","","","","","","","","","","","","","","","","","","","","","","feedback_test",""
"","","","","","psychophysics","283","772792","0.0-20.0-1.0-1.0-0.0-0.11","972","","k","","","","","","","","","","","","","key","k","16.66654237288137","747","463","d","false","img/S_28.png","生人","friend","","朋友"
"","","","","","html-keyboard-response","284","773095","0.0-20.0-1.0-1.0-0.0-1.11","null","<span style='color:red; font-size: 70px;'>错误! </span>","null","","","","","","","","","","","","","","","","","","","","","","","feedback_test",""
"","","","","","psychophysics","285","775194","0.0-20.0-1.0-1.0-0.0-0.12","1091","","j","","","","","","","","","","","","","key","j","16.666327999999748","747","463","j","true","img/H_28.png","自我","friend","","自我"
"","","","","","html-keyboard-response","286","775506","0.0-20.0-1.0-1.0-0.0-1.12","null","<span style='color:GreenYellow; font-size: 70px;'>正确! </span>","null","","","","","","","","","","","","","","","","","","","","","","","feedback_test",""
"","","","","","psychophysics","287","777483","0.0-20.0-1.0-1.0-0.0-0.13","968","","k","","","","","","","","","","","","","key","k","16.666299145298606","747","463","k","true","img/H_28.png","生人","friend","","自我"
"","","","","","html-keyboard-response","288","777787","0.0-20.0-1.0-1.0-0.0-1.13","null","<span style='color:GreenYellow; font-size: 70px;'>正确! </span>","null","","","","","","","","","","","","","","","","","","","","","","","feedback_test",""
"","","","","","psychophysics","289","779995","0.0-20.0-1.0-1.0-0.0-0.14","1207","","k","","","","","","","","","","","","","key","k","16.665923664122392","747","463","k","true","img/H_28.png","朋友","friend","","自我"
"","","","","","html-keyboard-response","290","780300","0.0-20.0-1.0-1.0-0.0-1.14","null","<span style='color:GreenYellow; font-size: 70px;'>正确! </span>","null","","","","","","","","","","","","","","","","","","","","","","","feedback_test",""
"","","","","","psychophysics","291","782141","0.0-20.0-1.0-1.0-0.0-0.15","838","","d","","","","","","","","","","","","","key","d","16.665927272727078","747","463","d","true","img/S_28.png","生人","friend","","朋友"
"","","","","","html-keyboard-response","292","782443","0.0-20.0-1.0-1.0-0.0-1.15","null","<span style='color:GreenYellow; font-size: 70px;'>正确! </span>","null","","","","","","","","","","","","","","","","","","","","","","","feedback_test",""
"","","","","","psychophysics","293","784460","0.0-20.0-1.0-1.0-0.0-0.16","1008","","k","","","","","","","","","","","","","key","k","16.66635833333324","747","463","k","true","img/C_28.png","朋友","friend","","生人"
"","","","","","html-keyboard-response","294","784769","0.0-20.0-1.0-1.0-0.0-1.16","null","<span style='color:GreenYellow; font-size: 70px;'>正确! </span>","null","","","","","","","","","","","","","","","","","","","","","","","feedback_test",""
"","","","","","psychophysics","295","786591","0.0-20.0-1.0-1.0-0.0-0.17","821","","d","","","","","","","","","","","","","key","d","16.66631481481535","747","463","d","true","img/S_28.png","自我","friend","","朋友"
"","","","","","html-keyboard-response","296","786895","0.0-20.0-1.0-1.0-0.0-1.17","null","<span style='color:GreenYellow; font-size: 70px;'>正确! </span>","null","","","","","","","","","","","","","","","","","","","","","","","feedback_test",""
"","","","","","psychophysics","297","788638","0.0-20.0-1.0-1.0-0.0-0.18","735","","f","","","","","","","","","","","","","key","f","16.666269230769384","747","463","f","true","img/S_28.png","朋友","friend","","朋友"
"","","","","","html-keyboard-response","298","788950","0.0-20.0-1.0-1.0-0.0-1.18","null","<span style='color:GreenYellow; font-size: 70px;'>正确! </span>","null","","","","","","","","","","","","","","","","","","","","","","","feedback_test",""
"","","","","","psychophysics","299","790624","0.0-20.0-1.0-1.0-0.0-0.19","671","","f","","","","","","","","","","","","","key","f","16.666199999999954","747","463","f","true","img/S_28.png","朋友","friend","","朋友"
"","","","","","html-keyboard-response","300","790935","0.0-20.0-1.0-1.0-0.0-1.19","null","<span style='color:GreenYellow; font-size: 70px;'>正确! </span>","null","","","","","","","","","","","","","","","","","","","","","","","feedback_test",""
"","","","","","psychophysics","301","792942","0.0-20.0-1.0-1.0-0.0-0.20","1006","","j","","","","","","","","","","","","","key","j","16.553235294118313","747","463","j","true","img/H_28.png","自我","friend","","自我"
"","","","","","html-keyboard-response","302","793251","0.0-20.0-1.0-1.0-0.0-1.20","null","<span style='color:GreenYellow; font-size: 70px;'>正确! </span>","null","","","","","","","","","","","","","","","","","","","","","","","feedback_test",""
"","","","","","psychophysics","303","795369","0.0-20.0-1.0-1.0-0.0-0.21","1116","","j","","","","","","","","","","","","","key","j","16.666214285714048","747","463","j","true","img/C_28.png","生人","friend","","生人"
"","","","","","html-keyboard-response","304","795676","0.0-20.0-1.0-1.0-0.0-1.21","null","<span style='color:GreenYellow; font-size: 70px;'>正确! </span>","null","","","","","","","","","","","","","","","","","","","","","","","feedback_test",""
"","","","","","psychophysics","305","797582","0.0-20.0-1.0-1.0-0.0-0.22","897","","k","","","","","","","","","","","","","key","k","16.66617699115088","747","463","k","true","img/C_28.png","自我","friend","","生人"
"","","","","","html-keyboard-response","306","797894","0.0-20.0-1.0-1.0-0.0-1.22","null","<span style='color:GreenYellow; font-size: 70px;'>正确! </span>","null","","","","","","","","","","","","","","","","","","","","","","","feedback_test",""
"","","","","","psychophysics","307","800054","0.0-20.0-1.0-1.0-0.0-0.23","1159","","j","","","","","","","","","","","","","key","j","16.666209302325516","747","463","j","true","img/C_28.png","生人","friend","","生人"
"","","","","","html-keyboard-response","308","800367","0.0-20.0-1.0-1.0-0.0-1.23","null","<span style='color:GreenYellow; font-size: 70px;'>正确! </span>","null","","","","","","","","","","","","","","","","","","","","","","","feedback_test",""
"","","","","","psychophysics","309","802461","0.0-20.0-1.0-1.0-0.0-0.24","1091","","j","","","","","","","","","","","","","key","j","16.66626400000043","747","463","j","true","img/H_28.png","自我","friend","","自我"
"","","","","","html-keyboard-response","310","802768","0.0-20.0-1.0-1.0-0.0-1.24","null","<span style='color:GreenYellow; font-size: 70px;'>正确! </span>","null","","","","","","","","","","","","","","","","","","","","","","","feedback_test",""
"","","","","","psychophysics","311","804696","0.0-20.0-1.0-1.0-0.0-0.25","927","","j","","","","","","","","","","","","","key","j","16.555596491227973","747","463","j","true","img/C_28.png","生人","friend","","生人"
"","","","","","html-keyboard-response","312","805003","0.0-20.0-1.0-1.0-0.0-1.25","null","<span style='color:GreenYellow; font-size: 70px;'>正确! </span>","null","","","","","","","","","","","","","","","","","","","","","","","feedback_test",""
"","","","","","psychophysics","313","806659","0.0-20.0-1.0-1.0-0.0-0.26","648","","f","","","","","","","","","","","","","key","f","16.66606122448955","747","463","f","true","img/S_28.png","朋友","friend","","朋友"
"","","","","","html-keyboard-response","314","806967","0.0-20.0-1.0-1.0-0.0-1.26","null","<span style='color:GreenYellow; font-size: 70px;'>正确! </span>","null","","","","","","","","","","","","","","","","","","","","","","","feedback_test",""
"","","","","","psychophysics","315","808913","0.0-20.0-1.0-1.0-0.0-0.27","944","","d","","","","","","","","","","","","","key","d","16.666224137931092","747","463","d","true","img/S_28.png","生人","friend","","朋友"
"","","","","","html-keyboard-response","316","809219","0.0-20.0-1.0-1.0-0.0-1.27","null","<span style='color:GreenYellow; font-size: 70px;'>正确! </span>","null","","","","","","","","","","","","","","","","","","","","","","","feedback_test",""
"","","","","","psychophysics","317","811105","0.0-20.0-1.0-1.0-0.0-0.28","886","","j","","","","","","","","","","","","","key","j","16.665991071428703","747","463","j","true","img/C_28.png","生人","friend","","生人"
"","","","","","html-keyboard-response","318","811416","0.0-20.0-1.0-1.0-0.0-1.28","null","<span style='color:GreenYellow; font-size: 70px;'>正确! </span>","null","","","","","","","","","","","","","","","","","","","","","","","feedback_test",""
"","","","","","psychophysics","319","813162","0.0-20.0-1.0-1.0-0.0-0.29","743","","f","","","","","","","","","","","","","key","f","16.666201923077235","747","463","f","true","img/S_28.png","朋友","friend","","朋友"
"","","","","","html-keyboard-response","320","813465","0.0-20.0-1.0-1.0-0.0-1.29","null","<span style='color:GreenYellow; font-size: 70px;'>正确! </span>","null","","","","","","","","","","","","","","","","","","","","","","","feedback_test",""
"","","","","","psychophysics","321","815348","0.0-20.0-1.0-1.0-0.0-0.30","879","","k","","","","","","","","","","","","","key","k","16.66635714285699","747","463","j","false","img/H_28.png","自我","friend","","自我"
"","","","","","html-keyboard-response","322","815660","0.0-20.0-1.0-1.0-0.0-1.30","null","<span style='color:red; font-size: 70px;'>错误! </span>","null","","","","","","","","","","","","","","","","","","","","","","","feedback_test",""
"","","","","","psychophysics","323","817718","0.0-20.0-1.0-1.0-0.0-0.31","1049","","k","","","","","","","","","","","","","key","k","16.666155737704507","747","463","k","true","img/H_28.png","生人","friend","","自我"
"","","","","","html-keyboard-response","324","818019","0.0-20.0-1.0-1.0-0.0-1.31","null","<span style='color:GreenYellow; font-size: 70px;'>正确! </span>","null","","","","","","","","","","","","","","","","","","","","","","","feedback_test",""
"","","","","","psychophysics","325","819743","0.0-20.0-1.0-1.0-0.0-0.32","724","","d","","","","","","","","","","","","","key","d","16.666509803920967","747","463","k","false","img/C_28.png","朋友","friend","","生人"
"","","","","","html-keyboard-response","326","820049","0.0-20.0-1.0-1.0-0.0-1.32","null","<span style='color:red; font-size: 70px;'>错误! </span>","null","","","","","","","","","","","","","","","","","","","","","","","feedback_test",""
"","","","","","psychophysics","327","822031","0.0-20.0-1.0-1.0-0.0-0.33","979","","d","","","","","","","","","","","","","key","d","16.666194915253534","747","463","d","true","img/S_28.png","自我","friend","","朋友"
"","","","","","html-keyboard-response","328","822336","0.0-20.0-1.0-1.0-0.0-1.33","null","<span style='color:GreenYellow; font-size: 70px;'>正确! </span>","null","","","","","","","","","","","","","","","","","","","","","","","feedback_test",""
"","","","","","psychophysics","329","824367","0.0-20.0-1.0-1.0-0.0-0.34","1019","","k","","","","","","","","","","","","","key","k","16.66589999999948","747","463","k","true","img/H_28.png","朋友","friend","","自我"
"","","","","","html-keyboard-response","330","824672","0.0-20.0-1.0-1.0-0.0-1.34","null","<span style='color:GreenYellow; font-size: 70px;'>正确! </span>","null","","","","","","","","","","","","","","","","","","","","","","","feedback_test",""
"","","","","","psychophysics","331","826920","0.0-20.0-1.0-1.0-0.0-0.35","1242","","k","","","","","","","","","","","","","key","k","16.666231343283755","747","463","k","true","img/C_28.png","自我","friend","","生人"
"","","","","","html-keyboard-response","332","827236","0.0-20.0-1.0-1.0-0.0-1.35","null","<span style='color:GreenYellow; font-size: 70px;'>正确! </span>","null","","","","","","","","","","","","","","","","","","","","","","","feedback_test",""
"","","","","","psychophysics","333","828932","0.0-20.0-1.0-1.0-0.0-0.36","686","","f","","","","","","","","","","","","","key","f","16.66621000000043","747","463","f","true","img/S_28.png","朋友","friend","","朋友"
"","","","","","html-keyboard-response","334","829240","0.0-20.0-1.0-1.0-0.0-1.36","null","<span style='color:GreenYellow; font-size: 70px;'>正确! </span>","null","","","","","","","","","","","","","","","","","","","","","","","feedback_test",""
"","","","","","psychophysics","335","831129","0.0-20.0-1.0-1.0-0.0-0.37","878","","k","","","","","","","","","","","","","key","k","16.66618750000011","747","463","d","false","img/S_28.png","生人","friend","","朋友"
"","","","","","html-keyboard-response","336","831433","0.0-20.0-1.0-1.0-0.0-1.37","null","<span style='color:red; font-size: 70px;'>错误! </span>","null","","","","","","","","","","","","","","","","","","","","","","","feedback_test",""
"","","","","","psychophysics","337","833337","0.0-20.0-1.0-1.0-0.0-0.38","902","","j","","","","","","","","","","","","","key","j","16.666149122806942","747","463","j","true","img/C_28.png","生人","friend","","生人"
"","","","","","html-keyboard-response","338","833652","0.0-20.0-1.0-1.0-0.0-1.38","null","<span style='color:GreenYellow; font-size: 70px;'>正确! </span>","null","","","","","","","","","","","","","","","","","","","","","","","feedback_test",""
"","","","","","psychophysics","339","835787","0.0-20.0-1.0-1.0-0.0-0.39","1124","","k","","","","","","","","","","","","","key","k","16.666015748031747","747","463","k","true","img/C_28.png","自我","friend","","生人"
"","","","","","html-keyboard-response","340","836095","0.0-20.0-1.0-1.0-0.0-1.39","null","<span style='color:GreenYellow; font-size: 70px;'>正确! </span>","null","","","","","","","","","","","","","","","","","","","","","","","feedback_test",""
"","","","","","psychophysics","341","837858","0.0-20.0-1.0-1.0-0.0-0.40","757","","j","","","","","","","","","","","","","key","j","16.666447619047194","747","463","j","true","img/H_28.png","自我","friend","","自我"
"","","","","","html-keyboard-response","342","838166","0.0-20.0-1.0-1.0-0.0-1.40","null","<span style='color:GreenYellow; font-size: 70px;'>正确! </span>","null","","","","","","","","","","","","","","","","","","","","","","","feedback_test",""
"","","","","","psychophysics","343","840179","0.0-20.0-1.0-1.0-0.0-0.41","1011","","d","","","","","","","","","","","","","key","d","16.66617499999993","747","463","k","false","img/H_28.png","朋友","friend","","自我"
"","","","","","html-keyboard-response","344","840492","0.0-20.0-1.0-1.0-0.0-1.41","null","<span style='color:red; font-size: 70px;'>错误! </span>","null","","","","","","","","","","","","","","","","","","","","","","","feedback_test",""
"","","","","","psychophysics","345","842691","0.0-20.0-1.0-1.0-0.0-0.42","1192","","k","","","","","","","","","","","","","key","k","16.66622900763324","747","463","k","true","img/C_28.png","朋友","friend","","生人"
"","","","","","html-keyboard-response","346","843002","0.0-20.0-1.0-1.0-0.0-1.42","null","<span style='color:GreenYellow; font-size: 70px;'>正确! </span>","null","","","","","","","","","","","","","","","","","","","","","","","feedback_test",""
"","","","","","psychophysics","347","844871","0.0-20.0-1.0-1.0-0.0-0.43","869","","j","","","","","","","","","","","","","key","j","16.666180180181197","747","463","j","true","img/H_28.png","自我","friend","","自我"
"","","","","","html-keyboard-response","348","845184","0.0-20.0-1.0-1.0-0.0-1.43","null","<span style='color:GreenYellow; font-size: 70px;'>正确! </span>","null","","","","","","","","","","","","","","","","","","","","","","","feedback_test",""
"","","","","","psychophysics","349","847143","0.0-20.0-1.0-1.0-0.0-0.44","959","","k","","","","","","","","","","","","","key","k","16.548793103448556","747","463","k","true","img/H_28.png","生人","friend","","自我"
"","","","","","html-keyboard-response","350","847452","0.0-20.0-1.0-1.0-0.0-1.44","null","<span style='color:GreenYellow; font-size: 70px;'>正确! </span>","null","","","","","","","","","","","","","","","","","","","","","","","feedback_test",""
"","","","","","psychophysics","351","849454","0.0-20.0-1.0-1.0-0.0-0.45","994","","d","","","","","","","","","","","","","key","d","16.666310924369483","747","463","d","true","img/S_28.png","自我","friend","","朋友"
"","","","","","html-keyboard-response","352","849763","0.0-20.0-1.0-1.0-0.0-1.45","null","<span style='color:GreenYellow; font-size: 70px;'>正确! </span>","null","","","","","","","","","","","","","","","","","","","","","","","feedback_test",""
"","","","","","psychophysics","353","851667","0.0-20.0-1.0-1.0-0.0-0.46","899","","f","","","","","","","","","","","","","key","f","16.6663628318584","747","463","f","true","img/S_28.png","朋友","friend","","朋友"
"","","","","","html-keyboard-response","354","851972","0.0-20.0-1.0-1.0-0.0-1.46","null","<span style='color:GreenYellow; font-size: 70px;'>正确! </span>","null","","","","","","","","","","","","","","","","","","","","","","","feedback_test",""
"","","","","","psychophysics","355","854096","0.0-20.0-1.0-1.0-0.0-0.47","1119","","j","","","","","","","","","","","","","key","j","16.66612698412722","747","463","j","true","img/C_28.png","生人","friend","","生人"
"","","","","","html-keyboard-response","356","854405","0.0-20.0-1.0-1.0-0.0-1.47","null","<span style='color:GreenYellow; font-size: 70px;'>正确! </span>","null","","","","","","","","","","","","","","","","","","","","","","","feedback_test",""
"","","","","","psychophysics","357","856453","0.0-20.0-1.0-1.0-0.0-0.48","1038","","d","","","","","","","","","","","","","key","d","16.666409836065778","747","463","d","true","img/S_28.png","生人","friend","","朋友"
"","","","","","html-keyboard-response","358","856767","0.0-20.0-1.0-1.0-0.0-1.48","null","<span style='color:GreenYellow; font-size: 70px;'>正确! </span>","null","","","","","","","","","","","","","","","","","","","","","","","feedback_test",""
"","","","","","psychophysics","359","858605","0.0-20.0-1.0-1.0-0.0-0.49","836","","k","","","","","","","","","","","","","key","k","16.666256880733705","747","463","j","false","img/H_28.png","自我","friend","","自我"
"","","","","","html-keyboard-response","360","858909","0.0-20.0-1.0-1.0-0.0-1.49","null","<span style='color:red; font-size: 70px;'>错误! </span>","null","","","","","","","","","","","","","","","","","","","","","","","feedback_test",""
"","","","","","psychophysics","361","860671","0.0-20.0-1.0-1.0-0.0-0.50","754","","f","","","","","","","","","","","","","key","f","16.666266666667624","747","463","f","true","img/S_28.png","朋友","friend","","朋友"
"","","","","","html-keyboard-response","362","860974","0.0-20.0-1.0-1.0-0.0-1.50","null","<span style='color:GreenYellow; font-size: 70px;'>正确! </span>","null","","","","","","","","","","","","","","","","","","","","","","","feedback_test",""
"","","","","","psychophysics","363","863073","0.0-20.0-1.0-1.0-0.0-0.51","1091","","d","","","","","","","","","","","","","key","d","16.666184000000356","747","463","d","true","img/S_28.png","自我","friend","","朋友"
"","","","","","html-keyboard-response","364","863377","0.0-20.0-1.0-1.0-0.0-1.51","null","<span style='color:GreenYellow; font-size: 70px;'>正确! </span>","null","","","","","","","","","","","","","","","","","","","","","","","feedback_test",""
"","","","","","psychophysics","365","865113","0.0-20.0-1.0-1.0-0.0-0.52","729","","j","","","","","","","","","","","","","key","j","16.666330097087215","747","463","j","true","img/C_28.png","生人","friend","","生人"
"","","","","","html-keyboard-response","366","865415","0.0-20.0-1.0-1.0-0.0-1.52","null","<span style='color:GreenYellow; font-size: 70px;'>正确! </span>","null","","","","","","","","","","","","","","","","","","","","","","","feedback_test",""
"","","","","","psychophysics","367","867305","0.0-20.0-1.0-1.0-0.0-0.53","888","","d","","","","","","","","","","","","","key","d","16.66659292035357","747","463","k","false","img/H_28.png","朋友","friend","","自我"
"","","","","","html-keyboard-response","368","867612","0.0-20.0-1.0-1.0-0.0-1.53","null","<span style='color:red; font-size: 70px;'>错误! </span>","null","","","","","","","","","","","","","","","","","","","","","","","feedback_test",""
"","","","","","psychophysics","369","869968","0.0-20.0-1.0-1.0-0.0-0.54","1350","","k","","","","","","","","","","","","","key","k","16.66638297872314","747","463","k","true","img/H_28.png","生人","friend","","自我"
"","","","","","html-keyboard-response","370","870280","0.0-20.0-1.0-1.0-0.0-1.54","null","<span style='color:GreenYellow; font-size: 70px;'>正确! </span>","null","","","","","","","","","","","","","","","","","","","","","","","feedback_test",""
"","","","","","psychophysics","371","871867","0.0-20.0-1.0-1.0-0.0-0.55","585","","f","","","","","","","","","","","","","key","f","16.66585106383068","747","463","f","true","img/S_28.png","朋友","friend","","朋友"
"","","","","","html-keyboard-response","372","872175","0.0-20.0-1.0-1.0-0.0-1.55","null","<span style='color:GreenYellow; font-size: 70px;'>正确! </span>","null","","","","","","","","","","","","","","","","","","","","","","","feedback_test",""
"","","","","","psychophysics","373","874030","0.0-20.0-1.0-1.0-0.0-0.56","846","","j","","","","","","","","","","","","","key","j","16.66609090909108","747","463","j","true","img/C_28.png","生人","friend","","生人"
"","","","","","html-keyboard-response","374","874334","0.0-20.0-1.0-1.0-0.0-1.56","null","<span style='color:GreenYellow; font-size: 70px;'>正确! </span>","null","","","","","","","","","","","","","","","","","","","","","","","feedback_test",""
"","","","","","psychophysics","375","876456","0.0-20.0-1.0-1.0-0.0-0.57","1122","","k","","","","","","","","","","","","","key","k","16.66604761904778","747","463","k","true","img/C_28.png","朋友","friend","","生人"
"","","","","","html-keyboard-response","376","876773","0.0-20.0-1.0-1.0-0.0-1.57","null","<span style='color:GreenYellow; font-size: 70px;'>正确! </span>","null","","","","","","","","","","","","","","","","","","","","","","","feedback_test",""
"","","","","","psychophysics","377","878792","0.0-20.0-1.0-1.0-0.0-0.58","1008","","j","","","","","","","","","","","","","key","j","16.666066666666303","747","463","j","true","img/H_28.png","自我","friend","","自我"
"","","","","","html-keyboard-response","378","879107","0.0-20.0-1.0-1.0-0.0-1.58","null","<span style='color:GreenYellow; font-size: 70px;'>正确! </span>","null","","","","","","","","","","","","","","","","","","","","","","","feedback_test",""
"","","","","","psychophysics","379","881130","0.0-20.0-1.0-1.0-0.0-0.59","1015","","k","","","","","","","","","","","","","key","k","16.666133333334194","747","463","k","true","img/C_28.png","自我","friend","","生人"
"","","","","","html-keyboard-response","380","881438","0.0-20.0-1.0-1.0-0.0-1.59","null","<span style='color:GreenYellow; font-size: 70px;'>正确! </span>","null","","","","","","","","","","","","","","","","","","","","","","","feedback_test",""
"","","","","","psychophysics","381","883517","0.0-20.0-1.0-1.0-0.0-0.60","1071","","j","","","","","","","","","","","","","key","j","16.666325203251905","747","463","j","true","img/H_28.png","自我","friend","","自我"
"","","","","","html-keyboard-response","382","883833","0.0-20.0-1.0-1.0-0.0-1.60","null","<span style='color:GreenYellow; font-size: 70px;'>正确! </span>","null","","","","","","","","","","","","","","","","","","","","","","","feedback_test",""
"","","","","","psychophysics","383","885804","0.0-20.0-1.0-1.0-0.0-0.61","970","","f","","","","","","","","","","","","","key","f","16.553666666666498","747","463","f","true","img/S_28.png","朋友","friend","","朋友"
"","","","","","html-keyboard-response","384","886113","0.0-20.0-1.0-1.0-0.0-1.61","null","<span style='color:GreenYellow; font-size: 70px;'>正确! </span>","null","","","","","","","","","","","","","","","","","","","","","","","feedback_test",""
"","","","","","psychophysics","385","887881","0.0-20.0-1.0-1.0-0.0-0.62","764","","j","","","","","","","","","","","","","key","j","16.666619047620113","747","463","j","true","img/H_28.png","自我","friend","","自我"
"","","","","","html-keyboard-response","386","888196","0.0-20.0-1.0-1.0-0.0-1.62","null","<span style='color:GreenYellow; font-size: 70px;'>正确! </span>","null","","","","","","","","","","","","","","","","","","","","","","","feedback_test",""
"","","","","","psychophysics","387","890421","0.0-20.0-1.0-1.0-0.0-0.63","1224","","k","","","","","","","","","","","","","key","k","16.6662706766913","747","463","k","true","img/H_28.png","生人","friend","","自我"
"","","","","","html-keyboard-response","388","890725","0.0-20.0-1.0-1.0-0.0-1.63","null","<span style='color:GreenYellow; font-size: 70px;'>正确! </span>","null","","","","","","","","","","","","","","","","","","","","","","","feedback_test",""
"","","","","","psychophysics","389","892395","0.0-20.0-1.0-1.0-0.0-0.64","664","","f","","","","","","","","","","","","","key","f","16.666171717171725","747","463","f","true","img/S_28.png","朋友","friend","","朋友"
"","","","","","html-keyboard-response","390","892706","0.0-20.0-1.0-1.0-0.0-1.64","null","<span style='color:GreenYellow; font-size: 70px;'>正确! </span>","null","","","","","","","","","","","","","","","","","","","","","","","feedback_test",""
"","","","","","psychophysics","391","894961","0.0-20.0-1.0-1.0-0.0-0.65","1248","","k","","","","","","","","","","","","","key","k","16.66624626865673","747","463","k","true","img/H_28.png","朋友","friend","","自我"
"","","","","","html-keyboard-response","392","895273","0.0-20.0-1.0-1.0-0.0-1.65","null","<span style='color:GreenYellow; font-size: 70px;'>正确! </span>","null","","","","","","","","","","","","","","","","","","","","","","","feedback_test",""
"","","","","","psychophysics","393","897574","0.0-20.0-1.0-1.0-0.0-0.66","1298","","d","","","","","","","","","","","","","key","d","16.66623357664216","747","463","d","true","img/S_28.png","生人","friend","","朋友"
"","","","","","html-keyboard-response","394","897875","0.0-20.0-1.0-1.0-0.0-1.66","null","<span style='color:GreenYellow; font-size: 70px;'>正确! </span>","null","","","","","","","","","","","","","","","","","","","","","","","feedback_test",""
"","","","","","psychophysics","395","899751","0.0-20.0-1.0-1.0-0.0-0.67","868","","j","","","","","","","","","","","","","key","j","16.66631249999981","747","463","j","true","img/C_28.png","生人","friend","","生人"
"","","","","","html-keyboard-response","396","900053","0.0-20.0-1.0-1.0-0.0-1.67","null","<span style='color:GreenYellow; font-size: 70px;'>正确! </span>","null","","","","","","","","","","","","","","","","","","","","","","","feedback_test",""
"","","","","","psychophysics","397","902162","0.0-20.0-1.0-1.0-0.0-0.68","1103","","j","","","","","","","","","","","","","key","j","16.666224000000394","747","463","k","false","img/C_28.png","自我","friend","","生人"
"","","","","","html-keyboard-response","398","902475","0.0-20.0-1.0-1.0-0.0-1.68","null","<span style='color:red; font-size: 70px;'>错误! </span>","null","","","","","","","","","","","","","","","","","","","","","","","feedback_test",""
"","","","","","psychophysics","399","904260","0.0-20.0-1.0-1.0-0.0-0.69","777","","j","","","","","","","","","","","","","key","j","16.666226415094297","747","463","j","true","img/C_28.png","生人","friend","","生人"
"","","","","","html-keyboard-response","400","904568","0.0-20.0-1.0-1.0-0.0-1.69","null","<span style='color:GreenYellow; font-size: 70px;'>正确! </span>","null","","","","","","","","","","","","","","","","","","","","","","","feedback_test",""
"","","","","","psychophysics","401","906679","0.0-20.0-1.0-1.0-0.0-0.70","1097","","k","","","","","","","","","","","","","key","k","16.666327999999748","747","463","d","false","img/S_28.png","自我","friend","","朋友"
"","","","","","html-keyboard-response","402","906993","0.0-20.0-1.0-1.0-0.0-1.70","null","<span style='color:red; font-size: 70px;'>错误! </span>","null","","","","","","","","","","","","","","","","","","","","","","","feedback_test",""
"","","","","","psychophysics","403","909348","0.0-20.0-1.0-1.0-0.0-0.71","1348","","k","","","","","","","","","","","","","key","k","16.666292857142565","747","463","k","true","img/C_28.png","朋友","friend","","生人"
"","","","","","html-keyboard-response","404","909663","0.0-20.0-1.0-1.0-0.0-1.71","null","<span style='color:GreenYellow; font-size: 70px;'>正确! </span>","null","","","","","","","","","","","","","","","","","","","","","","","feedback_test",""
"","","","","","html-keyboard-response","405","914729","0.0-20.0-1.0-1.0-1.0","5065","<style>.context{color:white; font-size: 35px; line-height:40px}</style>                                     <div><p class='context'>您正确回答了86% 的试次。</p><p class='context'>您的平均反应时为953毫秒。</p><p class='context'>请按任意键进入休息</p></div>"," ","","","","","","","","","","","","","","","","","","","","","","","",""
"","","","","","html-button-response","406","964584","0.0-20.0-1.0-1.0-2.0","49852","
                             <p>在 优先关注""朋友""图形 的要求下，您还剩余4组实验</p>
                             <p>现在是休息时间，当您结束休息后，您可以点击 结束休息 按钮 继续</p>
                             <p>建议休息时间还剩余<span id=""iii"">60</span>秒</p>","0","","","","","","","","","","","","","","","","","","","","","","","",""
"","","","","","psychophysics","407","967087","0.0-20.0-1.0-1.0-0.1-0.72","null","","null","","","","","","","","","","","","","key","null","16.66632214765105","747","463","f","false","img/S_28.png","朋友","friend","","朋友"
"","","","","","html-keyboard-response","408","967397","0.0-20.0-1.0-1.0-0.1-1.72","null","<span class='add_' style='color:yellow; font-size: 70px;'> 太慢! </span>","null","","","","","","","","","","","","","","","","","","","","","","","feedback_test",""
"","","","","","psychophysics","409","969219","0.0-20.0-1.0-1.0-0.1-0.73","821","","j","","","","","","","","","","","","","key","j","16.666055555555634","747","463","j","true","img/C_28.png","生人","friend","","生人"
"","","","","","html-keyboard-response","410","969524","0.0-20.0-1.0-1.0-0.1-1.73","null","<span style='color:GreenYellow; font-size: 70px;'>正确! </span>","null","","","","","","","","","","","","","","","","","","","","","","","feedback_test",""
"","","","","","psychophysics","411","971642","0.0-20.0-1.0-1.0-0.1-0.74","1111","","k","","","","","","","","","","","","","key","k","16.67017460317399","747","463","d","false","img/S_28.png","自我","friend","","朋友"
"","","","","","html-keyboard-response","412","971958","0.0-20.0-1.0-1.0-0.1-1.74","null","<span style='color:red; font-size: 70px;'>错误! </span>","null","","","","","","","","","","","","","","","","","","","","","","","feedback_test",""
"","","","","","psychophysics","413","973770","0.0-20.0-1.0-1.0-0.1-0.75","806","","d","","","","","","","","","","","","","key","d","16.66638888888971","747","463","d","true","img/S_28.png","生人","friend","","朋友"
"","","","","","html-keyboard-response","414","974072","0.0-20.0-1.0-1.0-0.1-1.75","null","<span style='color:GreenYellow; font-size: 70px;'>正确! </span>","null","","","","","","","","","","","","","","","","","","","","","","","feedback_test",""
"","","","","","psychophysics","415","976486","0.0-20.0-1.0-1.0-0.1-0.76","1405","","k","","","","","","","","","","","","","key","k","16.666326388888894","747","463","k","true","img/H_28.png","生人","friend","","自我"
"","","","","","html-keyboard-response","416","976793","0.0-20.0-1.0-1.0-0.1-1.76","null","<span style='color:GreenYellow; font-size: 70px;'>正确! </span>","null","","","","","","","","","","","","","","","","","","","","","","","feedback_test",""
"","","","","","psychophysics","417","978525","0.0-20.0-1.0-1.0-0.1-0.77","731","","f","","","","","","","","","","","","","key","f","16.665757281553155","747","463","f","true","img/S_28.png","朋友","friend","","朋友"
"","","","","","html-keyboard-response","418","978830","0.0-20.0-1.0-1.0-0.1-1.77","null","<span style='color:GreenYellow; font-size: 70px;'>正确! </span>","null","","","","","","","","","","","","","","","","","","","","","","","feedback_test",""
"","","","","","psychophysics","419","981045","0.0-20.0-1.0-1.0-0.1-0.78","1214","","j","","","","","","","","","","","","","key","j","16.559977099237223","747","463","j","true","img/C_28.png","生人","friend","","生人"
"","","","","","html-keyboard-response","420","981360","0.0-20.0-1.0-1.0-0.1-1.78","null","<span style='color:GreenYellow; font-size: 70px;'>正确! </span>","null","","","","","","","","","","","","","","","","","","","","","","","feedback_test",""
