"success","timeout","failed_images","failed_audio","failed_video","trial_type","trial_index","time_elapsed","internal_node_id","rt","stimulus","response","value","item_width_mm","item_height_mm","item_width_px","px2mm","view_dist_mm","item_width_deg","px2deg","scale_factor","win_width_deg","win_height_deg","view_history","response_type","key_press","avg_frame_time","center_x","center_y","correct_response","correct","Image","text","condition","screen_id","label"
"true","false","[]","[]","[]","preload","0","476","0.0-0.0","","","","","","","","","","","","","","","","","","","","","","","","","","",""
"","","","","","html-keyboard-response","1","52289","0.0-1.0","51813","
  <p>您好，欢迎参加本次实验。</p>
  <p>为充分保障您的权利，请确保您已经知晓并同意《参与实验同意书》以及《数据公开知情同意书》。</p>
  <p>如果您未见过上述内容，请咨询实验员。</p>
  <p>如果您选择继续实验，则表示您已经清楚两份知情同意书的内容并同意。</p>
  <p> <div style = ""color: green""><按任意键至下页></div> </p>
  "," ","","","","","","","","","","","","","","","","","","","","","","","",""
"","","","","","html-keyboard-response","2","56564","0.0-2.0","4275","
  <p>本实验首先需要您填写一些基本个人信息。</p>
  <p> <div style = ""color: green""><按任意键至下页></div></p>
  "," ","","","","","","","","","","","","","","","","","","","","","","","",""
"","","","","","call-function","3","56565","0.0-3.0-0.0","","","","","","","","","","","","","","","","","","","","","","","","","","",""
"","","","","","survey-html-form","4","60810","0.0-3.0-1.0","4243","","{""Q0"":""23""}","","","","","","","","","","","","","","","","","","","","","","","",""
"","","","","","html-button-response","5","62283","0.0-3.0-2.0","1471","<p style = 'color : white'>您的性别</p>","0","","","","","","","","","","","","","","","","","","","","","","","",""
"","","","","","survey-html-form","6","67834","0.0-3.0-3.0","5550","","{""Q0"":""2001""}","","","","","","","","","","","","","","","","","","","","","","","",""
"","","","","","survey-html-form","7","71178","0.0-3.0-4.0","3343","","{""Q0"":""5""}","","","","","","","","","","","","","","","","","","","","","","","",""
"","","","","","virtual-chinrest","8","259067","0.0-4.0","187886","","","","85.6","53.98","406.0426094197309","4.749036367482233","602.93","8.120852188394618","50","0.8422761357206988","30.72","14.92","","","","","","","","","","","","",""
"true","","","","","fullscreen","9","262611","0.0-5.0","","","","","","","","","","","","","","","","","","","","","","","","","","",""
"","","","","","instructions","10","379971","0.0-6.0","117358","","","","","","","","","","","","","","[{""page_index"":0,""viewing_time"":8165},{""page_index"":1,""viewing_time"":18456},{""page_index"":2,""viewing_time"":76536},{""page_index"":3,""viewing_time"":10680},{""page_index"":4,""viewing_time"":3521}]","","","","","","","","","","","",""
"","","","","","instructions","11","400042","0.0-7.0","20070","","","","","","","","","","","","","","[{""page_index"":0,""viewing_time"":20070}]","","","","","","","","","","","",""
"","","","","","psychophysics","12","402729","0.0-8.0-0.0-0.0","1678","","k","","","","","","","","","","","","","key","k","16.66191194968557","768","428","k","true","img/C_28.png","自我","freeprac_self","",""
"","","","","","html-keyboard-response","13","403038","0.0-8.0-0.0-1.0","null","<span style='color:GreenYellow; font-size: 70px;'>正确! </span>","null","","","","","","","","","","","","","","","","","","","","","","","feedback_test",""
"","","","","","psychophysics","14","405909","0.0-8.0-0.0-0.1","1860","","j","","","","","","","","","","","","","key","j","16.660397660818457","768","428","k","false","img/C_28.png","朋友","freeprac_self","",""
"","","","","","html-keyboard-response","15","406216","0.0-8.0-0.0-1.1","null","<span style='color:red; font-size: 70px;'>错误! </span>","null","","","","","","","","","","","","","","","","","","","","","","","feedback_test",""
"","","","","","psychophysics","16","408835","0.0-8.0-0.0-0.2","1607","","j","","","","","","","","","","","","","key","j","16.660262820512752","768","428","j","true","img/S_28.png","朋友","freeprac_self","",""
"","","","","","html-keyboard-response","17","409149","0.0-8.0-0.0-1.2","null","<span style='color:GreenYellow; font-size: 70px;'>正确! </span>","null","","","","","","","","","","","","","","","","","","","","","","","feedback_test",""
"","","","","","psychophysics","18","411394","0.0-8.0-0.0-0.3","1231","","f","","","","","","","","","","","","","key","f","16.661548872180266","768","428","f","true","img/H_28.png","自我","freeprac_self","",""
"","","","","","html-keyboard-response","19","411699","0.0-8.0-0.0-1.3","null","<span style='color:GreenYellow; font-size: 70px;'>正确! </span>","null","","","","","","","","","","","","","","","","","","","","","","","feedback_test",""
"","","","","","psychophysics","20","414140","0.0-8.0-0.0-0.4","1432","","d","","","","","","","","","","","","","key","d","16.6614896551726","768","428","d","true","img/H_28.png","朋友","freeprac_self","",""
"","","","","","html-keyboard-response","21","414448","0.0-8.0-0.0-1.4","null","<span style='color:GreenYellow; font-size: 70px;'>正确! </span>","null","","","","","","","","","","","","","","","","","","","","","","","feedback_test",""
"","","","","","psychophysics","22","416640","0.0-8.0-0.0-0.5","1177","","k","","","","","","","","","","","","","key","k","16.66108461538455","768","428","j","false","img/S_28.png","朋友","freeprac_self","",""
"","","","","","html-keyboard-response","23","416943","0.0-8.0-0.0-1.5","null","<span style='color:red; font-size: 70px;'>错误! </span>","null","","","","","","","","","","","","","","","","","","","","","","","feedback_test",""
"","","","","","psychophysics","24","419445","0.0-8.0-0.0-0.6","1500","","j","","","","","","","","","","","","","key","j","16.571751677852294","768","428","j","true","img/C_28.png","生人","freeprac_self","",""
"","","","","","html-keyboard-response","25","419762","0.0-8.0-0.0-1.6","null","<span style='color:GreenYellow; font-size: 70px;'>正确! </span>","null","","","","","","","","","","","","","","","","","","","","","","","feedback_test",""
"","","","","","psychophysics","26","422144","0.0-8.0-0.0-0.7","1373","","j","","","","","","","","","","","","","key","j","16.65236619718309","768","428","j","true","img/C_28.png","生人","freeprac_self","",""
"","","","","","html-keyboard-response","27","422451","0.0-8.0-0.0-1.7","null","<span style='color:GreenYellow; font-size: 70px;'>正确! </span>","null","","","","","","","","","","","","","","","","","","","","","","","feedback_test",""
"","","","","","psychophysics","28","424871","0.0-8.0-0.0-0.8","1415","","k","","","","","","","","","","","","","key","k","16.661708333333486","768","428","k","true","img/S_28.png","生人","freeprac_self","",""
"","","","","","html-keyboard-response","29","425184","0.0-8.0-0.0-1.8","null","<span style='color:GreenYellow; font-size: 70px;'>正确! </span>","null","","","","","","","","","","","","","","","","","","","","","","","feedback_test",""
"","","","","","psychophysics","30","427500","0.0-8.0-0.0-0.9","1308","","k","","","","","","","","","","","","","key","k","16.66126086956533","768","428","k","true","img/S_28.png","自我","freeprac_self","",""
"","","","","","html-keyboard-response","31","427807","0.0-8.0-0.0-1.9","null","<span style='color:GreenYellow; font-size: 70px;'>正确! </span>","null","","","","","","","","","","","","","","","","","","","","","","","feedback_test",""
"","","","","","psychophysics","32","430453","0.0-8.0-0.0-0.10","1633","","d","","","","","","","","","","","","","key","d","16.660299363057426","768","428","d","true","img/H_28.png","生人","freeprac_self","",""
"","","","","","html-keyboard-response","33","430769","0.0-8.0-0.0-1.10","null","<span style='color:GreenYellow; font-size: 70px;'>正确! </span>","null","","","","","","","","","","","","","","","","","","","","","","","feedback_test",""
"","","","","","psychophysics","34","432774","0.0-8.0-0.0-0.11","1003","","f","","","","","","","","","","","","","key","f","16.660491666666832","768","428","f","true","img/H_28.png","自我","freeprac_self","",""
"","","","","","html-keyboard-response","35","433084","0.0-8.0-0.0-1.11","null","<span style='color:GreenYellow; font-size: 70px;'>正确! </span>","null","","","","","","","","","","","","","","","","","","","","","","","feedback_test",""
"","","","","","html-keyboard-response","36","469543","0.0-9.0","36455","[""<style>.context{color:white; font-size: 35px; line-height:40px}</style>           <div><p class='context'>您正确回答了83% 的试次。</p><p class='context'>您的平均反应时为1418毫秒。</p><p class='context'>恭喜您完成这一阶段的练习。按任意键进入<span style='color: yellow;'>重点关注图形为“朋友”</span>的练习。</p></div><p class='footer' style='font-size:35px; line-height:30px;'>任务要求：\n           <p class='footer' style='font-size:35px; line-height:35px;'>对于与“朋友”对应的图形：如果 匹配 ，请按 <span style=\""color: lightgreen;\"">f键</span></p><p class='footer' style='font-size:35px'>如果 不匹配 ，请按<span style=\""color: lightgreen;\"">d键</p></span>\n           <p class='footer' style='font-size:35px; line-height:35px;'>对于非“朋友”对应的图形：如果 匹配 ，请按 <span style=\""color: lightgreen;\"">j键</span></p><p class='footer' style='font-size:35px'>如果 不匹配 ，请按<span style=\""color: lightgreen;\"">k键</p></span>\n           <p class='footer' style='font-size:22px; line-height:25px;'>请在实验过程中将您的<span style=\""color: lightgreen;\"">食指和中指</span>放在电脑键盘的相应键位上进行按键。</p></span>""]"," ","","","","","","","","","","","","","","","","","","","","","","","",""
"","","","","","psychophysics","37","472088","0.0-10.0-0.0-0.0","1531","","k","","","","","","","","","","","","","key","k","16.659576158940528","768","428","j","false","img/C_28.png","生人","freeprac_friend","",""
"","","","","","html-keyboard-response","38","472393","0.0-10.0-0.0-1.0","null","<span style='color:red; font-size: 70px;'>错误! </span>","null","","","","","","","","","","","","","","","","","","","","","","","feedback_test",""
"","","","","","psychophysics","39","475004","0.0-10.0-0.0-0.1","1604","","k","","","","","","","","","","","","","key","k","16.66141935483883","768","428","d","false","img/S_28.png","生人","freeprac_friend","",""
"","","","","","html-keyboard-response","40","475314","0.0-10.0-0.0-1.1","null","<span style='color:red; font-size: 70px;'>错误! </span>","null","","","","","","","","","","","","","","","","","","","","","","","feedback_test",""
"","","","","","psychophysics","41","478285","0.0-10.0-0.0-0.2","1961","","j","","","","","","","","","","","","","key","j","16.660525423728817","768","428","j","true","img/H_28.png","自我","freeprac_friend","",""
"","","","","","html-keyboard-response","42","478601","0.0-10.0-0.0-1.2","null","<span style='color:GreenYellow; font-size: 70px;'>正确! </span>","null","","","","","","","","","","","","","","","","","","","","","","","feedback_test",""
"","","","","","psychophysics","43","481153","0.0-10.0-0.0-0.3","1547","","f","","","","","","","","","","","","","key","f","16.658480263157752","768","428","j","false","img/C_28.png","生人","freeprac_friend","",""
"","","","","","html-keyboard-response","44","481458","0.0-10.0-0.0-1.3","null","<span style='color:red; font-size: 70px;'>错误! </span>","null","","","","","","","","","","","","","","","","","","","","","","","feedback_test",""
"","","","","","psychophysics","45","484272","0.0-10.0-0.0-0.4","1812","","f","","","","","","","","","","","","","key","f","16.659970238095237","768","428","f","true","img/S_28.png","朋友","freeprac_friend","",""
"","","","","","html-keyboard-response","46","484576","0.0-10.0-0.0-1.4","null","<span style='color:GreenYellow; font-size: 70px;'>正确! </span>","null","","","","","","","","","","","","","","","","","","","","","","","feedback_test",""
"","","","","","psychophysics","47","486933","0.0-10.0-0.0-0.5","1347","","k","","","","","","","","","","","","","key","k","16.66024285714292","768","428","k","true","img/H_28.png","朋友","freeprac_friend","",""
"","","","","","html-keyboard-response","48","487247","0.0-10.0-0.0-1.5","null","<span style='color:GreenYellow; font-size: 70px;'>正确! </span>","null","","","","","","","","","","","","","","","","","","","","","","","feedback_test",""
"","","","","","psychophysics","49","489792","0.0-10.0-0.0-0.6","1538","","f","","","","","","","","","","","","","key","f","16.662282894736947","768","428","f","true","img/S_28.png","朋友","freeprac_friend","",""
"","","","","","html-keyboard-response","50","490099","0.0-10.0-0.0-1.6","null","<span style='color:GreenYellow; font-size: 70px;'>正确! </span>","null","","","","","","","","","","","","","","","","","","","","","","","feedback_test",""
"","","","","","psychophysics","51","492381","0.0-10.0-0.0-0.7","1279","","k","","","","","","","","","","","","","key","k","16.66044117647064","768","428","k","true","img/H_28.png","生人","freeprac_friend","",""
"","","","","","html-keyboard-response","52","492695","0.0-10.0-0.0-1.7","null","<span style='color:GreenYellow; font-size: 70px;'>正确! </span>","null","","","","","","","","","","","","","","","","","","","","","","","feedback_test",""
"","","","","","psychophysics","53","495305","0.0-10.0-0.0-0.8","1603","","k","","","","","","","","","","","","","key","k","16.661301282051284","768","428","k","true","img/C_28.png","自我","freeprac_friend","",""
"","","","","","html-keyboard-response","54","495618","0.0-10.0-0.0-1.8","null","<span style='color:GreenYellow; font-size: 70px;'>正确! </span>","null","","","","","","","","","","","","","","","","","","","","","","","feedback_test",""
"","","","","","psychophysics","55","498081","0.0-10.0-0.0-0.9","1457","","j","","","","","","","","","","","","","key","j","16.661342465753304","768","428","j","true","img/H_28.png","自我","freeprac_friend","",""
"","","","","","html-keyboard-response","56","498384","0.0-10.0-0.0-1.9","null","<span style='color:GreenYellow; font-size: 70px;'>正确! </span>","null","","","","","","","","","","","","","","","","","","","","","","","feedback_test",""
"","","","","","psychophysics","57","500560","0.0-10.0-0.0-0.10","1166","","j","","","","","","","","","","","","","key","j","16.660310077519327","768","428","k","false","img/C_28.png","朋友","freeprac_friend","",""
"","","","","","html-keyboard-response","58","500868","0.0-10.0-0.0-1.10","null","<span style='color:red; font-size: 70px;'>错误! </span>","null","","","","","","","","","","","","","","","","","","","","","","","feedback_test",""
"","","","","","psychophysics","59","503705","0.0-10.0-0.0-0.11","1823","","k","","","","","","","","","","","","","key","k","16.66135502958563","768","428","d","false","img/S_28.png","自我","freeprac_friend","",""
"","","","","","html-keyboard-response","60","504018","0.0-10.0-0.0-1.11","null","<span style='color:red; font-size: 70px;'>错误! </span>","null","","","","","","","","","","","","","","","","","","","","","","","feedback_test",""
"","","","","","html-keyboard-response","61","518176","0.0-10.0-1.0-0.0","14157","<style>.context{color:white; font-size: 35px; line-height:40px}</style>                           <div><p class='context'>您正确回答了58% 的试次。</p><p class='context'>您的平均反应时为1571毫秒。</p>"," ","","","","","","","","","","","","","","","","","","","","","","","",""
"","","","","","instructions","62","553778","0.0-10.0-1.0-1.0","35601","","","","","","","","","","","","","","[{""page_index"":0,""viewing_time"":14875},{""page_index"":1,""viewing_time"":18222},{""page_index"":2,""viewing_time"":2504}]","","","","","","","","","","","",""
"","","","","","psychophysics","63","556892","0.0-10.1-0.1-0.12","2110","","j","","","","","","","","","","","","","key","j","16.660416216215722","768","428","j","true","img/H_28.png","自我","freeprac_friend","",""
"","","","","","html-keyboard-response","64","557200","0.0-10.1-0.1-1.12","null","<span style='color:GreenYellow; font-size: 70px;'>正确! </span>","null","","","","","","","","","","","","","","","","","","","","","","","feedback_test",""
"","","","","","psychophysics","65","560158","0.0-10.1-0.1-0.13","1947","","k","","","","","","","","","","","","","key","k","16.659789772726732","768","428","k","true","img/C_28.png","自我","freeprac_friend","",""
"","","","","","html-keyboard-response","66","560461","0.0-10.1-0.1-1.13","null","<span style='color:GreenYellow; font-size: 70px;'>正确! </span>","null","","","","","","","","","","","","","","","","","","","","","","","feedback_test",""
"","","","","","psychophysics","67","562745","0.0-10.1-0.1-0.14","1283","","j","","","","","","","","","","","","","key","j","16.570074074073798","768","428","j","true","img/H_28.png","自我","freeprac_friend","",""
"","","","","","html-keyboard-response","68","563057","0.0-10.1-0.1-1.14","null","<span style='color:GreenYellow; font-size: 70px;'>正确! </span>","null","","","","","","","","","","","","","","","","","","","","","","","feedback_test",""
"","","","","","psychophysics","69","566579","0.0-10.1-0.1-0.15","2516","","d","","","","","","","","","","","","","key","d","16.659947867298353","768","428","d","true","img/S_28.png","自我","freeprac_friend","",""
"","","","","","html-keyboard-response","70","566886","0.0-10.1-0.1-1.15","null","<span style='color:GreenYellow; font-size: 70px;'>正确! </span>","null","","","","","","","","","","","","","","","","","","","","","","","feedback_test",""
"","","","","","psychophysics","71","570779","0.0-10.1-0.1-0.16","2885","","k","","","","","","","","","","","","","key","k","16.660849785407738","768","428","d","false","img/S_28.png","生人","freeprac_friend","",""
"","","","","","html-keyboard-response","72","571095","0.0-10.1-0.1-1.16","null","<span style='color:red; font-size: 70px;'>错误! </span>","null","","","","","","","","","","","","","","","","","","","","","","","feedback_test",""
"","","","","","psychophysics","73","575190","0.0-10.1-0.1-0.17","3084","","j","","","","","","","","","","","","","key","j","16.661016393442388","768","428","f","false","img/S_28.png","朋友","freeprac_friend","",""
"","","","","","html-keyboard-response","74","575492","0.0-10.1-0.1-1.17","null","<span style='color:red; font-size: 70px;'>错误! </span>","null","","","","","","","","","","","","","","","","","","","","","","","feedback_test",""
"","","","","","psychophysics","75","580800","0.0-10.1-0.1-0.18","4302","","k","","","","","","","","","","","","","key","k","16.65878548895924","768","428","k","true","img/H_28.png","朋友","freeprac_friend","",""
"","","","","","html-keyboard-response","76","581104","0.0-10.1-0.1-1.18","null","<span style='color:GreenYellow; font-size: 70px;'>正确! </span>","null","","","","","","","","","","","","","","","","","","","","","","","feedback_test",""
"","","","","","psychophysics","77","584331","0.0-10.1-0.1-0.19","2224","","k","","","","","","","","","","","","","key","k","16.58918750000036","768","428","k","true","img/H_28.png","生人","freeprac_friend","",""
"","","","","","html-keyboard-response","78","584633","0.0-10.1-0.1-1.19","null","<span style='color:GreenYellow; font-size: 70px;'>正确! </span>","null","","","","","","","","","","","","","","","","","","","","","","","feedback_test",""
"","","","","","psychophysics","79","588263","0.0-10.1-0.1-0.20","2624","","f","","","","","","","","","","","","","key","f","16.661405529954024","768","428","j","false","img/C_28.png","生人","freeprac_friend","",""
"","","","","","html-keyboard-response","80","588567","0.0-10.1-0.1-1.20","null","<span style='color:red; font-size: 70px;'>错误! </span>","null","","","","","","","","","","","","","","","","","","","","","","","feedback_test",""
"","","","","","psychophysics","81","593123","0.0-10.1-0.1-0.21","3553","","d","","","","","","","","","","","","","key","d","16.662065934065744","768","428","f","false","img/S_28.png","朋友","freeprac_friend","",""
"","","","","","html-keyboard-response","82","593426","0.0-10.1-0.1-1.21","null","<span style='color:red; font-size: 70px;'>错误! </span>","null","","","","","","","","","","","","","","","","","","","","","","","feedback_test",""
"","","","","","psychophysics","83","597555","0.0-10.1-0.1-0.22","3120","","f","","","","","","","","","","","","","key","f","16.661639676113076","768","428","j","false","img/C_28.png","生人","freeprac_friend","",""
"","","","","","html-keyboard-response","84","597859","0.0-10.1-0.1-1.22","null","<span style='color:red; font-size: 70px;'>错误! </span>","null","","","","","","","","","","","","","","","","","","","","","","","feedback_test",""
"","","","","","psychophysics","85","602189","0.0-10.1-0.1-0.23","3323","","k","","","","","","","","","","","","","key","k","16.65986486486497","768","428","k","true","img/C_28.png","朋友","freeprac_friend","",""
"","","","","","html-keyboard-response","86","602498","0.0-10.1-0.1-1.23","null","<span style='color:GreenYellow; font-size: 70px;'>正确! </span>","null","","","","","","","","","","","","","","","","","","","","","","","feedback_test",""
"","","","","","html-keyboard-response","87","610203","0.0-10.1-1.1-0.1","7705","<style>.context{color:white; font-size: 35px; line-height:40px}</style>                           <div><p class='context'>您正确回答了58% 的试次。</p><p class='context'>您的平均反应时为2529毫秒。</p>"," ","","","","","","","","","","","","","","","","","","","","","","","",""
"","","","","","instructions","88","639617","0.0-10.1-1.1-1.1","29411","","","","","","","","","","","","","","[{""page_index"":0,""viewing_time"":7068},{""page_index"":1,""viewing_time"":20656},{""page_index"":2,""viewing_time"":1687}]","","","","","","","","","","","",""
"","","","","","psychophysics","89","644986","0.0-10.2-0.2-0.24","4368","","j","","","","","","","","","","","","","key","j","16.640105919003258","768","428","j","true","img/C_28.png","生人","freeprac_friend","",""
"","","","","","html-keyboard-response","90","645299","0.0-10.2-0.2-1.24","null","<span style='color:GreenYellow; font-size: 70px;'>正确! </span>","null","","","","","","","","","","","","","","","","","","","","","","","feedback_test",""
"","","","","","psychophysics","91","648811","0.0-10.2-0.2-0.25","2510","","j","","","","","","","","","","","","","key","j","16.657698564592895","768","428","j","true","img/H_28.png","自我","freeprac_friend","",""
"","","","","","html-keyboard-response","92","649125","0.0-10.2-0.2-1.25","null","<span style='color:GreenYellow; font-size: 70px;'>正确! </span>","null","","","","","","","","","","","","","","","","","","","","","","","feedback_test",""
"","","","","","psychophysics","93","651559","0.0-10.2-0.2-0.26","1427","","k","","","","","","","","","","","","","key","k","16.661731034482766","768","428","k","true","img/H_28.png","生人","freeprac_friend","",""
"","","","","","html-keyboard-response","94","651873","0.0-10.2-0.2-1.26","null","<span style='color:GreenYellow; font-size: 70px;'>正确! </span>","null","","","","","","","","","","","","","","","","","","","","","","","feedback_test",""
"","","","","","psychophysics","95","654449","0.0-10.2-0.2-0.27","1567","","d","","","","","","","","","","","","","key","d","16.661363636364243","768","428","d","true","img/S_28.png","生人","freeprac_friend","",""
"","","","","","html-keyboard-response","96","654751","0.0-10.2-0.2-1.27","null","<span style='color:GreenYellow; font-size: 70px;'>正确! </span>","null","","","","","","","","","","","","","","","","","","","","","","","feedback_test",""
"","","","","","psychophysics","97","658970","0.0-10.2-0.2-0.28","3208","","k","","","","","","","","","","","","","key","k","16.66048809523844","768","428","k","true","img/C_28.png","自我","freeprac_friend","",""
"","","","","","html-keyboard-response","98","659279","0.0-10.2-0.2-1.28","null","<span style='color:GreenYellow; font-size: 70px;'>正确! </span>","null","","","","","","","","","","","","","","","","","","","","","","","feedback_test",""
"","","","","","psychophysics","99","661660","0.0-10.2-0.2-0.29","1380","","j","","","","","","","","","","","","","key","j","16.661624113475106","768","428","j","true","img/H_28.png","自我","freeprac_friend","",""
"","","","","","html-keyboard-response","100","661970","0.0-10.2-0.2-1.29","null","<span style='color:GreenYellow; font-size: 70px;'>正确! </span>","null","","","","","","","","","","","","","","","","","","","","","","","feedback_test",""
"","","","","","psychophysics","101","665025","0.0-10.2-0.2-0.30","2047","","f","","","","","","","","","","","","","key","f","16.661054945054495","768","428","f","true","img/S_28.png","朋友","freeprac_friend","",""
"","","","","","html-keyboard-response","102","665337","0.0-10.2-0.2-1.30","null","<span style='color:GreenYellow; font-size: 70px;'>正确! </span>","null","","","","","","","","","","","","","","","","","","","","","","","feedback_test",""
"","","","","","psychophysics","103","668399","0.0-10.2-0.2-0.31","2056","","f","","","","","","","","","","","","","key","f","16.66150273224008","768","428","f","true","img/S_28.png","朋友","freeprac_friend","",""
"","","","","","html-keyboard-response","104","668701","0.0-10.2-0.2-1.31","null","<span style='color:GreenYellow; font-size: 70px;'>正确! </span>","null","","","","","","","","","","","","","","","","","","","","","","","feedback_test",""
"","","","","","psychophysics","105","671074","0.0-10.2-0.2-0.32","1370","","d","","","","","","","","","","","","","key","d","16.661638297872116","768","428","d","true","img/S_28.png","自我","freeprac_friend","",""
"","","","","","html-keyboard-response","106","671382","0.0-10.2-0.2-1.32","null","<span style='color:GreenYellow; font-size: 70px;'>正确! </span>","null","","","","","","","","","","","","","","","","","","","","","","","feedback_test",""
"","","","","","psychophysics","107","674689","0.0-10.2-0.2-0.33","2295","","k","","","","","","","","","","","","","key","k","16.660477157360116","768","428","k","true","img/H_28.png","朋友","freeprac_friend","",""
"","","","","","html-keyboard-response","108","674993","0.0-10.2-0.2-1.33","null","<span style='color:GreenYellow; font-size: 70px;'>正确! </span>","null","","","","","","","","","","","","","","","","","","","","","","","feedback_test",""
"","","","","","psychophysics","109","679601","0.0-10.2-0.2-0.34","3595","","j","","","","","","","","","","","","","key","j","16.661443636363625","768","428","j","true","img/C_28.png","生人","freeprac_friend","",""
"","","","","","html-keyboard-response","110","679912","0.0-10.2-0.2-1.34","null","<span style='color:GreenYellow; font-size: 70px;'>正确! </span>","null","","","","","","","","","","","","","","","","","","","","","","","feedback_test",""
"","","","","","psychophysics","111","682178","0.0-10.2-0.2-0.35","1257","","k","","","","","","","","","","","","","key","k","16.65982222222223","768","428","k","true","img/C_28.png","朋友","freeprac_friend","",""
"","","","","","html-keyboard-response","112","682483","0.0-10.2-0.2-1.35","null","<span style='color:GreenYellow; font-size: 70px;'>正确! </span>","null","","","","","","","","","","","","","","","","","","","","","","","feedback_test",""
"","","","","","html-keyboard-response","113","698745","0.0-11.0","16260","[""<style>.context{color:white; font-size: 35px; line-height:40px}</style>               <div><p class='context'>您正确回答了100% 的试次。</p><p class='context'>您的平均反应时为2257毫秒。</p><p class='context'>恭喜您完成这一阶段的练习。按任意键进入<span style='color: yellow;'>重点关注图形为“生人”</span>的练习。</p></div><p class='footer' style='font-size:35px; line-height:30px;'>任务要求：\n               <p class='footer' style='font-size:35px; line-height:35px;'>对与“生人”对应的图形，如果 匹配 ，请按 <span style=\""color: lightgreen;\"">f键</span></p><p class='footer' style='font-size:35px'>如果 不匹配 ，请按<span style=\""color: lightgreen;\"">d键</p></span>\n               <p class='footer' style='font-size:35px; line-height:35px;'>对非“生人”对应的图形，如果 匹配 ，请按 <span style=\""color: lightgreen;\"">j键</span></p><p class='footer' style='font-size:35px'>如果 不匹配 ，请按<span style=\""color: lightgreen;\"">k键</p></span>\n               <p class='footer' style='font-size:22px; line-height:25px;'>请在实验过程中将您的<span style=\""color: lightgreen;\"">食指和中指</span>放在电脑键盘的相应键位上进行按键。</p></span>""]"," ","","","","","","","","","","","","","","","","","","","","","","","",""
"","","","","","psychophysics","114","702246","0.0-12.0-0.0-0.0","2496","","k","","","","","","","","","","","","","key","k","16.6615406698564","768","428","k","true","img/H_28.png","生人","freeprac_stranger","",""
"","","","","","html-keyboard-response","115","702550","0.0-12.0-0.0-1.0","null","<span style='color:GreenYellow; font-size: 70px;'>正确! </span>","null","","","","","","","","","","","","","","","","","","","","","","","feedback_test",""
"","","","","","psychophysics","116","705125","0.0-12.0-0.0-0.1","1563","","k","","","","","","","","","","","","","key","k","16.661032679738792","768","428","k","true","img/S_28.png","自我","freeprac_stranger","",""
"","","","","","html-keyboard-response","117","705433","0.0-12.0-0.0-1.1","null","<span style='color:GreenYellow; font-size: 70px;'>正确! </span>","null","","","","","","","","","","","","","","","","","","","","","","","feedback_test",""
"","","","","","psychophysics","118","707584","0.0-12.0-0.0-0.2","1136","","f","","","","","","","","","","","","","key","f","16.66046093749992","768","428","f","true","img/C_28.png","生人","freeprac_stranger","",""
"","","","","","html-keyboard-response","119","707897","0.0-12.0-0.0-1.2","null","<span style='color:GreenYellow; font-size: 70px;'>正确! </span>","null","","","","","","","","","","","","","","","","","","","","","","","feedback_test",""
"","","","","","psychophysics","120","710427","0.0-12.0-0.0-0.3","1518","","k","","","","","","","","","","","","","key","k","16.660413333332787","768","428","k","true","img/S_28.png","生人","freeprac_stranger","",""
"","","","","","html-keyboard-response","121","710736","0.0-12.0-0.0-1.3","null","<span style='color:GreenYellow; font-size: 70px;'>正确! </span>","null","","","","","","","","","","","","","","","","","","","","","","","feedback_test",""
"","","","","","psychophysics","122","713550","0.0-12.0-0.0-0.4","1810","","k","","","","","","","","","","","","","key","k","16.658982142857333","768","428","d","false","img/C_28.png","自我","freeprac_stranger","",""
"","","","","","html-keyboard-response","123","713856","0.0-12.0-0.0-1.4","null","<span style='color:red; font-size: 70px;'>错误! </span>","null","","","","","","","","","","","","","","","","","","","","","","","feedback_test",""
"","","","","","psychophysics","124","716565","0.0-12.0-0.0-0.5","1704","","j","","","","","","","","","","","","","key","j","16.66085802469141","768","428","j","true","img/H_28.png","自我","freeprac_stranger","",""
"","","","","","html-keyboard-response","125","716872","0.0-12.0-0.0-1.5","null","<span style='color:GreenYellow; font-size: 70px;'>正确! </span>","null","","","","","","","","","","","","","","","","","","","","","","","feedback_test",""
"","","","","","psychophysics","126","718974","0.0-12.0-0.0-0.6","1098","","f","","","","","","","","","","","","","key","f","16.6615839999998","768","428","f","true","img/C_28.png","生人","freeprac_stranger","",""
"","","","","","html-keyboard-response","127","719279","0.0-12.0-0.0-1.6","null","<span style='color:GreenYellow; font-size: 70px;'>正确! </span>","null","","","","","","","","","","","","","","","","","","","","","","","feedback_test",""
"","","","","","psychophysics","128","722358","0.0-12.0-0.0-0.7","2065","","j","","","","","","","","","","","","","key","j","16.659524590163773","768","428","j","true","img/S_28.png","朋友","freeprac_stranger","",""
"","","","","","html-keyboard-response","129","722671","0.0-12.0-0.0-1.7","null","<span style='color:GreenYellow; font-size: 70px;'>正确! </span>","null","","","","","","","","","","","","","","","","","","","","","","","feedback_test",""
"","","","","","psychophysics","130","724806","0.0-12.0-0.0-0.8","1132","","k","","","","","","","","","","","","","key","k","16.659921259842044","768","428","k","true","img/H_28.png","朋友","freeprac_stranger","",""
"","","","","","html-keyboard-response","131","725113","0.0-12.0-0.0-1.8","null","<span style='color:GreenYellow; font-size: 70px;'>正确! </span>","null","","","","","","","","","","","","","","","","","","","","","","","feedback_test",""
"","","","","","psychophysics","132","727484","0.0-12.0-0.0-0.9","1361","","d","","","","","","","","","","","","","key","d","16.659872340425643","768","428","d","true","img/C_28.png","朋友","freeprac_stranger","",""
"","","","","","html-keyboard-response","133","727795","0.0-12.0-0.0-1.9","null","<span style='color:GreenYellow; font-size: 70px;'>正确! </span>","null","","","","","","","","","","","","","","","","","","","","","","","feedback_test",""
"","","","","","psychophysics","134","730395","0.0-12.0-0.0-0.10","1592","","f","","","","","","","","","","","","","key","f","16.66158064516081","768","428","j","false","img/S_28.png","朋友","freeprac_stranger","",""
"","","","","","html-keyboard-response","135","730698","0.0-12.0-0.0-1.10","null","<span style='color:red; font-size: 70px;'>错误! </span>","null","","","","","","","","","","","","","","","","","","","","","","","feedback_test",""
"","","","","","psychophysics","136","732653","0.0-12.0-0.0-0.11","947","","j","","","","","","","","","","","","","key","j","16.65301724137931","768","428","j","true","img/H_28.png","自我","freeprac_stranger","",""
"","","","","","html-keyboard-response","137","732969","0.0-12.0-0.0-1.11","null","<span style='color:GreenYellow; font-size: 70px;'>正确! </span>","null","","","","","","","","","","","","","","","","","","","","","","","feedback_test",""
"","","","","","instructions","138","768747","0.0-13.0","35776","","","","","","","","","","","","","","[{""page_index"":0,""viewing_time"":35776}]","","","","","","","","","","","",""
"","","","","","psychophysics","139","770898","0.0-14.0-0.0-0.0","1139","","k","","","","","","","","","","","","","key","k","16.661109374999796","768","428","j","false","img/C_28.png","生人","prac_self","","生人"
"","","","","","html-keyboard-response","140","771213","0.0-14.0-0.0-1.0","null","<span style='color:red; font-size: 70px;'>错误! </span>","null","","","","","","","","","","","","","","","","","","","","","","","feedback_test",""
"","","","","","psychophysics","141","773726","0.0-14.0-0.0-0.1","null","","null","","","","","","","","","","","","","key","null","16.660673333333495","768","428","k","false","img/C_28.png","朋友","prac_self","","生人"
"","","","","","html-keyboard-response","142","774035","0.0-14.0-0.0-1.1","null","<span class='add_' style='color:yellow; font-size: 70px;'> 太慢! </span>","null","","","","","","","","","","","","","","","","","","","","","","","feedback_test",""
"","","","","","psychophysics","143","776295","0.0-14.0-0.0-0.2","1255","","f","","","","","","","","","","","","","key","f","16.659659259259286","768","428","k","false","img/S_28.png","自我","prac_self","","朋友"
"","","","","","html-keyboard-response","144","776601","0.0-14.0-0.0-1.2","null","<span style='color:red; font-size: 70px;'>错误! </span>","null","","","","","","","","","","","","","","","","","","","","","","","feedback_test",""
"","","","","","psychophysics","145","778713","0.0-14.0-0.0-0.3","1108","","j","","","","","","","","","","","","","key","j","16.662238095238404","768","428","f","false","img/H_28.png","自我","prac_self","","自我"
"","","","","","html-keyboard-response","146","779028","0.0-14.0-0.0-1.3","null","<span style='color:red; font-size: 70px;'>错误! </span>","null","","","","","","","","","","","","","","","","","","","","","","","feedback_test",""
"","","","","","psychophysics","147","781479","0.0-14.0-0.0-0.4","1442","","k","","","","","","","","","","","","","key","k","16.660472602739752","768","428","k","true","img/C_28.png","自我","prac_self","","生人"
"","","","","","html-keyboard-response","148","781790","0.0-14.0-0.0-1.4","null","<span style='color:GreenYellow; font-size: 70px;'>正确! </span>","null","","","","","","","","","","","","","","","","","","","","","","","feedback_test",""
"","","","","","psychophysics","149","783759","0.0-14.0-0.0-0.5","968","","f","","","","","","","","","","","","","key","f","16.66061538461552","768","428","f","true","img/H_28.png","自我","prac_self","","自我"
"","","","","","html-keyboard-response","150","784061","0.0-14.0-0.0-1.5","null","<span style='color:GreenYellow; font-size: 70px;'>正确! </span>","null","","","","","","","","","","","","","","","","","","","","","","","feedback_test",""
"","","","","","psychophysics","151","786410","0.0-14.0-0.0-0.6","1339","","j","","","","","","","","","","","","","key","j","16.66059285714291","768","428","k","false","img/S_28.png","生人","prac_self","","朋友"
"","","","","","html-keyboard-response","152","786716","0.0-14.0-0.0-1.6","null","<span style='color:red; font-size: 70px;'>错误! </span>","null","","","","","","","","","","","","","","","","","","","","","","","feedback_test",""
"","","","","","psychophysics","153","788923","0.0-14.0-0.0-0.7","1202","","d","","","","","","","","","","","","","key","d","16.661893939394787","768","428","d","true","img/H_28.png","生人","prac_self","","自我"
"","","","","","html-keyboard-response","154","789238","0.0-14.0-0.0-1.7","null","<span style='color:GreenYellow; font-size: 70px;'>正确! </span>","null","","","","","","","","","","","","","","","","","","","","","","","feedback_test",""
"","","","","","psychophysics","155","791751","0.0-14.0-0.0-0.8","null","","null","","","","","","","","","","","","","key","null","16.656866666666854","768","428","j","false","img/S_28.png","朋友","prac_self","","朋友"
"","","","","","html-keyboard-response","156","792063","0.0-14.0-0.0-1.8","null","<span class='add_' style='color:yellow; font-size: 70px;'> 太慢! </span>","null","","","","","","","","","","","","","","","","","","","","","","","feedback_test",""
"","","","","","psychophysics","157","793995","0.0-14.0-0.0-0.9","928","","k","","","","","","","","","","","","","key","k","16.662365217391482","768","428","j","false","img/S_28.png","朋友","prac_self","","朋友"
"","","","","","html-keyboard-response","158","794301","0.0-14.0-0.0-1.9","null","<span style='color:red; font-size: 70px;'>错误! </span>","null","","","","","","","","","","","","","","","","","","","","","","","feedback_test",""
"","","","","","psychophysics","159","796557","0.0-14.0-0.0-0.10","1248","","k","","","","","","","","","","","","","key","k","16.65679850746224","768","428","d","false","img/H_28.png","朋友","prac_self","","自我"
"","","","","","html-keyboard-response","160","796865","0.0-14.0-0.0-1.10","null","<span style='color:red; font-size: 70px;'>错误! </span>","null","","","","","","","","","","","","","","","","","","","","","","","feedback_test",""
"","","","","","psychophysics","161","799369","0.0-14.0-0.0-0.11","null","","null","","","","","","","","","","","","","key","null","16.664604026845332","768","428","j","false","img/C_28.png","生人","prac_self","","生人"
"","","","","","html-keyboard-response","162","799680","0.0-14.0-0.0-1.11","null","<span class='add_' style='color:yellow; font-size: 70px;'> 太慢! </span>","null","","","","","","","","","","","","","","","","","","","","","","","feedback_test",""
"","","","","","psychophysics","163","801636","0.0-14.0-0.0-0.12","954","","k","","","","","","","","","","","","","key","k","16.54239655172368","768","428","k","true","img/C_28.png","朋友","prac_self","","生人"
"","","","","","html-keyboard-response","164","801951","0.0-14.0-0.0-1.12","null","<span style='color:GreenYellow; font-size: 70px;'>正确! </span>","null","","","","","","","","","","","","","","","","","","","","","","","feedback_test",""
"","","","","","psychophysics","165","804282","0.0-14.0-0.0-0.13","1319","","f","","","","","","","","","","","","","key","f","16.663021582734046","768","428","d","false","img/H_28.png","生人","prac_self","","自我"
"","","","","","html-keyboard-response","166","804596","0.0-14.0-0.0-1.13","null","<span style='color:red; font-size: 70px;'>错误! </span>","null","","","","","","","","","","","","","","","","","","","","","","","feedback_test",""
"","","","","","psychophysics","167","806658","0.0-14.0-0.0-0.14","1060","","k","","","","","","","","","","","","","key","k","16.660245901639726","768","428","j","false","img/S_28.png","朋友","prac_self","","朋友"
"","","","","","html-keyboard-response","168","806963","0.0-14.0-0.0-1.14","null","<span style='color:red; font-size: 70px;'>错误! </span>","null","","","","","","","","","","","","","","","","","","","","","","","feedback_test",""
"","","","","","psychophysics","169","809002","0.0-14.0-0.0-0.15","1027","","j","","","","","","","","","","","","","key","j","16.66390909090896","768","428","k","false","img/C_28.png","自我","prac_self","","生人"
"","","","","","html-keyboard-response","170","809312","0.0-14.0-0.0-1.15","null","<span style='color:red; font-size: 70px;'>错误! </span>","null","","","","","","","","","","","","","","","","","","","","","","","feedback_test",""
"","","","","","psychophysics","171","811369","0.0-14.0-0.0-0.16","1049","","f","","","","","","","","","","","","","key","f","16.662491803277916","768","428","f","true","img/H_28.png","自我","prac_self","","自我"
"","","","","","html-keyboard-response","172","811676","0.0-14.0-0.0-1.16","null","<span style='color:GreenYellow; font-size: 70px;'>正确! </span>","null","","","","","","","","","","","","","","","","","","","","","","","feedback_test",""
"","","","","","psychophysics","173","813460","0.0-14.0-0.0-0.17","781","","f","","","","","","","","","","","","","key","f","16.541809523809658","768","428","f","true","img/H_28.png","自我","prac_self","","自我"
"","","","","","html-keyboard-response","174","813762","0.0-14.0-0.0-1.17","null","<span style='color:GreenYellow; font-size: 70px;'>正确! </span>","null","","","","","","","","","","","","","","","","","","","","","","","feedback_test",""
"","","","","","psychophysics","175","815685","0.0-14.0-0.0-0.18","912","","d","","","","","","","","","","","","","key","d","16.659350877193727","768","428","d","true","img/H_28.png","朋友","prac_self","","自我"
"","","","","","html-keyboard-response","176","815988","0.0-14.0-0.0-1.18","null","<span style='color:GreenYellow; font-size: 70px;'>正确! </span>","null","","","","","","","","","","","","","","","","","","","","","","","feedback_test",""
"","","","","","psychophysics","177","818080","0.0-14.0-0.0-0.19","1087","","j","","","","","","","","","","","","","key","j","16.661727999999187","768","428","j","true","img/S_28.png","朋友","prac_self","","朋友"
"","","","","","html-keyboard-response","178","818381","0.0-14.0-0.0-1.19","null","<span style='color:GreenYellow; font-size: 70px;'>正确! </span>","null","","","","","","","","","","","","","","","","","","","","","","","feedback_test",""
"","","","","","psychophysics","179","820100","0.0-14.0-0.0-0.20","708","","j","","","","","","","","","","","","","key","j","16.6619705882348","768","428","j","true","img/C_28.png","生人","prac_self","","生人"
"","","","","","html-keyboard-response","180","820408","0.0-14.0-0.0-1.20","null","<span style='color:GreenYellow; font-size: 70px;'>正确! </span>","null","","","","","","","","","","","","","","","","","","","","","","","feedback_test",""
"","","","","","psychophysics","181","822193","0.0-14.0-0.0-0.21","774","","k","","","","","","","","","","","","","key","k","16.660952830188556","768","428","j","false","img/C_28.png","生人","prac_self","","生人"
"","","","","","html-keyboard-response","182","822507","0.0-14.0-0.0-1.21","null","<span style='color:red; font-size: 70px;'>错误! </span>","null","","","","","","","","","","","","","","","","","","","","","","","feedback_test",""
"","","","","","psychophysics","183","824863","0.0-14.0-0.0-0.22","1348","","j","","","","","","","","","","","","","key","j","16.662485714285868","768","428","k","false","img/S_28.png","生人","prac_self","","朋友"
"","","","","","html-keyboard-response","184","825176","0.0-14.0-0.0-1.22","null","<span style='color:red; font-size: 70px;'>错误! </span>","null","","","","","","","","","","","","","","","","","","","","","","","feedback_test",""
"","","","","","psychophysics","185","827276","0.0-14.0-0.0-0.23","1090","","k","","","","","","","","","","","","","key","k","16.660952000000513","768","428","k","true","img/S_28.png","自我","prac_self","","朋友"
"","","","","","html-keyboard-response","186","827587","0.0-14.0-0.0-1.23","null","<span style='color:GreenYellow; font-size: 70px;'>正确! </span>","null","","","","","","","","","","","","","","","","","","","","","","","feedback_test",""
"","","","","","html-keyboard-response","187","836140","0.0-14.0-1.0-0.0","8551","<style>.context{color:white; font-size: 35px; line-height:40px}</style>                           <div><p class='context'>您正确回答了42% 的试次。</p><p class='context'>您的平均反应时为1019毫秒。</p>"," ","","","","","","","","","","","","","","","","","","","","","","","",""
"","","","","","instructions","188","849514","0.0-14.0-1.0-1.0","13371","","","","","","","","","","","","","","[{""page_index"":0,""viewing_time"":4805},{""page_index"":1,""viewing_time"":7302},{""page_index"":2,""viewing_time"":1264}]","","","","","","","","","","","",""
"","","","","","psychophysics","189","852021","0.0-14.1-0.1-0.24","null","","null","","","","","","","","","","","","","key","null","16.591120805369453","768","428","d","false","img/H_28.png","生人","prac_self","","自我"
"","","","","","html-keyboard-response","190","852329","0.0-14.1-0.1-1.24","null","<span class='add_' style='color:yellow; font-size: 70px;'> 太慢! </span>","null","","","","","","","","","","","","","","","","","","","","","","","feedback_test",""
"","","","","","psychophysics","191","854845","0.0-14.1-0.1-0.25","null","","null","","","","","","","","","","","","","key","null","16.578067114093848","768","428","k","false","img/C_28.png","自我","prac_self","","生人"
"","","","","","html-keyboard-response","192","855154","0.0-14.1-0.1-1.25","null","<span class='add_' style='color:yellow; font-size: 70px;'> 太慢! </span>","null","","","","","","","","","","","","","","","","","","","","","","","feedback_test",""
"","","","","","psychophysics","193","857403","0.0-14.1-0.1-0.26","1240","","k","","","","","","","","","","","","","key","k","16.66273880597037","768","428","k","true","img/S_28.png","自我","prac_self","","朋友"
"","","","","","html-keyboard-response","194","857719","0.0-14.1-0.1-1.26","null","<span style='color:GreenYellow; font-size: 70px;'>正确! </span>","null","","","","","","","","","","","","","","","","","","","","","","","feedback_test",""
"","","","","","psychophysics","195","860226","0.0-14.1-0.1-0.27","null","","null","","","","","","","","","","","","","key","null","16.661550335571228","768","428","j","false","img/C_28.png","生人","prac_self","","生人"
"","","","","","html-keyboard-response","196","860535","0.0-14.1-0.1-1.27","null","<span class='add_' style='color:yellow; font-size: 70px;'> 太慢! </span>","null","","","","","","","","","","","","","","","","","","","","","","","feedback_test",""
"","","","","","psychophysics","197","862642","0.0-14.1-0.1-0.28","1097","","k","","","","","","","","","","","","","key","k","16.661864000000058","768","428","j","false","img/S_28.png","朋友","prac_self","","朋友"
"","","","","","html-keyboard-response","198","862944","0.0-14.1-0.1-1.28","null","<span style='color:red; font-size: 70px;'>错误! </span>","null","","","","","","","","","","","","","","","","","","","","","","","feedback_test",""
"","","","","","psychophysics","199","864964","0.0-14.1-0.1-0.29","1012","","f","","","","","","","","","","","","","key","f","16.662175000000087","768","428","f","true","img/H_28.png","自我","prac_self","","自我"
"","","","","","html-keyboard-response","200","865277","0.0-14.1-0.1-1.29","null","<span style='color:GreenYellow; font-size: 70px;'>正确! </span>","null","","","","","","","","","","","","","","","","","","","","","","","feedback_test",""
"","","","","","psychophysics","201","867523","0.0-14.1-0.1-0.30","1245","","j","","","","","","","","","","","","","key","j","16.659954887217864","768","428","k","false","img/S_28.png","生人","prac_self","","朋友"
"","","","","","html-keyboard-response","202","867835","0.0-14.1-0.1-1.30","null","<span style='color:red; font-size: 70px;'>错误! </span>","null","","","","","","","","","","","","","","","","","","","","","","","feedback_test",""
"","","","","","psychophysics","203","870073","0.0-14.1-0.1-0.31","1232","","j","","","","","","","","","","","","","key","j","16.66275939849622","768","428","j","true","img/S_28.png","朋友","prac_self","","朋友"
"","","","","","html-keyboard-response","204","870377","0.0-14.1-0.1-1.31","null","<span style='color:GreenYellow; font-size: 70px;'>正确! </span>","null","","","","","","","","","","","","","","","","","","","","","","","feedback_test",""
"","","","","","psychophysics","205","872751","0.0-14.1-0.1-0.32","1364","","k","","","","","","","","","","","","","key","k","16.659992907801477","768","428","k","true","img/C_28.png","朋友","prac_self","","生人"
"","","","","","html-keyboard-response","206","873053","0.0-14.1-0.1-1.32","null","<span style='color:GreenYellow; font-size: 70px;'>正确! </span>","null","","","","","","","","","","","","","","","","","","","","","","","feedback_test",""
"","","","","","psychophysics","207","875230","0.0-14.1-0.1-0.33","1173","","j","","","","","","","","","","","","","key","j","16.66159999999934","768","428","j","true","img/C_28.png","生人","prac_self","","生人"
"","","","","","html-keyboard-response","208","875533","0.0-14.1-0.1-1.33","null","<span style='color:GreenYellow; font-size: 70px;'>正确! </span>","null","","","","","","","","","","","","","","","","","","","","","","","feedback_test",""
"","","","","","psychophysics","209","877727","0.0-14.1-0.1-0.34","1191","","d","","","","","","","","","","","","","key","d","16.662725190839105","768","428","d","true","img/H_28.png","朋友","prac_self","","自我"
"","","","","","html-keyboard-response","210","878043","0.0-14.1-0.1-1.34","null","<span style='color:GreenYellow; font-size: 70px;'>正确! </span>","null","","","","","","","","","","","","","","","","","","","","","","","feedback_test",""
"","","","","","psychophysics","211","879805","0.0-14.1-0.1-0.35","749","","f","","","","","","","","","","","","","key","f","16.659857142857454","768","428","f","true","img/H_28.png","自我","prac_self","","自我"
"","","","","","html-keyboard-response","212","880120","0.0-14.1-0.1-1.35","null","<span style='color:GreenYellow; font-size: 70px;'>正确! </span>","null","","","","","","","","","","","","","","","","","","","","","","","feedback_test",""
"","","","","","psychophysics","213","882365","0.0-14.1-0.1-0.36","1234","","k","","","","","","","","","","","","","key","k","16.661045112781913","768","428","k","true","img/C_28.png","朋友","prac_self","","生人"
"","","","","","html-keyboard-response","214","882669","0.0-14.1-0.1-1.36","null","<span style='color:GreenYellow; font-size: 70px;'>正确! </span>","null","","","","","","","","","","","","","","","","","","","","","","","feedback_test",""
"","","","","","psychophysics","215","884507","0.0-14.1-0.1-0.37","827","","f","","","","","","","","","","","","","key","f","16.6643853211015","768","428","f","true","img/H_28.png","自我","prac_self","","自我"
"","","","","","html-keyboard-response","216","884814","0.0-14.1-0.1-1.37","null","<span style='color:GreenYellow; font-size: 70px;'>正确! </span>","null","","","","","","","","","","","","","","","","","","","","","","","feedback_test",""
"","","","","","psychophysics","217","886978","0.0-14.1-0.1-0.38","1159","","j","","","","","","","","","","","","","key","j","16.66156589147245","768","428","j","true","img/C_28.png","生人","prac_self","","生人"
"","","","","","html-keyboard-response","218","887280","0.0-14.1-0.1-1.38","null","<span style='color:GreenYellow; font-size: 70px;'>正确! </span>","null","","","","","","","","","","","","","","","","","","","","","","","feedback_test",""
"","","","","","psychophysics","219","889476","0.0-14.1-0.1-0.39","1190","","k","","","","","","","","","","","","","key","k","16.656984732824","768","428","k","true","img/S_28.png","生人","prac_self","","朋友"
"","","","","","html-keyboard-response","220","889778","0.0-14.1-0.1-1.39","null","<span style='color:GreenYellow; font-size: 70px;'>正确! </span>","null","","","","","","","","","","","","","","","","","","","","","","","feedback_test",""
"","","","","","psychophysics","221","892164","0.0-14.1-0.1-0.40","1380","","j","","","","","","","","","","","","","key","j","16.65842253521157","768","428","j","true","img/C_28.png","生人","prac_self","","生人"
"","","","","","html-keyboard-response","222","892481","0.0-14.1-0.1-1.40","null","<span style='color:GreenYellow; font-size: 70px;'>正确! </span>","null","","","","","","","","","","","","","","","","","","","","","","","feedback_test",""
"","","","","","psychophysics","223","894984","0.0-14.1-0.1-0.41","null","","null","","","","","","","","","","","","","key","null","16.578812080536245","768","428","k","false","img/S_28.png","自我","prac_self","","朋友"
"","","","","","html-keyboard-response","224","895295","0.0-14.1-0.1-1.41","null","<span class='add_' style='color:yellow; font-size: 70px;'> 太慢! </span>","null","","","","","","","","","","","","","","","","","","","","","","","feedback_test",""
"","","","","","psychophysics","225","897275","0.0-14.1-0.1-0.42","977","","d","","","","","","","","","","","","","key","d","16.66323728813549","768","428","d","true","img/H_28.png","朋友","prac_self","","自我"
"","","","","","html-keyboard-response","226","897576","0.0-14.1-0.1-1.42","null","<span style='color:GreenYellow; font-size: 70px;'>正确! </span>","null","","","","","","","","","","","","","","","","","","","","","","","feedback_test",""
"","","","","","psychophysics","227","899842","0.0-14.1-0.1-0.43","1261","","k","","","","","","","","","","","","","key","k","16.66154814814821","768","428","j","false","img/S_28.png","朋友","prac_self","","朋友"
"","","","","","html-keyboard-response","228","900154","0.0-14.1-0.1-1.43","null","<span style='color:red; font-size: 70px;'>错误! </span>","null","","","","","","","","","","","","","","","","","","","","","","","feedback_test",""
"","","","","","psychophysics","229","902359","0.0-14.1-0.1-0.44","1195","","d","","","","","","","","","","","","","key","d","16.66180152671753","768","428","d","true","img/H_28.png","生人","prac_self","","自我"
"","","","","","html-keyboard-response","230","902674","0.0-14.1-0.1-1.44","null","<span style='color:GreenYellow; font-size: 70px;'>正确! </span>","null","","","","","","","","","","","","","","","","","","","","","","","feedback_test",""
"","","","","","psychophysics","231","904474","0.0-14.1-0.1-0.45","794","","f","","","","","","","","","","","","","key","f","16.662084112149472","768","428","f","true","img/H_28.png","自我","prac_self","","自我"
"","","","","","html-keyboard-response","232","904788","0.0-14.1-0.1-1.45","null","<span style='color:GreenYellow; font-size: 70px;'>正确! </span>","null","","","","","","","","","","","","","","","","","","","","","","","feedback_test",""
"","","","","","psychophysics","233","907295","0.0-14.1-0.1-0.46","null","","null","","","","","","","","","","","","","key","null","16.660932885905595","768","428","k","false","img/C_28.png","自我","prac_self","","生人"
"","","","","","html-keyboard-response","234","907607","0.0-14.1-0.1-1.46","null","<span class='add_' style='color:yellow; font-size: 70px;'> 太慢! </span>","null","","","","","","","","","","","","","","","","","","","","","","","feedback_test",""
"","","","","","psychophysics","235","909807","0.0-14.1-0.1-0.47","1195","","j","","","","","","","","","","","","","key","j","16.66274809160355","768","428","j","true","img/S_28.png","朋友","prac_self","","朋友"
"","","","","","html-keyboard-response","236","910115","0.0-14.1-0.1-1.47","null","<span style='color:GreenYellow; font-size: 70px;'>正确! </span>","null","","","","","","","","","","","","","","","","","","","","","","","feedback_test",""
"","","","","","html-keyboard-response","237","913817","0.0-14.1-1.1-0.1","3698","<style>.context{color:white; font-size: 35px; line-height:40px}</style>                           <div><p class='context'>您正确回答了67% 的试次。</p><p class='context'>您的平均反应时为1120毫秒。</p>"," ","","","","","","","","","","","","","","","","","","","","","","","",""
"","","","","","instructions","238","931009","0.0-14.1-1.1-1.1","17190","","","","","","","","","","","","","","[{""page_index"":0,""viewing_time"":6352},{""page_index"":1,""viewing_time"":9694},{""page_index"":2,""viewing_time"":1144}]","","","","","","","","","","","",""
"","","","","","psychophysics","239","933515","0.0-14.2-0.2-0.48","null","","null","","","","","","","","","","","","","key","null","16.66216107382558","768","428","j","false","img/C_28.png","生人","prac_self","","生人"
"","","","","","html-keyboard-response","240","933823","0.0-14.2-0.2-1.48","null","<span class='add_' style='color:yellow; font-size: 70px;'> 太慢! </span>","null","","","","","","","","","","","","","","","","","","","","","","","feedback_test",""
"","","","","","psychophysics","241","936175","0.0-14.2-0.2-0.49","1345","","k","","","","","","","","","","","","","key","k","16.661328571428644","768","428","k","true","img/C_28.png","自我","prac_self","","生人"
"","","","","","html-keyboard-response","242","936479","0.0-14.2-0.2-1.49","null","<span style='color:GreenYellow; font-size: 70px;'>正确! </span>","null","","","","","","","","","","","","","","","","","","","","","","","feedback_test",""
"","","","","","psychophysics","243","938231","0.0-14.2-0.2-0.50","746","","f","","","","","","","","","","","","","key","f","16.65867307692287","768","428","f","true","img/H_28.png","自我","prac_self","","自我"
"","","","","","html-keyboard-response","244","938537","0.0-14.2-0.2-1.50","null","<span style='color:GreenYellow; font-size: 70px;'>正确! </span>","null","","","","","","","","","","","","","","","","","","","","","","","feedback_test",""
"","","","","","psychophysics","245","940941","0.0-14.2-0.2-0.51","1390","","k","","","","","","","","","","","","","key","k","16.657797202797624","768","428","k","true","img/C_28.png","朋友","prac_self","","生人"
"","","","","","html-keyboard-response","246","941256","0.0-14.2-0.2-1.51","null","<span style='color:GreenYellow; font-size: 70px;'>正确! </span>","null","","","","","","","","","","","","","","","","","","","","","","","feedback_test",""
"","","","","","psychophysics","247","943243","0.0-14.2-0.2-0.52","981","","d","","","","","","","","","","","","","key","d","16.66055084745719","768","428","d","true","img/H_28.png","生人","prac_self","","自我"
"","","","","","html-keyboard-response","248","943552","0.0-14.2-0.2-1.52","null","<span style='color:GreenYellow; font-size: 70px;'>正确! </span>","null","","","","","","","","","","","","","","","","","","","","","","","feedback_test",""
"","","","","","psychophysics","249","945246","0.0-14.2-0.2-0.53","680","","f","","","","","","","","","","","","","key","f","16.6592499999993","768","428","f","true","img/H_28.png","自我","prac_self","","自我"
"","","","","","html-keyboard-response","250","945558","0.0-14.2-0.2-1.53","null","<span style='color:GreenYellow; font-size: 70px;'>正确! </span>","null","","","","","","","","","","","","","","","","","","","","","","","feedback_test",""
"","","","","","psychophysics","251","947675","0.0-14.2-0.2-0.54","1111","","k","","","","","","","","","","","","","key","k","16.661111111110557","768","428","j","false","img/C_28.png","生人","prac_self","","生人"
"","","","","","html-keyboard-response","252","947985","0.0-14.2-0.2-1.54","null","<span style='color:red; font-size: 70px;'>错误! </span>","null","","","","","","","","","","","","","","","","","","","","","","","feedback_test",""
"","","","","","psychophysics","253","949914","0.0-14.2-0.2-0.55","916","","j","","","","","","","","","","","","","key","j","16.65588596491184","768","428","j","true","img/S_28.png","朋友","prac_self","","朋友"
"","","","","","html-keyboard-response","254","950225","0.0-14.2-0.2-1.55","null","<span style='color:GreenYellow; font-size: 70px;'>正确! </span>","null","","","","","","","","","","","","","","","","","","","","","","","feedback_test",""
"","","","","","psychophysics","255","952158","0.0-14.2-0.2-0.56","928","","d","","","","","","","","","","","","","key","d","16.661591304347688","768","428","d","true","img/H_28.png","朋友","prac_self","","自我"
"","","","","","html-keyboard-response","256","952465","0.0-14.2-0.2-1.56","null","<span style='color:GreenYellow; font-size: 70px;'>正确! </span>","null","","","","","","","","","","","","","","","","","","","","","","","feedback_test",""
"","","","","","psychophysics","257","954725","0.0-14.2-0.2-0.57","1252","","k","","","","","","","","","","","","","key","k","16.66494776119405","768","428","k","true","img/S_28.png","生人","prac_self","","朋友"
"","","","","","html-keyboard-response","258","955028","0.0-14.2-0.2-1.57","null","<span style='color:GreenYellow; font-size: 70px;'>正确! </span>","null","","","","","","","","","","","","","","","","","","","","","","","feedback_test",""
"","","","","","psychophysics","259","956962","0.0-14.2-0.2-0.58","933","","j","","","","","","","","","","","","","key","j","16.662295652173825","768","428","j","true","img/S_28.png","朋友","prac_self","","朋友"
"","","","","","html-keyboard-response","260","957278","0.0-14.2-0.2-1.58","null","<span style='color:GreenYellow; font-size: 70px;'>正确! </span>","null","","","","","","","","","","","","","","","","","","","","","","","feedback_test",""
"","","","","","psychophysics","261","959371","0.0-14.2-0.2-0.59","1082","","k","","","","","","","","","","","","","key","k","16.667419354837847","768","428","k","true","img/S_28.png","自我","prac_self","","朋友"
"","","","","","html-keyboard-response","262","959673","0.0-14.2-0.2-1.59","null","<span style='color:GreenYellow; font-size: 70px;'>正确! </span>","null","","","","","","","","","","","","","","","","","","","","","","","feedback_test",""
"","","","","","psychophysics","263","961964","0.0-14.2-0.2-0.60","1287","","k","","","","","","","","","","","","","key","k","16.66102189780978","768","428","k","true","img/S_28.png","自我","prac_self","","朋友"
"","","","","","html-keyboard-response","264","962276","0.0-14.2-0.2-1.60","null","<span style='color:GreenYellow; font-size: 70px;'>正确! </span>","null","","","","","","","","","","","","","","","","","","","","","","","feedback_test",""
"","","","","","psychophysics","265","964533","0.0-14.2-0.2-0.61","1244","","j","","","","","","","","","","","","","key","j","16.660074626865324","768","428","j","true","img/C_28.png","生人","prac_self","","生人"
"","","","","","html-keyboard-response","266","964845","0.0-14.2-0.2-1.61","null","<span style='color:GreenYellow; font-size: 70px;'>正确! </span>","null","","","","","","","","","","","","","","","","","","","","","","","feedback_test",""
"","","","","","psychophysics","267","966762","0.0-14.2-0.2-0.62","907","","j","","","","","","","","","","","","","key","j","16.660719298245997","768","428","j","true","img/S_28.png","朋友","prac_self","","朋友"
"","","","","","html-keyboard-response","268","967071","0.0-14.2-0.2-1.62","null","<span style='color:GreenYellow; font-size: 70px;'>正确! </span>","null","","","","","","","","","","","","","","","","","","","","","","","feedback_test",""
"","","","","","psychophysics","269","968867","0.0-14.2-0.2-0.63","792","","k","","","","","","","","","","","","","key","k","16.66734579439214","768","428","k","true","img/S_28.png","生人","prac_self","","朋友"
"","","","","","html-keyboard-response","270","969171","0.0-14.2-0.2-1.63","null","<span style='color:GreenYellow; font-size: 70px;'>正确! </span>","null","","","","","","","","","","","","","","","","","","","","","","","feedback_test",""
"","","","","","psychophysics","271","970949","0.0-14.2-0.2-0.64","775","","f","","","","","","","","","","","","","key","f","16.662641509433875","768","428","f","true","img/H_28.png","自我","prac_self","","自我"
"","","","","","html-keyboard-response","272","971261","0.0-14.2-0.2-1.64","null","<span style='color:GreenYellow; font-size: 70px;'>正确! </span>","null","","","","","","","","","","","","","","","","","","","","","","","feedback_test",""
"","","","","","psychophysics","273","973421","0.0-14.2-0.2-0.65","1148","","k","","","","","","","","","","","","","key","k","16.666578124999432","768","428","k","true","img/C_28.png","自我","prac_self","","生人"
"","","","","","html-keyboard-response","274","973723","0.0-14.2-0.2-1.65","null","<span style='color:GreenYellow; font-size: 70px;'>正确! </span>","null","","","","","","","","","","","","","","","","","","","","","","","feedback_test",""
"","","","","","psychophysics","275","975837","0.0-14.2-0.2-0.66","1101","","d","","","","","","","","","","","","","key","d","16.660664000000803","768","428","d","true","img/H_28.png","生人","prac_self","","自我"
"","","","","","html-keyboard-response","276","976145","0.0-14.2-0.2-1.66","null","<span style='color:GreenYellow; font-size: 70px;'>正确! </span>","null","","","","","","","","","","","","","","","","","","","","","","","feedback_test",""
"","","","","","psychophysics","277","978009","0.0-14.2-0.2-0.67","856","","j","","","","","","","","","","","","","key","j","16.66825225225205","768","428","j","true","img/S_28.png","朋友","prac_self","","朋友"
"","","","","","html-keyboard-response","278","978312","0.0-14.2-0.2-1.67","null","<span style='color:GreenYellow; font-size: 70px;'>正确! </span>","null","","","","","","","","","","","","","","","","","","","","","","","feedback_test",""
"","","","","","psychophysics","279","980340","0.0-14.2-0.2-0.68","1020","","k","","","","","","","","","","","","","key","k","16.66044628099165","768","428","j","false","img/C_28.png","生人","prac_self","","生人"
"","","","","","html-keyboard-response","280","980655","0.0-14.2-0.2-1.68","null","<span style='color:red; font-size: 70px;'>错误! </span>","null","","","","","","","","","","","","","","","","","","","","","","","feedback_test",""
"","","","","","psychophysics","281","982541","0.0-14.2-0.2-0.69","872","","f","","","","","","","","","","","","","key","f","16.66104464285724","768","428","d","false","img/H_28.png","朋友","prac_self","","自我"
"","","","","","html-keyboard-response","282","982849","0.0-14.2-0.2-1.69","null","<span style='color:red; font-size: 70px;'>错误! </span>","null","","","","","","","","","","","","","","","","","","","","","","","feedback_test",""
"","","","","","psychophysics","283","984643","0.0-14.2-0.2-0.70","791","","f","","","","","","","","","","","","","key","f","16.660906542056658","768","428","f","true","img/H_28.png","自我","prac_self","","自我"
"","","","","","html-keyboard-response","284","984949","0.0-14.2-0.2-1.70","null","<span style='color:GreenYellow; font-size: 70px;'>正确! </span>","null","","","","","","","","","","","","","","","","","","","","","","","feedback_test",""
"","","","","","psychophysics","285","987319","0.0-14.2-0.2-0.71","1368","","k","","","","","","","","","","","","","key","k","16.661640845070277","768","428","k","true","img/C_28.png","朋友","prac_self","","生人"
"","","","","","html-keyboard-response","286","987627","0.0-14.2-0.2-1.71","null","<span style='color:GreenYellow; font-size: 70px;'>正确! </span>","null","","","","","","","","","","","","","","","","","","","","","","","feedback_test",""
"","","","","","html-keyboard-response","287","1003085","0.0-15.0","15455","[""<style>.context{color:white; font-size: 35px; line-height:40px}</style>           <div><p class='context'>您正确回答了83% 的试次。</p><p class='context'>您的平均反应时为1026毫秒。</p><p class='context'>恭喜您完成这一阶段的练习。按任意键进入<span style='color: yellow;'>重点关注图形为“朋友”</span>的练习。</p></div><p class='footer' style='font-size:35px; line-height:30px;'>任务要求：\n           <p class='footer' style='font-size:35px; line-height:35px;'>对于与“朋友”对应的图形：如果 匹配 ，请按 <span style=\""color: lightgreen;\"">f键</span></p><p class='footer' style='font-size:35px'>如果 不匹配 ，请按<span style=\""color: lightgreen;\"">d键</p></span>\n           <p class='footer' style='font-size:35px; line-height:35px;'>对于非“朋友”对应的图形：如果 匹配 ，请按 <span style=\""color: lightgreen;\"">j键</span></p><p class='footer' style='font-size:35px'>如果 不匹配 ，请按<span style=\""color: lightgreen;\"">k键</p></span>\n           <p class='footer' style='font-size:22px; line-height:25px;'>请在实验过程中将您的<span style=\""color: lightgreen;\"">食指和中指</span>放在电脑键盘的相应键位上进行按键。</p></span>""]"," ","","","","","","","","","","","","","","","","","","","","","","","",""
"","","","","","psychophysics","288","1005595","0.0-16.0-0.0-0.0","null","","null","","","","","","","","","","","","","key","null","16.6611140939593","768","428","j","false","img/H_28.png","自我","prac_friend","","自我"
"","","","","","html-keyboard-response","289","1005897","0.0-16.0-0.0-1.0","null","<span class='add_' style='color:yellow; font-size: 70px;'> 太慢! </span>","null","","","","","","","","","","","","","","","","","","","","","","","feedback_test",""
"","","","","","psychophysics","290","1008206","0.0-16.0-0.0-0.1","1299","","f","","","","","","","","","","","","","key","f","16.660678832116197","768","428","f","true","img/S_28.png","朋友","prac_friend","","朋友"
"","","","","","html-keyboard-response","291","1008513","0.0-16.0-0.0-1.1","null","<span style='color:GreenYellow; font-size: 70px;'>正确! </span>","null","","","","","","","","","","","","","","","","","","","","","","","feedback_test",""
"","","","","","psychophysics","292","1010597","0.0-16.0-0.0-0.2","1071","","k","","","","","","","","","","","","","key","k","16.658104838709527","768","428","k","true","img/H_28.png","生人","prac_friend","","自我"
"","","","","","html-keyboard-response","293","1010913","0.0-16.0-0.0-1.2","null","<span style='color:GreenYellow; font-size: 70px;'>正确! </span>","null","","","","","","","","","","","","","","","","","","","","","","","feedback_test",""
"","","","","","psychophysics","294","1013392","0.0-16.0-0.0-0.3","1467","","j","","","","","","","","","","","","","key","j","16.66040540540613","768","428","j","true","img/C_28.png","生人","prac_friend","","生人"
"","","","","","html-keyboard-response","295","1013699","0.0-16.0-0.0-1.3","null","<span style='color:GreenYellow; font-size: 70px;'>正确! </span>","null","","","","","","","","","","","","","","","","","","","","","","","feedback_test",""
"","","","","","psychophysics","296","1015806","0.0-16.0-0.0-0.4","1097","","k","","","","","","","","","","","","","key","k","16.661615999999455","768","428","d","false","img/S_28.png","生人","prac_friend","","朋友"
"","","","","","html-keyboard-response","297","1016109","0.0-16.0-0.0-1.4","null","<span style='color:red; font-size: 70px;'>错误! </span>","null","","","","","","","","","","","","","","","","","","","","","","","feedback_test",""
"","","","","","psychophysics","298","1018491","0.0-16.0-0.0-0.5","1375","","k","","","","","","","","","","","","","key","k","16.659133802816555","768","428","k","true","img/H_28.png","朋友","prac_friend","","自我"
"","","","","","html-keyboard-response","299","1018797","0.0-16.0-0.0-1.5","null","<span style='color:GreenYellow; font-size: 70px;'>正确! </span>","null","","","","","","","","","","","","","","","","","","","","","","","feedback_test",""
"","","","","","psychophysics","300","1021111","0.0-16.0-0.0-0.6","1304","","k","","","","","","","","","","","","","key","k","16.661405797102116","768","428","k","true","img/C_28.png","自我","prac_friend","","生人"
"","","","","","html-keyboard-response","301","1021424","0.0-16.0-0.0-1.6","null","<span style='color:GreenYellow; font-size: 70px;'>正确! </span>","null","","","","","","","","","","","","","","","","","","","","","","","feedback_test",""
"","","","","","psychophysics","302","1023745","0.0-16.0-0.0-0.7","1311","","k","","","","","","","","","","","","","key","k","16.660275362318963","768","428","k","true","img/C_28.png","朋友","prac_friend","","生人"
"","","","","","html-keyboard-response","303","1024048","0.0-16.0-0.0-1.7","null","<span style='color:GreenYellow; font-size: 70px;'>正确! </span>","null","","","","","","","","","","","","","","","","","","","","","","","feedback_test",""
"","","","","","psychophysics","304","1026108","0.0-16.0-0.0-0.8","1053","","j","","","","","","","","","","","","","key","j","16.660626016260025","768","428","j","true","img/H_28.png","自我","prac_friend","","自我"
"","","","","","html-keyboard-response","305","1026410","0.0-16.0-0.0-1.8","null","<span style='color:GreenYellow; font-size: 70px;'>正确! </span>","null","","","","","","","","","","","","","","","","","","","","","","","feedback_test",""
"","","","","","psychophysics","306","1028371","0.0-16.0-0.0-0.9","953","","f","","","","","","","","","","","","","key","f","16.660598290597616","768","428","f","true","img/S_28.png","朋友","prac_friend","","朋友"
"","","","","","html-keyboard-response","307","1028678","0.0-16.0-0.0-1.9","null","<span style='color:GreenYellow; font-size: 70px;'>正确! </span>","null","","","","","","","","","","","","","","","","","","","","","","","feedback_test",""
"","","","","","psychophysics","308","1030471","0.0-16.0-0.0-0.10","785","","d","","","","","","","","","","","","","key","d","16.66188785046661","768","428","d","true","img/S_28.png","自我","prac_friend","","朋友"
"","","","","","html-keyboard-response","309","1030781","0.0-16.0-0.0-1.10","null","<span style='color:GreenYellow; font-size: 70px;'>正确! </span>","null","","","","","","","","","","","","","","","","","","","","","","","feedback_test",""
"","","","","","psychophysics","310","1032970","0.0-16.0-0.0-0.11","1182","","k","","","","","","","","","","","","","key","k","16.6618702290082","768","428","j","false","img/C_28.png","生人","prac_friend","","生人"
"","","","","","html-keyboard-response","311","1033286","0.0-16.0-0.0-1.11","null","<span style='color:red; font-size: 70px;'>错误! </span>","null","","","","","","","","","","","","","","","","","","","","","","","feedback_test",""
"","","","","","psychophysics","312","1035177","0.0-16.0-0.0-0.12","881","","f","","","","","","","","","","","","","key","f","16.658982142856985","768","428","f","true","img/S_28.png","朋友","prac_friend","","朋友"
"","","","","","html-keyboard-response","313","1035485","0.0-16.0-0.0-1.12","null","<span style='color:GreenYellow; font-size: 70px;'>正确! </span>","null","","","","","","","","","","","","","","","","","","","","","","","feedback_test",""
"","","","","","psychophysics","314","1037573","0.0-16.0-0.0-0.13","1072","","j","","","","","","","","","","","","","key","j","16.660709677419003","768","428","j","true","img/C_28.png","生人","prac_friend","","生人"
"","","","","","html-keyboard-response","315","1037887","0.0-16.0-0.0-1.13","null","<span style='color:GreenYellow; font-size: 70px;'>正确! </span>","null","","","","","","","","","","","","","","","","","","","","","","","feedback_test",""
"","","","","","psychophysics","316","1039543","0.0-16.0-0.0-0.14","653","","j","","","","","","","","","","","","","key","j","16.660326530611645","768","428","j","true","img/C_28.png","生人","prac_friend","","生人"
"","","","","","html-keyboard-response","317","1039855","0.0-16.0-0.0-1.14","null","<span style='color:GreenYellow; font-size: 70px;'>正确! </span>","null","","","","","","","","","","","","","","","","","","","","","","","feedback_test",""
"","","","","","psychophysics","318","1042046","0.0-16.0-0.0-0.15","1182","","f","","","","","","","","","","","","","key","f","16.66167692307723","768","428","d","false","img/S_28.png","生人","prac_friend","","朋友"
"","","","","","html-keyboard-response","319","1042354","0.0-16.0-0.0-1.15","null","<span style='color:red; font-size: 70px;'>错误! </span>","null","","","","","","","","","","","","","","","","","","","","","","","feedback_test",""
"","","","","","psychophysics","320","1044387","0.0-16.0-0.0-0.16","1026","","j","","","","","","","","","","","","","key","j","16.660644628099853","768","428","j","true","img/H_28.png","自我","prac_friend","","自我"
"","","","","","html-keyboard-response","321","1044698","0.0-16.0-0.0-1.16","null","<span style='color:GreenYellow; font-size: 70px;'>正确! </span>","null","","","","","","","","","","","","","","","","","","","","","","","feedback_test",""
"","","","","","psychophysics","322","1046692","0.0-16.0-0.0-0.17","993","","d","","","","","","","","","","","","","key","d","16.66055084745719","768","428","d","true","img/S_28.png","自我","prac_friend","","朋友"
"","","","","","html-keyboard-response","323","1046994","0.0-16.0-0.0-1.17","null","<span style='color:GreenYellow; font-size: 70px;'>正确! </span>","null","","","","","","","","","","","","","","","","","","","","","","","feedback_test",""
"","","","","","psychophysics","324","1049123","0.0-16.0-0.0-0.18","1126","","k","","","","","","","","","","","","","key","k","16.662984251966847","768","428","k","true","img/H_28.png","生人","prac_friend","","自我"
"","","","","","html-keyboard-response","325","1049437","0.0-16.0-0.0-1.18","null","<span style='color:GreenYellow; font-size: 70px;'>正确! </span>","null","","","","","","","","","","","","","","","","","","","","","","","feedback_test",""
"","","","","","psychophysics","326","1051615","0.0-16.0-0.0-0.19","1169","","k","","","","","","","","","","","","","key","k","16.660576923076924","768","428","k","true","img/H_28.png","朋友","prac_friend","","自我"
"","","","","","html-keyboard-response","327","1051924","0.0-16.0-0.0-1.19","null","<span style='color:GreenYellow; font-size: 70px;'>正确! </span>","null","","","","","","","","","","","","","","","","","","","","","","","feedback_test",""
"","","","","","psychophysics","328","1053753","0.0-16.0-0.0-0.20","823","","j","","","","","","","","","","","","","key","j","16.661036697248374","768","428","j","true","img/H_28.png","自我","prac_friend","","自我"
"","","","","","html-keyboard-response","329","1054068","0.0-16.0-0.0-1.20","null","<span style='color:GreenYellow; font-size: 70px;'>正确! </span>","null","","","","","","","","","","","","","","","","","","","","","","","feedback_test",""
"","","","","","psychophysics","330","1056334","0.0-16.0-0.0-0.21","1261","","k","","","","","","","","","","","","","key","k","16.66102962963007","768","428","k","true","img/C_28.png","朋友","prac_friend","","生人"
"","","","","","html-keyboard-response","331","1056645","0.0-16.0-0.0-1.21","null","<span style='color:GreenYellow; font-size: 70px;'>正确! </span>","null","","","","","","","","","","","","","","","","","","","","","","","feedback_test",""
"","","","","","psychophysics","332","1058602","0.0-16.0-0.0-0.22","944","","f","","","","","","","","","","","","","key","f","16.662120689656025","768","428","f","true","img/S_28.png","朋友","prac_friend","","朋友"
"","","","","","html-keyboard-response","333","1058907","0.0-16.0-0.0-1.22","null","<span style='color:GreenYellow; font-size: 70px;'>正确! </span>","null","","","","","","","","","","","","","","","","","","","","","","","feedback_test",""
"","","","","","psychophysics","334","1060861","0.0-16.0-0.0-0.23","951","","k","","","","","","","","","","","","","key","k","16.659051282050758","768","428","k","true","img/C_28.png","自我","prac_friend","","生人"
"","","","","","html-keyboard-response","335","1061174","0.0-16.0-0.0-1.23","null","<span style='color:GreenYellow; font-size: 70px;'>正确! </span>","null","","","","","","","","","","","","","","","","","","","","","","","feedback_test",""
"","","","","","html-keyboard-response","336","1069822","0.0-17.0","8643","[""<style>.context{color:white; font-size: 35px; line-height:40px}</style>               <div><p class='context'>您正确回答了83% 的试次。</p><p class='context'>您的平均反应时为1076毫秒。</p><p class='context'>恭喜您完成这一阶段的练习。按任意键进入<span style='color: yellow;'>重点关注图形为“生人”</span>的练习。</p></div><p class='footer' style='font-size:35px; line-height:30px;'>任务要求：\n               <p class='footer' style='font-size:35px; line-height:35px;'>对与“生人”对应的图形，如果 匹配 ，请按 <span style=\""color: lightgreen;\"">f键</span></p><p class='footer' style='font-size:35px'>如果 不匹配 ，请按<span style=\""color: lightgreen;\"">d键</p></span>\n               <p class='footer' style='font-size:35px; line-height:35px;'>对非“生人”对应的图形，如果 匹配 ，请按 <span style=\""color: lightgreen;\"">j键</span></p><p class='footer' style='font-size:35px'>如果 不匹配 ，请按<span style=\""color: lightgreen;\"">k键</p></span>\n               <p class='footer' style='font-size:22px; line-height:25px;'>请在实验过程中将您的<span style=\""color: lightgreen;\"">食指和中指</span>放在电脑键盘的相应键位上进行按键。</p></span>""]"," ","","","","","","","","","","","","","","","","","","","","","","","",""
"","","","","","psychophysics","337","1071815","0.0-18.0-0.0-0.0","976","","d","","","","","","","","","","","","","key","d","16.603720338983557","768","428","d","true","img/C_28.png","自我","prac_stranger","","生人"
"","","","","","html-keyboard-response","338","1072131","0.0-18.0-0.0-1.0","null","<span style='color:GreenYellow; font-size: 70px;'>正确! </span>","null","","","","","","","","","","","","","","","","","","","","","","","feedback_test",""
"","","","","","psychophysics","339","1074436","0.0-18.0-0.0-0.1","1297","","k","","","","","","","","","","","","","key","k","16.658656934306816","768","428","k","true","img/H_28.png","生人","prac_stranger","","自我"
"","","","","","html-keyboard-response","340","1074744","0.0-18.0-0.0-1.1","null","<span style='color:GreenYellow; font-size: 70px;'>正确! </span>","null","","","","","","","","","","","","","","","","","","","","","","","feedback_test",""
"","","","","","psychophysics","341","1076586","0.0-18.0-0.0-0.2","830","","d","","","","","","","","","","","","","key","d","16.65771559632913","768","428","k","false","img/H_28.png","朋友","prac_stranger","","自我"
"","","","","","html-keyboard-response","342","1076890","0.0-18.0-0.0-1.2","null","<span style='color:red; font-size: 70px;'>错误! </span>","null","","","","","","","","","","","","","","","","","","","","","","","feedback_test",""
"","","","","","psychophysics","343","1078722","0.0-18.0-0.0-0.3","820","","j","","","","","","","","","","","","","key","j","16.652532110093247","768","428","j","true","img/H_28.png","自我","prac_stranger","","自我"
"","","","","","html-keyboard-response","344","1079024","0.0-18.0-0.0-1.3","null","<span style='color:GreenYellow; font-size: 70px;'>正确! </span>","null","","","","","","","","","","","","","","","","","","","","","","","feedback_test",""
"","","","","","psychophysics","345","1081160","0.0-18.0-0.0-0.4","1126","","k","","","","","","","","","","","","","key","k","16.668023622046615","768","428","f","false","img/C_28.png","生人","prac_stranger","","生人"
"","","","","","html-keyboard-response","346","1081469","0.0-18.0-0.0-1.4","null","<span style='color:red; font-size: 70px;'>错误! </span>","null","","","","","","","","","","","","","","","","","","","","","","","feedback_test",""
"","","","","","psychophysics","347","1083701","0.0-18.0-0.0-0.5","1221","","k","","","","","","","","","","","","","key","k","16.6671969696957","768","428","k","true","img/S_28.png","自我","prac_stranger","","朋友"
"","","","","","html-keyboard-response","348","1084008","0.0-18.0-0.0-1.5","null","<span style='color:GreenYellow; font-size: 70px;'>正确! </span>","null","","","","","","","","","","","","","","","","","","","","","","","feedback_test",""
"","","","","","psychophysics","349","1085822","0.0-18.0-0.0-0.6","803","","j","","","","","","","","","","","","","key","j","16.658879629629492","768","428","j","true","img/H_28.png","自我","prac_stranger","","自我"
"","","","","","html-keyboard-response","350","1086129","0.0-18.0-0.0-1.6","null","<span style='color:GreenYellow; font-size: 70px;'>正确! </span>","null","","","","","","","","","","","","","","","","","","","","","","","feedback_test",""
"","","","","","psychophysics","351","1088244","0.0-18.0-0.0-0.7","1109","","j","","","","","","","","","","","","","key","j","16.661595238093657","768","428","k","false","img/S_28.png","生人","prac_stranger","","朋友"
"","","","","","html-keyboard-response","352","1088558","0.0-18.0-0.0-1.7","null","<span style='color:red; font-size: 70px;'>错误! </span>","null","","","","","","","","","","","","","","","","","","","","","","","feedback_test",""
"","","","","","psychophysics","353","1090393","0.0-18.0-0.0-0.8","826","","j","","","","","","","","","","","","","key","j","16.659770642202176","768","428","j","true","img/S_28.png","朋友","prac_stranger","","朋友"
"","","","","","html-keyboard-response","354","1090709","0.0-18.0-0.0-1.8","null","<span style='color:GreenYellow; font-size: 70px;'>正确! </span>","null","","","","","","","","","","","","","","","","","","","","","","","feedback_test",""
"","","","","","psychophysics","355","1092538","0.0-18.0-0.0-0.9","821","","k","","","","","","","","","","","","","key","k","16.661009174312355","768","428","j","false","img/S_28.png","朋友","prac_stranger","","朋友"
"","","","","","html-keyboard-response","356","1092854","0.0-18.0-0.0-1.9","null","<span style='color:red; font-size: 70px;'>错误! </span>","null","","","","","","","","","","","","","","","","","","","","","","","feedback_test",""
"","","","","","psychophysics","357","1095147","0.0-18.0-0.0-0.10","1279","","j","","","","","","","","","","","","","key","j","16.662242647058413","768","428","d","false","img/C_28.png","朋友","prac_stranger","","生人"
"","","","","","html-keyboard-response","358","1095459","0.0-18.0-0.0-1.10","null","<span style='color:red; font-size: 70px;'>错误! </span>","null","","","","","","","","","","","","","","","","","","","","","","","feedback_test",""
"","","","","","psychophysics","359","1097571","0.0-18.0-0.0-0.11","1105","","d","","","","","","","","","","","","","key","d","16.662246031745795","768","428","f","false","img/C_28.png","生人","prac_stranger","","生人"
"","","","","","html-keyboard-response","360","1097881","0.0-18.0-0.0-1.11","null","<span style='color:red; font-size: 70px;'>错误! </span>","null","","","","","","","","","","","","","","","","","","","","","","","feedback_test",""
"","","","","","psychophysics","361","1100153","0.0-18.0-0.0-0.12","1264","","j","","","","","","","","","","","","","key","j","16.66141481481458","768","428","j","true","img/S_28.png","朋友","prac_stranger","","朋友"
"","","","","","html-keyboard-response","362","1100462","0.0-18.0-0.0-1.12","null","<span style='color:GreenYellow; font-size: 70px;'>正确! </span>","null","","","","","","","","","","","","","","","","","","","","","","","feedback_test",""
"","","","","","psychophysics","363","1102403","0.0-18.0-0.0-0.13","940","","j","","","","","","","","","","","","","key","j","16.55891304347745","768","428","j","true","img/H_28.png","自我","prac_stranger","","自我"
"","","","","","html-keyboard-response","364","1102713","0.0-18.0-0.0-1.13","null","<span style='color:GreenYellow; font-size: 70px;'>正确! </span>","null","","","","","","","","","","","","","","","","","","","","","","","feedback_test",""
"","","","","","psychophysics","365","1104774","0.0-18.0-0.0-0.14","1049","","k","","","","","","","","","","","","","key","k","16.66209836065632","768","428","j","false","img/S_28.png","朋友","prac_stranger","","朋友"
"","","","","","html-keyboard-response","366","1105090","0.0-18.0-0.0-1.14","null","<span style='color:red; font-size: 70px;'>错误! </span>","null","","","","","","","","","","","","","","","","","","","","","","","feedback_test",""
"","","","","","psychophysics","367","1107293","0.0-18.0-0.0-0.15","1198","","d","","","","","","","","","","","","","key","d","16.65761832061103","768","428","f","false","img/C_28.png","生人","prac_stranger","","生人"
"","","","","","html-keyboard-response","368","1107603","0.0-18.0-0.0-1.15","null","<span style='color:red; font-size: 70px;'>错误! </span>","null","","","","","","","","","","","","","","","","","","","","","","","feedback_test",""
"","","","","","psychophysics","369","1109585","0.0-18.0-0.0-0.16","974","","k","","","","","","","","","","","","","key","k","16.661144067795743","768","428","k","true","img/S_28.png","自我","prac_stranger","","朋友"
"","","","","","html-keyboard-response","370","1109898","0.0-18.0-0.0-1.16","null","<span style='color:GreenYellow; font-size: 70px;'>正确! </span>","null","","","","","","","","","","","","","","","","","","","","","","","feedback_test",""
"","","","","","psychophysics","371","1111946","0.0-18.0-0.0-0.17","1035","","k","","","","","","","","","","","","","key","k","16.65935245901537","768","428","k","true","img/S_28.png","生人","prac_stranger","","朋友"
"","","","","","html-keyboard-response","372","1112253","0.0-18.0-0.0-1.17","null","<span style='color:GreenYellow; font-size: 70px;'>正确! </span>","null","","","","","","","","","","","","","","","","","","","","","","","feedback_test",""
"","","","","","psychophysics","373","1114561","0.0-18.0-0.0-0.18","1301","","k","","","","","","","","","","","","","key","k","16.660789855072558","768","428","f","false","img/C_28.png","生人","prac_stranger","","生人"
"","","","","","html-keyboard-response","374","1114867","0.0-18.0-0.0-1.18","null","<span style='color:red; font-size: 70px;'>错误! </span>","null","","","","","","","","","","","","","","","","","","","","","","","feedback_test",""
"","","","","","psychophysics","375","1117037","0.0-18.0-0.0-0.19","1161","","d","","","","","","","","","","","","","key","d","16.65696124030934","768","428","d","true","img/C_28.png","自我","prac_stranger","","生人"
"","","","","","html-keyboard-response","376","1117347","0.0-18.0-0.0-1.19","null","<span style='color:GreenYellow; font-size: 70px;'>正确! </span>","null","","","","","","","","","","","","","","","","","","","","","","","feedback_test",""
"","","","","","psychophysics","377","1119266","0.0-18.0-0.0-0.20","908","","k","","","","","","","","","","","","","key","k","16.65964035087739","768","428","k","true","img/H_28.png","朋友","prac_stranger","","自我"
"","","","","","html-keyboard-response","378","1119572","0.0-18.0-0.0-1.20","null","<span style='color:GreenYellow; font-size: 70px;'>正确! </span>","null","","","","","","","","","","","","","","","","","","","","","","","feedback_test",""
"","","","","","psychophysics","379","1121542","0.0-18.0-0.0-0.21","970","","j","","","","","","","","","","","","","key","j","16.53824786324667","768","428","j","true","img/H_28.png","自我","prac_stranger","","自我"
"","","","","","html-keyboard-response","380","1121858","0.0-18.0-0.0-1.21","null","<span style='color:GreenYellow; font-size: 70px;'>正确! </span>","null","","","","","","","","","","","","","","","","","","","","","","","feedback_test",""
"","","","","","psychophysics","381","1123637","0.0-18.0-0.0-0.22","769","","k","","","","","","","","","","","","","key","k","16.66081904761848","768","428","k","true","img/H_28.png","生人","prac_stranger","","自我"
"","","","","","html-keyboard-response","382","1123940","0.0-18.0-0.0-1.22","null","<span style='color:GreenYellow; font-size: 70px;'>正确! </span>","null","","","","","","","","","","","","","","","","","","","","","","","feedback_test",""
"","","","","","psychophysics","383","1125965","0.0-18.0-0.0-0.23","1015","","f","","","","","","","","","","","","","key","f","16.660566666666032","768","428","d","false","img/C_28.png","朋友","prac_stranger","","生人"
"","","","","","html-keyboard-response","384","1126272","0.0-18.0-0.0-1.23","null","<span style='color:red; font-size: 70px;'>错误! </span>","null","","","","","","","","","","","","","","","","","","","","","","","feedback_test",""
"","","","","","html-keyboard-response","385","1132202","0.0-18.0-1.0-0.0","5927","<style>.context{color:white; font-size: 35px; line-height:40px}</style>                           <div><p class='context'>您正确回答了58% 的试次。</p><p class='context'>您的平均反应时为997毫秒。</p>"," ","","","","","","","","","","","","","","","","","","","","","","","",""
"","","","","","instructions","386","1149586","0.0-18.0-1.0-1.0","17381","","","","","","","","","","","","","","[{""page_index"":0,""viewing_time"":3221},{""page_index"":1,""viewing_time"":12470},{""page_index"":2,""viewing_time"":1689}]","","","","","","","","","","","",""
"","","","","","psychophysics","387","1151759","0.0-18.1-0.1-0.24","1162","","d","","","","","","","","","","","","","key","d","16.661046511627184","768","428","d","true","img/C_28.png","朋友","prac_stranger","","生人"
"","","","","","html-keyboard-response","388","1152063","0.0-18.1-0.1-1.24","null","<span style='color:GreenYellow; font-size: 70px;'>正确! </span>","null","","","","","","","","","","","","","","","","","","","","","","","feedback_test",""
"","","","","","psychophysics","389","1154187","0.0-18.1-0.1-0.25","1123","","j","","","","","","","","","","","","","key","j","16.659857142858932","768","428","j","true","img/S_28.png","朋友","prac_stranger","","朋友"
"","","","","","html-keyboard-response","390","1154503","0.0-18.1-0.1-1.25","null","<span style='color:GreenYellow; font-size: 70px;'>正确! </span>","null","","","","","","","","","","","","","","","","","","","","","","","feedback_test",""
"","","","","","psychophysics","391","1156677","0.0-18.1-0.1-0.26","1164","","j","","","","","","","","","","","","","key","j","16.660899224806606","768","428","j","true","img/S_28.png","朋友","prac_stranger","","朋友"
"","","","","","html-keyboard-response","392","1156994","0.0-18.1-0.1-1.26","null","<span style='color:GreenYellow; font-size: 70px;'>正确! </span>","null","","","","","","","","","","","","","","","","","","","","","","","feedback_test",""
"","","","","","psychophysics","393","1158988","0.0-18.1-0.1-0.27","992","","f","","","","","","","","","","","","","key","f","16.661703389830556","768","428","f","true","img/C_28.png","生人","prac_stranger","","生人"
"","","","","","html-keyboard-response","394","1159298","0.0-18.1-0.1-1.27","null","<span style='color:GreenYellow; font-size: 70px;'>正确! </span>","null","","","","","","","","","","","","","","","","","","","","","","","feedback_test",""
"","","","","","psychophysics","395","1161052","0.0-18.1-0.1-0.28","743","","d","","","","","","","","","","","","","key","d","16.661240384616228","768","428","d","true","img/C_28.png","自我","prac_stranger","","生人"
"","","","","","html-keyboard-response","396","1161365","0.0-18.1-0.1-1.28","null","<span style='color:GreenYellow; font-size: 70px;'>正确! </span>","null","","","","","","","","","","","","","","","","","","","","","","","feedback_test",""
"","","","","","psychophysics","397","1163666","0.0-18.1-0.1-0.29","1290","","f","","","","","","","","","","","","","key","f","16.661817518248135","768","428","f","true","img/C_28.png","生人","prac_stranger","","生人"
"","","","","","html-keyboard-response","398","1163979","0.0-18.1-0.1-1.29","null","<span style='color:GreenYellow; font-size: 70px;'>正确! </span>","null","","","","","","","","","","","","","","","","","","","","","","","feedback_test",""
"","","","","","psychophysics","399","1165894","0.0-18.1-0.1-0.30","908","","k","","","","","","","","","","","","","key","k","16.659728070175717","768","428","k","true","img/H_28.png","朋友","prac_stranger","","自我"
"","","","","","html-keyboard-response","400","1166199","0.0-18.1-0.1-1.30","null","<span style='color:GreenYellow; font-size: 70px;'>正确! </span>","null","","","","","","","","","","","","","","","","","","","","","","","feedback_test",""
"","","","","","psychophysics","401","1168052","0.0-18.1-0.1-0.31","844","","k","","","","","","","","","","","","","key","k","16.66043636363677","768","428","k","true","img/H_28.png","生人","prac_stranger","","自我"
"","","","","","html-keyboard-response","402","1168361","0.0-18.1-0.1-1.31","null","<span style='color:GreenYellow; font-size: 70px;'>正确! </span>","null","","","","","","","","","","","","","","","","","","","","","","","feedback_test",""
"","","","","","psychophysics","403","1170243","0.0-18.1-0.1-0.32","874","","f","","","","","","","","","","","","","key","f","16.660714285714285","768","428","k","false","img/S_28.png","生人","prac_stranger","","朋友"
"","","","","","html-keyboard-response","404","1170552","0.0-18.1-0.1-1.32","null","<span style='color:red; font-size: 70px;'>错误! </span>","null","","","","","","","","","","","","","","","","","","","","","","","feedback_test",""
"","","","","","psychophysics","405","1172523","0.0-18.1-0.1-0.33","969","","k","","","","","","","","","","","","","key","k","16.65904237288129","768","428","k","true","img/S_28.png","自我","prac_stranger","","朋友"
"","","","","","html-keyboard-response","406","1172836","0.0-18.1-0.1-1.33","null","<span style='color:GreenYellow; font-size: 70px;'>正确! </span>","null","","","","","","","","","","","","","","","","","","","","","","","feedback_test",""
"","","","","","psychophysics","407","1174552","0.0-18.1-0.1-0.34","715","","j","","","","","","","","","","","","","key","j","16.660303921568865","768","428","j","true","img/H_28.png","自我","prac_stranger","","自我"
"","","","","","html-keyboard-response","408","1174860","0.0-18.1-0.1-1.34","null","<span style='color:GreenYellow; font-size: 70px;'>正确! </span>","null","","","","","","","","","","","","","","","","","","","","","","","feedback_test",""
"","","","","","psychophysics","409","1176839","0.0-18.1-0.1-0.35","972","","j","","","","","","","","","","","","","key","j","16.659050847458953","768","428","j","true","img/H_28.png","自我","prac_stranger","","自我"
"","","","","","html-keyboard-response","410","1177155","0.0-18.1-0.1-1.35","null","<span style='color:GreenYellow; font-size: 70px;'>正确! </span>","null","","","","","","","","","","","","","","","","","","","","","","","feedback_test",""
"","","","","","psychophysics","411","1178990","0.0-18.1-0.1-0.36","825","","k","","","","","","","","","","","","","key","k","16.663192660549928","768","428","k","true","img/S_28.png","生人","prac_stranger","","朋友"
"","","","","","html-keyboard-response","412","1179302","0.0-18.1-0.1-1.36","null","<span style='color:GreenYellow; font-size: 70px;'>正确! </span>","null","","","","","","","","","","","","","","","","","","","","","","","feedback_test",""
"","","","","","psychophysics","413","1181131","0.0-18.1-0.1-0.37","827","","k","","","","","","","","","","","","","key","k","16.5371018518517","768","428","k","true","img/S_28.png","自我","prac_stranger","","朋友"
"","","","","","html-keyboard-response","414","1181443","0.0-18.1-0.1-1.37","null","<span style='color:GreenYellow; font-size: 70px;'>正确! </span>","null","","","","","","","","","","","","","","","","","","","","","","","feedback_test",""
"","","","","","psychophysics","415","1183449","0.0-18.1-0.1-0.38","998","","j","","","","","","","","","","","","","key","j","16.661470588236","768","428","j","true","img/S_28.png","朋友","prac_stranger","","朋友"
"","","","","","html-keyboard-response","416","1183762","0.0-18.1-0.1-1.38","null","<span style='color:GreenYellow; font-size: 70px;'>正确! </span>","null","","","","","","","","","","","","","","","","","","","","","","","feedback_test",""
"","","","","","psychophysics","417","1185633","0.0-18.1-0.1-0.39","864","","k","","","","","","","","","","","","","key","k","16.663612612611235","768","428","k","true","img/H_28.png","朋友","prac_stranger","","自我"
"","","","","","html-keyboard-response","418","1185942","0.0-18.1-0.1-1.39","null","<span style='color:GreenYellow; font-size: 70px;'>正确! </span>","null","","","","","","","","","","","","","","","","","","","","","","","feedback_test",""
"","","","","","psychophysics","419","1187655","0.0-18.1-0.1-0.40","704","","d","","","","","","","","","","","","","key","d","16.66206862745058","768","428","d","true","img/C_28.png","朋友","prac_stranger","","生人"
"","","","","","html-keyboard-response","420","1187965","0.0-18.1-0.1-1.40","null","<span style='color:GreenYellow; font-size: 70px;'>正确! </span>","null","","","","","","","","","","","","","","","","","","","","","","","feedback_test",""
"","","","","","psychophysics","421","1190133","0.0-18.1-0.1-0.41","1165","","k","","","","","","","","","","","","","key","k","16.661868217054668","768","428","k","true","img/H_28.png","生人","prac_stranger","","自我"
"","","","","","html-keyboard-response","422","1190438","0.0-18.1-0.1-1.41","null","<span style='color:GreenYellow; font-size: 70px;'>正确! </span>","null","","","","","","","","","","","","","","","","","","","","","","","feedback_test",""
"","","","","","psychophysics","423","1192575","0.0-18.1-0.1-0.42","1126","","j","","","","","","","","","","","","","key","j","16.658803149606797","768","428","j","true","img/S_28.png","朋友","prac_stranger","","朋友"
"","","","","","html-keyboard-response","424","1192879","0.0-18.1-0.1-1.42","null","<span style='color:GreenYellow; font-size: 70px;'>正确! </span>","null","","","","","","","","","","","","","","","","","","","","","","","feedback_test",""
