"success","timeout","failed_images","failed_audio","failed_video","trial_type","trial_index","time_elapsed","internal_node_id","rt","stimulus","response","value","item_width_mm","item_height_mm","item_width_px","px2mm","view_dist_mm","item_width_deg","px2deg","scale_factor","win_width_deg","win_height_deg","view_history","response_type","key_press","avg_frame_time","center_x","center_y","correct_response","correct","Image","text","condition","screen_id","label"
"true","false","[]","[]","[]","preload","0","380","0.0-0.0","","","","","","","","","","","","","","","","","","","","","","","","","","",""
"","","","","","html-keyboard-response","1","56586","0.0-1.0","56206","
  <p>您好，欢迎参加本次实验。</p>
  <p>为充分保障您的权利，请确保您已经知晓并同意《参与实验同意书》以及《数据公开知情同意书》。</p>
  <p>如果您未见过上述内容，请咨询实验员。</p>
  <p>如果您选择继续实验，则表示您已经清楚两份知情同意书的内容并同意。</p>
  <p> <div style = ""color: green""><按任意键至下页></div> </p>
  "," ","","","","","","","","","","","","","","","","","","","","","","","",""
"","","","","","html-keyboard-response","2","59959","0.0-2.0","3372","
  <p>本实验首先需要您填写一些基本个人信息。</p>
  <p> <div style = ""color: green""><按任意键至下页></div></p>
  "," ","","","","","","","","","","","","","","","","","","","","","","","",""
"","","","","","call-function","3","59960","0.0-3.0-0.0","","","","","","","","","","","","","","","","","","","","","","","","","","",""
"","","","","","survey-html-form","4","64539","0.0-3.0-1.0","4577","","{""Q0"":""25""}","","","","","","","","","","","","","","","","","","","","","","","",""
"","","","","","html-button-response","5","66119","0.0-3.0-2.0","1578","<p style = 'color : white'>您的性别</p>","1","","","","","","","","","","","","","","","","","","","","","","","",""
"","","","","","survey-html-form","6","69935","0.0-3.0-3.0","3815","","{""Q0"":""2000""}","","","","","","","","","","","","","","","","","","","","","","","",""
"","","","","","survey-html-form","7","72965","0.0-3.0-4.0","3029","","{""Q0"":""6""}","","","","","","","","","","","","","","","","","","","","","","","",""
"","","","","","virtual-chinrest","8","256891","0.0-4.0","183925","","","","85.6","53.98","513.0269869059703","5.987326717773206","476.72","10.260539738119405","50","0.828416459264931","34.14","18.48","","","","","","","","","","","","",""
"true","","","","","fullscreen","9","260329","0.0-5.0","","","","","","","","","","","","","","","","","","","","","","","","","","",""
"","","","","","instructions","10","517490","0.0-6.0","257159","","","","","","","","","","","","","","[{""page_index"":0,""viewing_time"":8230},{""page_index"":1,""viewing_time"":29740},{""page_index"":2,""viewing_time"":67665},{""page_index"":1,""viewing_time"":8004},{""page_index"":2,""viewing_time"":127224},{""page_index"":3,""viewing_time"":10152},{""page_index"":4,""viewing_time"":6144}]","","","","","","","","","","","",""
"","","","","","instructions","11","539973","0.0-7.0","22483","","","","","","","","","","","","","","[{""page_index"":0,""viewing_time"":22482}]","","","","","","","","","","","",""
"","","","","","psychophysics","12","557958","0.0-8.0-0.0-0.0","16980","","d","","","","","","","","","","","","","key","d","16.658268089053813","853.3333333333334","529.3333333333334","k","false","img/H_28.png","自我","freeprac_self","",""
"","","","","","html-keyboard-response","13","558266","0.0-8.0-0.0-1.0","null","<span style='color:red; font-size: 70px;'>错误! </span>","null","","","","","","","","","","","","","","","","","","","","","","","feedback_test",""
"","","","","","psychophysics","14","561519","0.0-8.0-0.0-0.1","2247","","j","","","","","","","","","","","","","key","j","16.65825773195901","853.3333333333334","529.3333333333334","j","true","img/H_28.png","朋友","freeprac_self","",""
"","","","","","html-keyboard-response","15","561838","0.0-8.0-0.0-1.1","null","<span style='color:GreenYellow; font-size: 70px;'>正确! </span>","null","","","","","","","","","","","","","","","","","","","","","","","feedback_test",""
"","","","","","psychophysics","16","564127","0.0-8.0-0.0-0.2","1287","","j","","","","","","","","","","","","","key","j","16.658255474452424","853.3333333333334","529.3333333333334","j","true","img/H_28.png","朋友","freeprac_self","",""
"","","","","","html-keyboard-response","17","564446","0.0-8.0-0.0-1.2","null","<span style='color:GreenYellow; font-size: 70px;'>正确! </span>","null","","","","","","","","","","","","","","","","","","","","","","","feedback_test",""
"","","","","","psychophysics","18","567264","0.0-8.0-0.0-0.3","1816","","j","","","","","","","","","","","","","key","j","16.65827976190485","853.3333333333334","529.3333333333334","j","true","img/S_28.png","生人","freeprac_self","",""
"","","","","","html-keyboard-response","19","567581","0.0-8.0-0.0-1.3","null","<span style='color:GreenYellow; font-size: 70px;'>正确! </span>","null","","","","","","","","","","","","","","","","","","","","","","","feedback_test",""
"","","","","","psychophysics","20","570418","0.0-8.0-0.0-0.4","1833","","k","","","","","","","","","","","","","key","k","16.658289940828684","853.3333333333334","529.3333333333334","k","true","img/S_28.png","自我","freeprac_self","",""
"","","","","","html-keyboard-response","21","570727","0.0-8.0-0.0-1.4","null","<span style='color:GreenYellow; font-size: 70px;'>正确! </span>","null","","","","","","","","","","","","","","","","","","","","","","","feedback_test",""
"","","","","","psychophysics","22","573498","0.0-8.0-0.0-0.5","1770","","j","","","","","","","","","","","","","key","j","16.658351515151672","853.3333333333334","529.3333333333334","j","true","img/S_28.png","生人","freeprac_self","",""
"","","","","","html-keyboard-response","23","573808","0.0-8.0-0.0-1.5","null","<span style='color:GreenYellow; font-size: 70px;'>正确! </span>","null","","","","","","","","","","","","","","","","","","","","","","","feedback_test",""
"","","","","","psychophysics","24","576142","0.0-8.0-0.0-0.6","1325","","k","","","","","","","","","","","","","key","k","16.65823021582696","853.3333333333334","529.3333333333334","k","true","img/H_28.png","生人","freeprac_self","",""
"","","","","","html-keyboard-response","25","576455","0.0-8.0-0.0-1.6","null","<span style='color:GreenYellow; font-size: 70px;'>正确! </span>","null","","","","","","","","","","","","","","","","","","","","","","","feedback_test",""
"","","","","","psychophysics","26","579005","0.0-8.0-0.0-0.7","1549","","k","","","","","","","","","","","","","key","k","16.658236842105428","853.3333333333334","529.3333333333334","d","false","img/C_28.png","朋友","freeprac_self","",""
"","","","","","html-keyboard-response","27","579314","0.0-8.0-0.0-1.7","null","<span style='color:red; font-size: 70px;'>错误! </span>","null","","","","","","","","","","","","","","","","","","","","","","","feedback_test",""
"","","","","","psychophysics","28","584289","0.0-8.0-0.0-0.8","3971","","k","","","","","","","","","","","","","key","k","16.6582516778523","853.3333333333334","529.3333333333334","k","true","img/S_28.png","朋友","freeprac_self","",""
"","","","","","html-keyboard-response","29","584593","0.0-8.0-0.0-1.8","null","<span style='color:GreenYellow; font-size: 70px;'>正确! </span>","null","","","","","","","","","","","","","","","","","","","","","","","feedback_test",""
"","","","","","psychophysics","30","587619","0.0-8.0-0.0-0.9","2020","","d","","","","","","","","","","","","","key","d","16.658287292817807","853.3333333333334","529.3333333333334","d","true","img/C_28.png","生人","freeprac_self","",""
"","","","","","html-keyboard-response","31","587924","0.0-8.0-0.0-1.9","null","<span style='color:GreenYellow; font-size: 70px;'>正确! </span>","null","","","","","","","","","","","","","","","","","","","","","","","feedback_test",""
"","","","","","psychophysics","32","589965","0.0-8.0-0.0-0.10","1036","","f","","","","","","","","","","","","","key","f","16.6582540983609","853.3333333333334","529.3333333333334","f","true","img/C_28.png","自我","freeprac_self","",""
"","","","","","html-keyboard-response","33","590286","0.0-8.0-0.0-1.10","null","<span style='color:GreenYellow; font-size: 70px;'>正确! </span>","null","","","","","","","","","","","","","","","","","","","","","","","feedback_test",""
"","","","","","psychophysics","34","592139","0.0-8.0-0.0-0.11","850","","f","","","","","","","","","","","","","key","f","16.658227272727526","853.3333333333334","529.3333333333334","f","true","img/C_28.png","自我","freeprac_self","",""
"","","","","","html-keyboard-response","35","592444","0.0-8.0-0.0-1.11","null","<span style='color:GreenYellow; font-size: 70px;'>正确! </span>","null","","","","","","","","","","","","","","","","","","","","","","","feedback_test",""
"","","","","","html-keyboard-response","36","612358","0.0-9.0","19913","[""<style>.context{color:white; font-size: 35px; line-height:40px}</style>           <div><p class='context'>您正确回答了83% 的试次。</p><p class='context'>您的平均反应时为1816毫秒。</p><p class='context'>恭喜您完成这一阶段的练习。按任意键进入<span style='color: yellow;'>重点关注图形为“朋友”</span>的练习。</p></div><p class='footer' style='font-size:35px; line-height:30px;'>任务要求：\n           <p class='footer' style='font-size:35px; line-height:35px;'>对于与“朋友”对应的图形：如果 匹配 ，请按 <span style=\""color: lightgreen;\"">f键</span></p><p class='footer' style='font-size:35px'>如果 不匹配 ，请按<span style=\""color: lightgreen;\"">d键</p></span>\n           <p class='footer' style='font-size:35px; line-height:35px;'>对于非“朋友”对应的图形：如果 匹配 ，请按 <span style=\""color: lightgreen;\"">j键</span></p><p class='footer' style='font-size:35px'>如果 不匹配 ，请按<span style=\""color: lightgreen;\"">k键</p></span>\n           <p class='footer' style='font-size:22px; line-height:25px;'>请在实验过程中将您的<span style=\""color: lightgreen;\"">食指和中指</span>放在电脑键盘的相应键位上进行按键。</p></span>""]"," ","","","","","","","","","","","","","","","","","","","","","","","",""
"","","","","","psychophysics","37","614514","0.0-10.0-0.0-0.0","1146","","d","","","","","","","","","","","","","key","d","16.658414062500015","853.3333333333334","529.3333333333334","k","false","img/C_28.png","生人","freeprac_friend","",""
"","","","","","html-keyboard-response","38","614818","0.0-10.0-0.0-1.0","null","<span style='color:red; font-size: 70px;'>错误! </span>","null","","","","","","","","","","","","","","","","","","","","","","","feedback_test",""
"","","","","","psychophysics","39","616713","0.0-10.0-0.0-0.1","888","","f","","","","","","","","","","","","","key","f","16.658214285714035","853.3333333333334","529.3333333333334","j","false","img/C_28.png","自我","freeprac_friend","",""
"","","","","","html-keyboard-response","40","617029","0.0-10.0-0.0-1.1","null","<span style='color:red; font-size: 70px;'>错误! </span>","null","","","","","","","","","","","","","","","","","","","","","","","feedback_test",""
"","","","","","psychophysics","41","620379","0.0-10.0-0.0-0.2","2347","","k","","","","","","","","","","","","","key","k","16.65838999999978","853.3333333333334","529.3333333333334","f","false","img/H_28.png","朋友","freeprac_friend","",""
"","","","","","html-keyboard-response","42","620689","0.0-10.0-0.0-1.2","null","<span style='color:red; font-size: 70px;'>错误! </span>","null","","","","","","","","","","","","","","","","","","","","","","","feedback_test",""
"","","","","","psychophysics","43","624060","0.0-10.0-0.0-0.3","2363","","k","","","","","","","","","","","","","key","k","16.658378109452894","853.3333333333334","529.3333333333334","d","false","img/H_28.png","生人","freeprac_friend","",""
"","","","","","html-keyboard-response","44","624361","0.0-10.0-0.0-1.3","null","<span style='color:red; font-size: 70px;'>错误! </span>","null","","","","","","","","","","","","","","","","","","","","","","","feedback_test",""
"","","","","","psychophysics","45","626922","0.0-10.0-0.0-0.4","1560","","d","","","","","","","","","","","","","key","d","16.658269736841536","853.3333333333334","529.3333333333334","k","false","img/S_28.png","自我","freeprac_friend","",""
"","","","","","html-keyboard-response","46","627237","0.0-10.0-0.0-1.4","null","<span style='color:red; font-size: 70px;'>错误! </span>","null","","","","","","","","","","","","","","","","","","","","","","","feedback_test",""
"","","","","","psychophysics","47","630229","0.0-10.0-0.0-0.5","1988","","k","","","","","","","","","","","","","key","k","16.65831284916195","853.3333333333334","529.3333333333334","j","false","img/S_28.png","生人","freeprac_friend","",""
"","","","","","html-keyboard-response","48","630540","0.0-10.0-0.0-1.5","null","<span style='color:red; font-size: 70px;'>错误! </span>","null","","","","","","","","","","","","","","","","","","","","","","","feedback_test",""
"","","","","","psychophysics","49","633925","0.0-10.0-0.0-0.6","2383","","j","","","","","","","","","","","","","key","j","16.6586108374383","853.3333333333334","529.3333333333334","j","true","img/S_28.png","生人","freeprac_friend","",""
"","","","","","html-keyboard-response","50","634233","0.0-10.0-0.0-1.6","null","<span style='color:GreenYellow; font-size: 70px;'>正确! </span>","null","","","","","","","","","","","","","","","","","","","","","","","feedback_test",""
"","","","","","psychophysics","51","637759","0.0-10.0-0.0-0.7","2520","","d","","","","","","","","","","","","","key","d","16.65834123222764","853.3333333333334","529.3333333333334","k","false","img/C_28.png","朋友","freeprac_friend","",""
"","","","","","html-keyboard-response","52","638067","0.0-10.0-0.0-1.7","null","<span style='color:red; font-size: 70px;'>错误! </span>","null","","","","","","","","","","","","","","","","","","","","","","","feedback_test",""
"","","","","","psychophysics","53","641045","0.0-10.0-0.0-0.8","1973","","k","","","","","","","","","","","","","key","k","16.658269662921462","853.3333333333334","529.3333333333334","d","false","img/H_28.png","自我","freeprac_friend","",""
"","","","","","html-keyboard-response","54","641356","0.0-10.0-0.0-1.8","null","<span style='color:red; font-size: 70px;'>错误! </span>","null","","","","","","","","","","","","","","","","","","","","","","","feedback_test",""
"","","","","","psychophysics","55","645253","0.0-10.0-0.0-0.9","2892","","k","","","","","","","","","","","","","key","k","16.658240343347618","853.3333333333334","529.3333333333334","k","true","img/S_28.png","朋友","freeprac_friend","",""
"","","","","","html-keyboard-response","56","645568","0.0-10.0-0.0-1.9","null","<span style='color:GreenYellow; font-size: 70px;'>正确! </span>","null","","","","","","","","","","","","","","","","","","","","","","","feedback_test",""
"","","","","","psychophysics","57","647436","0.0-10.0-0.0-0.10","852","","f","","","","","","","","","","","","","key","f","16.658252252252176","853.3333333333334","529.3333333333334","j","false","img/C_28.png","自我","freeprac_friend","",""
"","","","","","html-keyboard-response","58","647758","0.0-10.0-0.0-1.10","null","<span style='color:red; font-size: 70px;'>错误! </span>","null","","","","","","","","","","","","","","","","","","","","","","","feedback_test",""
"","","","","","psychophysics","59","650777","0.0-10.0-0.0-0.11","2015","","k","","","","","","","","","","","","","key","k","16.65823333333311","853.3333333333334","529.3333333333334","f","false","img/H_28.png","朋友","freeprac_friend","",""
"","","","","","html-keyboard-response","60","651084","0.0-10.0-0.0-1.11","null","<span style='color:red; font-size: 70px;'>错误! </span>","null","","","","","","","","","","","","","","","","","","","","","","","feedback_test",""
"","","","","","html-keyboard-response","61","668161","0.0-10.0-1.0-0.0","17075","<style>.context{color:white; font-size: 35px; line-height:40px}</style>                           <div><p class='context'>您正确回答了17% 的试次。</p><p class='context'>您的平均反应时为2638毫秒。</p>"," ","","","","","","","","","","","","","","","","","","","","","","","",""
"","","","","","instructions","62","703347","0.0-10.0-1.0-1.0","35184","","","","","","","","","","","","","","[{""page_index"":0,""viewing_time"":4373},{""page_index"":1,""viewing_time"":27827},{""page_index"":2,""viewing_time"":2984}]","","","","","","","","","","","",""
"","","","","","psychophysics","63","705889","0.0-10.1-0.1-0.12","1536","","k","","","","","","","","","","","","","key","k","16.658381578947516","853.3333333333334","529.3333333333334","j","false","img/S_28.png","生人","freeprac_friend","",""
"","","","","","html-keyboard-response","64","706207","0.0-10.1-0.1-1.12","null","<span style='color:red; font-size: 70px;'>错误! </span>","null","","","","","","","","","","","","","","","","","","","","","","","feedback_test",""
"","","","","","psychophysics","65","709023","0.0-10.1-0.1-0.13","1807","","j","","","","","","","","","","","","","key","j","16.658351190476207","853.3333333333334","529.3333333333334","j","true","img/C_28.png","自我","freeprac_friend","",""
"","","","","","html-keyboard-response","66","709334","0.0-10.1-0.1-1.13","null","<span style='color:GreenYellow; font-size: 70px;'>正确! </span>","null","","","","","","","","","","","","","","","","","","","","","","","feedback_test",""
"","","","","","psychophysics","67","712654","0.0-10.1-0.1-0.14","2319","","k","","","","","","","","","","","","","key","k","16.658155778894464","853.3333333333334","529.3333333333334","k","true","img/S_28.png","自我","freeprac_friend","",""
"","","","","","html-keyboard-response","68","712975","0.0-10.1-0.1-1.14","null","<span style='color:GreenYellow; font-size: 70px;'>正确! </span>","null","","","","","","","","","","","","","","","","","","","","","","","feedback_test",""
"","","","","","psychophysics","69","717328","0.0-10.1-0.1-0.15","3352","","k","","","","","","","","","","","","","key","k","16.65824230769246","853.3333333333334","529.3333333333334","k","true","img/C_28.png","朋友","freeprac_friend","",""
"","","","","","html-keyboard-response","70","717635","0.0-10.1-0.1-1.15","null","<span style='color:GreenYellow; font-size: 70px;'>正确! </span>","null","","","","","","","","","","","","","","","","","","","","","","","feedback_test",""
"","","","","","psychophysics","71","721968","0.0-10.1-0.1-0.16","3328","","d","","","","","","","","","","","","","key","d","16.658297297297562","853.3333333333334","529.3333333333334","d","true","img/H_28.png","生人","freeprac_friend","",""
"","","","","","html-keyboard-response","72","722273","0.0-10.1-0.1-1.16","null","<span style='color:GreenYellow; font-size: 70px;'>正确! </span>","null","","","","","","","","","","","","","","","","","","","","","","","feedback_test",""
"","","","","","psychophysics","73","724960","0.0-10.1-0.1-0.17","1681","","d","","","","","","","","","","","","","key","d","16.658231250000245","853.3333333333334","529.3333333333334","d","true","img/H_28.png","自我","freeprac_friend","",""
"","","","","","html-keyboard-response","74","725279","0.0-10.1-0.1-1.17","null","<span style='color:GreenYellow; font-size: 70px;'>正确! </span>","null","","","","","","","","","","","","","","","","","","","","","","","feedback_test",""
"","","","","","psychophysics","75","728845","0.0-10.1-0.1-0.18","2565","","f","","","","","","","","","","","","","key","f","16.658262910798495","853.3333333333334","529.3333333333334","f","true","img/H_28.png","朋友","freeprac_friend","",""
"","","","","","html-keyboard-response","76","729162","0.0-10.1-0.1-1.18","null","<span style='color:GreenYellow; font-size: 70px;'>正确! </span>","null","","","","","","","","","","","","","","","","","","","","","","","feedback_test",""
"","","","","","psychophysics","77","731985","0.0-10.1-0.1-0.19","1816","","k","","","","","","","","","","","","","key","k","16.658255952381296","853.3333333333334","529.3333333333334","k","true","img/C_28.png","生人","freeprac_friend","",""
"","","","","","html-keyboard-response","78","732292","0.0-10.1-0.1-1.19","null","<span style='color:GreenYellow; font-size: 70px;'>正确! </span>","null","","","","","","","","","","","","","","","","","","","","","","","feedback_test",""
"","","","","","psychophysics","79","734398","0.0-10.1-0.1-0.20","1102","","k","","","","","","","","","","","","","key","k","16.658231999999842","853.3333333333334","529.3333333333334","k","true","img/S_28.png","朋友","freeprac_friend","",""
"","","","","","html-keyboard-response","80","734706","0.0-10.1-0.1-1.20","null","<span style='color:GreenYellow; font-size: 70px;'>正确! </span>","null","","","","","","","","","","","","","","","","","","","","","","","feedback_test",""
"","","","","","psychophysics","81","737217","0.0-10.1-0.1-0.21","1496","","j","","","","","","","","","","","","","key","j","16.562832214764864","853.3333333333334","529.3333333333334","j","true","img/C_28.png","自我","freeprac_friend","",""
"","","","","","html-keyboard-response","82","737529","0.0-10.1-0.1-1.21","null","<span style='color:GreenYellow; font-size: 70px;'>正确! </span>","null","","","","","","","","","","","","","","","","","","","","","","","feedback_test",""
"","","","","","psychophysics","83","741880","0.0-10.1-0.1-0.22","3343","","j","","","","","","","","","","","","","key","j","16.65828846153812","853.3333333333334","529.3333333333334","j","true","img/S_28.png","生人","freeprac_friend","",""
"","","","","","html-keyboard-response","84","742188","0.0-10.1-0.1-1.22","null","<span style='color:GreenYellow; font-size: 70px;'>正确! </span>","null","","","","","","","","","","","","","","","","","","","","","","","feedback_test",""
"","","","","","psychophysics","85","745104","0.0-10.1-0.1-0.23","1912","","f","","","","","","","","","","","","","key","f","16.65818390804584","853.3333333333334","529.3333333333334","f","true","img/H_28.png","朋友","freeprac_friend","",""
"","","","","","html-keyboard-response","86","745416","0.0-10.1-0.1-1.23","null","<span style='color:GreenYellow; font-size: 70px;'>正确! </span>","null","","","","","","","","","","","","","","","","","","","","","","","feedback_test",""
"","","","","","html-keyboard-response","87","761797","0.0-11.0","16380","[""<style>.context{color:white; font-size: 35px; line-height:40px}</style>               <div><p class='context'>您正确回答了92% 的试次。</p><p class='context'>您的平均反应时为2247毫秒。</p><p class='context'>恭喜您完成这一阶段的练习。按任意键进入<span style='color: yellow;'>重点关注图形为“生人”</span>的练习。</p></div><p class='footer' style='font-size:35px; line-height:30px;'>任务要求：\n               <p class='footer' style='font-size:35px; line-height:35px;'>对与“生人”对应的图形，如果 匹配 ，请按 <span style=\""color: lightgreen;\"">f键</span></p><p class='footer' style='font-size:35px'>如果 不匹配 ，请按<span style=\""color: lightgreen;\"">d键</p></span>\n               <p class='footer' style='font-size:35px; line-height:35px;'>对非“生人”对应的图形，如果 匹配 ，请按 <span style=\""color: lightgreen;\"">j键</span></p><p class='footer' style='font-size:35px'>如果 不匹配 ，请按<span style=\""color: lightgreen;\"">k键</p></span>\n               <p class='footer' style='font-size:22px; line-height:25px;'>请在实验过程中将您的<span style=\""color: lightgreen;\"">食指和中指</span>放在电脑键盘的相应键位上进行按键。</p></span>""]"," ","","","","","","","","","","","","","","","","","","","","","","","",""
"","","","","","psychophysics","88","764771","0.0-12.0-0.0-0.0","1963","","j","","","","","","","","","","","","","key","j","16.65837288135597","853.3333333333334","529.3333333333334","j","true","img/H_28.png","朋友","freeprac_stranger","",""
"","","","","","html-keyboard-response","89","765094","0.0-12.0-0.0-1.0","null","<span style='color:GreenYellow; font-size: 70px;'>正确! </span>","null","","","","","","","","","","","","","","","","","","","","","","","feedback_test",""
"","","","","","psychophysics","90","767371","0.0-12.0-0.0-0.1","1275","","k","","","","","","","","","","","","","key","k","16.658355555555747","853.3333333333334","529.3333333333334","k","true","img/H_28.png","生人","freeprac_stranger","",""
"","","","","","html-keyboard-response","91","767687","0.0-12.0-0.0-1.1","null","<span style='color:GreenYellow; font-size: 70px;'>正确! </span>","null","","","","","","","","","","","","","","","","","","","","","","","feedback_test",""
"","","","","","psychophysics","92","770220","0.0-12.0-0.0-0.2","1531","","k","","","","","","","","","","","","","key","k","16.658264900662548","853.3333333333334","529.3333333333334","k","true","img/H_28.png","自我","freeprac_stranger","",""
"","","","","","html-keyboard-response","93","770541","0.0-12.0-0.0-1.2","null","<span style='color:GreenYellow; font-size: 70px;'>正确! </span>","null","","","","","","","","","","","","","","","","","","","","","","","feedback_test",""
"","","","","","psychophysics","94","773422","0.0-12.0-0.0-0.3","1878","","j","","","","","","","","","","","","","key","j","16.658511627906783","853.3333333333334","529.3333333333334","j","true","img/C_28.png","自我","freeprac_stranger","",""
"","","","","","html-keyboard-response","95","773728","0.0-12.0-0.0-1.3","null","<span style='color:GreenYellow; font-size: 70px;'>正确! </span>","null","","","","","","","","","","","","","","","","","","","","","","","feedback_test",""
"","","","","","psychophysics","96","776475","0.0-12.0-0.0-0.4","1739","","f","","","","","","","","","","","","","key","f","16.658268292682962","853.3333333333334","529.3333333333334","f","true","img/S_28.png","生人","freeprac_stranger","",""
"","","","","","html-keyboard-response","97","776796","0.0-12.0-0.0-1.4","null","<span style='color:GreenYellow; font-size: 70px;'>正确! </span>","null","","","","","","","","","","","","","","","","","","","","","","","feedback_test",""
"","","","","","psychophysics","98","778627","0.0-12.0-0.0-0.5","827","","f","","","","","","","","","","","","","key","f","16.658467889908668","853.3333333333334","529.3333333333334","f","true","img/S_28.png","生人","freeprac_stranger","",""
"","","","","","html-keyboard-response","99","778944","0.0-12.0-0.0-1.5","null","<span style='color:GreenYellow; font-size: 70px;'>正确! </span>","null","","","","","","","","","","","","","","","","","","","","","","","feedback_test",""
"","","","","","psychophysics","100","780978","0.0-12.0-0.0-0.6","1028","","d","","","","","","","","","","","","","key","d","16.658239669421466","853.3333333333334","529.3333333333334","d","true","img/S_28.png","朋友","freeprac_stranger","",""
"","","","","","html-keyboard-response","101","781290","0.0-12.0-0.0-1.6","null","<span style='color:GreenYellow; font-size: 70px;'>正确! </span>","null","","","","","","","","","","","","","","","","","","","","","","","feedback_test",""
"","","","","","psychophysics","102","783484","0.0-12.0-0.0-0.7","1187","","j","","","","","","","","","","","","","key","j","16.658396946564885","853.3333333333334","529.3333333333334","j","true","img/C_28.png","自我","freeprac_stranger","",""
"","","","","","html-keyboard-response","103","783792","0.0-12.0-0.0-1.7","null","<span style='color:GreenYellow; font-size: 70px;'>正确! </span>","null","","","","","","","","","","","","","","","","","","","","","","","feedback_test",""
"","","","","","psychophysics","104","785974","0.0-12.0-0.0-0.8","1177","","k","","","","","","","","","","","","","key","k","16.658361538461982","853.3333333333334","529.3333333333334","d","false","img/S_28.png","自我","freeprac_stranger","",""
"","","","","","html-keyboard-response","105","786291","0.0-12.0-0.0-1.8","null","<span style='color:red; font-size: 70px;'>错误! </span>","null","","","","","","","","","","","","","","","","","","","","","","","feedback_test",""
"","","","","","psychophysics","106","789718","0.0-12.0-0.0-0.9","2422","","k","","","","","","","","","","","","","key","k","16.658224390244406","853.3333333333334","529.3333333333334","k","true","img/C_28.png","朋友","freeprac_stranger","",""
"","","","","","html-keyboard-response","107","790039","0.0-12.0-0.0-1.9","null","<span style='color:GreenYellow; font-size: 70px;'>正确! </span>","null","","","","","","","","","","","","","","","","","","","","","","","feedback_test",""
"","","","","","psychophysics","108","792701","0.0-12.0-0.0-0.10","1657","","k","","","","","","","","","","","","","key","k","16.658314465408935","853.3333333333334","529.3333333333334","k","true","img/C_28.png","生人","freeprac_stranger","",""
"","","","","","html-keyboard-response","109","793018","0.0-12.0-0.0-1.10","null","<span style='color:GreenYellow; font-size: 70px;'>正确! </span>","null","","","","","","","","","","","","","","","","","","","","","","","feedback_test",""
"","","","","","psychophysics","110","795385","0.0-12.0-0.0-0.11","1361","","d","","","","","","","","","","","","","key","d","16.65824822695011","853.3333333333334","529.3333333333334","j","false","img/H_28.png","朋友","freeprac_stranger","",""
"","","","","","html-keyboard-response","111","795694","0.0-12.0-0.0-1.11","null","<span style='color:red; font-size: 70px;'>错误! </span>","null","","","","","","","","","","","","","","","","","","","","","","","feedback_test",""
"","","","","","instructions","112","824046","0.0-13.0","28349","","","","","","","","","","","","","","[{""page_index"":0,""viewing_time"":28349}]","","","","","","","","","","","",""
"","","","","","psychophysics","113","826189","0.0-14.0-0.0-0.0","1133","","k","","","","","","","","","","","","","key","k","16.64556692913358","853.3333333333334","529.3333333333334","j","false","img/H_28.png","朋友","prac_self","","朋友"
"","","","","","html-keyboard-response","114","826505","0.0-14.0-0.0-1.0","null","<span style='color:red; font-size: 70px;'>错误! </span>","null","","","","","","","","","","","","","","","","","","","","","","","feedback_test",""
"","","","","","psychophysics","115","829009","0.0-14.0-0.0-0.1","null","","null","","","","","","","","","","","","","key","null","16.658241610738116","853.3333333333334","529.3333333333334","j","false","img/S_28.png","生人","prac_self","","生人"
"","","","","","html-keyboard-response","116","829322","0.0-14.0-0.0-1.1","null","<span class='add_' style='color:yellow; font-size: 70px;'> 太慢! </span>","null","","","","","","","","","","","","","","","","","","","","","","","feedback_test",""
"","","","","","psychophysics","117","831254","0.0-14.0-0.0-0.2","929","","k","","","","","","","","","","","","","key","k","16.658400000000128","853.3333333333334","529.3333333333334","k","true","img/H_28.png","自我","prac_self","","朋友"
"","","","","","html-keyboard-response","118","831565","0.0-14.0-0.0-1.2","null","<span style='color:GreenYellow; font-size: 70px;'>正确! </span>","null","","","","","","","","","","","","","","","","","","","","","","","feedback_test",""
"","","","","","psychophysics","119","833615","0.0-14.0-0.0-0.3","1046","","k","","","","","","","","","","","","","key","k","16.658286885245793","853.3333333333334","529.3333333333334","k","true","img/S_28.png","朋友","prac_self","","生人"
"","","","","","html-keyboard-response","120","833921","0.0-14.0-0.0-1.3","null","<span style='color:GreenYellow; font-size: 70px;'>正确! </span>","null","","","","","","","","","","","","","","","","","","","","","","","feedback_test",""
"","","","","","psychophysics","121","835542","0.0-14.0-0.0-0.4","619","","f","","","","","","","","","","","","","key","f","16.65808247422713","853.3333333333334","529.3333333333334","f","true","img/C_28.png","自我","prac_self","","自我"
"","","","","","html-keyboard-response","122","835852","0.0-14.0-0.0-1.4","null","<span style='color:GreenYellow; font-size: 70px;'>正确! </span>","null","","","","","","","","","","","","","","","","","","","","","","","feedback_test",""
"","","","","","psychophysics","123","837841","0.0-14.0-0.0-0.5","986","","j","","","","","","","","","","","","","key","j","16.65836134453856","853.3333333333334","529.3333333333334","j","true","img/S_28.png","生人","prac_self","","生人"
"","","","","","html-keyboard-response","124","838159","0.0-14.0-0.0-1.5","null","<span style='color:GreenYellow; font-size: 70px;'>正确! </span>","null","","","","","","","","","","","","","","","","","","","","","","","feedback_test",""
"","","","","","psychophysics","125","840338","0.0-14.0-0.0-0.6","1177","","d","","","","","","","","","","","","","key","d","16.65833076923065","853.3333333333334","529.3333333333334","d","true","img/C_28.png","生人","prac_self","","自我"
"","","","","","html-keyboard-response","126","840644","0.0-14.0-0.0-1.6","null","<span style='color:GreenYellow; font-size: 70px;'>正确! </span>","null","","","","","","","","","","","","","","","","","","","","","","","feedback_test",""
"","","","","","psychophysics","127","842223","0.0-14.0-0.0-0.7","575","","f","","","","","","","","","","","","","key","f","16.658382978723782","853.3333333333334","529.3333333333334","f","true","img/C_28.png","自我","prac_self","","自我"
"","","","","","html-keyboard-response","128","842542","0.0-14.0-0.0-1.7","null","<span style='color:GreenYellow; font-size: 70px;'>正确! </span>","null","","","","","","","","","","","","","","","","","","","","","","","feedback_test",""
"","","","","","psychophysics","129","844605","0.0-14.0-0.0-0.8","1060","","k","","","","","","","","","","","","","key","k","16.65830894308903","853.3333333333334","529.3333333333334","k","true","img/S_28.png","自我","prac_self","","生人"
"","","","","","html-keyboard-response","130","844925","0.0-14.0-0.0-1.8","null","<span style='color:GreenYellow; font-size: 70px;'>正确! </span>","null","","","","","","","","","","","","","","","","","","","","","","","feedback_test",""
"","","","","","psychophysics","131","846614","0.0-14.0-0.0-0.9","685","","k","","","","","","","","","","","","","key","k","16.657859999999637","853.3333333333334","529.3333333333334","k","true","img/H_28.png","生人","prac_self","","朋友"
"","","","","","html-keyboard-response","132","846929","0.0-14.0-0.0-1.9","null","<span style='color:GreenYellow; font-size: 70px;'>正确! </span>","null","","","","","","","","","","","","","","","","","","","","","","","feedback_test",""
"","","","","","psychophysics","133","848735","0.0-14.0-0.0-0.10","802","","k","","","","","","","","","","","","","key","k","16.658157407407458","853.3333333333334","529.3333333333334","j","false","img/H_28.png","朋友","prac_self","","朋友"
"","","","","","html-keyboard-response","134","849049","0.0-14.0-0.0-1.10","null","<span style='color:red; font-size: 70px;'>错误! </span>","null","","","","","","","","","","","","","","","","","","","","","","","feedback_test",""
"","","","","","psychophysics","135","850675","0.0-14.0-0.0-0.11","619","","f","","","","","","","","","","","","","key","f","16.65812499999932","853.3333333333334","529.3333333333334","d","false","img/C_28.png","朋友","prac_self","","自我"
"","","","","","html-keyboard-response","136","850979","0.0-14.0-0.0-1.11","null","<span style='color:red; font-size: 70px;'>错误! </span>","null","","","","","","","","","","","","","","","","","","","","","","","feedback_test",""
"","","","","","psychophysics","137","853492","0.0-14.0-0.0-0.12","null","","null","","","","","","","","","","","","","key","null","16.658433333333427","853.3333333333334","529.3333333333334","k","false","img/H_28.png","生人","prac_self","","朋友"
"","","","","","html-keyboard-response","138","853803","0.0-14.0-0.0-1.12","null","<span class='add_' style='color:yellow; font-size: 70px;'> 太慢! </span>","null","","","","","","","","","","","","","","","","","","","","","","","feedback_test",""
"","","","","","psychophysics","139","855787","0.0-14.0-0.0-0.13","978","","k","","","","","","","","","","","","","key","k","16.658254237288126","853.3333333333334","529.3333333333334","j","false","img/S_28.png","生人","prac_self","","生人"
"","","","","","html-keyboard-response","140","856099","0.0-14.0-0.0-1.13","null","<span style='color:red; font-size: 70px;'>错误! </span>","null","","","","","","","","","","","","","","","","","","","","","","","feedback_test",""
"","","","","","psychophysics","141","858350","0.0-14.0-0.0-0.14","1244","","d","","","","","","","","","","","","","key","d","16.6582686567163","853.3333333333334","529.3333333333334","d","true","img/C_28.png","朋友","prac_self","","自我"
"","","","","","html-keyboard-response","142","858669","0.0-14.0-0.0-1.14","null","<span style='color:GreenYellow; font-size: 70px;'>正确! </span>","null","","","","","","","","","","","","","","","","","","","","","","","feedback_test",""
"","","","","","psychophysics","143","860527","0.0-14.0-0.0-0.15","854","","k","","","","","","","","","","","","","key","k","16.65834234234235","853.3333333333334","529.3333333333334","k","true","img/S_28.png","自我","prac_self","","生人"
"","","","","","html-keyboard-response","144","860837","0.0-14.0-0.0-1.15","null","<span style='color:GreenYellow; font-size: 70px;'>正确! </span>","null","","","","","","","","","","","","","","","","","","","","","","","feedback_test",""
"","","","","","psychophysics","145","862959","0.0-14.0-0.0-0.16","1119","","d","","","","","","","","","","","","","key","d","16.65825396825445","853.3333333333334","529.3333333333334","d","true","img/C_28.png","生人","prac_self","","自我"
"","","","","","html-keyboard-response","146","863269","0.0-14.0-0.0-1.16","null","<span style='color:GreenYellow; font-size: 70px;'>正确! </span>","null","","","","","","","","","","","","","","","","","","","","","","","feedback_test",""
"","","","","","psychophysics","147","865020","0.0-14.0-0.0-0.17","747","","f","","","","","","","","","","","","","key","f","16.6582115384618","853.3333333333334","529.3333333333334","f","true","img/C_28.png","自我","prac_self","","自我"
"","","","","","html-keyboard-response","148","865344","0.0-14.0-0.0-1.17","null","<span style='color:GreenYellow; font-size: 70px;'>正确! </span>","null","","","","","","","","","","","","","","","","","","","","","","","feedback_test",""
"","","","","","psychophysics","149","867362","0.0-14.0-0.0-0.18","1009","","j","","","","","","","","","","","","","key","j","16.658299999999386","853.3333333333334","529.3333333333334","k","false","img/S_28.png","朋友","prac_self","","生人"
"","","","","","html-keyboard-response","150","867675","0.0-14.0-0.0-1.18","null","<span style='color:red; font-size: 70px;'>错误! </span>","null","","","","","","","","","","","","","","","","","","","","","","","feedback_test",""
"","","","","","psychophysics","151","869591","0.0-14.0-0.0-0.19","909","","j","","","","","","","","","","","","","key","j","16.65820175438625","853.3333333333334","529.3333333333334","j","true","img/S_28.png","生人","prac_self","","生人"
"","","","","","html-keyboard-response","152","869905","0.0-14.0-0.0-1.19","null","<span style='color:GreenYellow; font-size: 70px;'>正确! </span>","null","","","","","","","","","","","","","","","","","","","","","","","feedback_test",""
"","","","","","psychophysics","153","871919","0.0-14.0-0.0-0.20","1014","","k","","","","","","","","","","","","","key","k","16.545336134453937","853.3333333333334","529.3333333333334","k","true","img/H_28.png","自我","prac_self","","朋友"
"","","","","","html-keyboard-response","154","872238","0.0-14.0-0.0-1.20","null","<span style='color:GreenYellow; font-size: 70px;'>正确! </span>","null","","","","","","","","","","","","","","","","","","","","","","","feedback_test",""
"","","","","","psychophysics","155","873899","0.0-14.0-0.0-0.21","658","","f","","","","","","","","","","","","","key","f","16.658377551019896","853.3333333333334","529.3333333333334","f","true","img/C_28.png","自我","prac_self","","自我"
"","","","","","html-keyboard-response","156","874203","0.0-14.0-0.0-1.21","null","<span style='color:GreenYellow; font-size: 70px;'>正确! </span>","null","","","","","","","","","","","","","","","","","","","","","","","feedback_test",""
"","","","","","psychophysics","157","876147","0.0-14.0-0.0-0.22","938","","j","","","","","","","","","","","","","key","j","16.658095652174772","853.3333333333334","529.3333333333334","j","true","img/H_28.png","朋友","prac_self","","朋友"
"","","","","","html-keyboard-response","158","876450","0.0-14.0-0.0-1.22","null","<span style='color:GreenYellow; font-size: 70px;'>正确! </span>","null","","","","","","","","","","","","","","","","","","","","","","","feedback_test",""
"","","","","","psychophysics","159","878175","0.0-14.0-0.0-0.23","723","","j","","","","","","","","","","","","","key","j","16.65834951456365","853.3333333333334","529.3333333333334","j","true","img/H_28.png","朋友","prac_self","","朋友"
"","","","","","html-keyboard-response","160","878482","0.0-14.0-0.0-1.23","null","<span style='color:GreenYellow; font-size: 70px;'>正确! </span>","null","","","","","","","","","","","","","","","","","","","","","","","feedback_test",""
"","","","","","html-keyboard-response","161","894169","0.0-15.0","15683","[""<style>.context{color:white; font-size: 35px; line-height:40px}</style>           <div><p class='context'>您正确回答了71% 的试次。</p><p class='context'>您的平均反应时为899毫秒。</p><p class='context'>恭喜您完成这一阶段的练习。按任意键进入<span style='color: yellow;'>重点关注图形为“朋友”</span>的练习。</p></div><p class='footer' style='font-size:35px; line-height:30px;'>任务要求：\n           <p class='footer' style='font-size:35px; line-height:35px;'>对于与“朋友”对应的图形：如果 匹配 ，请按 <span style=\""color: lightgreen;\"">f键</span></p><p class='footer' style='font-size:35px'>如果 不匹配 ，请按<span style=\""color: lightgreen;\"">d键</p></span>\n           <p class='footer' style='font-size:35px; line-height:35px;'>对于非“朋友”对应的图形：如果 匹配 ，请按 <span style=\""color: lightgreen;\"">j键</span></p><p class='footer' style='font-size:35px'>如果 不匹配 ，请按<span style=\""color: lightgreen;\"">k键</p></span>\n           <p class='footer' style='font-size:22px; line-height:25px;'>请在实验过程中将您的<span style=\""color: lightgreen;\"">食指和中指</span>放在电脑键盘的相应键位上进行按键。</p></span>""]"," ","","","","","","","","","","","","","","","","","","","","","","","",""
"","","","","","psychophysics","162","895976","0.0-16.0-0.0-0.0","800","","d","","","","","","","","","","","","","key","d","16.65832407407342","853.3333333333334","529.3333333333334","d","true","img/H_28.png","自我","prac_friend","","朋友"
"","","","","","html-keyboard-response","163","896284","0.0-16.0-0.0-1.0","null","<span style='color:GreenYellow; font-size: 70px;'>正确! </span>","null","","","","","","","","","","","","","","","","","","","","","","","feedback_test",""
"","","","","","psychophysics","164","898146","0.0-16.0-0.0-0.1","856","","k","","","","","","","","","","","","","key","k","16.65831531531509","853.3333333333334","529.3333333333334","k","true","img/S_28.png","自我","prac_friend","","生人"
"","","","","","html-keyboard-response","165","898464","0.0-16.0-0.0-1.1","null","<span style='color:GreenYellow; font-size: 70px;'>正确! </span>","null","","","","","","","","","","","","","","","","","","","","","","","feedback_test",""
"","","","","","psychophysics","166","900391","0.0-16.0-0.0-0.2","923","","j","","","","","","","","","","","","","key","j","16.657895652174382","853.3333333333334","529.3333333333334","j","true","img/C_28.png","自我","prac_friend","","自我"
"","","","","","html-keyboard-response","167","900706","0.0-16.0-0.0-1.2","null","<span style='color:GreenYellow; font-size: 70px;'>正确! </span>","null","","","","","","","","","","","","","","","","","","","","","","","feedback_test",""
"","","","","","psychophysics","168","902688","0.0-16.0-0.0-0.3","976","","k","","","","","","","","","","","","","key","k","16.6581880341873","853.3333333333334","529.3333333333334","k","true","img/C_28.png","生人","prac_friend","","自我"
"","","","","","html-keyboard-response","169","902997","0.0-16.0-0.0-1.3","null","<span style='color:GreenYellow; font-size: 70px;'>正确! </span>","null","","","","","","","","","","","","","","","","","","","","","","","feedback_test",""
"","","","","","psychophysics","170","904603","0.0-16.0-0.0-0.4","603","","f","","","","","","","","","","","","","key","f","16.658231578947436","853.3333333333334","529.3333333333334","f","true","img/H_28.png","朋友","prac_friend","","朋友"
"","","","","","html-keyboard-response","171","904917","0.0-16.0-0.0-1.4","null","<span style='color:GreenYellow; font-size: 70px;'>正确! </span>","null","","","","","","","","","","","","","","","","","","","","","","","feedback_test",""
"","","","","","psychophysics","172","906596","0.0-16.0-0.0-0.5","676","","k","","","","","","","","","","","","","key","k","16.658190000000175","853.3333333333334","529.3333333333334","j","false","img/S_28.png","生人","prac_friend","","生人"
"","","","","","html-keyboard-response","173","906908","0.0-16.0-0.0-1.5","null","<span style='color:red; font-size: 70px;'>错误! </span>","null","","","","","","","","","","","","","","","","","","","","","","","feedback_test",""
"","","","","","psychophysics","174","908755","0.0-16.0-0.0-0.6","842","","k","","","","","","","","","","","","","key","k","16.65841818181798","853.3333333333334","529.3333333333334","k","true","img/S_28.png","朋友","prac_friend","","生人"
"","","","","","html-keyboard-response","175","909061","0.0-16.0-0.0-1.6","null","<span style='color:GreenYellow; font-size: 70px;'>正确! </span>","null","","","","","","","","","","","","","","","","","","","","","","","feedback_test",""
"","","","","","psychophysics","176","910892","0.0-16.0-0.0-0.7","827","","j","","","","","","","","","","","","","key","j","16.658541284403295","853.3333333333334","529.3333333333334","j","true","img/C_28.png","自我","prac_friend","","自我"
"","","","","","html-keyboard-response","177","911212","0.0-16.0-0.0-1.7","null","<span style='color:GreenYellow; font-size: 70px;'>正确! </span>","null","","","","","","","","","","","","","","","","","","","","","","","feedback_test",""
"","","","","","psychophysics","178","913110","0.0-16.0-0.0-0.8","893","","f","","","","","","","","","","","","","key","f","16.658176991151052","853.3333333333334","529.3333333333334","f","true","img/H_28.png","朋友","prac_friend","","朋友"
"","","","","","html-keyboard-response","179","913424","0.0-16.0-0.0-1.8","null","<span style='color:GreenYellow; font-size: 70px;'>正确! </span>","null","","","","","","","","","","","","","","","","","","","","","","","feedback_test",""
"","","","","","psychophysics","180","915529","0.0-16.0-0.0-0.9","1096","","j","","","","","","","","","","","","","key","j","16.658224000000395","853.3333333333334","529.3333333333334","j","true","img/S_28.png","生人","prac_friend","","生人"
"","","","","","html-keyboard-response","181","915840","0.0-16.0-0.0-1.9","null","<span style='color:GreenYellow; font-size: 70px;'>正确! </span>","null","","","","","","","","","","","","","","","","","","","","","","","feedback_test",""
"","","","","","psychophysics","182","917454","0.0-16.0-0.0-0.10","606","","j","","","","","","","","","","","","","key","j","16.658260416666355","853.3333333333334","529.3333333333334","k","false","img/C_28.png","朋友","prac_friend","","自我"
"","","","","","html-keyboard-response","183","917770","0.0-16.0-0.0-1.10","null","<span style='color:red; font-size: 70px;'>错误! </span>","null","","","","","","","","","","","","","","","","","","","","","","","feedback_test",""
"","","","","","psychophysics","184","919788","0.0-16.0-0.0-0.11","1011","","k","","","","","","","","","","","","","key","k","16.658033333333638","853.3333333333334","529.3333333333334","d","false","img/H_28.png","生人","prac_friend","","朋友"
"","","","","","html-keyboard-response","185","920101","0.0-16.0-0.0-1.11","null","<span style='color:red; font-size: 70px;'>错误! </span>","null","","","","","","","","","","","","","","","","","","","","","","","feedback_test",""
"","","","","","psychophysics","186","922342","0.0-16.0-0.0-0.12","1237","","j","","","","","","","","","","","","","key","j","16.658278195488553","853.3333333333334","529.3333333333334","j","true","img/C_28.png","自我","prac_friend","","自我"
"","","","","","html-keyboard-response","187","922655","0.0-16.0-0.0-1.12","null","<span style='color:GreenYellow; font-size: 70px;'>正确! </span>","null","","","","","","","","","","","","","","","","","","","","","","","feedback_test",""
"","","","","","psychophysics","188","924189","0.0-16.0-0.0-0.13","532","","j","","","","","","","","","","","","","key","j","16.65820879120876","853.3333333333334","529.3333333333334","j","true","img/C_28.png","自我","prac_friend","","自我"
"","","","","","html-keyboard-response","189","924506","0.0-16.0-0.0-1.13","null","<span style='color:GreenYellow; font-size: 70px;'>正确! </span>","null","","","","","","","","","","","","","","","","","","","","","","","feedback_test",""
"","","","","","psychophysics","190","926266","0.0-16.0-0.0-0.14","755","","k","","","","","","","","","","","","","key","k","16.65825714285685","853.3333333333334","529.3333333333334","f","false","img/H_28.png","朋友","prac_friend","","朋友"
"","","","","","html-keyboard-response","191","926575","0.0-16.0-0.0-1.14","null","<span style='color:red; font-size: 70px;'>错误! </span>","null","","","","","","","","","","","","","","","","","","","","","","","feedback_test",""
"","","","","","psychophysics","192","928514","0.0-16.0-0.0-0.15","938","","j","","","","","","","","","","","","","key","j","16.658310344827097","853.3333333333334","529.3333333333334","k","false","img/C_28.png","朋友","prac_friend","","自我"
"","","","","","html-keyboard-response","193","928823","0.0-16.0-0.0-1.15","null","<span style='color:red; font-size: 70px;'>错误! </span>","null","","","","","","","","","","","","","","","","","","","","","","","feedback_test",""
"","","","","","psychophysics","194","930757","0.0-16.0-0.0-0.16","933","","k","","","","","","","","","","","","","key","k","16.658295652174147","853.3333333333334","529.3333333333334","k","true","img/C_28.png","生人","prac_friend","","自我"
"","","","","","html-keyboard-response","195","931077","0.0-16.0-0.0-1.16","null","<span style='color:GreenYellow; font-size: 70px;'>正确! </span>","null","","","","","","","","","","","","","","","","","","","","","","","feedback_test",""
"","","","","","psychophysics","196","932989","0.0-16.0-0.0-0.17","908","","k","","","","","","","","","","","","","key","k","16.658150442477226","853.3333333333334","529.3333333333334","j","false","img/S_28.png","生人","prac_friend","","生人"
"","","","","","html-keyboard-response","197","933299","0.0-16.0-0.0-1.17","null","<span style='color:red; font-size: 70px;'>错误! </span>","null","","","","","","","","","","","","","","","","","","","","","","","feedback_test",""
"","","","","","psychophysics","198","935343","0.0-16.0-0.0-0.18","1039","","j","","","","","","","","","","","","","key","j","16.65832786885239","853.3333333333334","529.3333333333334","d","false","img/H_28.png","生人","prac_friend","","朋友"
"","","","","","html-keyboard-response","199","935662","0.0-16.0-0.0-1.18","null","<span style='color:red; font-size: 70px;'>错误! </span>","null","","","","","","","","","","","","","","","","","","","","","","","feedback_test",""
"","","","","","psychophysics","200","937785","0.0-16.0-0.0-0.19","1121","","j","","","","","","","","","","","","","key","j","16.658285714285856","853.3333333333334","529.3333333333334","j","true","img/S_28.png","生人","prac_friend","","生人"
"","","","","","html-keyboard-response","201","938096","0.0-16.0-0.0-1.19","null","<span style='color:GreenYellow; font-size: 70px;'>正确! </span>","null","","","","","","","","","","","","","","","","","","","","","","","feedback_test",""
"","","","","","psychophysics","202","939984","0.0-16.0-0.0-0.20","880","","k","","","","","","","","","","","","","key","k","16.65825892857122","853.3333333333334","529.3333333333334","k","true","img/S_28.png","自我","prac_friend","","生人"
"","","","","","html-keyboard-response","203","940297","0.0-16.0-0.0-1.20","null","<span style='color:GreenYellow; font-size: 70px;'>正确! </span>","null","","","","","","","","","","","","","","","","","","","","","","","feedback_test",""
"","","","","","psychophysics","204","941943","0.0-16.0-0.0-0.21","640","","f","","","","","","","","","","","","","key","f","16.65817346938705","853.3333333333334","529.3333333333334","f","true","img/H_28.png","朋友","prac_friend","","朋友"
"","","","","","html-keyboard-response","205","942263","0.0-16.0-0.0-1.21","null","<span style='color:GreenYellow; font-size: 70px;'>正确! </span>","null","","","","","","","","","","","","","","","","","","","","","","","feedback_test",""
"","","","","","psychophysics","206","944153","0.0-16.0-0.0-0.22","888","","k","","","","","","","","","","","","","key","k","16.658300884955036","853.3333333333334","529.3333333333334","k","true","img/S_28.png","朋友","prac_friend","","生人"
"","","","","","html-keyboard-response","207","944464","0.0-16.0-0.0-1.22","null","<span style='color:GreenYellow; font-size: 70px;'>正确! </span>","null","","","","","","","","","","","","","","","","","","","","","","","feedback_test",""
"","","","","","psychophysics","208","946372","0.0-16.0-0.0-0.23","905","","k","","","","","","","","","","","","","key","k","16.65796491228097","853.3333333333334","529.3333333333334","d","false","img/H_28.png","自我","prac_friend","","朋友"
"","","","","","html-keyboard-response","209","946695","0.0-16.0-0.0-1.23","null","<span style='color:red; font-size: 70px;'>错误! </span>","null","","","","","","","","","","","","","","","","","","","","","","","feedback_test",""
"","","","","","html-keyboard-response","210","956395","0.0-16.0-1.0-0.0","9699","<style>.context{color:white; font-size: 35px; line-height:40px}</style>                           <div><p class='context'>您正确回答了67% 的试次。</p><p class='context'>您的平均反应时为878毫秒。</p>"," ","","","","","","","","","","","","","","","","","","","","","","","",""
"","","","","","instructions","211","984619","0.0-16.0-1.0-1.0","28222","","","","","","","","","","","","","","[{""page_index"":0,""viewing_time"":6573},{""page_index"":1,""viewing_time"":18099},{""page_index"":2,""viewing_time"":3550}]","","","","","","","","","","","",""
"","","","","","psychophysics","212","986569","0.0-16.1-0.1-0.24","945","","k","","","","","","","","","","","","","key","k","16.658405172413794","853.3333333333334","529.3333333333334","k","true","img/S_28.png","自我","prac_friend","","生人"
"","","","","","html-keyboard-response","213","986873","0.0-16.1-0.1-1.24","null","<span style='color:GreenYellow; font-size: 70px;'>正确! </span>","null","","","","","","","","","","","","","","","","","","","","","","","feedback_test",""
"","","","","","psychophysics","214","988640","0.0-16.1-0.1-0.25","761","","k","","","","","","","","","","","","","key","k","16.65831428571449","853.3333333333334","529.3333333333334","k","true","img/S_28.png","朋友","prac_friend","","生人"
"","","","","","html-keyboard-response","215","988955","0.0-16.1-0.1-1.25","null","<span style='color:GreenYellow; font-size: 70px;'>正确! </span>","null","","","","","","","","","","","","","","","","","","","","","","","feedback_test",""
"","","","","","psychophysics","216","990632","0.0-16.1-0.1-0.26","671","","k","","","","","","","","","","","","","key","k","16.65841999999946","853.3333333333334","529.3333333333334","j","false","img/S_28.png","生人","prac_friend","","生人"
"","","","","","html-keyboard-response","217","990948","0.0-16.1-0.1-1.26","null","<span style='color:red; font-size: 70px;'>错误! </span>","null","","","","","","","","","","","","","","","","","","","","","","","feedback_test",""
"","","","","","psychophysics","218","993180","0.0-16.1-0.1-0.27","1227","","j","","","","","","","","","","","","","key","j","16.65821804511326","853.3333333333334","529.3333333333334","j","true","img/S_28.png","生人","prac_friend","","生人"
"","","","","","html-keyboard-response","219","993502","0.0-16.1-0.1-1.27","null","<span style='color:GreenYellow; font-size: 70px;'>正确! </span>","null","","","","","","","","","","","","","","","","","","","","","","","feedback_test",""
"","","","","","psychophysics","220","995499","0.0-16.1-0.1-0.28","995","","j","","","","","","","","","","","","","key","j","16.658277310925033","853.3333333333334","529.3333333333334","j","true","img/C_28.png","自我","prac_friend","","自我"
"","","","","","html-keyboard-response","221","995803","0.0-16.1-0.1-1.28","null","<span style='color:GreenYellow; font-size: 70px;'>正确! </span>","null","","","","","","","","","","","","","","","","","","","","","","","feedback_test",""
"","","","","","psychophysics","222","998011","0.0-16.1-0.1-0.29","1203","","k","","","","","","","","","","","","","key","k","16.658310606060585","853.3333333333334","529.3333333333334","k","true","img/C_28.png","生人","prac_friend","","自我"
"","","","","","html-keyboard-response","223","998315","0.0-16.1-0.1-1.29","null","<span style='color:GreenYellow; font-size: 70px;'>正确! </span>","null","","","","","","","","","","","","","","","","","","","","","","","feedback_test",""
"","","","","","psychophysics","224","1000288","0.0-16.1-0.1-0.30","968","","d","","","","","","","","","","","","","key","d","16.658256410256936","853.3333333333334","529.3333333333334","d","true","img/H_28.png","生人","prac_friend","","朋友"
"","","","","","html-keyboard-response","225","1000593","0.0-16.1-0.1-1.30","null","<span style='color:GreenYellow; font-size: 70px;'>正确! </span>","null","","","","","","","","","","","","","","","","","","","","","","","feedback_test",""
"","","","","","psychophysics","226","1002390","0.0-16.1-0.1-0.31","789","","k","","","","","","","","","","","","","key","k","16.658140186915634","853.3333333333334","529.3333333333334","k","true","img/C_28.png","朋友","prac_friend","","自我"
"","","","","","html-keyboard-response","227","1002697","0.0-16.1-0.1-1.31","null","<span style='color:GreenYellow; font-size: 70px;'>正确! </span>","null","","","","","","","","","","","","","","","","","","","","","","","feedback_test",""
"","","","","","psychophysics","228","1004745","0.0-16.1-0.1-0.32","1040","","d","","","","","","","","","","","","","key","d","16.65781967213175","853.3333333333334","529.3333333333334","d","true","img/H_28.png","自我","prac_friend","","朋友"
"","","","","","html-keyboard-response","229","1005059","0.0-16.1-0.1-1.32","null","<span style='color:GreenYellow; font-size: 70px;'>正确! </span>","null","","","","","","","","","","","","","","","","","","","","","","","feedback_test",""
"","","","","","psychophysics","230","1006627","0.0-16.1-0.1-0.33","562","","f","","","","","","","","","","","","","key","f","16.658387096773993","853.3333333333334","529.3333333333334","f","true","img/H_28.png","朋友","prac_friend","","朋友"
"","","","","","html-keyboard-response","231","1006929","0.0-16.1-0.1-1.33","null","<span style='color:GreenYellow; font-size: 70px;'>正确! </span>","null","","","","","","","","","","","","","","","","","","","","","","","feedback_test",""
"","","","","","psychophysics","232","1008767","0.0-16.1-0.1-0.34","831","","f","","","","","","","","","","","","","key","f","16.658302752293622","853.3333333333334","529.3333333333334","f","true","img/H_28.png","朋友","prac_friend","","朋友"
"","","","","","html-keyboard-response","233","1009075","0.0-16.1-0.1-1.34","null","<span style='color:GreenYellow; font-size: 70px;'>正确! </span>","null","","","","","","","","","","","","","","","","","","","","","","","feedback_test",""
"","","","","","psychophysics","234","1010955","0.0-16.1-0.1-0.35","875","","j","","","","","","","","","","","","","key","j","16.658419642857293","853.3333333333334","529.3333333333334","j","true","img/C_28.png","自我","prac_friend","","自我"
"","","","","","html-keyboard-response","235","1011261","0.0-16.1-0.1-1.35","null","<span style='color:GreenYellow; font-size: 70px;'>正确! </span>","null","","","","","","","","","","","","","","","","","","","","","","","feedback_test",""
"","","","","","psychophysics","236","1012850","0.0-16.1-0.1-0.36","586","","j","","","","","","","","","","","","","key","j","16.658297872340476","853.3333333333334","529.3333333333334","j","true","img/C_28.png","自我","prac_friend","","自我"
"","","","","","html-keyboard-response","237","1013166","0.0-16.1-0.1-1.36","null","<span style='color:GreenYellow; font-size: 70px;'>正确! </span>","null","","","","","","","","","","","","","","","","","","","","","","","feedback_test",""
"","","","","","psychophysics","238","1014821","0.0-16.1-0.1-0.37","655","","k","","","","","","","","","","","","","key","k","16.521571428572038","853.3333333333334","529.3333333333334","f","false","img/H_28.png","朋友","prac_friend","","朋友"
"","","","","","html-keyboard-response","239","1015142","0.0-16.1-0.1-1.37","null","<span style='color:red; font-size: 70px;'>错误! </span>","null","","","","","","","","","","","","","","","","","","","","","","","feedback_test",""
"","","","","","psychophysics","240","1017117","0.0-16.1-0.1-0.38","972","","k","","","","","","","","","","","","","key","k","16.658144067796304","853.3333333333334","529.3333333333334","j","false","img/S_28.png","生人","prac_friend","","生人"
"","","","","","html-keyboard-response","241","1017430","0.0-16.1-0.1-1.38","null","<span style='color:red; font-size: 70px;'>错误! </span>","null","","","","","","","","","","","","","","","","","","","","","","","feedback_test",""
"","","","","","psychophysics","242","1019404","0.0-16.1-0.1-0.39","973","","j","","","","","","","","","","","","","key","j","16.545213675213994","853.3333333333334","529.3333333333334","j","true","img/S_28.png","生人","prac_friend","","生人"
"","","","","","html-keyboard-response","243","1019722","0.0-16.1-0.1-1.39","null","<span style='color:GreenYellow; font-size: 70px;'>正确! </span>","null","","","","","","","","","","","","","","","","","","","","","","","feedback_test",""
"","","","","","psychophysics","244","1021790","0.0-16.1-0.1-0.40","1061","","k","","","","","","","","","","","","","key","k","16.65824390243932","853.3333333333334","529.3333333333334","d","false","img/H_28.png","自我","prac_friend","","朋友"
"","","","","","html-keyboard-response","245","1022104","0.0-16.1-0.1-1.40","null","<span style='color:red; font-size: 70px;'>错误! </span>","null","","","","","","","","","","","","","","","","","","","","","","","feedback_test",""
"","","","","","psychophysics","246","1024382","0.0-16.1-0.1-0.41","1277","","f","","","","","","","","","","","","","key","f","16.65848529411682","853.3333333333334","529.3333333333334","f","true","img/H_28.png","朋友","prac_friend","","朋友"
"","","","","","html-keyboard-response","247","1024691","0.0-16.1-0.1-1.41","null","<span style='color:GreenYellow; font-size: 70px;'>正确! </span>","null","","","","","","","","","","","","","","","","","","","","","","","feedback_test",""
"","","","","","psychophysics","248","1026625","0.0-16.1-0.1-0.42","932","","k","","","","","","","","","","","","","key","k","16.658078260869598","853.3333333333334","529.3333333333334","k","true","img/C_28.png","生人","prac_friend","","自我"
"","","","","","html-keyboard-response","249","1026931","0.0-16.1-0.1-1.42","null","<span style='color:GreenYellow; font-size: 70px;'>正确! </span>","null","","","","","","","","","","","","","","","","","","","","","","","feedback_test",""
"","","","","","psychophysics","250","1029099","0.0-16.1-0.1-0.43","1161","","k","","","","","","","","","","","","","key","k","16.658294573643737","853.3333333333334","529.3333333333334","k","true","img/C_28.png","朋友","prac_friend","","自我"
"","","","","","html-keyboard-response","251","1029407","0.0-16.1-0.1-1.43","null","<span style='color:GreenYellow; font-size: 70px;'>正确! </span>","null","","","","","","","","","","","","","","","","","","","","","","","feedback_test",""
"","","","","","psychophysics","252","1031239","0.0-16.1-0.1-0.44","831","","j","","","","","","","","","","","","","key","j","16.658376146789315","853.3333333333334","529.3333333333334","j","true","img/C_28.png","自我","prac_friend","","自我"
"","","","","","html-keyboard-response","253","1031557","0.0-16.1-0.1-1.44","null","<span style='color:GreenYellow; font-size: 70px;'>正确! </span>","null","","","","","","","","","","","","","","","","","","","","","","","feedback_test",""
"","","","","","psychophysics","254","1033477","0.0-16.1-0.1-0.45","919","","k","","","","","","","","","","","","","key","k","16.536859649123233","853.3333333333334","529.3333333333334","k","true","img/S_28.png","朋友","prac_friend","","生人"
"","","","","","html-keyboard-response","255","1033796","0.0-16.1-0.1-1.45","null","<span style='color:GreenYellow; font-size: 70px;'>正确! </span>","null","","","","","","","","","","","","","","","","","","","","","","","feedback_test",""
"","","","","","psychophysics","256","1035695","0.0-16.1-0.1-0.46","894","","k","","","","","","","","","","","","","key","k","16.65835398230166","853.3333333333334","529.3333333333334","k","true","img/S_28.png","自我","prac_friend","","生人"
"","","","","","html-keyboard-response","257","1036014","0.0-16.1-0.1-1.46","null","<span style='color:GreenYellow; font-size: 70px;'>正确! </span>","null","","","","","","","","","","","","","","","","","","","","","","","feedback_test",""
"","","","","","psychophysics","258","1038270","0.0-16.1-0.1-0.47","1254","","f","","","","","","","","","","","","","key","f","16.65838059701491","853.3333333333334","529.3333333333334","d","false","img/H_28.png","生人","prac_friend","","朋友"
"","","","","","html-keyboard-response","259","1038588","0.0-16.1-0.1-1.47","null","<span style='color:red; font-size: 70px;'>错误! </span>","null","","","","","","","","","","","","","","","","","","","","","","","feedback_test",""
"","","","","","html-keyboard-response","260","1038720","0.0-17.0","130","[""<style>.context{color:white; font-size: 35px; line-height:40px}</style>               <div><p class='context'>您正确回答了79% 的试次。</p><p class='context'>您的平均反应时为935毫秒。</p><p class='context'>恭喜您完成这一阶段的练习。按任意键进入<span style='color: yellow;'>重点关注图形为“生人”</span>的练习。</p></div><p class='footer' style='font-size:35px; line-height:30px;'>任务要求：\n               <p class='footer' style='font-size:35px; line-height:35px;'>对与“生人”对应的图形，如果 匹配 ，请按 <span style=\""color: lightgreen;\"">f键</span></p><p class='footer' style='font-size:35px'>如果 不匹配 ，请按<span style=\""color: lightgreen;\"">d键</p></span>\n               <p class='footer' style='font-size:35px; line-height:35px;'>对非“生人”对应的图形，如果 匹配 ，请按 <span style=\""color: lightgreen;\"">j键</span></p><p class='footer' style='font-size:35px'>如果 不匹配 ，请按<span style=\""color: lightgreen;\"">k键</p></span>\n               <p class='footer' style='font-size:22px; line-height:25px;'>请在实验过程中将您的<span style=\""color: lightgreen;\"">食指和中指</span>放在电脑键盘的相应键位上进行按键。</p></span>""]","d","","","","","","","","","","","","","","","","","","","","","","","",""
"","","","","","psychophysics","261","1041236","0.0-18.0-0.0-0.0","null","","null","","","","","","","","","","","","","key","null","16.612791946308604","853.3333333333334","529.3333333333334","j","false","img/C_28.png","自我","prac_stranger","","自我"
"","","","","","html-keyboard-response","262","1041554","0.0-18.0-0.0-1.0","null","<span class='add_' style='color:yellow; font-size: 70px;'> 太慢! </span>","null","","","","","","","","","","","","","","","","","","","","","","","feedback_test",""
"","","","","","psychophysics","263","1042845","0.0-18.0-0.0-0.1","285","","k","","","","","","","","","","","","","key","k","16.6584342105259","853.3333333333334","529.3333333333334","f","false","img/S_28.png","生人","prac_stranger","","生人"
"","","","","","html-keyboard-response","264","1043162","0.0-18.0-0.0-1.1","null","<span style='color:red; font-size: 70px;'>错误! </span>","null","","","","","","","","","","","","","","","","","","","","","","","feedback_test",""
"","","","","","psychophysics","265","1045464","0.0-18.0-0.0-0.2","1296","","j","","","","","","","","","","","","","key","j","16.658262773722846","853.3333333333334","529.3333333333334","k","false","img/H_28.png","自我","prac_stranger","","朋友"
"","","","","","html-keyboard-response","266","1045773","0.0-18.0-0.0-1.2","null","<span style='color:red; font-size: 70px;'>错误! </span>","null","","","","","","","","","","","","","","","","","","","","","","","feedback_test",""
"","","","","","psychophysics","267","1047757","0.0-18.0-0.0-0.3","980","","k","","","","","","","","","","","","","key","k","16.658313559321883","853.3333333333334","529.3333333333334","k","true","img/C_28.png","生人","prac_stranger","","自我"
"","","","","","html-keyboard-response","268","1048079","0.0-18.0-0.0-1.3","null","<span style='color:GreenYellow; font-size: 70px;'>正确! </span>","null","","","","","","","","","","","","","","","","","","","","","","","feedback_test",""
"","","","","","psychophysics","269","1049937","0.0-18.0-0.0-0.4","857","","k","","","","","","","","","","","","","key","k","16.65764864864717","853.3333333333334","529.3333333333334","d","false","img/S_28.png","自我","prac_stranger","","生人"
"","","","","","html-keyboard-response","270","1050251","0.0-18.0-0.0-1.4","null","<span style='color:red; font-size: 70px;'>错误! </span>","null","","","","","","","","","","","","","","","","","","","","","","","feedback_test",""
"","","","","","psychophysics","271","1052301","0.0-18.0-0.0-0.5","1044","","j","","","","","","","","","","","","","key","j","16.658278688525048","853.3333333333334","529.3333333333334","j","true","img/H_28.png","朋友","prac_stranger","","朋友"
"","","","","","html-keyboard-response","272","1052619","0.0-18.0-0.0-1.5","null","<span style='color:GreenYellow; font-size: 70px;'>正确! </span>","null","","","","","","","","","","","","","","","","","","","","","","","feedback_test",""
"","","","","","psychophysics","273","1054357","0.0-18.0-0.0-0.6","732","","j","","","","","","","","","","","","","key","j","16.658291262135958","853.3333333333334","529.3333333333334","j","true","img/H_28.png","朋友","prac_stranger","","朋友"
"","","","","","html-keyboard-response","274","1054679","0.0-18.0-0.0-1.6","null","<span style='color:GreenYellow; font-size: 70px;'>正确! </span>","null","","","","","","","","","","","","","","","","","","","","","","","feedback_test",""
"","","","","","psychophysics","275","1056631","0.0-18.0-0.0-0.7","950","","d","","","","","","","","","","","","","key","d","16.658068965518332","853.3333333333334","529.3333333333334","k","false","img/C_28.png","朋友","prac_stranger","","自我"
"","","","","","html-keyboard-response","276","1056946","0.0-18.0-0.0-1.7","null","<span style='color:red; font-size: 70px;'>错误! </span>","null","","","","","","","","","","","","","","","","","","","","","","","feedback_test",""
"","","","","","psychophysics","277","1059004","0.0-18.0-0.0-0.8","1051","","f","","","","","","","","","","","","","key","f","16.658295081966543","853.3333333333334","529.3333333333334","f","true","img/S_28.png","生人","prac_stranger","","生人"
"","","","","","html-keyboard-response","278","1059328","0.0-18.0-0.0-1.8","null","<span style='color:GreenYellow; font-size: 70px;'>正确! </span>","null","","","","","","","","","","","","","","","","","","","","","","","feedback_test",""
"","","","","","psychophysics","279","1061206","0.0-18.0-0.0-0.9","870","","d","","","","","","","","","","","","","key","d","16.658180180179826","853.3333333333334","529.3333333333334","k","false","img/H_28.png","生人","prac_stranger","","朋友"
"","","","","","html-keyboard-response","280","1061519","0.0-18.0-0.0-1.9","null","<span style='color:red; font-size: 70px;'>错误! </span>","null","","","","","","","","","","","","","","","","","","","","","","","feedback_test",""
"","","","","","psychophysics","281","1063419","0.0-18.0-0.0-0.10","898","","j","","","","","","","","","","","","","key","j","16.65828318584018","853.3333333333334","529.3333333333334","j","true","img/C_28.png","自我","prac_stranger","","自我"
"","","","","","html-keyboard-response","282","1063731","0.0-18.0-0.0-1.10","null","<span style='color:GreenYellow; font-size: 70px;'>正确! </span>","null","","","","","","","","","","","","","","","","","","","","","","","feedback_test",""
"","","","","","psychophysics","283","1065466","0.0-18.0-0.0-0.11","729","","k","","","","","","","","","","","","","key","k","16.658223300971073","853.3333333333334","529.3333333333334","d","false","img/S_28.png","朋友","prac_stranger","","生人"
"","","","","","html-keyboard-response","284","1065782","0.0-18.0-0.0-1.11","null","<span style='color:red; font-size: 70px;'>错误! </span>","null","","","","","","","","","","","","","","","","","","","","","","","feedback_test",""
"","","","","","psychophysics","285","1068240","0.0-18.0-0.0-0.12","1456","","j","","","","","","","","","","","","","key","j","16.65821768707425","853.3333333333334","529.3333333333334","k","false","img/C_28.png","朋友","prac_stranger","","自我"
"","","","","","html-keyboard-response","286","1068552","0.0-18.0-0.0-1.12","null","<span style='color:red; font-size: 70px;'>错误! </span>","null","","","","","","","","","","","","","","","","","","","","","","","feedback_test",""
"","","","","","psychophysics","287","1070780","0.0-18.0-0.0-0.13","1225","","d","","","","","","","","","","","","","key","d","16.658157894736213","853.3333333333334","529.3333333333334","f","false","img/S_28.png","生人","prac_stranger","","生人"
"","","","","","html-keyboard-response","288","1071091","0.0-18.0-0.0-1.13","null","<span style='color:red; font-size: 70px;'>错误! </span>","null","","","","","","","","","","","","","","","","","","","","","","","feedback_test",""
"","","","","","psychophysics","289","1072991","0.0-18.0-0.0-0.14","894","","j","","","","","","","","","","","","","key","j","16.65824778761047","853.3333333333334","529.3333333333334","j","true","img/C_28.png","自我","prac_stranger","","自我"
"","","","","","html-keyboard-response","290","1073305","0.0-18.0-0.0-1.14","null","<span style='color:GreenYellow; font-size: 70px;'>正确! </span>","null","","","","","","","","","","","","","","","","","","","","","","","feedback_test",""
"","","","","","psychophysics","291","1075510","0.0-18.0-0.0-0.15","1197","","f","","","","","","","","","","","","","key","f","16.658267175572576","853.3333333333334","529.3333333333334","d","false","img/S_28.png","朋友","prac_stranger","","生人"
"","","","","","html-keyboard-response","292","1075817","0.0-18.0-0.0-1.15","null","<span style='color:red; font-size: 70px;'>错误! </span>","null","","","","","","","","","","","","","","","","","","","","","","","feedback_test",""
"","","","","","psychophysics","293","1077763","0.0-18.0-0.0-0.16","945","","j","","","","","","","","","","","","","key","j","16.542304347826008","853.3333333333334","529.3333333333334","j","true","img/C_28.png","自我","prac_stranger","","自我"
"","","","","","html-keyboard-response","294","1078069","0.0-18.0-0.0-1.16","null","<span style='color:GreenYellow; font-size: 70px;'>正确! </span>","null","","","","","","","","","","","","","","","","","","","","","","","feedback_test",""
"","","","","","psychophysics","295","1079992","0.0-18.0-0.0-0.17","919","","k","","","","","","","","","","","","","key","k","16.658394736842368","853.3333333333334","529.3333333333334","k","true","img/C_28.png","生人","prac_stranger","","自我"
"","","","","","html-keyboard-response","296","1080298","0.0-18.0-0.0-1.17","null","<span style='color:GreenYellow; font-size: 70px;'>正确! </span>","null","","","","","","","","","","","","","","","","","","","","","","","feedback_test",""
"","","","","","psychophysics","297","1082801","0.0-18.0-0.0-0.18","null","","null","","","","","","","","","","","","","key","null","16.568362416107295","853.3333333333334","529.3333333333334","k","false","img/H_28.png","生人","prac_stranger","","朋友"
"","","","","","html-keyboard-response","298","1083105","0.0-18.0-0.0-1.18","null","<span class='add_' style='color:yellow; font-size: 70px;'> 太慢! </span>","null","","","","","","","","","","","","","","","","","","","","","","","feedback_test",""
"","","","","","psychophysics","299","1084905","0.0-18.0-0.0-0.19","792","","f","","","","","","","","","","","","","key","f","16.65829906541915","853.3333333333334","529.3333333333334","j","false","img/H_28.png","朋友","prac_stranger","","朋友"
"","","","","","html-keyboard-response","300","1085219","0.0-18.0-0.0-1.19","null","<span style='color:red; font-size: 70px;'>错误! </span>","null","","","","","","","","","","","","","","","","","","","","","","","feedback_test",""
"","","","","","psychophysics","301","1086983","0.0-18.0-0.0-0.20","758","","j","","","","","","","","","","","","","key","j","16.65831428571338","853.3333333333334","529.3333333333334","f","false","img/S_28.png","生人","prac_stranger","","生人"
"","","","","","html-keyboard-response","302","1087292","0.0-18.0-0.0-1.20","null","<span style='color:red; font-size: 70px;'>错误! </span>","null","","","","","","","","","","","","","","","","","","","","","","","feedback_test",""
"","","","","","psychophysics","303","1089793","0.0-18.0-0.0-0.21","1498","","f","","","","","","","","","","","","","key","f","16.65827516778591","853.3333333333334","529.3333333333334","j","false","img/H_28.png","朋友","prac_stranger","","朋友"
"","","","","","html-keyboard-response","304","1090097","0.0-18.0-0.0-1.21","null","<span style='color:red; font-size: 70px;'>错误! </span>","null","","","","","","","","","","","","","","","","","","","","","","","feedback_test",""
"","","","","","psychophysics","305","1092018","0.0-18.0-0.0-0.22","913","","k","","","","","","","","","","","","","key","k","16.658140350878647","853.3333333333334","529.3333333333334","k","true","img/H_28.png","自我","prac_stranger","","朋友"
"","","","","","html-keyboard-response","306","1092330","0.0-18.0-0.0-1.22","null","<span style='color:GreenYellow; font-size: 70px;'>正确! </span>","null","","","","","","","","","","","","","","","","","","","","","","","feedback_test",""
"","","","","","psychophysics","307","1094418","0.0-18.0-0.0-0.23","1081","","j","","","","","","","","","","","","","key","j","16.65820161290204","853.3333333333334","529.3333333333334","d","false","img/S_28.png","自我","prac_stranger","","生人"
"","","","","","html-keyboard-response","308","1094724","0.0-18.0-0.0-1.23","null","<span style='color:red; font-size: 70px;'>错误! </span>","null","","","","","","","","","","","","","","","","","","","","","","","feedback_test",""
"","","","","","html-keyboard-response","309","1103033","0.0-18.0-1.0-0.0","8308","<style>.context{color:white; font-size: 35px; line-height:40px}</style>                           <div><p class='context'>您正确回答了38% 的试次。</p><p class='context'>您的平均反应时为931毫秒。</p>"," ","","","","","","","","","","","","","","","","","","","","","","","",""
"","","","","","instructions","310","1190531","0.0-18.0-1.0-1.0","87496","","","","","","","","","","","","","","[{""page_index"":0,""viewing_time"":28063},{""page_index"":1,""viewing_time"":31331},{""page_index"":2,""viewing_time"":12732},{""page_index"":1,""viewing_time"":13490},{""page_index"":2,""viewing_time"":1880}]","","","","","","","","","","","",""
"","","","","","psychophysics","311","1192763","0.0-18.1-0.1-0.24","1226","","j","","","","","","","","","","","","","key","j","16.658398496240896","853.3333333333334","529.3333333333334","k","false","img/C_28.png","朋友","prac_stranger","","自我"
"","","","","","html-keyboard-response","312","1193073","0.0-18.1-0.1-1.24","null","<span style='color:red; font-size: 70px;'>错误! </span>","null","","","","","","","","","","","","","","","","","","","","","","","feedback_test",""
"","","","","","psychophysics","313","1195575","0.0-18.1-0.1-0.25","null","","null","","","","","","","","","","","","","key","null","16.658328859060504","853.3333333333334","529.3333333333334","k","false","img/H_28.png","生人","prac_stranger","","朋友"
"","","","","","html-keyboard-response","314","1195881","0.0-18.1-0.1-1.25","null","<span class='add_' style='color:yellow; font-size: 70px;'> 太慢! </span>","null","","","","","","","","","","","","","","","","","","","","","","","feedback_test",""
"","","","","","psychophysics","315","1197734","0.0-18.1-0.1-0.26","845","","j","","","","","","","","","","","","","key","j","16.658209090908482","853.3333333333334","529.3333333333334","j","true","img/C_28.png","自我","prac_stranger","","自我"
"","","","","","html-keyboard-response","316","1198052","0.0-18.1-0.1-1.26","null","<span style='color:GreenYellow; font-size: 70px;'>正确! </span>","null","","","","","","","","","","","","","","","","","","","","","","","feedback_test",""
"","","","","","psychophysics","317","1200058","0.0-18.1-0.1-0.27","1001","","d","","","","","","","","","","","","","key","d","16.658333333333335","853.3333333333334","529.3333333333334","d","true","img/S_28.png","朋友","prac_stranger","","生人"
"","","","","","html-keyboard-response","318","1200368","0.0-18.1-0.1-1.27","null","<span style='color:GreenYellow; font-size: 70px;'>正确! </span>","null","","","","","","","","","","","","","","","","","","","","","","","feedback_test",""
"","","","","","psychophysics","319","1202028","0.0-18.1-0.1-0.28","656","","f","","","","","","","","","","","","","key","f","16.658202020202133","853.3333333333334","529.3333333333334","f","true","img/S_28.png","生人","prac_stranger","","生人"
"","","","","","html-keyboard-response","320","1202337","0.0-18.1-0.1-1.28","null","<span style='color:GreenYellow; font-size: 70px;'>正确! </span>","null","","","","","","","","","","","","","","","","","","","","","","","feedback_test",""
"","","","","","psychophysics","321","1204292","0.0-18.1-0.1-0.29","954","","j","","","","","","","","","","","","","key","j","16.658413793102856","853.3333333333334","529.3333333333334","j","true","img/H_28.png","朋友","prac_stranger","","朋友"
"","","","","","html-keyboard-response","322","1204610","0.0-18.1-0.1-1.29","null","<span style='color:GreenYellow; font-size: 70px;'>正确! </span>","null","","","","","","","","","","","","","","","","","","","","","","","feedback_test",""
"","","","","","psychophysics","323","1206269","0.0-18.1-0.1-0.30","651","","j","","","","","","","","","","","","","key","j","16.65819387754891","853.3333333333334","529.3333333333334","j","true","img/C_28.png","自我","prac_stranger","","自我"
"","","","","","html-keyboard-response","324","1206587","0.0-18.1-0.1-1.30","null","<span style='color:GreenYellow; font-size: 70px;'>正确! </span>","null","","","","","","","","","","","","","","","","","","","","","","","feedback_test",""
"","","","","","psychophysics","325","1208467","0.0-18.1-0.1-0.31","874","","k","","","","","","","","","","","","","key","k","16.658072072072876","853.3333333333334","529.3333333333334","k","true","img/H_28.png","自我","prac_stranger","","朋友"
"","","","","","html-keyboard-response","326","1208780","0.0-18.1-0.1-1.31","null","<span style='color:GreenYellow; font-size: 70px;'>正确! </span>","null","","","","","","","","","","","","","","","","","","","","","","","feedback_test",""
"","","","","","psychophysics","327","1210922","0.0-18.1-0.1-0.32","1138","","j","","","","","","","","","","","","","key","j","16.658171875000335","853.3333333333334","529.3333333333334","j","true","img/H_28.png","朋友","prac_stranger","","朋友"
"","","","","","html-keyboard-response","328","1211229","0.0-18.1-0.1-1.32","null","<span style='color:GreenYellow; font-size: 70px;'>正确! </span>","null","","","","","","","","","","","","","","","","","","","","","","","feedback_test",""
"","","","","","psychophysics","329","1213217","0.0-18.1-0.1-0.33","985","","k","","","","","","","","","","","","","key","k","16.658478991596123","853.3333333333334","529.3333333333334","f","false","img/S_28.png","生人","prac_stranger","","生人"
"","","","","","html-keyboard-response","330","1213522","0.0-18.1-0.1-1.33","null","<span style='color:red; font-size: 70px;'>错误! </span>","null","","","","","","","","","","","","","","","","","","","","","","","feedback_test",""
"","","","","","psychophysics","331","1215267","0.0-18.1-0.1-0.34","739","","k","","","","","","","","","","","","","key","k","16.658269230768873","853.3333333333334","529.3333333333334","d","false","img/S_28.png","自我","prac_stranger","","生人"
"","","","","","html-keyboard-response","332","1215570","0.0-18.1-0.1-1.34","null","<span style='color:red; font-size: 70px;'>错误! </span>","null","","","","","","","","","","","","","","","","","","","","","","","feedback_test",""
"","","","","","psychophysics","333","1217623","0.0-18.1-0.1-0.35","1046","","k","","","","","","","","","","","","","key","k","16.658286885245793","853.3333333333334","529.3333333333334","k","true","img/C_28.png","生人","prac_stranger","","自我"
"","","","","","html-keyboard-response","334","1217940","0.0-18.1-0.1-1.35","null","<span style='color:GreenYellow; font-size: 70px;'>正确! </span>","null","","","","","","","","","","","","","","","","","","","","","","","feedback_test",""
"","","","","","psychophysics","335","1219936","0.0-18.1-0.1-0.36","992","","d","","","","","","","","","","","","","key","d","16.65830252100831","853.3333333333334","529.3333333333334","f","false","img/S_28.png","生人","prac_stranger","","生人"
"","","","","","html-keyboard-response","336","1220248","0.0-18.1-0.1-1.36","null","<span style='color:red; font-size: 70px;'>错误! </span>","null","","","","","","","","","","","","","","","","","","","","","","","feedback_test",""
"","","","","","psychophysics","337","1222086","0.0-18.1-0.1-0.37","829","","j","","","","","","","","","","","","","key","j","16.658201834861906","853.3333333333334","529.3333333333334","j","true","img/C_28.png","自我","prac_stranger","","自我"
"","","","","","html-keyboard-response","338","1222395","0.0-18.1-0.1-1.37","null","<span style='color:GreenYellow; font-size: 70px;'>正确! </span>","null","","","","","","","","","","","","","","","","","","","","","","","feedback_test",""
"","","","","","psychophysics","339","1224173","0.0-18.1-0.1-0.38","772","","d","","","","","","","","","","","","","key","d","16.658304761904514","853.3333333333334","529.3333333333334","d","true","img/S_28.png","朋友","prac_stranger","","生人"
"","","","","","html-keyboard-response","340","1224492","0.0-18.1-0.1-1.38","null","<span style='color:GreenYellow; font-size: 70px;'>正确! </span>","null","","","","","","","","","","","","","","","","","","","","","","","feedback_test",""
"","","","","","psychophysics","341","1226458","0.0-18.1-0.1-0.39","965","","k","","","","","","","","","","","","","key","k","16.542689655170825","853.3333333333334","529.3333333333334","k","true","img/H_28.png","自我","prac_stranger","","朋友"
"","","","","","html-keyboard-response","342","1226766","0.0-18.1-0.1-1.39","null","<span style='color:GreenYellow; font-size: 70px;'>正确! </span>","null","","","","","","","","","","","","","","","","","","","","","","","feedback_test",""
"","","","","","psychophysics","343","1228686","0.0-18.1-0.1-0.40","917","","k","","","","","","","","","","","","","key","k","16.658280701754336","853.3333333333334","529.3333333333334","f","false","img/S_28.png","生人","prac_stranger","","生人"
"","","","","","html-keyboard-response","344","1229008","0.0-18.1-0.1-1.40","null","<span style='color:red; font-size: 70px;'>错误! </span>","null","","","","","","","","","","","","","","","","","","","","","","","feedback_test",""
"","","","","","psychophysics","345","1230943","0.0-18.1-0.1-0.41","926","","j","","","","","","","","","","","","","key","j","16.658243478261664","853.3333333333334","529.3333333333334","k","false","img/C_28.png","朋友","prac_stranger","","自我"
"","","","","","html-keyboard-response","346","1231261","0.0-18.1-0.1-1.41","null","<span style='color:red; font-size: 70px;'>错误! </span>","null","","","","","","","","","","","","","","","","","","","","","","","feedback_test",""
"","","","","","psychophysics","347","1233496","0.0-18.1-0.1-0.42","1231","","k","","","","","","","","","","","","","key","k","16.65842105263032","853.3333333333334","529.3333333333334","j","false","img/H_28.png","朋友","prac_stranger","","朋友"
"","","","","","html-keyboard-response","348","1233802","0.0-18.1-0.1-1.42","null","<span style='color:red; font-size: 70px;'>错误! </span>","null","","","","","","","","","","","","","","","","","","","","","","","feedback_test",""
"","","","","","psychophysics","349","1235899","0.0-18.1-0.1-0.43","1094","","k","","","","","","","","","","","","","key","k","16.65843999999948","853.3333333333334","529.3333333333334","d","false","img/S_28.png","自我","prac_stranger","","生人"
"","","","","","html-keyboard-response","350","1236210","0.0-18.1-0.1-1.43","null","<span style='color:red; font-size: 70px;'>错误! </span>","null","","","","","","","","","","","","","","","","","","","","","","","feedback_test",""
"","","","","","psychophysics","351","1238719","0.0-18.1-0.1-0.44","null","","null","","","","","","","","","","","","","key","null","16.65807382550228","853.3333333333334","529.3333333333334","j","false","img/H_28.png","朋友","prac_stranger","","朋友"
"","","","","","html-keyboard-response","352","1239034","0.0-18.1-0.1-1.44","null","<span class='add_' style='color:yellow; font-size: 70px;'> 太慢! </span>","null","","","","","","","","","","","","","","","","","","","","","","","feedback_test",""
"","","","","","psychophysics","353","1240743","0.0-18.1-0.1-0.45","707","","j","","","","","","","","","","","","","key","j","16.658441176471374","853.3333333333334","529.3333333333334","j","true","img/C_28.png","自我","prac_stranger","","自我"
"","","","","","html-keyboard-response","354","1241063","0.0-18.1-0.1-1.45","null","<span style='color:GreenYellow; font-size: 70px;'>正确! </span>","null","","","","","","","","","","","","","","","","","","","","","","","feedback_test",""
"","","","","","psychophysics","355","1242972","0.0-18.1-0.1-0.46","907","","k","","","","","","","","","","","","","key","k","16.658517543859617","853.3333333333334","529.3333333333334","k","true","img/C_28.png","生人","prac_stranger","","自我"
"","","","","","html-keyboard-response","356","1243295","0.0-18.1-0.1-1.46","null","<span style='color:GreenYellow; font-size: 70px;'>正确! </span>","null","","","","","","","","","","","","","","","","","","","","","","","feedback_test",""
"","","","","","psychophysics","357","1245492","0.0-18.1-0.1-0.47","1196","","k","","","","","","","","","","","","","key","k","16.658389312977626","853.3333333333334","529.3333333333334","k","true","img/H_28.png","生人","prac_stranger","","朋友"
"","","","","","html-keyboard-response","358","1245814","0.0-18.1-0.1-1.47","null","<span style='color:GreenYellow; font-size: 70px;'>正确! </span>","null","","","","","","","","","","","","","","","","","","","","","","","feedback_test",""
"","","","","","html-keyboard-response","359","1254557","0.0-18.1-1.1-0.1","8742","<style>.context{color:white; font-size: 35px; line-height:40px}</style>                           <div><p class='context'>您正确回答了58% 的试次。</p><p class='context'>您的平均反应时为896毫秒。</p>"," ","","","","","","","","","","","","","","","","","","","","","","","",""
"","","","","","instructions","360","1282789","0.0-18.1-1.1-1.1","28230","","","","","","","","","","","","","","[{""page_index"":0,""viewing_time"":3127},{""page_index"":1,""viewing_time"":19109},{""page_index"":2,""viewing_time"":5994}]","","","","","","","","","","","",""
"","","","","","psychophysics","361","1284935","0.0-18.2-0.2-0.48","1142","","k","","","","","","","","","","","","","key","k","16.65825781249987","853.3333333333334","529.3333333333334","k","true","img/H_28.png","自我","prac_stranger","","朋友"
"","","","","","html-keyboard-response","362","1285251","0.0-18.2-0.2-1.48","null","<span style='color:GreenYellow; font-size: 70px;'>正确! </span>","null","","","","","","","","","","","","","","","","","","","","","","","feedback_test",""
"","","","","","psychophysics","363","1287090","0.0-18.2-0.2-0.49","834","","k","","","","","","","","","","","","","key","k","16.658467889908668","853.3333333333334","529.3333333333334","f","false","img/S_28.png","生人","prac_stranger","","生人"
"","","","","","html-keyboard-response","364","1287403","0.0-18.2-0.2-1.49","null","<span style='color:red; font-size: 70px;'>错误! </span>","null","","","","","","","","","","","","","","","","","","","","","","","feedback_test",""
"","","","","","psychophysics","365","1289825","0.0-18.2-0.2-0.50","1416","","k","","","","","","","","","","","","","key","k","16.65819444444464","853.3333333333334","529.3333333333334","k","true","img/C_28.png","生人","prac_stranger","","自我"
"","","","","","html-keyboard-response","366","1290129","0.0-18.2-0.2-1.50","null","<span style='color:GreenYellow; font-size: 70px;'>正确! </span>","null","","","","","","","","","","","","","","","","","","","","","","","feedback_test",""
"","","","","","psychophysics","367","1291852","0.0-18.2-0.2-0.51","717","","f","","","","","","","","","","","","","key","f","16.658284313725673","853.3333333333334","529.3333333333334","f","true","img/S_28.png","生人","prac_stranger","","生人"
"","","","","","html-keyboard-response","368","1292172","0.0-18.2-0.2-1.51","null","<span style='color:GreenYellow; font-size: 70px;'>正确! </span>","null","","","","","","","","","","","","","","","","","","","","","","","feedback_test",""
"","","","","","psychophysics","369","1293907","0.0-18.2-0.2-0.52","732","","j","","","","","","","","","","","","","key","j","16.658572815534956","853.3333333333334","529.3333333333334","j","true","img/C_28.png","自我","prac_stranger","","自我"
"","","","","","html-keyboard-response","370","1294216","0.0-18.2-0.2-1.52","null","<span style='color:GreenYellow; font-size: 70px;'>正确! </span>","null","","","","","","","","","","","","","","","","","","","","","","","feedback_test",""
"","","","","","psychophysics","371","1295995","0.0-18.2-0.2-0.53","771","","k","","","","","","","","","","","","","key","k","16.65818867924676","853.3333333333334","529.3333333333334","d","false","img/S_28.png","自我","prac_stranger","","生人"
"","","","","","html-keyboard-response","372","1296316","0.0-18.2-0.2-1.53","null","<span style='color:red; font-size: 70px;'>错误! </span>","null","","","","","","","","","","","","","","","","","","","","","","","feedback_test",""
"","","","","","psychophysics","373","1298126","0.0-18.2-0.2-0.54","807","","j","","","","","","","","","","","","","key","j","16.65884259259285","853.3333333333334","529.3333333333334","k","false","img/C_28.png","朋友","prac_stranger","","自我"
"","","","","","html-keyboard-response","374","1298437","0.0-18.2-0.2-1.54","null","<span style='color:red; font-size: 70px;'>错误! </span>","null","","","","","","","","","","","","","","","","","","","","","","","feedback_test",""
"","","","","","psychophysics","375","1300218","0.0-18.2-0.2-0.55","779","","j","","","","","","","","","","","","","key","j","16.658009433962913","853.3333333333334","529.3333333333334","j","true","img/C_28.png","自我","prac_stranger","","自我"
"","","","","","html-keyboard-response","376","1300527","0.0-18.2-0.2-1.55","null","<span style='color:GreenYellow; font-size: 70px;'>正确! </span>","null","","","","","","","","","","","","","","","","","","","","","","","feedback_test",""
"","","","","","psychophysics","377","1302526","0.0-18.2-0.2-0.56","997","","k","","","","","","","","","","","","","key","k","16.65826890756329","853.3333333333334","529.3333333333334","k","true","img/H_28.png","生人","prac_stranger","","朋友"
"","","","","","html-keyboard-response","378","1302838","0.0-18.2-0.2-1.56","null","<span style='color:GreenYellow; font-size: 70px;'>正确! </span>","null","","","","","","","","","","","","","","","","","","","","","","","feedback_test",""
"","","","","","psychophysics","379","1304893","0.0-18.2-0.2-0.57","1054","","k","","","","","","","","","","","","","key","k","16.658286885245793","853.3333333333334","529.3333333333334","j","false","img/H_28.png","朋友","prac_stranger","","朋友"
"","","","","","html-keyboard-response","380","1305208","0.0-18.2-0.2-1.57","null","<span style='color:red; font-size: 70px;'>错误! </span>","null","","","","","","","","","","","","","","","","","","","","","","","feedback_test",""
"","","","","","psychophysics","381","1307274","0.0-18.2-0.2-0.58","1056","","k","","","","","","","","","","","","","key","k","16.658317073170718","853.3333333333334","529.3333333333334","d","false","img/S_28.png","朋友","prac_stranger","","生人"
"","","","","","html-keyboard-response","382","1307581","0.0-18.2-0.2-1.58","null","<span style='color:red; font-size: 70px;'>错误! </span>","null","","","","","","","","","","","","","","","","","","","","","","","feedback_test",""
"","","","","","psychophysics","383","1309862","0.0-18.2-0.2-0.59","1278","","j","","","","","","","","","","","","","key","j","16.658301470587237","853.3333333333334","529.3333333333334","j","true","img/H_28.png","朋友","prac_stranger","","朋友"
"","","","","","html-keyboard-response","384","1310172","0.0-18.2-0.2-1.59","null","<span style='color:GreenYellow; font-size: 70px;'>正确! </span>","null","","","","","","","","","","","","","","","","","","","","","","","feedback_test",""
"","","","","","psychophysics","385","1312132","0.0-18.2-0.2-0.60","955","","k","","","","","","","","","","","","","key","k","16.65826724137878","853.3333333333334","529.3333333333334","d","false","img/S_28.png","自我","prac_stranger","","生人"
"","","","","","html-keyboard-response","386","1312451","0.0-18.2-0.2-1.60","null","<span style='color:red; font-size: 70px;'>错误! </span>","null","","","","","","","","","","","","","","","","","","","","","","","feedback_test",""
"","","","","","psychophysics","387","1314194","0.0-18.2-0.2-0.61","737","","f","","","","","","","","","","","","","key","f","16.658213592233878","853.3333333333334","529.3333333333334","f","true","img/S_28.png","生人","prac_stranger","","生人"
"","","","","","html-keyboard-response","388","1314508","0.0-18.2-0.2-1.61","null","<span style='color:GreenYellow; font-size: 70px;'>正确! </span>","null","","","","","","","","","","","","","","","","","","","","","","","feedback_test",""
"","","","","","psychophysics","389","1316245","0.0-18.2-0.2-0.62","733","","j","","","","","","","","","","","","","key","j","16.658223300971073","853.3333333333334","529.3333333333334","j","true","img/C_28.png","自我","prac_stranger","","自我"
"","","","","","html-keyboard-response","390","1316561","0.0-18.2-0.2-1.62","null","<span style='color:GreenYellow; font-size: 70px;'>正确! </span>","null","","","","","","","","","","","","","","","","","","","","","","","feedback_test",""
"","","","","","psychophysics","391","1318497","0.0-18.2-0.2-0.63","934","","k","","","","","","","","","","","","","key","k","16.65791379310319","853.3333333333334","529.3333333333334","k","true","img/H_28.png","生人","prac_stranger","","朋友"
"","","","","","html-keyboard-response","392","1318815","0.0-18.2-0.2-1.63","null","<span style='color:GreenYellow; font-size: 70px;'>正确! </span>","null","","","","","","","","","","","","","","","","","","","","","","","feedback_test",""
"","","","","","psychophysics","393","1320537","0.0-18.2-0.2-0.64","720","","j","","","","","","","","","","","","","key","j","16.658333333332422","853.3333333333334","529.3333333333334","j","true","img/C_28.png","自我","prac_stranger","","自我"
"","","","","","html-keyboard-response","394","1320848","0.0-18.2-0.2-1.64","null","<span style='color:GreenYellow; font-size: 70px;'>正确! </span>","null","","","","","","","","","","","","","","","","","","","","","","","feedback_test",""
"","","","","","psychophysics","395","1322965","0.0-18.2-0.2-0.65","1108","","k","","","","","","","","","","","","","key","k","16.658404761905015","853.3333333333334","529.3333333333334","k","true","img/H_28.png","自我","prac_stranger","","朋友"
"","","","","","html-keyboard-response","396","1323276","0.0-18.2-0.2-1.65","null","<span style='color:GreenYellow; font-size: 70px;'>正确! </span>","null","","","","","","","","","","","","","","","","","","","","","","","feedback_test",""
"","","","","","psychophysics","397","1324930","0.0-18.2-0.2-0.66","654","","j","","","","","","","","","","","","","key","j","16.658222222223294","853.3333333333334","529.3333333333334","k","false","img/C_28.png","朋友","prac_stranger","","自我"
"","","","","","html-keyboard-response","398","1325236","0.0-18.2-0.2-1.66","null","<span style='color:red; font-size: 70px;'>错误! </span>","null","","","","","","","","","","","","","","","","","","","","","","","feedback_test",""
"","","","","","psychophysics","399","1327211","0.0-18.2-0.2-0.67","971","","k","","","","","","","","","","","","","key","k","16.65831355932287","853.3333333333334","529.3333333333334","k","true","img/C_28.png","生人","prac_stranger","","自我"
"","","","","","html-keyboard-response","400","1327522","0.0-18.2-0.2-1.67","null","<span style='color:GreenYellow; font-size: 70px;'>正确! </span>","null","","","","","","","","","","","","","","","","","","","","","","","feedback_test",""
