"success","timeout","failed_images","failed_audio","failed_video","trial_type","trial_index","time_elapsed","internal_node_id","rt","stimulus","response","value","item_width_mm","item_height_mm","item_width_px","px2mm","view_dist_mm","item_width_deg","px2deg","scale_factor","win_width_deg","win_height_deg","view_history","response_type","key_press","avg_frame_time","center_x","center_y","correct_response","correct","Image","text","condition","screen_id","label"
"true","false","[]","[]","[]","preload","0","694","0.0-0.0","","","","","","","","","","","","","","","","","","","","","","","","","","",""
"","","","","","html-keyboard-response","1","154240","0.0-1.0","153544","
  <p>您好，欢迎参加本次实验。</p>
  <p>为充分保障您的权利，请确保您已经知晓并同意《参与实验同意书》以及《数据公开知情同意书》。</p>
  <p>如果您未见过上述内容，请咨询实验员。</p>
  <p>如果您选择继续实验，则表示您已经清楚两份知情同意书的内容并同意。</p>
  <p> <div style = ""color: green""><按任意键至下页></div> </p>
  "," ","","","","","","","","","","","","","","","","","","","","","","","",""
"","","","","","html-keyboard-response","2","157820","0.0-2.0","3580","
  <p>本实验首先需要您填写一些基本个人信息。</p>
  <p> <div style = ""color: green""><按任意键至下页></div></p>
  "," ","","","","","","","","","","","","","","","","","","","","","","","",""
"","","","","","call-function","3","157821","0.0-3.0-0.0","","","","","","","","","","","","","","","","","","","","","","","","","","",""
"","","","","","survey-html-form","4","163770","0.0-3.0-1.0","5935","","{""Q0"":""16""}","","","","","","","","","","","","","","","","","","","","","","","",""
"","","","","","html-button-response","5","165318","0.0-3.0-2.0","1546","<p style = 'color : white'>您的性别</p>","1","","","","","","","","","","","","","","","","","","","","","","","",""
"","","","","","survey-html-form","6","172669","0.0-3.0-3.0","7350","","{""Q0"":""2003""}","","","","","","","","","","","","","","","","","","","","","","","",""
"","","","","","survey-html-form","7","177603","0.0-3.0-4.0","4932","","{""Q0"":""5""}","","","","","","","","","","","","","","","","","","","","","","","",""
"","","","","","virtual-chinrest","8","306131","0.0-4.0","128525","","","","85.6","53.98","426.4115459887227","4.978581614070459","574.03","8.528230919774453","50","0.8817772490849581","29.58","14.92","","","","","","","","","","","","",""
"true","","","","","fullscreen","9","311218","0.0-5.0","","","","","","","","","","","","","","","","","","","","","","","","","","",""
"","","","","","instructions","10","596706","0.0-6.0","285487","","","","","","","","","","","","","","[{""page_index"":0,""viewing_time"":7344},{""page_index"":1,""viewing_time"":28962},{""page_index"":2,""viewing_time"":57855},{""page_index"":1,""viewing_time"":94857},{""page_index"":2,""viewing_time"":83877},{""page_index"":3,""viewing_time"":9161},{""page_index"":4,""viewing_time"":3431}]","","","","","","","","","","","",""
"","","","","","instructions","11","662696","0.0-7.0","65989","","","","","","","","","","","","","","[{""page_index"":0,""viewing_time"":65989}]","","","","","","","","","","","",""
"","","","","","psychophysics","12","665562","0.0-8.0-0.0-0.0","1861","","k","","","","","","","","","","","","","key","k","16.66135087719239","768","428","k","true","img/S_28.png","生人","freeprac_self","",""
"","","","","","html-keyboard-response","13","665865","0.0-8.0-0.0-1.0","null","<span style='color:GreenYellow; font-size: 70px;'>正确! </span>","null","","","","","","","","","","","","","","","","","","","","","","","feedback_test",""
"","","","","","psychophysics","14","668444","0.0-8.0-0.0-0.1","1577","","d","","","","","","","","","","","","","key","d","16.661097402597456","768","428","k","false","img/C_28.png","朋友","freeprac_self","",""
"","","","","","html-keyboard-response","15","668745","0.0-8.0-0.0-1.1","null","<span style='color:red; font-size: 70px;'>错误! </span>","null","","","","","","","","","","","","","","","","","","","","","","","feedback_test",""
"","","","","","psychophysics","16","672590","0.0-8.0-0.0-0.2","2843","","d","","","","","","","","","","","","","key","d","16.660934497816815","768","428","d","true","img/H_28.png","自我","freeprac_self","",""
"","","","","","html-keyboard-response","17","672892","0.0-8.0-0.0-1.2","null","<span style='color:GreenYellow; font-size: 70px;'>正确! </span>","null","","","","","","","","","","","","","","","","","","","","","","","feedback_test",""
"","","","","","psychophysics","18","675089","0.0-8.0-0.0-0.3","1171","","k","","","","","","","","","","","","","key","k","16.66109999999977","768","428","j","false","img/S_28.png","自我","freeprac_self","",""
"","","","","","html-keyboard-response","19","675391","0.0-8.0-0.0-1.3","null","<span style='color:red; font-size: 70px;'>错误! </span>","null","","","","","","","","","","","","","","","","","","","","","","","feedback_test",""
"","","","","","psychophysics","20","678157","0.0-8.0-0.0-0.4","1765","","j","","","","","","","","","","","","","key","j","16.660636363636392","768","428","j","true","img/C_28.png","生人","freeprac_self","",""
"","","","","","html-keyboard-response","21","678459","0.0-8.0-0.0-1.4","null","<span style='color:GreenYellow; font-size: 70px;'>正确! </span>","null","","","","","","","","","","","","","","","","","","","","","","","feedback_test",""
"","","","","","psychophysics","22","680887","0.0-8.0-0.0-0.5","1426","","k","","","","","","","","","","","","","key","k","16.664027777778553","768","428","k","true","img/C_28.png","朋友","freeprac_self","",""
"","","","","","html-keyboard-response","23","681189","0.0-8.0-0.0-1.5","null","<span style='color:GreenYellow; font-size: 70px;'>正确! </span>","null","","","","","","","","","","","","","","","","","","","","","","","feedback_test",""
"","","","","","psychophysics","24","683798","0.0-8.0-0.0-0.6","1606","","j","","","","","","","","","","","","","key","j","16.65976774193527","768","428","j","true","img/S_28.png","朋友","freeprac_self","",""
"","","","","","html-keyboard-response","25","684101","0.0-8.0-0.0-1.6","null","<span style='color:GreenYellow; font-size: 70px;'>正确! </span>","null","","","","","","","","","","","","","","","","","","","","","","","feedback_test",""
"","","","","","psychophysics","26","686450","0.0-8.0-0.0-0.7","1347","","d","","","","","","","","","","","","","key","d","16.6612214285714","768","428","d","true","img/H_28.png","自我","freeprac_self","",""
"","","","","","html-keyboard-response","27","686753","0.0-8.0-0.0-1.7","null","<span style='color:GreenYellow; font-size: 70px;'>正确! </span>","null","","","","","","","","","","","","","","","","","","","","","","","feedback_test",""
"","","","","","psychophysics","28","689355","0.0-8.0-0.0-0.8","1600","","f","","","","","","","","","","","","","key","f","16.66117419354888","768","428","j","false","img/C_28.png","自我","freeprac_self","",""
"","","","","","html-keyboard-response","29","689656","0.0-8.0-0.0-1.8","null","<span style='color:red; font-size: 70px;'>错误! </span>","null","","","","","","","","","","","","","","","","","","","","","","","feedback_test",""
"","","","","","psychophysics","30","693011","0.0-8.0-0.0-0.9","2355","","j","","","","","","","","","","","","","key","j","16.661094999999623","768","428","f","false","img/H_28.png","生人","freeprac_self","",""
"","","","","","html-keyboard-response","31","693314","0.0-8.0-0.0-1.9","null","<span style='color:red; font-size: 70px;'>错误! </span>","null","","","","","","","","","","","","","","","","","","","","","","","feedback_test",""
"","","","","","psychophysics","32","699127","0.0-8.0-0.0-0.10","4813","","f","","","","","","","","","","","","","key","f","16.661249999999974","768","428","f","true","img/H_28.png","朋友","freeprac_self","",""
"","","","","","html-keyboard-response","33","699429","0.0-8.0-0.0-1.10","null","<span style='color:GreenYellow; font-size: 70px;'>正确! </span>","null","","","","","","","","","","","","","","","","","","","","","","","feedback_test",""
"","","","","","psychophysics","34","702946","0.0-8.0-0.0-0.11","2515","","k","","","","","","","","","","","","","key","k","16.66175238095235","768","428","k","true","img/S_28.png","生人","freeprac_self","",""
"","","","","","html-keyboard-response","35","703248","0.0-8.0-0.0-1.11","null","<span style='color:GreenYellow; font-size: 70px;'>正确! </span>","null","","","","","","","","","","","","","","","","","","","","","","","feedback_test",""
"","","","","","html-keyboard-response","36","717832","0.0-8.0-1.0-0.0","14582","<style>.context{color:white; font-size: 35px; line-height:40px}</style>                           <div><p class='context'>您正确回答了67% 的试次。</p><p class='context'>您的平均反应时为2272毫秒。</p>"," ","","","","","","","","","","","","","","","","","","","","","","","",""
"","","","","","instructions","37","766278","0.0-8.0-1.0-1.0","48442","","","","","","","","","","","","","","[{""page_index"":0,""viewing_time"":23663},{""page_index"":1,""viewing_time"":21613},{""page_index"":2,""viewing_time"":3167}]","","","","","","","","","","","",""
"","","","","","psychophysics","38","768396","0.0-8.1-0.1-0.12","1115","","k","","","","","","","","","","","","","key","k","16.662365079364953","768","428","j","false","img/C_28.png","生人","freeprac_self","",""
"","","","","","html-keyboard-response","39","768697","0.0-8.1-0.1-1.12","null","<span style='color:red; font-size: 70px;'>错误! </span>","null","","","","","","","","","","","","","","","","","","","","","","","feedback_test",""
"","","","","","psychophysics","40","772441","0.0-8.1-0.1-0.13","2741","","j","","","","","","","","","","","","","key","j","16.660896860986046","768","428","j","true","img/S_28.png","朋友","freeprac_self","",""
"","","","","","html-keyboard-response","41","772742","0.0-8.1-0.1-1.13","null","<span style='color:GreenYellow; font-size: 70px;'>正确! </span>","null","","","","","","","","","","","","","","","","","","","","","","","feedback_test",""
"","","","","","psychophysics","42","775800","0.0-8.1-0.1-0.14","2041","","f","","","","","","","","","","","","","key","f","16.661219780220122","768","428","f","true","img/H_28.png","生人","freeprac_self","",""
"","","","","","html-keyboard-response","43","776101","0.0-8.1-0.1-1.14","null","<span style='color:GreenYellow; font-size: 70px;'>正确! </span>","null","","","","","","","","","","","","","","","","","","","","","","","feedback_test",""
"","","","","","psychophysics","44","779165","0.0-8.1-0.1-0.15","2062","","j","","","","","","","","","","","","","key","j","16.66098907103831","768","428","j","true","img/S_28.png","自我","freeprac_self","",""
"","","","","","html-keyboard-response","45","779466","0.0-8.1-0.1-1.15","null","<span style='color:GreenYellow; font-size: 70px;'>正确! </span>","null","","","","","","","","","","","","","","","","","","","","","","","feedback_test",""
"","","","","","psychophysics","46","782871","0.0-8.1-0.1-0.16","2402","","k","","","","","","","","","","","","","key","k","16.66137438423684","768","428","k","true","img/C_28.png","朋友","freeprac_self","",""
"","","","","","html-keyboard-response","47","783173","0.0-8.1-0.1-1.16","null","<span style='color:GreenYellow; font-size: 70px;'>正确! </span>","null","","","","","","","","","","","","","","","","","","","","","","","feedback_test",""
"","","","","","psychophysics","48","785999","0.0-8.1-0.1-0.17","1825","","k","","","","","","","","","","","","","key","k","16.659125000000046","768","428","k","true","img/S_28.png","生人","freeprac_self","",""
"","","","","","html-keyboard-response","49","786300","0.0-8.1-0.1-1.17","null","<span style='color:GreenYellow; font-size: 70px;'>正确! </span>","null","","","","","","","","","","","","","","","","","","","","","","","feedback_test",""
"","","","","","psychophysics","50","788299","0.0-8.1-0.1-0.18","997","","k","","","","","","","","","","","","","key","k","16.66147058823502","768","428","k","true","img/S_28.png","生人","freeprac_self","",""
"","","","","","html-keyboard-response","51","788601","0.0-8.1-0.1-1.18","null","<span style='color:GreenYellow; font-size: 70px;'>正确! </span>","null","","","","","","","","","","","","","","","","","","","","","","","feedback_test",""
"","","","","","psychophysics","52","790838","0.0-8.1-0.1-0.19","1236","","f","","","","","","","","","","","","","key","f","16.65496240601493","768","428","f","true","img/H_28.png","朋友","freeprac_self","",""
"","","","","","html-keyboard-response","53","791140","0.0-8.1-0.1-1.19","null","<span style='color:GreenYellow; font-size: 70px;'>正确! </span>","null","","","","","","","","","","","","","","","","","","","","","","","feedback_test",""
"","","","","","psychophysics","54","793106","0.0-8.1-0.1-0.20","965","","d","","","","","","","","","","","","","key","d","16.661786324786355","768","428","d","true","img/H_28.png","自我","freeprac_self","",""
"","","","","","html-keyboard-response","55","793409","0.0-8.1-0.1-1.20","null","<span style='color:GreenYellow; font-size: 70px;'>正确! </span>","null","","","","","","","","","","","","","","","","","","","","","","","feedback_test",""
"","","","","","psychophysics","56","795609","0.0-8.1-0.1-0.21","1180","","k","","","","","","","","","","","","","key","k","16.659030534351025","768","428","k","true","img/C_28.png","朋友","freeprac_self","",""
"","","","","","html-keyboard-response","57","795911","0.0-8.1-0.1-1.21","null","<span style='color:GreenYellow; font-size: 70px;'>正确! </span>","null","","","","","","","","","","","","","","","","","","","","","","","feedback_test",""
"","","","","","psychophysics","58","799591","0.0-8.1-0.1-0.22","2677","","j","","","","","","","","","","","","","key","j","16.66118181818218","768","428","j","true","img/C_28.png","自我","freeprac_self","",""
"","","","","","html-keyboard-response","59","799893","0.0-8.1-0.1-1.22","null","<span style='color:GreenYellow; font-size: 70px;'>正确! </span>","null","","","","","","","","","","","","","","","","","","","","","","","feedback_test",""
"","","","","","psychophysics","60","802367","0.0-8.1-0.1-0.23","1460","","d","","","","","","","","","","","","","key","d","16.66179054054098","768","428","d","true","img/H_28.png","自我","freeprac_self","",""
"","","","","","html-keyboard-response","61","802669","0.0-8.1-0.1-1.23","null","<span style='color:GreenYellow; font-size: 70px;'>正确! </span>","null","","","","","","","","","","","","","","","","","","","","","","","feedback_test",""
"","","","","","html-keyboard-response","62","830354","0.0-9.0","27683","[""<style>.context{color:white; font-size: 35px; line-height:40px}</style>           <div><p class='context'>您正确回答了92% 的试次。</p><p class='context'>您的平均反应时为1781毫秒。</p><p class='context'>恭喜您完成这一阶段的练习。按任意键进入<span style='color: yellow;'>重点关注图形为“朋友”</span>的练习。</p></div><p class='footer' style='font-size:35px; line-height:30px;'>任务要求：\n           <p class='footer' style='font-size:35px; line-height:35px;'>对于与“朋友”对应的图形：如果 匹配 ，请按 <span style=\""color: lightgreen;\"">d键</span></p><p class='footer' style='font-size:35px'>如果 不匹配 ，请按<span style=\""color: lightgreen;\"">f键</p></span>\n           <p class='footer' style='font-size:35px; line-height:35px;'>对于非“朋友”对应的图形：如果 匹配 ，请按 <span style=\""color: lightgreen;\"">k键</span></p><p class='footer' style='font-size:35px'>如果 不匹配 ，请按<span style=\""color: lightgreen;\"">j键</p></span>\n           <p class='footer' style='font-size:22px; line-height:25px;'>请在实验过程中将您的<span style=\""color: lightgreen;\"">食指和中指</span>放在电脑键盘的相应键位上进行按键。</p></span>""]"," ","","","","","","","","","","","","","","","","","","","","","","","",""
"","","","","","psychophysics","63","832514","0.0-10.0-0.0-0.0","1157","","f","","","","","","","","","","","","","key","f","16.659578124999825","768","428","j","false","img/S_28.png","朋友","freeprac_friend","",""
"","","","","","html-keyboard-response","64","832816","0.0-10.0-0.0-1.0","null","<span style='color:red; font-size: 70px;'>错误! </span>","null","","","","","","","","","","","","","","","","","","","","","","","feedback_test",""
"","","","","","psychophysics","65","836212","0.0-10.0-0.0-0.1","2395","","k","","","","","","","","","","","","","key","k","16.66116256157643","768","428","k","true","img/S_28.png","生人","freeprac_friend","",""
"","","","","","html-keyboard-response","66","836514","0.0-10.0-0.0-1.1","null","<span style='color:GreenYellow; font-size: 70px;'>正确! </span>","null","","","","","","","","","","","","","","","","","","","","","","","feedback_test",""
"","","","","","psychophysics","67","841239","0.0-10.0-0.0-0.2","3725","","j","","","","","","","","","","","","","key","j","16.662696113074016","768","428","j","true","img/H_28.png","生人","freeprac_friend","",""
"","","","","","html-keyboard-response","68","841541","0.0-10.0-0.0-1.2","null","<span style='color:GreenYellow; font-size: 70px;'>正确! </span>","null","","","","","","","","","","","","","","","","","","","","","","","feedback_test",""
"","","","","","psychophysics","69","844188","0.0-10.0-0.0-0.3","1646","","k","","","","","","","","","","","","","key","k","16.661335443038215","768","428","k","true","img/H_28.png","自我","freeprac_friend","",""
"","","","","","html-keyboard-response","70","844490","0.0-10.0-0.0-1.3","null","<span style='color:GreenYellow; font-size: 70px;'>正确! </span>","null","","","","","","","","","","","","","","","","","","","","","","","feedback_test",""
"","","","","","psychophysics","71","846680","0.0-10.0-0.0-0.4","1189","","k","","","","","","","","","","","","","key","k","16.660915384615343","768","428","k","true","img/H_28.png","自我","freeprac_friend","",""
"","","","","","html-keyboard-response","72","846982","0.0-10.0-0.0-1.4","null","<span style='color:GreenYellow; font-size: 70px;'>正确! </span>","null","","","","","","","","","","","","","","","","","","","","","","","feedback_test",""
"","","","","","psychophysics","73","849967","0.0-10.0-0.0-0.5","1984","","j","","","","","","","","","","","","","key","j","16.660988764044713","768","428","j","true","img/H_28.png","朋友","freeprac_friend","",""
"","","","","","html-keyboard-response","74","850268","0.0-10.0-0.0-1.5","null","<span style='color:GreenYellow; font-size: 70px;'>正确! </span>","null","","","","","","","","","","","","","","","","","","","","","","","feedback_test",""
"","","","","","psychophysics","75","854134","0.0-10.0-0.0-0.6","2865","","f","","","","","","","","","","","","","key","f","16.660406926406942","768","428","f","true","img/C_28.png","生人","freeprac_friend","",""
"","","","","","html-keyboard-response","76","854436","0.0-10.0-0.0-1.6","null","<span style='color:GreenYellow; font-size: 70px;'>正确! </span>","null","","","","","","","","","","","","","","","","","","","","","","","feedback_test",""
"","","","","","psychophysics","77","856471","0.0-10.0-0.0-0.7","1035","","d","","","","","","","","","","","","","key","d","16.66235537190098","768","428","d","true","img/C_28.png","朋友","freeprac_friend","",""
"","","","","","html-keyboard-response","78","856775","0.0-10.0-0.0-1.7","null","<span style='color:GreenYellow; font-size: 70px;'>正确! </span>","null","","","","","","","","","","","","","","","","","","","","","","","feedback_test",""
"","","","","","psychophysics","79","860447","0.0-10.0-0.0-0.8","2669","","j","","","","","","","","","","","","","key","j","16.66078538812812","768","428","j","true","img/S_28.png","自我","freeprac_friend","",""
"","","","","","html-keyboard-response","80","860749","0.0-10.0-0.0-1.8","null","<span style='color:GreenYellow; font-size: 70px;'>正确! </span>","null","","","","","","","","","","","","","","","","","","","","","","","feedback_test",""
"","","","","","psychophysics","81","863614","0.0-10.0-0.0-0.9","1864","","k","","","","","","","","","","","","","key","k","16.660701754386537","768","428","k","true","img/S_28.png","生人","freeprac_friend","",""
"","","","","","html-keyboard-response","82","863916","0.0-10.0-0.0-1.9","null","<span style='color:GreenYellow; font-size: 70px;'>正确! </span>","null","","","","","","","","","","","","","","","","","","","","","","","feedback_test",""
"","","","","","psychophysics","83","866793","0.0-10.0-0.0-0.10","1874","","j","","","","","","","","","","","","","key","j","16.66109302325572","768","428","f","false","img/C_28.png","自我","freeprac_friend","",""
"","","","","","html-keyboard-response","84","867096","0.0-10.0-0.0-1.10","null","<span style='color:red; font-size: 70px;'>错误! </span>","null","","","","","","","","","","","","","","","","","","","","","","","feedback_test",""
"","","","","","psychophysics","85","869015","0.0-10.0-0.0-0.11","919","","d","","","","","","","","","","","","","key","d","16.65987719298267","768","428","d","true","img/C_28.png","朋友","freeprac_friend","",""
"","","","","","html-keyboard-response","86","869316","0.0-10.0-0.0-1.11","null","<span style='color:GreenYellow; font-size: 70px;'>正确! </span>","null","","","","","","","","","","","","","","","","","","","","","","","feedback_test",""
"","","","","","html-keyboard-response","87","881767","0.0-11.0","12450","[""<style>.context{color:white; font-size: 35px; line-height:40px}</style>               <div><p class='context'>您正确回答了83% 的试次。</p><p class='context'>您的平均反应时为2029毫秒。</p><p class='context'>恭喜您完成这一阶段的练习。按任意键进入<span style='color: yellow;'>重点关注图形为“生人”</span>的练习。</p></div><p class='footer' style='font-size:35px; line-height:30px;'>任务要求：\n               <p class='footer' style='font-size:35px; line-height:35px;'>对与“生人”对应的图形，如果 匹配 ，请按 <span style=\""color: lightgreen;\"">d键</span></p><p class='footer' style='font-size:35px'>如果 不匹配 ，请按<span style=\""color: lightgreen;\"">f键</p></span>\n               <p class='footer' style='font-size:35px; line-height:35px;'>对非“生人”对应的图形，如果 匹配 ，请按 <span style=\""color: lightgreen;\"">k键</span></p><p class='footer' style='font-size:35px'>如果 不匹配 ，请按<span style=\""color: lightgreen;\"">j键</p></span>\n               <p class='footer' style='font-size:22px; line-height:25px;'>请在实验过程中将您的<span style=\""color: lightgreen;\"">食指和中指</span>放在电脑键盘的相应键位上进行按键。</p></span>""]"," ","","","","","","","","","","","","","","","","","","","","","","","",""
"","","","","","psychophysics","88","883749","0.0-12.0-0.0-0.0","979","","f","","","","","","","","","","","","","key","f","16.660940677966426","768","428","f","true","img/S_28.png","自我","freeprac_stranger","",""
"","","","","","html-keyboard-response","89","884050","0.0-12.0-0.0-1.0","null","<span style='color:GreenYellow; font-size: 70px;'>正确! </span>","null","","","","","","","","","","","","","","","","","","","","","","","feedback_test",""
"","","","","","psychophysics","90","886302","0.0-12.0-0.0-0.1","1251","","k","","","","","","","","","","","","","key","k","16.66083582089571","768","428","k","true","img/H_28.png","自我","freeprac_stranger","",""
"","","","","","html-keyboard-response","91","886604","0.0-12.0-0.0-1.1","null","<span style='color:GreenYellow; font-size: 70px;'>正确! </span>","null","","","","","","","","","","","","","","","","","","","","","","","feedback_test",""
"","","","","","psychophysics","92","888521","0.0-12.0-0.0-0.2","914","","k","","","","","","","","","","","","","key","k","16.661280701753864","768","428","k","true","img/H_28.png","自我","freeprac_stranger","",""
"","","","","","html-keyboard-response","93","888823","0.0-12.0-0.0-1.2","null","<span style='color:GreenYellow; font-size: 70px;'>正确! </span>","null","","","","","","","","","","","","","","","","","","","","","","","feedback_test",""
"","","","","","psychophysics","94","892414","0.0-12.0-0.0-0.3","2589","","d","","","","","","","","","","","","","key","d","16.66089719626182","768","428","d","true","img/S_28.png","生人","freeprac_stranger","",""
"","","","","","html-keyboard-response","95","892717","0.0-12.0-0.0-1.3","null","<span style='color:GreenYellow; font-size: 70px;'>正确! </span>","null","","","","","","","","","","","","","","","","","","","","","","","feedback_test",""
"","","","","","psychophysics","96","895117","0.0-12.0-0.0-0.4","1390","","k","","","","","","","","","","","","","key","k","16.660888111887996","768","428","k","true","img/C_28.png","朋友","freeprac_stranger","",""
"","","","","","html-keyboard-response","97","895419","0.0-12.0-0.0-1.4","null","<span style='color:GreenYellow; font-size: 70px;'>正确! </span>","null","","","","","","","","","","","","","","","","","","","","","","","feedback_test",""
"","","","","","psychophysics","98","898562","0.0-12.0-0.0-0.5","2141","","j","","","","","","","","","","","","","key","j","16.660807486630997","768","428","f","false","img/S_28.png","朋友","freeprac_stranger","",""
"","","","","","html-keyboard-response","99","898864","0.0-12.0-0.0-1.5","null","<span style='color:red; font-size: 70px;'>错误! </span>","null","","","","","","","","","","","","","","","","","","","","","","","feedback_test",""
"","","","","","psychophysics","100","901676","0.0-12.0-0.0-0.6","1811","","j","","","","","","","","","","","","","key","j","16.661209580838445","768","428","j","true","img/H_28.png","朋友","freeprac_stranger","",""
"","","","","","html-keyboard-response","101","901978","0.0-12.0-0.0-1.6","null","<span style='color:GreenYellow; font-size: 70px;'>正确! </span>","null","","","","","","","","","","","","","","","","","","","","","","","feedback_test",""
"","","","","","psychophysics","102","904588","0.0-12.0-0.0-0.7","1609","","d","","","","","","","","","","","","","key","d","16.660692307692116","768","428","d","true","img/S_28.png","生人","freeprac_stranger","",""
"","","","","","html-keyboard-response","103","904892","0.0-12.0-0.0-1.7","null","<span style='color:GreenYellow; font-size: 70px;'>正确! </span>","null","","","","","","","","","","","","","","","","","","","","","","","feedback_test",""
"","","","","","psychophysics","104","908246","0.0-12.0-0.0-0.8","2352","","k","","","","","","","","","","","","","key","k","16.66103482587073","768","428","k","true","img/C_28.png","朋友","freeprac_stranger","",""
"","","","","","html-keyboard-response","105","908547","0.0-12.0-0.0-1.8","null","<span style='color:GreenYellow; font-size: 70px;'>正确! </span>","null","","","","","","","","","","","","","","","","","","","","","","","feedback_test",""
"","","","","","psychophysics","106","910950","0.0-12.0-0.0-0.9","1402","","j","","","","","","","","","","","","","key","j","16.661188811189138","768","428","j","true","img/C_28.png","自我","freeprac_stranger","",""
"","","","","","html-keyboard-response","107","911252","0.0-12.0-0.0-1.9","null","<span style='color:GreenYellow; font-size: 70px;'>正确! </span>","null","","","","","","","","","","","","","","","","","","","","","","","feedback_test",""
"","","","","","psychophysics","108","913703","0.0-12.0-0.0-0.10","1449","","j","","","","","","","","","","","","","key","j","16.66157534246553","768","428","j","true","img/C_28.png","生人","freeprac_stranger","",""
"","","","","","html-keyboard-response","109","914004","0.0-12.0-0.0-1.10","null","<span style='color:GreenYellow; font-size: 70px;'>正确! </span>","null","","","","","","","","","","","","","","","","","","","","","","","feedback_test",""
"","","","","","psychophysics","110","916258","0.0-12.0-0.0-0.11","1252","","j","","","","","","","","","","","","","key","j","16.66171641791076","768","428","j","true","img/H_28.png","生人","freeprac_stranger","",""
"","","","","","html-keyboard-response","111","916560","0.0-12.0-0.0-1.11","null","<span style='color:GreenYellow; font-size: 70px;'>正确! </span>","null","","","","","","","","","","","","","","","","","","","","","","","feedback_test",""
"","","","","","instructions","112","976180","0.0-13.0","59619","","","","","","","","","","","","","","[{""page_index"":0,""viewing_time"":59619}]","","","","","","","","","","","",""
"","","","","","psychophysics","113","978319","0.0-14.0-0.0-0.0","1137","","j","","","","","","","","","","","","","key","j","16.66114960629933","768","428","j","true","img/C_28.png","生人","prac_self","","朋友"
"","","","","","html-keyboard-response","114","978621","0.0-14.0-0.0-1.0","null","<span style='color:GreenYellow; font-size: 70px;'>正确! </span>","null","","","","","","","","","","","","","","","","","","","","","","","feedback_test",""
"","","","","","psychophysics","115","980869","0.0-14.0-0.0-0.1","1246","","k","","","","","","","","","","","","","key","k","16.660909774435748","768","428","k","true","img/C_28.png","朋友","prac_self","","朋友"
"","","","","","html-keyboard-response","116","981179","0.0-14.0-0.0-1.1","null","<span style='color:GreenYellow; font-size: 70px;'>正确! </span>","null","","","","","","","","","","","","","","","","","","","","","","","feedback_test",""
"","","","","","psychophysics","117","983389","0.0-14.0-0.0-0.2","1190","","k","","","","","","","","","","","","","key","k","16.661090909091538","768","428","k","true","img/S_28.png","生人","prac_self","","生人"
"","","","","","html-keyboard-response","118","983691","0.0-14.0-0.0-1.2","null","<span style='color:GreenYellow; font-size: 70px;'>正确! </span>","null","","","","","","","","","","","","","","","","","","","","","","","feedback_test",""
"","","","","","psychophysics","119","985816","0.0-14.0-0.0-0.3","1124","","j","","","","","","","","","","","","","key","j","16.660928571428585","768","428","j","true","img/S_28.png","自我","prac_self","","生人"
"","","","","","html-keyboard-response","120","986117","0.0-14.0-0.0-1.3","null","<span style='color:GreenYellow; font-size: 70px;'>正确! </span>","null","","","","","","","","","","","","","","","","","","","","","","","feedback_test",""
"","","","","","psychophysics","121","988237","0.0-14.0-0.0-0.4","1119","","k","","","","","","","","","","","","","key","k","16.65876984126988","768","428","k","true","img/S_28.png","生人","prac_self","","生人"
"","","","","","html-keyboard-response","122","988559","0.0-14.0-0.0-1.4","null","<span style='color:GreenYellow; font-size: 70px;'>正确! </span>","null","","","","","","","","","","","","","","","","","","","","","","","feedback_test",""
"","","","","","psychophysics","123","990837","0.0-14.0-0.0-0.5","1258","","j","","","","","","","","","","","","","key","j","16.661183823529214","768","428","k","false","img/C_28.png","朋友","prac_self","","朋友"
"","","","","","html-keyboard-response","124","991138","0.0-14.0-0.0-1.5","null","<span style='color:red; font-size: 70px;'>错误! </span>","null","","","","","","","","","","","","","","","","","","","","","","","feedback_test",""
"","","","","","psychophysics","125","993576","0.0-14.0-0.0-0.6","1436","","f","","","","","","","","","","","","","key","f","16.661089655172464","768","428","f","true","img/H_28.png","生人","prac_self","","自我"
"","","","","","html-keyboard-response","126","993877","0.0-14.0-0.0-1.6","null","<span style='color:GreenYellow; font-size: 70px;'>正确! </span>","null","","","","","","","","","","","","","","","","","","","","","","","feedback_test",""
"","","","","","psychophysics","127","996037","0.0-14.0-0.0-0.7","1158","","k","","","","","","","","","","","","","key","k","16.661666666666523","768","428","d","false","img/H_28.png","自我","prac_self","","自我"
"","","","","","html-keyboard-response","128","996338","0.0-14.0-0.0-1.7","null","<span style='color:red; font-size: 70px;'>错误! </span>","null","","","","","","","","","","","","","","","","","","","","","","","feedback_test",""
"","","","","","psychophysics","129","998744","0.0-14.0-0.0-0.8","1404","","d","","","","","","","","","","","","","key","d","16.6611748251753","768","428","d","true","img/H_28.png","自我","prac_self","","自我"
"","","","","","html-keyboard-response","130","999046","0.0-14.0-0.0-1.8","null","<span style='color:GreenYellow; font-size: 70px;'>正确! </span>","null","","","","","","","","","","","","","","","","","","","","","","","feedback_test",""
"","","","","","psychophysics","131","1001103","0.0-14.0-0.0-0.9","1056","","f","","","","","","","","","","","","","key","f","16.65699999999984","768","428","f","true","img/H_28.png","朋友","prac_self","","自我"
"","","","","","html-keyboard-response","132","1001404","0.0-14.0-0.0-1.9","null","<span style='color:GreenYellow; font-size: 70px;'>正确! </span>","null","","","","","","","","","","","","","","","","","","","","","","","feedback_test",""
"","","","","","psychophysics","133","1003909","0.0-14.0-0.0-0.10","null","","null","","","","","","","","","","","","","key","null","16.66143624161076","768","428","j","false","img/C_28.png","自我","prac_self","","朋友"
"","","","","","html-keyboard-response","134","1004211","0.0-14.0-0.0-1.10","null","<span class='add_' style='color:yellow; font-size: 70px;'> 太慢! </span>","null","","","","","","","","","","","","","","","","","","","","","","","feedback_test",""
"","","","","","psychophysics","135","1006177","0.0-14.0-0.0-0.11","965","","j","","","","","","","","","","","","","key","j","16.656318965517507","768","428","j","true","img/S_28.png","朋友","prac_self","","生人"
"","","","","","html-keyboard-response","136","1006479","0.0-14.0-0.0-1.11","null","<span style='color:GreenYellow; font-size: 70px;'>正确! </span>","null","","","","","","","","","","","","","","","","","","","","","","","feedback_test",""
"","","","","","psychophysics","137","1008646","0.0-14.0-0.0-0.12","1164","","k","","","","","","","","","","","","","key","k","16.661426356588418","768","428","k","true","img/S_28.png","生人","prac_self","","生人"
"","","","","","html-keyboard-response","138","1008948","0.0-14.0-0.0-1.12","null","<span style='color:GreenYellow; font-size: 70px;'>正确! </span>","null","","","","","","","","","","","","","","","","","","","","","","","feedback_test",""
"","","","","","psychophysics","139","1010966","0.0-14.0-0.0-0.13","1017","","k","","","","","","","","","","","","","key","k","16.661275000000025","768","428","k","true","img/S_28.png","生人","prac_self","","生人"
"","","","","","html-keyboard-response","140","1011269","0.0-14.0-0.0-1.13","null","<span style='color:GreenYellow; font-size: 70px;'>正确! </span>","null","","","","","","","","","","","","","","","","","","","","","","","feedback_test",""
"","","","","","psychophysics","141","1013257","0.0-14.0-0.0-0.14","968","","j","","","","","","","","","","","","","key","j","16.661652542373474","768","428","k","false","img/C_28.png","朋友","prac_self","","朋友"
"","","","","","html-keyboard-response","142","1013559","0.0-14.0-0.0-1.14","null","<span style='color:red; font-size: 70px;'>错误! </span>","null","","","","","","","","","","","","","","","","","","","","","","","feedback_test",""
"","","","","","psychophysics","143","1015237","0.0-14.0-0.0-0.15","677","","k","","","","","","","","","","","","","key","k","16.661787878787802","768","428","k","true","img/C_28.png","朋友","prac_self","","朋友"
"","","","","","html-keyboard-response","144","1015539","0.0-14.0-0.0-1.15","null","<span style='color:GreenYellow; font-size: 70px;'>正确! </span>","null","","","","","","","","","","","","","","","","","","","","","","","feedback_test",""
"","","","","","psychophysics","145","1017620","0.0-14.0-0.0-0.16","1079","","d","","","","","","","","","","","","","key","d","16.661564516128912","768","428","f","false","img/H_28.png","生人","prac_self","","自我"
"","","","","","html-keyboard-response","146","1017922","0.0-14.0-0.0-1.16","null","<span style='color:red; font-size: 70px;'>错误! </span>","null","","","","","","","","","","","","","","","","","","","","","","","feedback_test",""
"","","","","","psychophysics","147","1019782","0.0-14.0-0.0-0.17","833","","k","","","","","","","","","","","","","key","k","16.661171171171297","768","428","j","false","img/C_28.png","自我","prac_self","","朋友"
"","","","","","html-keyboard-response","148","1020083","0.0-14.0-0.0-1.17","null","<span style='color:red; font-size: 70px;'>错误! </span>","null","","","","","","","","","","","","","","","","","","","","","","","feedback_test",""
"","","","","","psychophysics","149","1022587","0.0-14.0-0.0-0.18","null","","null","","","","","","","","","","","","","key","null","16.66126845637571","768","428","j","false","img/S_28.png","朋友","prac_self","","生人"
"","","","","","html-keyboard-response","150","1022888","0.0-14.0-0.0-1.18","null","<span class='add_' style='color:yellow; font-size: 70px;'> 太慢! </span>","null","","","","","","","","","","","","","","","","","","","","","","","feedback_test",""
"","","","","","psychophysics","151","1025153","0.0-14.0-0.0-0.19","1263","","k","","","","","","","","","","","","","key","k","16.660701492537203","768","428","j","false","img/C_28.png","生人","prac_self","","朋友"
"","","","","","html-keyboard-response","152","1025455","0.0-14.0-0.0-1.19","null","<span style='color:red; font-size: 70px;'>错误! </span>","null","","","","","","","","","","","","","","","","","","","","","","","feedback_test",""
"","","","","","psychophysics","153","1027958","0.0-14.0-0.0-0.20","null","","null","","","","","","","","","","","","","key","null","16.66118791946304","768","428","f","false","img/H_28.png","朋友","prac_self","","自我"
"","","","","","html-keyboard-response","154","1028260","0.0-14.0-0.0-1.20","null","<span class='add_' style='color:yellow; font-size: 70px;'> 太慢! </span>","null","","","","","","","","","","","","","","","","","","","","","","","feedback_test",""
"","","","","","psychophysics","155","1030569","0.0-14.0-0.0-0.21","1308","","f","","","","","","","","","","","","","key","f","16.660686131387465","768","428","j","false","img/S_28.png","自我","prac_self","","生人"
"","","","","","html-keyboard-response","156","1030871","0.0-14.0-0.0-1.21","null","<span style='color:red; font-size: 70px;'>错误! </span>","null","","","","","","","","","","","","","","","","","","","","","","","feedback_test",""
"","","","","","psychophysics","157","1032555","0.0-14.0-0.0-0.22","682","","d","","","","","","","","","","","","","key","d","16.66277999999933","768","428","d","true","img/H_28.png","自我","prac_self","","自我"
"","","","","","html-keyboard-response","158","1032856","0.0-14.0-0.0-1.22","null","<span style='color:GreenYellow; font-size: 70px;'>正确! </span>","null","","","","","","","","","","","","","","","","","","","","","","","feedback_test",""
"","","","","","psychophysics","159","1034539","0.0-14.0-0.0-0.23","681","","d","","","","","","","","","","","","","key","d","16.660320000000066","768","428","d","true","img/H_28.png","自我","prac_self","","自我"
"","","","","","html-keyboard-response","160","1034840","0.0-14.0-0.0-1.23","null","<span style='color:GreenYellow; font-size: 70px;'>正确! </span>","null","","","","","","","","","","","","","","","","","","","","","","","feedback_test",""
"","","","","","html-keyboard-response","161","1040722","0.0-14.0-1.0-0.0","5880","<style>.context{color:white; font-size: 35px; line-height:40px}</style>                           <div><p class='context'>您正确回答了58% 的试次。</p><p class='context'>您的平均反应时为1064毫秒。</p>"," ","","","","","","","","","","","","","","","","","","","","","","","",""
"","","","","","instructions","162","1097138","0.0-14.0-1.0-1.0","56414","","","","","","","","","","","","","","[{""page_index"":0,""viewing_time"":3031},{""page_index"":1,""viewing_time"":52183},{""page_index"":2,""viewing_time"":1199}]","","","","","","","","","","","",""
"","","","","","psychophysics","163","1099079","0.0-14.1-0.1-0.24","940","","d","","","","","","","","","","","","","key","d","16.66113913043645","768","428","j","false","img/C_28.png","生人","prac_self","","朋友"
"","","","","","html-keyboard-response","164","1099381","0.0-14.1-0.1-1.24","null","<span style='color:red; font-size: 70px;'>错误! </span>","null","","","","","","","","","","","","","","","","","","","","","","","feedback_test",""
"","","","","","psychophysics","165","1101300","0.0-14.1-0.1-0.25","918","","k","","","","","","","","","","","","","key","k","16.662263157893904","768","428","k","true","img/C_28.png","朋友","prac_self","","朋友"
"","","","","","html-keyboard-response","166","1101602","0.0-14.1-0.1-1.25","null","<span style='color:GreenYellow; font-size: 70px;'>正确! </span>","null","","","","","","","","","","","","","","","","","","","","","","","feedback_test",""
"","","","","","psychophysics","167","1104103","0.0-14.1-0.1-0.26","null","","null","","","","","","","","","","","","","key","null","16.661006711409332","768","428","j","false","img/S_28.png","自我","prac_self","","生人"
"","","","","","html-keyboard-response","168","1104405","0.0-14.1-0.1-1.26","null","<span class='add_' style='color:yellow; font-size: 70px;'> 太慢! </span>","null","","","","","","","","","","","","","","","","","","","","","","","feedback_test",""
"","","","","","psychophysics","169","1106315","0.0-14.1-0.1-0.27","909","","k","","","","","","","","","","","","","key","k","16.66152631578836","768","428","j","false","img/S_28.png","朋友","prac_self","","生人"
"","","","","","html-keyboard-response","170","1106616","0.0-14.1-0.1-1.27","null","<span style='color:red; font-size: 70px;'>错误! </span>","null","","","","","","","","","","","","","","","","","","","","","","","feedback_test",""
"","","","","","psychophysics","171","1109118","0.0-14.1-0.1-0.28","null","","null","","","","","","","","","","","","","key","null","16.66131543624215","768","428","j","false","img/C_28.png","自我","prac_self","","朋友"
"","","","","","html-keyboard-response","172","1109420","0.0-14.1-0.1-1.28","null","<span class='add_' style='color:yellow; font-size: 70px;'> 太慢! </span>","null","","","","","","","","","","","","","","","","","","","","","","","feedback_test",""
"","","","","","psychophysics","173","1111024","0.0-14.1-0.1-0.29","601","","d","","","","","","","","","","","","","key","d","16.6624631578936","768","428","k","false","img/S_28.png","生人","prac_self","","生人"
"","","","","","html-keyboard-response","174","1111348","0.0-14.1-0.1-1.29","null","<span style='color:red; font-size: 70px;'>错误! </span>","null","","","","","","","","","","","","","","","","","","","","","","","feedback_test",""
"","","","","","psychophysics","175","1113072","0.0-14.1-0.1-0.30","704","","d","","","","","","","","","","","","","key","d","16.660323529412935","768","428","f","false","img/H_28.png","朋友","prac_self","","自我"
"","","","","","html-keyboard-response","176","1113374","0.0-14.1-0.1-1.30","null","<span style='color:red; font-size: 70px;'>错误! </span>","null","","","","","","","","","","","","","","","","","","","","","","","feedback_test",""
"","","","","","psychophysics","177","1115533","0.0-14.1-0.1-0.31","1158","","f","","","","","","","","","","","","","key","f","16.66107812500013","768","428","f","true","img/H_28.png","生人","prac_self","","自我"
"","","","","","html-keyboard-response","178","1115835","0.0-14.1-0.1-1.31","null","<span style='color:GreenYellow; font-size: 70px;'>正确! </span>","null","","","","","","","","","","","","","","","","","","","","","","","feedback_test",""
"","","","","","psychophysics","179","1117839","0.0-14.1-0.1-0.32","1002","","j","","","","","","","","","","","","","key","j","16.661806722688137","768","428","k","false","img/S_28.png","生人","prac_self","","生人"
"","","","","","html-keyboard-response","180","1118158","0.0-14.1-0.1-1.32","null","<span style='color:red; font-size: 70px;'>错误! </span>","null","","","","","","","","","","","","","","","","","","","","","","","feedback_test",""
"","","","","","psychophysics","181","1119945","0.0-14.1-0.1-0.33","767","","k","","","","","","","","","","","","","key","k","16.660726415094445","768","428","k","true","img/C_28.png","朋友","prac_self","","朋友"
"","","","","","html-keyboard-response","182","1120245","0.0-14.1-0.1-1.33","null","<span style='color:GreenYellow; font-size: 70px;'>正确! </span>","null","","","","","","","","","","","","","","","","","","","","","","","feedback_test",""
"","","","","","psychophysics","183","1122469","0.0-14.1-0.1-0.34","1222","","d","","","","","","","","","","","","","key","d","16.66115909090943","768","428","d","true","img/H_28.png","自我","prac_self","","自我"
"","","","","","html-keyboard-response","184","1122770","0.0-14.1-0.1-1.34","null","<span style='color:GreenYellow; font-size: 70px;'>正确! </span>","null","","","","","","","","","","","","","","","","","","","","","","","feedback_test",""
"","","","","","psychophysics","185","1124403","0.0-14.1-0.1-0.35","632","","d","","","","","","","","","","","","","key","d","16.65158333333481","768","428","d","true","img/H_28.png","自我","prac_self","","自我"
"","","","","","html-keyboard-response","186","1124705","0.0-14.1-0.1-1.35","null","<span style='color:GreenYellow; font-size: 70px;'>正确! </span>","null","","","","","","","","","","","","","","","","","","","","","","","feedback_test",""
"","","","","","psychophysics","187","1126401","0.0-14.1-0.1-0.36","681","","k","","","","","","","","","","","","","key","k","16.660859999998937","768","428","k","true","img/C_28.png","朋友","prac_self","","朋友"
"","","","","","html-keyboard-response","188","1126703","0.0-14.1-0.1-1.36","null","<span style='color:GreenYellow; font-size: 70px;'>正确! </span>","null","","","","","","","","","","","","","","","","","","","","","","","feedback_test",""
"","","","","","psychophysics","189","1128750","0.0-14.1-0.1-0.37","1046","","k","","","","","","","","","","","","","key","k","16.660950413221986","768","428","j","false","img/S_28.png","自我","prac_self","","生人"
"","","","","","html-keyboard-response","190","1129053","0.0-14.1-0.1-1.37","null","<span style='color:red; font-size: 70px;'>错误! </span>","null","","","","","","","","","","","","","","","","","","","","","","","feedback_test",""
"","","","","","psychophysics","191","1130928","0.0-14.1-0.1-0.38","875","","d","","","","","","","","","","","","","key","d","16.66089189189134","768","428","f","false","img/H_28.png","生人","prac_self","","自我"
"","","","","","html-keyboard-response","192","1131229","0.0-14.1-0.1-1.38","null","<span style='color:red; font-size: 70px;'>错误! </span>","null","","","","","","","","","","","","","","","","","","","","","","","feedback_test",""
"","","","","","psychophysics","193","1133288","0.0-14.1-0.1-0.39","1030","","j","","","","","","","","","","","","","key","j","16.661723577235712","768","428","j","true","img/C_28.png","自我","prac_self","","朋友"
"","","","","","html-keyboard-response","194","1133590","0.0-14.1-0.1-1.39","null","<span style='color:GreenYellow; font-size: 70px;'>正确! </span>","null","","","","","","","","","","","","","","","","","","","","","","","feedback_test",""
"","","","","","psychophysics","195","1135298","0.0-14.1-0.1-0.40","706","","k","","","","","","","","","","","","","key","k","16.661217821782714","768","428","k","true","img/C_28.png","朋友","prac_self","","朋友"
"","","","","","html-keyboard-response","196","1135599","0.0-14.1-0.1-1.40","null","<span style='color:GreenYellow; font-size: 70px;'>正确! </span>","null","","","","","","","","","","","","","","","","","","","","","","","feedback_test",""
"","","","","","psychophysics","197","1137641","0.0-14.1-0.1-0.41","1041","","d","","","","","","","","","","","","","key","d","16.661132231404743","768","428","f","false","img/H_28.png","朋友","prac_self","","自我"
"","","","","","html-keyboard-response","198","1137942","0.0-14.1-0.1-1.41","null","<span style='color:red; font-size: 70px;'>错误! </span>","null","","","","","","","","","","","","","","","","","","","","","","","feedback_test",""
"","","","","","psychophysics","199","1140178","0.0-14.1-0.1-0.42","1230","","j","","","","","","","","","","","","","key","j","16.66117293233073","768","428","j","true","img/S_28.png","朋友","prac_self","","生人"
"","","","","","html-keyboard-response","200","1140480","0.0-14.1-0.1-1.42","null","<span style='color:GreenYellow; font-size: 70px;'>正确! </span>","null","","","","","","","","","","","","","","","","","","","","","","","feedback_test",""
"","","","","","psychophysics","201","1142329","0.0-14.1-0.1-0.43","848","","j","","","","","","","","","","","","","key","j","16.656366972477013","768","428","k","false","img/S_28.png","生人","prac_self","","生人"
"","","","","","html-keyboard-response","202","1142631","0.0-14.1-0.1-1.43","null","<span style='color:red; font-size: 70px;'>错误! </span>","null","","","","","","","","","","","","","","","","","","","","","","","feedback_test",""
"","","","","","psychophysics","203","1144408","0.0-14.1-0.1-0.44","775","","k","","","","","","","","","","","","","key","k","16.661380952381574","768","428","d","false","img/H_28.png","自我","prac_self","","自我"
"","","","","","html-keyboard-response","204","1144709","0.0-14.1-0.1-1.44","null","<span style='color:red; font-size: 70px;'>错误! </span>","null","","","","","","","","","","","","","","","","","","","","","","","feedback_test",""
"","","","","","psychophysics","205","1146502","0.0-14.1-0.1-0.45","774","","d","","","","","","","","","","","","","key","d","16.66095327102649","768","428","d","true","img/H_28.png","自我","prac_self","","自我"
"","","","","","html-keyboard-response","206","1146803","0.0-14.1-0.1-1.45","null","<span style='color:GreenYellow; font-size: 70px;'>正确! </span>","null","","","","","","","","","","","","","","","","","","","","","","","feedback_test",""
"","","","","","psychophysics","207","1149309","0.0-14.1-0.1-0.46","null","","null","","","","","","","","","","","","","key","null","16.660906040269083","768","428","k","false","img/S_28.png","生人","prac_self","","生人"
"","","","","","html-keyboard-response","208","1149611","0.0-14.1-0.1-1.46","null","<span class='add_' style='color:yellow; font-size: 70px;'> 太慢! </span>","null","","","","","","","","","","","","","","","","","","","","","","","feedback_test",""
"","","","","","psychophysics","209","1151752","0.0-14.1-0.1-0.47","1140","","j","","","","","","","","","","","","","key","j","16.65683464566979","768","428","j","true","img/C_28.png","生人","prac_self","","朋友"
"","","","","","html-keyboard-response","210","1152053","0.0-14.1-0.1-1.47","null","<span style='color:GreenYellow; font-size: 70px;'>正确! </span>","null","","","","","","","","","","","","","","","","","","","","","","","feedback_test",""
"","","","","","html-keyboard-response","211","1157667","0.0-14.1-1.1-0.1","5612","<style>.context{color:white; font-size: 35px; line-height:40px}</style>                           <div><p class='context'>您正确回答了46% 的试次。</p><p class='context'>您的平均反应时为933毫秒。</p>"," ","","","","","","","","","","","","","","","","","","","","","","","",""
"","","","","","instructions","212","1225358","0.0-14.1-1.1-1.1","67688","","","","","","","","","","","","","","[{""page_index"":0,""viewing_time"":1592},{""page_index"":1,""viewing_time"":62815},{""page_index"":2,""viewing_time"":3281}]","","","","","","","","","","","",""
"","","","","","psychophysics","213","1227136","0.0-14.2-0.2-0.48","776","","k","","","","","","","","","","","","","key","k","16.660858490565825","768","428","k","true","img/S_28.png","生人","prac_self","","生人"
"","","","","","html-keyboard-response","214","1227437","0.0-14.2-0.2-1.48","null","<span style='color:GreenYellow; font-size: 70px;'>正确! </span>","null","","","","","","","","","","","","","","","","","","","","","","","feedback_test",""
"","","","","","psychophysics","215","1228995","0.0-14.2-0.2-0.49","557","","k","","","","","","","","","","","","","key","k","16.660880434782367","768","428","k","true","img/S_28.png","生人","prac_self","","生人"
"","","","","","html-keyboard-response","216","1229296","0.0-14.2-0.2-1.49","null","<span style='color:GreenYellow; font-size: 70px;'>正确! </span>","null","","","","","","","","","","","","","","","","","","","","","","","feedback_test",""
"","","","","","psychophysics","217","1230921","0.0-14.2-0.2-0.50","624","","k","","","","","","","","","","","","","key","k","16.661494845361208","768","428","k","true","img/C_28.png","朋友","prac_self","","朋友"
"","","","","","html-keyboard-response","218","1231223","0.0-14.2-0.2-1.50","null","<span style='color:GreenYellow; font-size: 70px;'>正确! </span>","null","","","","","","","","","","","","","","","","","","","","","","","feedback_test",""
"","","","","","psychophysics","219","1232973","0.0-14.2-0.2-0.51","725","","k","","","","","","","","","","","","","key","k","16.66140384615238","768","428","k","true","img/C_28.png","朋友","prac_self","","朋友"
"","","","","","html-keyboard-response","220","1233275","0.0-14.2-0.2-1.51","null","<span style='color:GreenYellow; font-size: 70px;'>正确! </span>","null","","","","","","","","","","","","","","","","","","","","","","","feedback_test",""
"","","","","","psychophysics","221","1235203","0.0-14.2-0.2-0.52","926","","j","","","","","","","","","","","","","key","j","16.662860869565655","768","428","j","true","img/S_28.png","自我","prac_self","","生人"
"","","","","","html-keyboard-response","222","1235504","0.0-14.2-0.2-1.52","null","<span style='color:GreenYellow; font-size: 70px;'>正确! </span>","null","","","","","","","","","","","","","","","","","","","","","","","feedback_test",""
"","","","","","psychophysics","223","1237101","0.0-14.2-0.2-0.53","596","","k","","","","","","","","","","","","","key","k","16.66132631579071","768","428","j","false","img/C_28.png","自我","prac_self","","朋友"
"","","","","","html-keyboard-response","224","1237402","0.0-14.2-0.2-1.53","null","<span style='color:red; font-size: 70px;'>错误! </span>","null","","","","","","","","","","","","","","","","","","","","","","","feedback_test",""
"","","","","","psychophysics","225","1239444","0.0-14.2-0.2-0.54","1015","","f","","","","","","","","","","","","","key","f","16.661363636362868","768","428","f","true","img/H_28.png","朋友","prac_self","","自我"
"","","","","","html-keyboard-response","226","1239747","0.0-14.2-0.2-1.54","null","<span style='color:GreenYellow; font-size: 70px;'>正确! </span>","null","","","","","","","","","","","","","","","","","","","","","","","feedback_test",""
"","","","","","psychophysics","227","1241943","0.0-14.2-0.2-0.55","1196","","k","","","","","","","","","","","","","key","k","16.65233846153849","768","428","j","false","img/S_28.png","朋友","prac_self","","生人"
"","","","","","html-keyboard-response","228","1242245","0.0-14.2-0.2-1.55","null","<span style='color:red; font-size: 70px;'>错误! </span>","null","","","","","","","","","","","","","","","","","","","","","","","feedback_test",""
"","","","","","psychophysics","229","1244265","0.0-14.2-0.2-0.56","1018","","d","","","","","","","","","","","","","key","d","16.661033057852087","768","428","d","true","img/H_28.png","自我","prac_self","","自我"
"","","","","","html-keyboard-response","230","1244579","0.0-14.2-0.2-1.56","null","<span style='color:GreenYellow; font-size: 70px;'>正确! </span>","null","","","","","","","","","","","","","","","","","","","","","","","feedback_test",""
"","","","","","psychophysics","231","1246489","0.0-14.2-0.2-0.57","890","","f","","","","","","","","","","","","","key","f","16.661115044247836","768","428","f","true","img/H_28.png","生人","prac_self","","自我"
"","","","","","html-keyboard-response","232","1246790","0.0-14.2-0.2-1.57","null","<span style='color:GreenYellow; font-size: 70px;'>正确! </span>","null","","","","","","","","","","","","","","","","","","","","","","","feedback_test",""
"","","","","","psychophysics","233","1248411","0.0-14.2-0.2-0.58","619","","d","","","","","","","","","","","","","key","d","16.661270833331702","768","428","d","true","img/H_28.png","自我","prac_self","","自我"
"","","","","","html-keyboard-response","234","1248712","0.0-14.2-0.2-1.58","null","<span style='color:GreenYellow; font-size: 70px;'>正确! </span>","null","","","","","","","","","","","","","","","","","","","","","","","feedback_test",""
"","","","","","psychophysics","235","1250512","0.0-14.2-0.2-0.59","799","","k","","","","","","","","","","","","","key","k","16.661018691589256","768","428","j","false","img/C_28.png","生人","prac_self","","朋友"
"","","","","","html-keyboard-response","236","1250814","0.0-14.2-0.2-1.59","null","<span style='color:red; font-size: 70px;'>错误! </span>","null","","","","","","","","","","","","","","","","","","","","","","","feedback_test",""
"","","","","","psychophysics","237","1252760","0.0-14.2-0.2-0.60","922","","j","","","","","","","","","","","","","key","j","16.661078260869356","768","428","j","true","img/S_28.png","自我","prac_self","","生人"
"","","","","","html-keyboard-response","238","1253062","0.0-14.2-0.2-1.60","null","<span style='color:GreenYellow; font-size: 70px;'>正确! </span>","null","","","","","","","","","","","","","","","","","","","","","","","feedback_test",""
"","","","","","psychophysics","239","1255245","0.0-14.2-0.2-0.61","1181","","j","","","","","","","","","","","","","key","j","16.661823076923163","768","428","j","true","img/S_28.png","朋友","prac_self","","生人"
"","","","","","html-keyboard-response","240","1255547","0.0-14.2-0.2-1.61","null","<span style='color:GreenYellow; font-size: 70px;'>正确! </span>","null","","","","","","","","","","","","","","","","","","","","","","","feedback_test",""
"","","","","","psychophysics","241","1257530","0.0-14.2-0.2-0.62","981","","j","","","","","","","","","","","","","key","j","16.661211864407157","768","428","k","false","img/S_28.png","生人","prac_self","","生人"
"","","","","","html-keyboard-response","242","1257838","0.0-14.2-0.2-1.62","null","<span style='color:red; font-size: 70px;'>错误! </span>","null","","","","","","","","","","","","","","","","","","","","","","","feedback_test",""
"","","","","","psychophysics","243","1260301","0.0-14.2-0.2-0.63","1443","","d","","","","","","","","","","","","","key","d","16.661591836734402","768","428","f","false","img/H_28.png","生人","prac_self","","自我"
"","","","","","html-keyboard-response","244","1260602","0.0-14.2-0.2-1.63","null","<span style='color:red; font-size: 70px;'>错误! </span>","null","","","","","","","","","","","","","","","","","","","","","","","feedback_test",""
"","","","","","psychophysics","245","1262315","0.0-14.2-0.2-0.64","711","","d","","","","","","","","","","","","","key","d","16.658715686274636","768","428","d","true","img/H_28.png","自我","prac_self","","自我"
"","","","","","html-keyboard-response","246","1262616","0.0-14.2-0.2-1.64","null","<span style='color:GreenYellow; font-size: 70px;'>正确! </span>","null","","","","","","","","","","","","","","","","","","","","","","","feedback_test",""
"","","","","","psychophysics","247","1264769","0.0-14.2-0.2-0.65","1152","","f","","","","","","","","","","","","","key","f","16.661453124999753","768","428","j","false","img/C_28.png","自我","prac_self","","朋友"
"","","","","","html-keyboard-response","248","1265071","0.0-14.2-0.2-1.65","null","<span style='color:red; font-size: 70px;'>错误! </span>","null","","","","","","","","","","","","","","","","","","","","","","","feedback_test",""
"","","","","","psychophysics","249","1266824","0.0-14.2-0.2-0.66","736","","d","","","","","","","","","","","","","key","d","16.656067307691465","768","428","d","true","img/H_28.png","自我","prac_self","","自我"
"","","","","","html-keyboard-response","250","1267125","0.0-14.2-0.2-1.66","null","<span style='color:GreenYellow; font-size: 70px;'>正确! </span>","null","","","","","","","","","","","","","","","","","","","","","","","feedback_test",""
"","","","","","psychophysics","251","1269026","0.0-14.2-0.2-0.67","897","","k","","","","","","","","","","","","","key","k","16.661584070795094","768","428","k","true","img/S_28.png","生人","prac_self","","生人"
"","","","","","html-keyboard-response","252","1269328","0.0-14.2-0.2-1.67","null","<span style='color:GreenYellow; font-size: 70px;'>正确! </span>","null","","","","","","","","","","","","","","","","","","","","","","","feedback_test",""
"","","","","","psychophysics","253","1270984","0.0-14.2-0.2-0.68","654","","k","","","","","","","","","","","","","key","k","16.661816326530687","768","428","k","true","img/C_28.png","朋友","prac_self","","朋友"
"","","","","","html-keyboard-response","254","1271285","0.0-14.2-0.2-1.68","null","<span style='color:GreenYellow; font-size: 70px;'>正确! </span>","null","","","","","","","","","","","","","","","","","","","","","","","feedback_test",""
"","","","","","psychophysics","255","1273177","0.0-14.2-0.2-0.69","877","","d","","","","","","","","","","","","","key","d","16.651500000000983","768","428","f","false","img/H_28.png","朋友","prac_self","","自我"
"","","","","","html-keyboard-response","256","1273478","0.0-14.2-0.2-1.69","null","<span style='color:red; font-size: 70px;'>错误! </span>","null","","","","","","","","","","","","","","","","","","","","","","","feedback_test",""
"","","","","","psychophysics","257","1275649","0.0-14.2-0.2-0.70","1169","","j","","","","","","","","","","","","","key","j","16.66148837209253","768","428","j","true","img/C_28.png","生人","prac_self","","朋友"
"","","","","","html-keyboard-response","258","1275949","0.0-14.2-0.2-1.70","null","<span style='color:GreenYellow; font-size: 70px;'>正确! </span>","null","","","","","","","","","","","","","","","","","","","","","","","feedback_test",""
"","","","","","psychophysics","259","1277594","0.0-14.2-0.2-0.71","642","","k","","","","","","","","","","","","","key","k","16.660806122449777","768","428","k","true","img/C_28.png","朋友","prac_self","","朋友"
"","","","","","html-keyboard-response","260","1277894","0.0-14.2-0.2-1.71","null","<span style='color:GreenYellow; font-size: 70px;'>正确! </span>","null","","","","","","","","","","","","","","","","","","","","","","","feedback_test",""
"","","","","","html-keyboard-response","261","1294887","0.0-15.0","16990","[""<style>.context{color:white; font-size: 35px; line-height:40px}</style>           <div><p class='context'>您正确回答了71% 的试次。</p><p class='context'>您的平均反应时为827毫秒。</p><p class='context'>恭喜您完成这一阶段的练习。按任意键进入<span style='color: yellow;'>重点关注图形为“朋友”</span>的练习。</p></div><p class='footer' style='font-size:35px; line-height:30px;'>任务要求：\n           <p class='footer' style='font-size:35px; line-height:35px;'>对于与“朋友”对应的图形：如果 匹配 ，请按 <span style=\""color: lightgreen;\"">d键</span></p><p class='footer' style='font-size:35px'>如果 不匹配 ，请按<span style=\""color: lightgreen;\"">f键</p></span>\n           <p class='footer' style='font-size:35px; line-height:35px;'>对于非“朋友”对应的图形：如果 匹配 ，请按 <span style=\""color: lightgreen;\"">k键</span></p><p class='footer' style='font-size:35px'>如果 不匹配 ，请按<span style=\""color: lightgreen;\"">j键</p></span>\n           <p class='footer' style='font-size:22px; line-height:25px;'>请在实验过程中将您的<span style=\""color: lightgreen;\"">食指和中指</span>放在电脑键盘的相应键位上进行按键。</p></span>""]"," ","","","","","","","","","","","","","","","","","","","","","","","",""
"","","","","","psychophysics","262","1296634","0.0-16.0-0.0-0.0","742","","f","","","","","","","","","","","","","key","f","16.66087499999916","768","428","f","true","img/C_28.png","生人","prac_friend","","朋友"
"","","","","","html-keyboard-response","263","1296934","0.0-16.0-0.0-1.0","null","<span style='color:GreenYellow; font-size: 70px;'>正确! </span>","null","","","","","","","","","","","","","","","","","","","","","","","feedback_test",""
"","","","","","psychophysics","264","1298707","0.0-16.0-0.0-0.1","771","","f","","","","","","","","","","","","","key","f","16.661647619047603","768","428","f","true","img/C_28.png","自我","prac_friend","","朋友"
"","","","","","html-keyboard-response","265","1299008","0.0-16.0-0.0-1.1","null","<span style='color:GreenYellow; font-size: 70px;'>正确! </span>","null","","","","","","","","","","","","","","","","","","","","","","","feedback_test",""
"","","","","","psychophysics","266","1301137","0.0-16.0-0.0-0.2","1118","","k","","","","","","","","","","","","","key","k","16.661110236219635","768","428","j","false","img/H_28.png","生人","prac_friend","","自我"
"","","","","","html-keyboard-response","267","1301439","0.0-16.0-0.0-1.2","null","<span style='color:red; font-size: 70px;'>错误! </span>","null","","","","","","","","","","","","","","","","","","","","","","","feedback_test",""
"","","","","","psychophysics","268","1303129","0.0-16.0-0.0-0.3","689","","k","","","","","","","","","","","","","key","k","16.66177227722693","768","428","k","true","img/S_28.png","生人","prac_friend","","生人"
"","","","","","html-keyboard-response","269","1303431","0.0-16.0-0.0-1.3","null","<span style='color:GreenYellow; font-size: 70px;'>正确! </span>","null","","","","","","","","","","","","","","","","","","","","","","","feedback_test",""
"","","","","","psychophysics","270","1305508","0.0-16.0-0.0-0.4","1075","","j","","","","","","","","","","","","","key","j","16.661243902439843","768","428","k","false","img/H_28.png","自我","prac_friend","","自我"
"","","","","","html-keyboard-response","271","1305810","0.0-16.0-0.0-1.4","null","<span style='color:red; font-size: 70px;'>错误! </span>","null","","","","","","","","","","","","","","","","","","","","","","","feedback_test",""
"","","","","","psychophysics","272","1307429","0.0-16.0-0.0-0.5","599","","k","","","","","","","","","","","","","key","k","16.659552083331317","768","428","k","true","img/H_28.png","自我","prac_friend","","自我"
"","","","","","html-keyboard-response","273","1307730","0.0-16.0-0.0-1.5","null","<span style='color:GreenYellow; font-size: 70px;'>正确! </span>","null","","","","","","","","","","","","","","","","","","","","","","","feedback_test",""
"","","","","","psychophysics","274","1309673","0.0-16.0-0.0-0.6","942","","d","","","","","","","","","","","","","key","d","16.659869565217473","768","428","d","true","img/C_28.png","朋友","prac_friend","","朋友"
"","","","","","html-keyboard-response","275","1309974","0.0-16.0-0.0-1.6","null","<span style='color:GreenYellow; font-size: 70px;'>正确! </span>","null","","","","","","","","","","","","","","","","","","","","","","","feedback_test",""
"","","","","","psychophysics","276","1311985","0.0-16.0-0.0-0.7","1009","","k","","","","","","","","","","","","","key","k","16.657605042017824","768","428","k","true","img/S_28.png","生人","prac_friend","","生人"
"","","","","","html-keyboard-response","277","1312287","0.0-16.0-0.0-1.7","null","<span style='color:GreenYellow; font-size: 70px;'>正确! </span>","null","","","","","","","","","","","","","","","","","","","","","","","feedback_test",""
"","","","","","psychophysics","278","1314003","0.0-16.0-0.0-0.8","694","","j","","","","","","","","","","","","","key","j","16.661803921568207","768","428","j","true","img/S_28.png","自我","prac_friend","","生人"
"","","","","","html-keyboard-response","279","1314304","0.0-16.0-0.0-1.8","null","<span style='color:GreenYellow; font-size: 70px;'>正确! </span>","null","","","","","","","","","","","","","","","","","","","","","","","feedback_test",""
"","","","","","psychophysics","280","1316183","0.0-16.0-0.0-0.9","877","","j","","","","","","","","","","","","","key","j","16.651432432433555","768","428","j","true","img/S_28.png","朋友","prac_friend","","生人"
"","","","","","html-keyboard-response","281","1316485","0.0-16.0-0.0-1.9","null","<span style='color:GreenYellow; font-size: 70px;'>正确! </span>","null","","","","","","","","","","","","","","","","","","","","","","","feedback_test",""
"","","","","","psychophysics","282","1318411","0.0-16.0-0.0-0.10","925","","j","","","","","","","","","","","","","key","j","16.661669565216922","768","428","j","true","img/H_28.png","朋友","prac_friend","","自我"
"","","","","","html-keyboard-response","283","1318713","0.0-16.0-0.0-1.10","null","<span style='color:GreenYellow; font-size: 70px;'>正确! </span>","null","","","","","","","","","","","","","","","","","","","","","","","feedback_test",""
"","","","","","psychophysics","284","1320713","0.0-16.0-0.0-0.11","984","","k","","","","","","","","","","","","","key","k","16.661806722690095","768","428","d","false","img/C_28.png","朋友","prac_friend","","朋友"
"","","","","","html-keyboard-response","285","1321015","0.0-16.0-0.0-1.11","null","<span style='color:red; font-size: 70px;'>错误! </span>","null","","","","","","","","","","","","","","","","","","","","","","","feedback_test",""
"","","","","","psychophysics","286","1322863","0.0-16.0-0.0-0.12","845","","d","","","","","","","","","","","","","key","d","16.66174545454454","768","428","d","true","img/C_28.png","朋友","prac_friend","","朋友"
"","","","","","html-keyboard-response","287","1323165","0.0-16.0-0.0-1.12","null","<span style='color:GreenYellow; font-size: 70px;'>正确! </span>","null","","","","","","","","","","","","","","","","","","","","","","","feedback_test",""
"","","","","","psychophysics","288","1325050","0.0-16.0-0.0-0.13","883","","f","","","","","","","","","","","","","key","f","16.661553571426857","768","428","j","false","img/S_28.png","朋友","prac_friend","","生人"
"","","","","","html-keyboard-response","289","1325351","0.0-16.0-0.0-1.13","null","<span style='color:red; font-size: 70px;'>错误! </span>","null","","","","","","","","","","","","","","","","","","","","","","","feedback_test",""
"","","","","","psychophysics","290","1327550","0.0-16.0-0.0-0.14","1191","","k","","","","","","","","","","","","","key","k","16.653830769230037","768","428","k","true","img/S_28.png","生人","prac_friend","","生人"
"","","","","","html-keyboard-response","291","1327852","0.0-16.0-0.0-1.14","null","<span style='color:GreenYellow; font-size: 70px;'>正确! </span>","null","","","","","","","","","","","","","","","","","","","","","","","feedback_test",""
"","","","","","psychophysics","292","1329982","0.0-16.0-0.0-0.15","1129","","j","","","","","","","","","","","","","key","j","16.661071428572686","768","428","f","false","img/C_28.png","自我","prac_friend","","朋友"
"","","","","","html-keyboard-response","293","1330284","0.0-16.0-0.0-1.15","null","<span style='color:red; font-size: 70px;'>错误! </span>","null","","","","","","","","","","","","","","","","","","","","","","","feedback_test",""
"","","","","","psychophysics","294","1332273","0.0-16.0-0.0-0.16","988","","k","","","","","","","","","","","","","key","k","16.660466101695388","768","428","k","true","img/H_28.png","自我","prac_friend","","自我"
"","","","","","html-keyboard-response","295","1332599","0.0-16.0-0.0-1.16","null","<span style='color:GreenYellow; font-size: 70px;'>正确! </span>","null","","","","","","","","","","","","","","","","","","","","","","","feedback_test",""
"","","","","","psychophysics","296","1334229","0.0-16.0-0.0-0.17","610","","k","","","","","","","","","","","","","key","k","16.653593750001164","768","428","k","true","img/H_28.png","自我","prac_friend","","自我"
"","","","","","html-keyboard-response","297","1334531","0.0-16.0-0.0-1.17","null","<span style='color:GreenYellow; font-size: 70px;'>正确! </span>","null","","","","","","","","","","","","","","","","","","","","","","","feedback_test",""
"","","","","","psychophysics","298","1336585","0.0-16.0-0.0-0.18","1053","","j","","","","","","","","","","","","","key","j","16.66136585365852","768","428","j","true","img/H_28.png","生人","prac_friend","","自我"
"","","","","","html-keyboard-response","299","1336888","0.0-16.0-0.0-1.18","null","<span style='color:GreenYellow; font-size: 70px;'>正确! </span>","null","","","","","","","","","","","","","","","","","","","","","","","feedback_test",""
"","","","","","psychophysics","300","1338680","0.0-16.0-0.0-0.19","791","","d","","","","","","","","","","","","","key","d","16.66144339622543","768","428","d","true","img/C_28.png","朋友","prac_friend","","朋友"
"","","","","","html-keyboard-response","301","1338982","0.0-16.0-0.0-1.19","null","<span style='color:GreenYellow; font-size: 70px;'>正确! </span>","null","","","","","","","","","","","","","","","","","","","","","","","feedback_test",""
"","","","","","psychophysics","302","1340759","0.0-16.0-0.0-0.20","751","","f","","","","","","","","","","","","","key","f","16.661057142857906","768","428","f","true","img/C_28.png","生人","prac_friend","","朋友"
"","","","","","html-keyboard-response","303","1341062","0.0-16.0-0.0-1.20","null","<span style='color:GreenYellow; font-size: 70px;'>正确! </span>","null","","","","","","","","","","","","","","","","","","","","","","","feedback_test",""
"","","","","","psychophysics","304","1343100","0.0-16.0-0.0-0.21","1037","","j","","","","","","","","","","","","","key","j","16.661450819673444","768","428","j","true","img/S_28.png","自我","prac_friend","","生人"
"","","","","","html-keyboard-response","305","1343402","0.0-16.0-0.0-1.21","null","<span style='color:GreenYellow; font-size: 70px;'>正确! </span>","null","","","","","","","","","","","","","","","","","","","","","","","feedback_test",""
"","","","","","psychophysics","306","1345920","0.0-16.0-0.0-0.22","null","","null","","","","","","","","","","","","","key","null","16.660726666666257","768","428","j","false","img/H_28.png","朋友","prac_friend","","自我"
"","","","","","html-keyboard-response","307","1346222","0.0-16.0-0.0-1.22","null","<span class='add_' style='color:yellow; font-size: 70px;'> 太慢! </span>","null","","","","","","","","","","","","","","","","","","","","","","","feedback_test",""
"","","","","","psychophysics","308","1348085","0.0-16.0-0.0-0.23","862","","k","","","","","","","","","","","","","key","k","16.66101801801926","768","428","k","true","img/S_28.png","生人","prac_friend","","生人"
"","","","","","html-keyboard-response","309","1348387","0.0-16.0-0.0-1.23","null","<span style='color:GreenYellow; font-size: 70px;'>正确! </span>","null","","","","","","","","","","","","","","","","","","","","","","","feedback_test",""
"","","","","","html-keyboard-response","310","1356537","0.0-17.0","8148","[""<style>.context{color:white; font-size: 35px; line-height:40px}</style>               <div><p class='context'>您正确回答了75% 的试次。</p><p class='context'>您的平均反应时为854毫秒。</p><p class='context'>恭喜您完成这一阶段的练习。按任意键进入<span style='color: yellow;'>重点关注图形为“生人”</span>的练习。</p></div><p class='footer' style='font-size:35px; line-height:30px;'>任务要求：\n               <p class='footer' style='font-size:35px; line-height:35px;'>对与“生人”对应的图形，如果 匹配 ，请按 <span style=\""color: lightgreen;\"">d键</span></p><p class='footer' style='font-size:35px'>如果 不匹配 ，请按<span style=\""color: lightgreen;\"">f键</p></span>\n               <p class='footer' style='font-size:35px; line-height:35px;'>对非“生人”对应的图形，如果 匹配 ，请按 <span style=\""color: lightgreen;\"">k键</span></p><p class='footer' style='font-size:35px'>如果 不匹配 ，请按<span style=\""color: lightgreen;\"">j键</p></span>\n               <p class='footer' style='font-size:22px; line-height:25px;'>请在实验过程中将您的<span style=\""color: lightgreen;\"">食指和中指</span>放在电脑键盘的相应键位上进行按键。</p></span>""]"," ","","","","","","","","","","","","","","","","","","","","","","","",""
"","","","","","psychophysics","311","1358531","0.0-18.0-0.0-0.0","990","","j","","","","","","","","","","","","","key","j","16.660848739496316","768","428","k","false","img/C_28.png","朋友","prac_stranger","","朋友"
"","","","","","html-keyboard-response","312","1358832","0.0-18.0-0.0-1.0","null","<span style='color:red; font-size: 70px;'>错误! </span>","null","","","","","","","","","","","","","","","","","","","","","","","feedback_test",""
"","","","","","psychophysics","313","1360535","0.0-18.0-0.0-0.1","702","","k","","","","","","","","","","","","","key","k","16.66151485148596","768","428","k","true","img/C_28.png","朋友","prac_stranger","","朋友"
"","","","","","html-keyboard-response","314","1360837","0.0-18.0-0.0-1.1","null","<span style='color:GreenYellow; font-size: 70px;'>正确! </span>","null","","","","","","","","","","","","","","","","","","","","","","","feedback_test",""
"","","","","","psychophysics","315","1362739","0.0-18.0-0.0-0.2","890","","j","","","","","","","","","","","","","key","j","16.661592920354064","768","428","j","true","img/C_28.png","自我","prac_stranger","","朋友"
"","","","","","html-keyboard-response","316","1363041","0.0-18.0-0.0-1.2","null","<span style='color:GreenYellow; font-size: 70px;'>正确! </span>","null","","","","","","","","","","","","","","","","","","","","","","","feedback_test",""
"","","","","","psychophysics","317","1364647","0.0-18.0-0.0-0.3","604","","d","","","","","","","","","","","","","key","d","16.661031578946858","768","428","d","true","img/S_28.png","生人","prac_stranger","","生人"
"","","","","","html-keyboard-response","318","1364949","0.0-18.0-0.0-1.3","null","<span style='color:GreenYellow; font-size: 70px;'>正确! </span>","null","","","","","","","","","","","","","","","","","","","","","","","feedback_test",""
"","","","","","psychophysics","319","1366688","0.0-18.0-0.0-0.4","737","","f","","","","","","","","","","","","","key","f","16.66131067961156","768","428","f","true","img/S_28.png","朋友","prac_stranger","","生人"
"","","","","","html-keyboard-response","320","1366989","0.0-18.0-0.0-1.4","null","<span style='color:GreenYellow; font-size: 70px;'>正确! </span>","null","","","","","","","","","","","","","","","","","","","","","","","feedback_test",""
"","","","","","psychophysics","321","1368760","0.0-18.0-0.0-0.5","761","","f","","","","","","","","","","","","","key","f","16.66029523809529","768","428","f","true","img/S_28.png","自我","prac_stranger","","生人"
"","","","","","html-keyboard-response","322","1369062","0.0-18.0-0.0-1.5","null","<span style='color:GreenYellow; font-size: 70px;'>正确! </span>","null","","","","","","","","","","","","","","","","","","","","","","","feedback_test",""
"","","","","","psychophysics","323","1370573","0.0-18.0-0.0-0.6","510","","d","","","","","","","","","","","","","key","d","16.661811111112023","768","428","d","true","img/S_28.png","生人","prac_stranger","","生人"
"","","","","","html-keyboard-response","324","1370875","0.0-18.0-0.0-1.6","null","<span style='color:GreenYellow; font-size: 70px;'>正确! </span>","null","","","","","","","","","","","","","","","","","","","","","","","feedback_test",""
"","","","","","psychophysics","325","1372803","0.0-18.0-0.0-0.7","926","","j","","","","","","","","","","","","","key","j","16.66075438596594","768","428","j","true","img/H_28.png","生人","prac_stranger","","自我"
"","","","","","html-keyboard-response","326","1373104","0.0-18.0-0.0-1.7","null","<span style='color:GreenYellow; font-size: 70px;'>正确! </span>","null","","","","","","","","","","","","","","","","","","","","","","","feedback_test",""
"","","","","","psychophysics","327","1374894","0.0-18.0-0.0-0.8","775","","k","","","","","","","","","","","","","key","k","16.6610566037729","768","428","k","true","img/H_28.png","自我","prac_stranger","","自我"
"","","","","","html-keyboard-response","328","1375197","0.0-18.0-0.0-1.8","null","<span style='color:GreenYellow; font-size: 70px;'>正确! </span>","null","","","","","","","","","","","","","","","","","","","","","","","feedback_test",""
"","","","","","psychophysics","329","1377144","0.0-18.0-0.0-0.9","945","","k","","","","","","","","","","","","","key","k","16.661353448275396","768","428","j","false","img/H_28.png","朋友","prac_stranger","","自我"
"","","","","","html-keyboard-response","330","1377445","0.0-18.0-0.0-1.9","null","<span style='color:red; font-size: 70px;'>错误! </span>","null","","","","","","","","","","","","","","","","","","","","","","","feedback_test",""
"","","","","","psychophysics","331","1379394","0.0-18.0-0.0-0.10","948","","j","","","","","","","","","","","","","key","j","16.661327586206205","768","428","j","true","img/C_28.png","生人","prac_stranger","","朋友"
"","","","","","html-keyboard-response","332","1379696","0.0-18.0-0.0-1.10","null","<span style='color:GreenYellow; font-size: 70px;'>正确! </span>","null","","","","","","","","","","","","","","","","","","","","","","","feedback_test",""
"","","","","","psychophysics","333","1382218","0.0-18.0-0.0-0.11","null","","null","","","","","","","","","","","","","key","null","16.66141059602586","768","428","k","false","img/H_28.png","自我","prac_stranger","","自我"
"","","","","","html-keyboard-response","334","1382520","0.0-18.0-0.0-1.11","null","<span class='add_' style='color:yellow; font-size: 70px;'> 太慢! </span>","null","","","","","","","","","","","","","","","","","","","","","","","feedback_test",""
"","","","","","psychophysics","335","1384471","0.0-18.0-0.0-0.12","949","","d","","","","","","","","","","","","","key","d","16.6607672413791","768","428","f","false","img/S_28.png","朋友","prac_stranger","","生人"
"","","","","","html-keyboard-response","336","1384773","0.0-18.0-0.0-1.12","null","<span style='color:red; font-size: 70px;'>错误! </span>","null","","","","","","","","","","","","","","","","","","","","","","","feedback_test",""
"","","","","","psychophysics","337","1386408","0.0-18.0-0.0-0.13","634","","d","","","","","","","","","","","","","key","d","16.66154639175421","768","428","d","true","img/S_28.png","生人","prac_stranger","","生人"
"","","","","","html-keyboard-response","338","1386710","0.0-18.0-0.0-1.13","null","<span style='color:GreenYellow; font-size: 70px;'>正确! </span>","null","","","","","","","","","","","","","","","","","","","","","","","feedback_test",""
"","","","","","psychophysics","339","1388642","0.0-18.0-0.0-0.14","903","","j","","","","","","","","","","","","","key","j","16.66140869565146","768","428","j","true","img/C_28.png","自我","prac_stranger","","朋友"
"","","","","","html-keyboard-response","340","1388944","0.0-18.0-0.0-1.14","null","<span style='color:GreenYellow; font-size: 70px;'>正确! </span>","null","","","","","","","","","","","","","","","","","","","","","","","feedback_test",""
"","","","","","psychophysics","341","1391009","0.0-18.0-0.0-0.15","1064","","k","","","","","","","","","","","","","key","k","16.661447154471606","768","428","d","false","img/S_28.png","生人","prac_stranger","","生人"
"","","","","","html-keyboard-response","342","1391310","0.0-18.0-0.0-1.15","null","<span style='color:red; font-size: 70px;'>错误! </span>","null","","","","","","","","","","","","","","","","","","","","","","","feedback_test",""
"","","","","","psychophysics","343","1393240","0.0-18.0-0.0-0.16","929","","j","","","","","","","","","","","","","key","j","16.661547826086778","768","428","k","false","img/H_28.png","自我","prac_stranger","","自我"
"","","","","","html-keyboard-response","344","1393542","0.0-18.0-0.0-1.16","null","<span style='color:red; font-size: 70px;'>错误! </span>","null","","","","","","","","","","","","","","","","","","","","","","","feedback_test",""
"","","","","","psychophysics","345","1395755","0.0-18.0-0.0-0.17","1207","","f","","","","","","","","","","","","","key","f","16.662022727273516","768","428","j","false","img/C_28.png","生人","prac_stranger","","朋友"
"","","","","","html-keyboard-response","346","1396057","0.0-18.0-0.0-1.17","null","<span style='color:red; font-size: 70px;'>错误! </span>","null","","","","","","","","","","","","","","","","","","","","","","","feedback_test",""
"","","","","","psychophysics","347","1398132","0.0-18.0-0.0-0.18","1074","","k","","","","","","","","","","","","","key","k","16.661669354838875","768","428","j","false","img/H_28.png","生人","prac_stranger","","自我"
"","","","","","html-keyboard-response","348","1398434","0.0-18.0-0.0-1.18","null","<span style='color:red; font-size: 70px;'>错误! </span>","null","","","","","","","","","","","","","","","","","","","","","","","feedback_test",""
"","","","","","psychophysics","349","1400719","0.0-18.0-0.0-0.19","1284","","j","","","","","","","","","","","","","key","j","16.661124999999576","768","428","j","true","img/H_28.png","朋友","prac_stranger","","自我"
"","","","","","html-keyboard-response","350","1401021","0.0-18.0-0.0-1.19","null","<span style='color:GreenYellow; font-size: 70px;'>正确! </span>","null","","","","","","","","","","","","","","","","","","","","","","","feedback_test",""
"","","","","","psychophysics","351","1402900","0.0-18.0-0.0-0.20","878","","k","","","","","","","","","","","","","key","k","16.661687499999452","768","428","k","true","img/H_28.png","自我","prac_stranger","","自我"
"","","","","","html-keyboard-response","352","1403201","0.0-18.0-0.0-1.20","null","<span style='color:GreenYellow; font-size: 70px;'>正确! </span>","null","","","","","","","","","","","","","","","","","","","","","","","feedback_test",""
"","","","","","psychophysics","353","1405045","0.0-18.0-0.0-0.21","842","","k","","","","","","","","","","","","","key","k","16.661063636363146","768","428","k","true","img/C_28.png","朋友","prac_stranger","","朋友"
"","","","","","html-keyboard-response","354","1405346","0.0-18.0-0.0-1.21","null","<span style='color:GreenYellow; font-size: 70px;'>正确! </span>","null","","","","","","","","","","","","","","","","","","","","","","","feedback_test",""
"","","","","","psychophysics","355","1407138","0.0-18.0-0.0-0.22","769","","f","","","","","","","","","","","","","key","f","16.65946226415031","768","428","f","true","img/S_28.png","自我","prac_stranger","","生人"
"","","","","","html-keyboard-response","356","1407440","0.0-18.0-0.0-1.22","null","<span style='color:GreenYellow; font-size: 70px;'>正确! </span>","null","","","","","","","","","","","","","","","","","","","","","","","feedback_test",""
"","","","","","psychophysics","357","1409506","0.0-18.0-0.0-0.23","1065","","k","","","","","","","","","","","","","key","k","16.651040983607718","768","428","k","true","img/C_28.png","朋友","prac_stranger","","朋友"
"","","","","","html-keyboard-response","358","1409808","0.0-18.0-0.0-1.23","null","<span style='color:GreenYellow; font-size: 70px;'>正确! </span>","null","","","","","","","","","","","","","","","","","","","","","","","feedback_test",""
"","","","","","html-keyboard-response","359","1411529","0.0-18.0-1.0-0.0","1719","<style>.context{color:white; font-size: 35px; line-height:40px}</style>                           <div><p class='context'>您正确回答了67% 的试次。</p><p class='context'>您的平均反应时为827毫秒。</p>"," ","","","","","","","","","","","","","","","","","","","","","","","",""
"","","","","","instructions","360","1419056","0.0-18.0-1.0-1.0","7525","","","","","","","","","","","","","","[{""page_index"":0,""viewing_time"":1837},{""page_index"":1,""viewing_time"":4864},{""page_index"":2,""viewing_time"":823}]","","","","","","","","","","","",""
"","","","","","psychophysics","361","1420834","0.0-18.1-0.1-0.24","774","","k","","","","","","","","","","","","","key","k","16.661447619045862","768","428","k","true","img/H_28.png","自我","prac_stranger","","自我"
"","","","","","html-keyboard-response","362","1421136","0.0-18.1-0.1-1.24","null","<span style='color:GreenYellow; font-size: 70px;'>正确! </span>","null","","","","","","","","","","","","","","","","","","","","","","","feedback_test",""
"","","","","","psychophysics","363","1423137","0.0-18.1-0.1-0.25","1000","","k","","","","","","","","","","","","","key","k","16.66037815126019","768","428","k","true","img/H_28.png","自我","prac_stranger","","自我"
"","","","","","html-keyboard-response","364","1423438","0.0-18.1-0.1-1.25","null","<span style='color:GreenYellow; font-size: 70px;'>正确! </span>","null","","","","","","","","","","","","","","","","","","","","","","","feedback_test",""
"","","","","","psychophysics","365","1425274","0.0-18.1-0.1-0.26","815","","j","","","","","","","","","","","","","key","j","16.660513761468284","768","428","j","true","img/H_28.png","朋友","prac_stranger","","自我"
"","","","","","html-keyboard-response","366","1425575","0.0-18.1-0.1-1.26","null","<span style='color:GreenYellow; font-size: 70px;'>正确! </span>","null","","","","","","","","","","","","","","","","","","","","","","","feedback_test",""
"","","","","","psychophysics","367","1427571","0.0-18.1-0.1-0.27","995","","j","","","","","","","","","","","","","key","j","16.661521008404502","768","428","j","true","img/C_28.png","自我","prac_stranger","","朋友"
"","","","","","html-keyboard-response","368","1427872","0.0-18.1-0.1-1.27","null","<span style='color:GreenYellow; font-size: 70px;'>正确! </span>","null","","","","","","","","","","","","","","","","","","","","","","","feedback_test",""
"","","","","","psychophysics","369","1429744","0.0-18.1-0.1-0.28","870","","k","","","","","","","","","","","","","key","k","16.661558558558205","768","428","k","true","img/C_28.png","朋友","prac_stranger","","朋友"
"","","","","","html-keyboard-response","370","1430045","0.0-18.1-0.1-1.28","null","<span style='color:GreenYellow; font-size: 70px;'>正确! </span>","null","","","","","","","","","","","","","","","","","","","","","","","feedback_test",""
"","","","","","psychophysics","371","1431678","0.0-18.1-0.1-0.29","619","","d","","","","","","","","","","","","","key","d","16.661412371132887","768","428","d","true","img/S_28.png","生人","prac_stranger","","生人"
"","","","","","html-keyboard-response","372","1431982","0.0-18.1-0.1-1.29","null","<span style='color:GreenYellow; font-size: 70px;'>正确! </span>","null","","","","","","","","","","","","","","","","","","","","","","","feedback_test",""
"","","","","","psychophysics","373","1433634","0.0-18.1-0.1-0.30","651","","f","","","","","","","","","","","","","key","f","16.65382653061177","768","428","f","true","img/S_28.png","自我","prac_stranger","","生人"
"","","","","","html-keyboard-response","374","1433936","0.0-18.1-0.1-1.30","null","<span style='color:GreenYellow; font-size: 70px;'>正确! </span>","null","","","","","","","","","","","","","","","","","","","","","","","feedback_test",""
"","","","","","psychophysics","375","1435511","0.0-18.1-0.1-0.31","574","","d","","","","","","","","","","","","","key","d","16.66084946236343","768","428","d","true","img/S_28.png","生人","prac_stranger","","生人"
"","","","","","html-keyboard-response","376","1435812","0.0-18.1-0.1-1.31","null","<span style='color:GreenYellow; font-size: 70px;'>正确! </span>","null","","","","","","","","","","","","","","","","","","","","","","","feedback_test",""
"","","","","","psychophysics","377","1437525","0.0-18.1-0.1-0.32","705","","f","","","","","","","","","","","","","key","f","16.661245098040787","768","428","f","true","img/S_28.png","朋友","prac_stranger","","生人"
"","","","","","html-keyboard-response","378","1437826","0.0-18.1-0.1-1.32","null","<span style='color:GreenYellow; font-size: 70px;'>正确! </span>","null","","","","","","","","","","","","","","","","","","","","","","","feedback_test",""
"","","","","","psychophysics","379","1439831","0.0-18.1-0.1-0.33","1004","","f","","","","","","","","","","","","","key","f","16.662647058823374","768","428","j","false","img/C_28.png","生人","prac_stranger","","朋友"
"","","","","","html-keyboard-response","380","1440133","0.0-18.1-0.1-1.33","null","<span style='color:red; font-size: 70px;'>错误! </span>","null","","","","","","","","","","","","","","","","","","","","","","","feedback_test",""
"","","","","","psychophysics","381","1441883","0.0-18.1-0.1-0.34","748","","k","","","","","","","","","","","","","key","k","16.661259615384132","768","428","k","true","img/C_28.png","朋友","prac_stranger","","朋友"
"","","","","","html-keyboard-response","382","1442185","0.0-18.1-0.1-1.34","null","<span style='color:GreenYellow; font-size: 70px;'>正确! </span>","null","","","","","","","","","","","","","","","","","","","","","","","feedback_test",""
"","","","","","psychophysics","383","1443990","0.0-18.1-0.1-0.35","781","","j","","","","","","","","","","","","","key","j","16.66075700934689","768","428","j","true","img/H_28.png","生人","prac_stranger","","自我"
"","","","","","html-keyboard-response","384","1444292","0.0-18.1-0.1-1.35","null","<span style='color:GreenYellow; font-size: 70px;'>正确! </span>","null","","","","","","","","","","","","","","","","","","","","","","","feedback_test",""
"","","","","","psychophysics","385","1446516","0.0-18.1-0.1-0.36","1222","","j","","","","","","","","","","","","","key","j","16.663789473684098","768","428","d","false","img/S_28.png","生人","prac_stranger","","生人"
"","","","","","html-keyboard-response","386","1446818","0.0-18.1-0.1-1.36","null","<span style='color:red; font-size: 70px;'>错误! </span>","null","","","","","","","","","","","","","","","","","","","","","","","feedback_test",""
"","","","","","psychophysics","387","1448577","0.0-18.1-0.1-0.37","758","","f","","","","","","","","","","","","","key","f","16.661605769231056","768","428","f","true","img/S_28.png","朋友","prac_stranger","","生人"
"","","","","","html-keyboard-response","388","1448878","0.0-18.1-0.1-1.37","null","<span style='color:GreenYellow; font-size: 70px;'>正确! </span>","null","","","","","","","","","","","","","","","","","","","","","","","feedback_test",""
"","","","","","psychophysics","389","1450680","0.0-18.1-0.1-0.38","781","","k","","","","","","","","","","","","","key","k","16.66088785046807","768","428","k","true","img/H_28.png","自我","prac_stranger","","自我"
"","","","","","html-keyboard-response","390","1450981","0.0-18.1-0.1-1.38","null","<span style='color:GreenYellow; font-size: 70px;'>正确! </span>","null","","","","","","","","","","","","","","","","","","","","","","","feedback_test",""
"","","","","","psychophysics","391","1452897","0.0-18.1-0.1-0.39","914","","f","","","","","","","","","","","","","key","f","16.66138596491063","768","428","j","false","img/H_28.png","生人","prac_stranger","","自我"
"","","","","","html-keyboard-response","392","1453199","0.0-18.1-0.1-1.39","null","<span style='color:red; font-size: 70px;'>错误! </span>","null","","","","","","","","","","","","","","","","","","","","","","","feedback_test",""
"","","","","","psychophysics","393","1455043","0.0-18.1-0.1-0.40","841","","j","","","","","","","","","","","","","key","j","16.661409090908077","768","428","j","true","img/C_28.png","自我","prac_stranger","","朋友"
"","","","","","html-keyboard-response","394","1455345","0.0-18.1-0.1-1.40","null","<span style='color:GreenYellow; font-size: 70px;'>正确! </span>","null","","","","","","","","","","","","","","","","","","","","","","","feedback_test",""
"","","","","","psychophysics","395","1457372","0.0-18.1-0.1-0.41","1023","","j","","","","","","","","","","","","","key","j","16.66101666666606","768","428","j","true","img/H_28.png","朋友","prac_stranger","","自我"
"","","","","","html-keyboard-response","396","1457673","0.0-18.1-0.1-1.41","null","<span style='color:GreenYellow; font-size: 70px;'>正确! </span>","null","","","","","","","","","","","","","","","","","","","","","","","feedback_test",""
"","","","","","psychophysics","397","1459762","0.0-18.1-0.1-0.42","1088","","j","","","","","","","","","","","","","key","j","16.656435483871327","768","428","j","true","img/C_28.png","生人","prac_stranger","","朋友"
"","","","","","html-keyboard-response","398","1460063","0.0-18.1-0.1-1.42","null","<span style='color:GreenYellow; font-size: 70px;'>正确! </span>","null","","","","","","","","","","","","","","","","","","","","","","","feedback_test",""
"","","","","","psychophysics","399","1461813","0.0-18.1-0.1-0.43","748","","k","","","","","","","","","","","","","key","k","16.661038461539786","768","428","k","true","img/C_28.png","朋友","prac_stranger","","朋友"
"","","","","","html-keyboard-response","400","1462113","0.0-18.1-0.1-1.43","null","<span style='color:GreenYellow; font-size: 70px;'>正确! </span>","null","","","","","","","","","","","","","","","","","","","","","","","feedback_test",""
"","","","","","psychophysics","401","1463833","0.0-18.1-0.1-0.44","705","","k","","","","","","","","","","","","","key","k","16.66076470588279","768","428","k","true","img/C_28.png","朋友","prac_stranger","","朋友"
"","","","","","html-keyboard-response","402","1464136","0.0-18.1-0.1-1.44","null","<span style='color:GreenYellow; font-size: 70px;'>正确! </span>","null","","","","","","","","","","","","","","","","","","","","","","","feedback_test",""
"","","","","","psychophysics","403","1466074","0.0-18.1-0.1-0.45","936","","k","","","","","","","","","","","","","key","k","16.660896551723045","768","428","k","true","img/H_28.png","自我","prac_stranger","","自我"
"","","","","","html-keyboard-response","404","1466375","0.0-18.1-0.1-1.45","null","<span style='color:GreenYellow; font-size: 70px;'>正确! </span>","null","","","","","","","","","","","","","","","","","","","","","","","feedback_test",""
"","","","","","psychophysics","405","1468507","0.0-18.1-0.1-0.46","1130","","d","","","","","","","","","","","","","key","d","16.661582677164958","768","428","d","true","img/S_28.png","生人","prac_stranger","","生人"
"","","","","","html-keyboard-response","406","1468808","0.0-18.1-0.1-1.46","null","<span style='color:GreenYellow; font-size: 70px;'>正确! </span>","null","","","","","","","","","","","","","","","","","","","","","","","feedback_test",""
"","","","","","psychophysics","407","1470499","0.0-18.1-0.1-0.47","680","","f","","","","","","","","","","","","","key","f","16.66134000000078","768","428","f","true","img/S_28.png","自我","prac_stranger","","生人"
"","","","","","html-keyboard-response","408","1470801","0.0-18.1-0.1-1.47","null","<span style='color:GreenYellow; font-size: 70px;'>正确! </span>","null","","","","","","","","","","","","","","","","","","","","","","","feedback_test",""
"","","","","","html-keyboard-response","409","1519658","0.0-19.0","48855","[""<style>.context{color:white; font-size: 35px; line-height:40px}</style>                                     <div><p class='context'>您正确回答了88% 的试次。</p><p class='context'>您的平均反应时为820毫秒。</p><p class='context'>恭喜您完成练习。您可以在此时休息一段时间，准备好后按任意键进入正式实验。</p><p class='footer' style='font-size: 35px; line-height:40px;'>请在进入正式实验实验之前将您的<span style='color: lightgreen;'>食指和中指</span>放在电脑键盘的相应键位上，做好按键准备。</p>""]"," ","","","","","","","","","","","","","","","","","","","","","","","",""
"","","","","","html-keyboard-response","410","1532046","0.0-20.0-2.0-0.0","12384","
                 <p>请您将食指和中指放在相应按键上，准备进入<span style='color: yellow;'>重点图形为“生人”对应图形</span>的正式匹配任务</p>
                 <p> <div style = ""color: green""><按任意键开始></div></p>
                 "," ","","","","","","","","","","","","","","","","","","","","","","","",""
"","","","","","psychophysics","411","1533761","0.0-20.0-2.0-1.0-0.0-0.0","713","","f","","","","","","","","","","","","","key","f","16.663852941176362","768","428","f","true","img/S_28.png","自我","stranger","","生人"
"","","","","","html-keyboard-response","412","1534062","0.0-20.0-2.0-1.0-0.0-1.0","null","<span style='color:GreenYellow; font-size: 70px;'>正确! </span>","null","","","","","","","","","","","","","","","","","","","","","","","feedback_test",""
"","","","","","psychophysics","413","1535809","0.0-20.0-2.0-1.0-0.0-0.1","746","","k","","","","","","","","","","","","","key","k","16.661221153846082","768","428","k","true","img/H_28.png","自我","stranger","","自我"
"","","","","","html-keyboard-response","414","1536110","0.0-20.0-2.0-1.0-0.0-1.1","null","<span style='color:GreenYellow; font-size: 70px;'>正确! </span>","null","","","","","","","","","","","","","","","","","","","","","","","feedback_test",""
"","","","","","psychophysics","415","1537837","0.0-20.0-2.0-1.0-0.0-0.2","698","","f","","","","","","","","","","","","","key","f","16.661398058250835","768","428","j","false","img/C_28.png","生人","stranger","","朋友"
"","","","","","html-keyboard-response","416","1538137","0.0-20.0-2.0-1.0-0.0-1.2","null","<span style='color:red; font-size: 70px;'>错误! </span>","null","","","","","","","","","","","","","","","","","","","","","","","feedback_test",""
"","","","","","psychophysics","417","1539823","0.0-20.0-2.0-1.0-0.0-0.3","685","","k","","","","","","","","","","","","","key","k","16.66064000000013","768","428","k","true","img/C_28.png","朋友","stranger","","朋友"
"","","","","","html-keyboard-response","418","1540124","0.0-20.0-2.0-1.0-0.0-1.3","null","<span style='color:GreenYellow; font-size: 70px;'>正确! </span>","null","","","","","","","","","","","","","","","","","","","","","","","feedback_test",""
"","","","","","psychophysics","419","1541756","0.0-20.0-2.0-1.0-0.0-0.4","630","","j","","","","","","","","","","","","","key","j","16.65968041237175","768","428","j","true","img/C_28.png","自我","stranger","","朋友"
"","","","","","html-keyboard-response","420","1542056","0.0-20.0-2.0-1.0-0.0-1.4","null","<span style='color:GreenYellow; font-size: 70px;'>正确! </span>","null","","","","","","","","","","","","","","","","","","","","","","","feedback_test",""
"","","","","","psychophysics","421","1543671","0.0-20.0-2.0-1.0-0.0-0.5","593","","k","","","","","","","","","","","","","key","k","16.661927083332557","768","428","k","true","img/C_28.png","朋友","stranger","","朋友"
"","","","","","html-keyboard-response","422","1543973","0.0-20.0-2.0-1.0-0.0-1.5","null","<span style='color:GreenYellow; font-size: 70px;'>正确! </span>","null","","","","","","","","","","","","","","","","","","","","","","","feedback_test",""
