"success","timeout","failed_images","failed_audio","failed_video","trial_type","trial_index","time_elapsed","internal_node_id","rt","stimulus","response","value","item_width_mm","item_height_mm","item_width_px","px2mm","view_dist_mm","item_width_deg","px2deg","scale_factor","win_width_deg","win_height_deg","view_history","response_type","key_press","avg_frame_time","center_x","center_y","correct_response","correct","Image","text","condition","screen_id","label"
"true","false","[]","[]","[]","preload","0","1120","0.0-0.0","","","","","","","","","","","","","","","","","","","","","","","","","","",""
"","","","","","html-keyboard-response","1","8729","0.0-1.0","7608","
     <p>您好，欢迎参加本次实验。</p>
     <p>为充分保障您的权利，请确保您已经知晓并同意《参与实验同意书》以及《数据公开知情同意书》。</p>
     <p>如果您未见过上述内容，请咨询实验员。</p>
     <p>如果您选择继续实验，则表示您已经清楚两份知情同意书的内容并同意。</p>
     <p> <div style = ""color: green""><按任意键至下页></div> </p>
     ","d","","","","","","","","","","","","","","","","","","","","","","","",""
"","","","","","html-keyboard-response","2","9721","0.0-2.0","992","
     <p>本实验首先需要您填写一些基本个人信息。</p>
     <p> <div style = ""color: green""><按任意键至下页></div></p>
     ","d","","","","","","","","","","","","","","","","","","","","","","","",""
"","","","","","call-function","3","9722","0.0-3.0-0.0","","","","","","","","","","","","","","","","","","","","","","","","","","",""
"","","","","","survey-html-form","4","12994","0.0-3.0-1.0","3270","","{""Q0"":""22""}","","","","","","","","","","","","","","","","","","","","","","","",""
"","","","","","html-button-response","5","14045","0.0-3.0-2.0","1050","<p style = 'color : white'>您的性别</p>","0","","","","","","","","","","","","","","","","","","","","","","","",""
"","","","","","survey-html-form","6","17831","0.0-3.0-3.0","3785","","{""Q0"":""2002""}","","","","","","","","","","","","","","","","","","","","","","","",""
"","","","","","survey-html-form","7","20031","0.0-3.0-4.0","2200","","{""Q0"":""5""}","","","","","","","","","","","","","","","","","","","","","","","",""
"","","","","","virtual-chinrest","8","63711","0.0-4.0","43678","","","","85.6","53.98","448.44423243874684","5.235762504389557","545.72","8.968884648774937","50","0.8518339012246691","29.58","14.92","","","","","","","","","","","","",""
"true","","","","","fullscreen","9","65967","0.0-5.0","","","","","","","","","","","","","","","","","","","","","","","","","","",""
"","","","","","instructions","10","80867","0.0-6.0","14899","","","","","","","","","","","","","","[{""page_index"":0,""viewing_time"":2223},{""page_index"":1,""viewing_time"":4650},{""page_index"":2,""viewing_time"":4136},{""page_index"":3,""viewing_time"":2058},{""page_index"":4,""viewing_time"":1832}]","","","","","","","","","","","",""
"","","","","","instructions","11","86869","0.0-7.0","6001","","","","","","","","","","","","","","[{""page_index"":0,""viewing_time"":6001}]","","","","","","","","","","","",""
"","","","","","psychophysics","12","89234","0.0-8.0-0.0-0.0","1361","","k","","","","","","","","","","","","","key","k","6.338783197831974","768","428","f","false","img/C_28.png","自我","freeprac_self","",""
"","","","","","html-keyboard-response","13","89550","0.0-8.0-0.0-1.0","null","<span style='color:red; font-size: 70px;'>错误! </span>","null","","","","","","","","","","","","","","","","","","","","","","","feedback_test",""
"","","","","","psychophysics","14","92865","0.0-8.0-0.0-0.1","2313","","f","","","","","","","","","","","","","key","f","6.240111742424233","768","428","d","false","img/S_28.png","生人","freeprac_self","",""
"","","","","","html-keyboard-response","15","93166","0.0-8.0-0.0-1.1","null","<span style='color:red; font-size: 70px;'>错误! </span>","null","","","","","","","","","","","","","","","","","","","","","","","feedback_test",""
"","","","","","psychophysics","16","95633","0.0-8.0-0.0-0.2","1466","","j","","","","","","","","","","","","","key","j","6.2766530612245","768","428","k","false","img/H_28.png","自我","freeprac_self","",""
"","","","","","html-keyboard-response","17","95949","0.0-8.0-0.0-1.2","null","<span style='color:red; font-size: 70px;'>错误! </span>","null","","","","","","","","","","","","","","","","","","","","","","","feedback_test",""
"","","","","","psychophysics","18","99442","0.0-8.0-0.0-0.3","2491","","d","","","","","","","","","","","","","key","d","6.2623249097472815","768","428","d","true","img/C_28.png","朋友","freeprac_self","",""
"","","","","","html-keyboard-response","19","99746","0.0-8.0-0.0-1.3","null","<span style='color:GreenYellow; font-size: 70px;'>正确! </span>","null","","","","","","","","","","","","","","","","","","","","","","","feedback_test",""
"","","","","","psychophysics","20","102226","0.0-8.0-0.0-0.4","1478","","f","","","","","","","","","","","","","key","f","6.372118556701025","768","428","f","true","img/S_28.png","自我","freeprac_self","",""
"","","","","","html-keyboard-response","21","102539","0.0-8.0-0.0-1.4","null","<span style='color:GreenYellow; font-size: 70px;'>正确! </span>","null","","","","","","","","","","","","","","","","","","","","","","","feedback_test",""
"","","","","","psychophysics","22","104626","0.0-8.0-0.0-0.5","1086","","d","","","","","","","","","","","","","key","d","6.16754302670623","768","428","d","true","img/S_28.png","生人","freeprac_self","",""
"","","","","","html-keyboard-response","23","104934","0.0-8.0-0.0-1.5","null","<span style='color:GreenYellow; font-size: 70px;'>正确! </span>","null","","","","","","","","","","","","","","","","","","","","","","","feedback_test",""
"","","","","","psychophysics","24","107034","0.0-8.0-0.0-0.6","1099","","j","","","","","","","","","","","","","key","j","6.316740181268883","768","428","k","false","img/H_28.png","自我","freeprac_self","",""
"","","","","","html-keyboard-response","25","107336","0.0-8.0-0.0-1.6","null","<span style='color:red; font-size: 70px;'>错误! </span>","null","","","","","","","","","","","","","","","","","","","","","","","feedback_test",""
"","","","","","psychophysics","26","110649","0.0-8.0-0.0-0.7","2312","","j","","","","","","","","","","","","","key","j","6.302580952380972","768","428","j","true","img/H_28.png","生人","freeprac_self","",""
"","","","","","html-keyboard-response","27","110965","0.0-8.0-0.0-1.7","null","<span style='color:GreenYellow; font-size: 70px;'>正确! </span>","null","","","","","","","","","","","","","","","","","","","","","","","feedback_test",""
"","","","","","psychophysics","28","113265","0.0-8.0-0.0-0.8","1298","","j","","","","","","","","","","","","","key","j","6.253266483516479","768","428","j","true","img/H_28.png","朋友","freeprac_self","",""
"","","","","","html-keyboard-response","29","113581","0.0-8.0-0.0-1.8","null","<span style='color:GreenYellow; font-size: 70px;'>正确! </span>","null","","","","","","","","","","","","","","","","","","","","","","","feedback_test",""
"","","","","","psychophysics","30","116195","0.0-8.0-0.0-0.9","1612","","f","","","","","","","","","","","","","key","f","6.324893203883494","768","428","f","true","img/S_28.png","朋友","freeprac_self","",""
"","","","","","html-keyboard-response","31","116506","0.0-8.0-0.0-1.9","null","<span style='color:GreenYellow; font-size: 70px;'>正确! </span>","null","","","","","","","","","","","","","","","","","","","","","","","feedback_test",""
"","","","","","psychophysics","32","120258","0.0-8.0-0.0-0.10","2751","","f","","","","","","","","","","","","","key","f","6.210475953565508","768","428","f","true","img/C_28.png","生人","freeprac_self","",""
"","","","","","html-keyboard-response","33","120569","0.0-8.0-0.0-1.10","null","<span style='color:GreenYellow; font-size: 70px;'>正确! </span>","null","","","","","","","","","","","","","","","","","","","","","","","feedback_test",""
"","","","","","psychophysics","34","122762","0.0-8.0-0.0-0.11","1191","","d","","","","","","","","","","","","","key","d","6.411227138643076","768","428","d","true","img/C_28.png","朋友","freeprac_self","",""
"","","","","","html-keyboard-response","35","123075","0.0-8.0-0.0-1.11","null","<span style='color:GreenYellow; font-size: 70px;'>正确! </span>","null","","","","","","","","","","","","","","","","","","","","","","","feedback_test",""
"","","","","","html-keyboard-response","36","124338","0.0-8.0-1.0-0.0","1261","<style>.context{color:white; font-size: 35px; line-height:40px}</style>                              <div><p class='context'>您正确回答了67% 的试次。</p><p class='context'>您的平均反应时为1777毫秒。</p>"," ","","","","","","","","","","","","","","","","","","","","","","","",""
"","","","","","instructions","37","129010","0.0-8.0-1.0-1.0","4670","","","","","","","","","","","","","","[{""page_index"":0,""viewing_time"":1799},{""page_index"":1,""viewing_time"":1960},{""page_index"":2,""viewing_time"":912}]","","","","","","","","","","","",""
"","","","","","psychophysics","38","134195","0.0-8.1-0.1-0.12","4182","","f","","","","","","","","","","","","","key","f","6.2957201946471955","768","428","f","true","img/C_28.png","生人","freeprac_self","",""
"","","","","","html-keyboard-response","39","134506","0.0-8.1-0.1-1.12","null","<span style='color:GreenYellow; font-size: 70px;'>正确! </span>","null","","","","","","","","","","","","","","","","","","","","","","","feedback_test",""
"","","","","","psychophysics","40","136577","0.0-8.1-0.1-0.13","1068","","d","","","","","","","","","","","","","key","d","6.340080000000039","768","428","d","true","img/S_28.png","生人","freeprac_self","",""
"","","","","","html-keyboard-response","41","136885","0.0-8.1-0.1-1.13","null","<span style='color:GreenYellow; font-size: 70px;'>正确! </span>","null","","","","","","","","","","","","","","","","","","","","","","","feedback_test",""
"","","","","","psychophysics","42","141402","0.0-8.1-0.1-0.14","3515","","f","","","","","","","","","","","","","key","f","6.33218117977529","768","428","f","true","img/S_28.png","自我","freeprac_self","",""
"","","","","","html-keyboard-response","43","141713","0.0-8.1-0.1-1.14","null","<span style='color:GreenYellow; font-size: 70px;'>正确! </span>","null","","","","","","","","","","","","","","","","","","","","","","","feedback_test",""
"","","","","","psychophysics","44","144811","0.0-8.1-0.1-0.15","2092","","f","","","","","","","","","","","","","key","f","6.372588842975234","768","428","d","false","img/C_28.png","朋友","freeprac_self","",""
"","","","","","html-keyboard-response","45","145125","0.0-8.1-0.1-1.15","null","<span style='color:red; font-size: 70px;'>错误! </span>","null","","","","","","","","","","","","","","","","","","","","","","","feedback_test",""
"","","","","","psychophysics","46","148355","0.0-8.1-0.1-0.16","2228","","f","","","","","","","","","","","","","key","f","6.384579365079382","768","428","f","true","img/S_28.png","朋友","freeprac_self","",""
"","","","","","html-keyboard-response","47","148663","0.0-8.1-0.1-1.16","null","<span style='color:GreenYellow; font-size: 70px;'>正确! </span>","null","","","","","","","","","","","","","","","","","","","","","","","feedback_test",""
"","","","","","psychophysics","48","151443","0.0-8.1-0.1-0.17","1779","","j","","","","","","","","","","","","","key","j","6.419095348837233","768","428","j","true","img/H_28.png","朋友","freeprac_self","",""
"","","","","","html-keyboard-response","49","151759","0.0-8.1-0.1-1.17","null","<span style='color:GreenYellow; font-size: 70px;'>正确! </span>","null","","","","","","","","","","","","","","","","","","","","","","","feedback_test",""
"","","","","","psychophysics","50","154562","0.0-8.1-0.1-0.18","1801","","d","","","","","","","","","","","","","key","d","6.25000448430495","768","428","d","true","img/C_28.png","朋友","freeprac_self","",""
"","","","","","html-keyboard-response","51","154866","0.0-8.1-0.1-1.18","null","<span style='color:GreenYellow; font-size: 70px;'>正确! </span>","null","","","","","","","","","","","","","","","","","","","","","","","feedback_test",""
"","","","","","psychophysics","52","156890","0.0-8.1-0.1-0.19","1018","","d","","","","","","","","","","","","","key","d","6.386247619047635","768","428","d","true","img/S_28.png","生人","freeprac_self","",""
"","","","","","html-keyboard-response","53","157202","0.0-8.1-0.1-1.19","null","<span style='color:GreenYellow; font-size: 70px;'>正确! </span>","null","","","","","","","","","","","","","","","","","","","","","","","feedback_test",""
"","","","","","psychophysics","54","160361","0.0-8.1-0.1-0.20","2158","","j","","","","","","","","","","","","","key","j","6.340381048387092","768","428","j","true","img/H_28.png","生人","freeprac_self","",""
"","","","","","html-keyboard-response","55","160670","0.0-8.1-0.1-1.20","null","<span style='color:GreenYellow; font-size: 70px;'>正确! </span>","null","","","","","","","","","","","","","","","","","","","","","","","feedback_test",""
"","","","","","psychophysics","56","164442","0.0-8.1-0.1-0.21","2771","","f","","","","","","","","","","","","","key","f","6.189484349258636","768","428","f","true","img/C_28.png","自我","freeprac_self","",""
"","","","","","html-keyboard-response","57","164755","0.0-8.1-0.1-1.21","null","<span style='color:GreenYellow; font-size: 70px;'>正确! </span>","null","","","","","","","","","","","","","","","","","","","","","","","feedback_test",""
"","","","","","psychophysics","58","167249","0.0-8.1-0.1-0.22","1493","","k","","","","","","","","","","","","","key","k","6.386686375321342","768","428","k","true","img/H_28.png","自我","freeprac_self","",""
"","","","","","html-keyboard-response","59","167557","0.0-8.1-0.1-1.22","null","<span style='color:GreenYellow; font-size: 70px;'>正确! </span>","null","","","","","","","","","","","","","","","","","","","","","","","feedback_test",""
"","","","","","psychophysics","60","169674","0.0-8.1-0.1-0.23","1111","","k","","","","","","","","","","","","","key","k","6.249561194029859","768","428","k","true","img/H_28.png","自我","freeprac_self","",""
"","","","","","html-keyboard-response","61","169990","0.0-8.1-0.1-1.23","null","<span style='color:GreenYellow; font-size: 70px;'>正确! </span>","null","","","","","","","","","","","","","","","","","","","","","","","feedback_test",""
"","","","","","html-keyboard-response","62","171345","0.0-9.0","1354","[""<style>.context{color:white; font-size: 35px; line-height:40px}</style>              <div><p class='context'>您正确回答了92% 的试次。</p><p class='context'>您的平均反应时为2102毫秒。</p><p class='context'>恭喜您完成这一阶段的练习。按任意键进入<span style='color: yellow;'>重点关注图形为“朋友”</span>的练习。</p></div><p class='footer' style='font-size:35px; line-height:30px;'>任务要求：\n              <p class='footer' style='font-size:35px; line-height:35px;'>对于与“朋友”对应的图形：如果 匹配 ，请按 <span style=\""color: lightgreen;\"">k键</span></p><p class='footer' style='font-size:35px'>如果 不匹配 ，请按<span style=\""color: lightgreen;\"">j键</p></span>\n              <p class='footer' style='font-size:35px; line-height:35px;'>对于非“朋友”对应的图形：如果 匹配 ，请按 <span style=\""color: lightgreen;\"">d键</span></p><p class='footer' style='font-size:35px'>如果 不匹配 ，请按<span style=\""color: lightgreen;\"">f键</p></span>\n              <p class='footer' style='font-size:22px; line-height:25px;'>请在实验过程中将您的<span style=\""color: lightgreen;\"">食指和中指</span>放在电脑键盘的相应键位上进行按键。</p></span>""]"," ","","","","","","","","","","","","","","","","","","","","","","","",""
"","","","","","psychophysics","63","173106","0.0-10.0-0.0-0.0","757","","k","","","","","","","","","","","","","key","k","6.4383970588235515","768","428","f","false","img/H_28.png","生人","freeprac_friend","",""
"","","","","","html-keyboard-response","64","173413","0.0-10.0-0.0-1.0","null","<span style='color:red; font-size: 70px;'>错误! </span>","null","","","","","","","","","","","","","","","","","","","","","","","feedback_test",""
"","","","","","psychophysics","65","178345","0.0-10.0-0.0-0.1","3930","","d","","","","","","","","","","","","","key","d","6.4313838120104085","768","428","d","true","img/S_28.png","生人","freeprac_friend","",""
"","","","","","html-keyboard-response","66","178656","0.0-10.0-0.0-1.1","null","<span style='color:GreenYellow; font-size: 70px;'>正确! </span>","null","","","","","","","","","","","","","","","","","","","","","","","feedback_test",""
"","","","","","psychophysics","67","180825","0.0-10.0-0.0-0.2","1168","","k","","","","","","","","","","","","","key","k","6.217097982708888","768","428","d","false","img/H_28.png","自我","freeprac_friend","",""
"","","","","","html-keyboard-response","68","181127","0.0-10.0-0.0-1.2","null","<span style='color:red; font-size: 70px;'>错误! </span>","null","","","","","","","","","","","","","","","","","","","","","","","feedback_test",""
"","","","","","psychophysics","69","183377","0.0-10.0-0.0-0.3","1249","","k","","","","","","","","","","","","","key","k","6.1596456043956165","768","428","k","true","img/C_28.png","朋友","freeprac_friend","",""
"","","","","","html-keyboard-response","70","183682","0.0-10.0-0.0-1.3","null","<span style='color:GreenYellow; font-size: 70px;'>正确! </span>","null","","","","","","","","","","","","","","","","","","","","","","","feedback_test",""
"","","","","","psychophysics","71","188873","0.0-10.0-0.0-0.4","4188","","f","","","","","","","","","","","","","key","f","6.2876529126213745","768","428","f","true","img/S_28.png","自我","freeprac_friend","",""
"","","","","","html-keyboard-response","72","189186","0.0-10.0-0.0-1.4","null","<span style='color:GreenYellow; font-size: 70px;'>正确! </span>","null","","","","","","","","","","","","","","","","","","","","","","","feedback_test",""
"","","","","","psychophysics","73","193560","0.0-10.0-0.0-0.5","3373","","j","","","","","","","","","","","","","key","j","6.251014326647583","768","428","j","true","img/C_28.png","生人","freeprac_friend","",""
"","","","","","html-keyboard-response","74","193877","0.0-10.0-0.0-1.5","null","<span style='color:GreenYellow; font-size: 70px;'>正确! </span>","null","","","","","","","","","","","","","","","","","","","","","","","feedback_test",""
"","","","","","psychophysics","75","197097","0.0-10.0-0.0-0.6","2219","","f","","","","","","","","","","","","","key","f","6.411805999999983","768","428","f","true","img/H_28.png","朋友","freeprac_friend","",""
"","","","","","html-keyboard-response","76","197413","0.0-10.0-0.0-1.6","null","<span style='color:GreenYellow; font-size: 70px;'>正确! </span>","null","","","","","","","","","","","","","","","","","","","","","","","feedback_test",""
"","","","","","psychophysics","77","201458","0.0-10.0-0.0-0.7","3044","","j","","","","","","","","","","","","","key","j","6.406717011128748","768","428","j","true","img/C_28.png","自我","freeprac_friend","",""
"","","","","","html-keyboard-response","78","201766","0.0-10.0-0.0-1.7","null","<span style='color:GreenYellow; font-size: 70px;'>正确! </span>","null","","","","","","","","","","","","","","","","","","","","","","","feedback_test",""
"","","","","","psychophysics","79","204257","0.0-10.0-0.0-0.8","1485","","d","","","","","","","","","","","","","key","d","6.089474201474196","768","428","d","true","img/S_28.png","生人","freeprac_friend","",""
"","","","","","html-keyboard-response","80","204565","0.0-10.0-0.0-1.8","null","<span style='color:GreenYellow; font-size: 70px;'>正确! </span>","null","","","","","","","","","","","","","","","","","","","","","","","feedback_test",""
"","","","","","psychophysics","81","206986","0.0-10.0-0.0-0.9","1419","","k","","","","","","","","","","","","","key","k","6.2808984374999755","768","428","k","true","img/C_28.png","朋友","freeprac_friend","",""
"","","","","","html-keyboard-response","82","207295","0.0-10.0-0.0-1.9","null","<span style='color:GreenYellow; font-size: 70px;'>正确! </span>","null","","","","","","","","","","","","","","","","","","","","","","","feedback_test",""
"","","","","","psychophysics","83","210289","0.0-10.0-0.0-0.10","1991","","d","","","","","","","","","","","","","key","d","6.4116688172043155","768","428","d","true","img/H_28.png","自我","freeprac_friend","",""
"","","","","","html-keyboard-response","84","210601","0.0-10.0-0.0-1.10","null","<span style='color:GreenYellow; font-size: 70px;'>正确! </span>","null","","","","","","","","","","","","","","","","","","","","","","","feedback_test",""
"","","","","","psychophysics","85","214034","0.0-10.0-0.0-0.11","2433","","f","","","","","","","","","","","","","key","f","6.424381578947384","768","428","f","true","img/S_28.png","朋友","freeprac_friend","",""
"","","","","","html-keyboard-response","86","214342","0.0-10.0-0.0-1.11","null","<span style='color:GreenYellow; font-size: 70px;'>正确! </span>","null","","","","","","","","","","","","","","","","","","","","","","","feedback_test",""
"","","","","","html-keyboard-response","87","228833","0.0-11.0","14488","[""<style>.context{color:white; font-size: 35px; line-height:40px}</style>                  <div><p class='context'>您正确回答了83% 的试次。</p><p class='context'>您的平均反应时为2533毫秒。</p><p class='context'>恭喜您完成这一阶段的练习。按任意键进入<span style='color: yellow;'>重点关注图形为“生人”</span>的练习。</p></div><p class='footer' style='font-size:35px; line-height:30px;'>任务要求：\n                  <p class='footer' style='font-size:35px; line-height:35px;'>对与“生人”对应的图形，如果 匹配 ，请按 <span style=\""color: lightgreen;\"">k键</span></p><p class='footer' style='font-size:35px'>如果 不匹配 ，请按<span style=\""color: lightgreen;\"">j键</p></span>\n                  <p class='footer' style='font-size:35px; line-height:35px;'>对非“生人”对应的图形，如果 匹配 ，请按 <span style=\""color: lightgreen;\"">d键</span></p><p class='footer' style='font-size:35px'>如果 不匹配 ，请按<span style=\""color: lightgreen;\"">f键</p></span>\n                  <p class='footer' style='font-size:22px; line-height:25px;'>请在实验过程中将您的<span style=\""color: lightgreen;\"">食指和中指</span>放在电脑键盘的相应键位上进行按键。</p></span>""]"," ","","","","","","","","","","","","","","","","","","","","","","","",""
"","","","","","psychophysics","88","232705","0.0-12.0-0.0-0.0","2868","","d","","","","","","","","","","","","","key","d","6.380489256198341","768","428","d","true","img/C_28.png","朋友","freeprac_stranger","",""
"","","","","","html-keyboard-response","89","233013","0.0-12.0-0.0-1.0","null","<span style='color:GreenYellow; font-size: 70px;'>正确! </span>","null","","","","","","","","","","","","","","","","","","","","","","","feedback_test",""
"","","","","","psychophysics","90","236377","0.0-12.0-0.0-0.1","2362","","j","","","","","","","","","","","","","key","j","6.224457089552255","768","428","j","true","img/S_28.png","朋友","freeprac_stranger","",""
"","","","","","html-keyboard-response","91","236686","0.0-12.0-0.0-1.1","null","<span style='color:GreenYellow; font-size: 70px;'>正确! </span>","null","","","","","","","","","","","","","","","","","","","","","","","feedback_test",""
"","","","","","psychophysics","92","239321","0.0-12.0-0.0-0.2","1634","","d","","","","","","","","","","","","","key","d","6.188594339622658","768","428","f","false","img/C_28.png","自我","freeprac_stranger","",""
"","","","","","html-keyboard-response","93","239631","0.0-12.0-0.0-1.2","null","<span style='color:red; font-size: 70px;'>错误! </span>","null","","","","","","","","","","","","","","","","","","","","","","","feedback_test",""
"","","","","","psychophysics","94","242889","0.0-12.0-0.0-0.3","2258","","f","","","","","","","","","","","","","key","f","6.116527306967964","768","428","f","true","img/C_28.png","生人","freeprac_stranger","",""
"","","","","","html-keyboard-response","95","243199","0.0-12.0-0.0-1.3","null","<span style='color:GreenYellow; font-size: 70px;'>正确! </span>","null","","","","","","","","","","","","","","","","","","","","","","","feedback_test",""
"","","","","","psychophysics","96","245995","0.0-12.0-0.0-0.4","1795","","d","","","","","","","","","","","","","key","d","6.1634111111110546","768","428","d","true","img/H_28.png","自我","freeprac_stranger","",""
"","","","","","html-keyboard-response","97","246307","0.0-12.0-0.0-1.4","null","<span style='color:GreenYellow; font-size: 70px;'>正确! </span>","null","","","","","","","","","","","","","","","","","","","","","","","feedback_test",""
"","","","","","psychophysics","98","250033","0.0-12.0-0.0-0.5","2725","","k","","","","","","","","","","","","","key","k","6.109316912972075","768","428","d","false","img/C_28.png","朋友","freeprac_stranger","",""
"","","","","","html-keyboard-response","99","250349","0.0-12.0-0.0-1.5","null","<span style='color:red; font-size: 70px;'>错误! </span>","null","","","","","","","","","","","","","","","","","","","","","","","feedback_test",""
"","","","","","psychophysics","100","253385","0.0-12.0-0.0-0.6","2034","","f","","","","","","","","","","","","","key","f","6.084172690763004","768","428","f","true","img/H_28.png","生人","freeprac_stranger","",""
"","","","","","html-keyboard-response","101","253696","0.0-12.0-0.0-1.6","null","<span style='color:GreenYellow; font-size: 70px;'>正确! </span>","null","","","","","","","","","","","","","","","","","","","","","","","feedback_test",""
"","","","","","psychophysics","102","256595","0.0-12.0-0.0-0.7","1897","","f","","","","","","","","","","","","","key","f","6.379218061674027","768","428","k","false","img/S_28.png","生人","freeprac_stranger","",""
"","","","","","html-keyboard-response","103","256899","0.0-12.0-0.0-1.7","null","<span style='color:red; font-size: 70px;'>错误! </span>","null","","","","","","","","","","","","","","","","","","","","","","","feedback_test",""
"","","","","","psychophysics","104","259440","0.0-12.0-0.0-0.8","1540","","k","","","","","","","","","","","","","key","k","6.239000000000035","768","428","k","true","img/S_28.png","生人","freeprac_stranger","",""
"","","","","","html-keyboard-response","105","259751","0.0-12.0-0.0-1.8","null","<span style='color:GreenYellow; font-size: 70px;'>正确! </span>","null","","","","","","","","","","","","","","","","","","","","","","","feedback_test",""
"","","","","","psychophysics","106","262392","0.0-12.0-0.0-0.9","1640","","d","","","","","","","","","","","","","key","d","6.382012106537549","768","428","d","true","img/H_28.png","自我","freeprac_stranger","",""
"","","","","","html-keyboard-response","107","262698","0.0-12.0-0.0-1.9","null","<span style='color:GreenYellow; font-size: 70px;'>正确! </span>","null","","","","","","","","","","","","","","","","","","","","","","","feedback_test",""
"","","","","","psychophysics","108","265904","0.0-12.0-0.0-0.10","2205","","j","","","","","","","","","","","","","key","j","6.373994023904373","768","428","j","true","img/S_28.png","自我","freeprac_stranger","",""
"","","","","","html-keyboard-response","109","266218","0.0-12.0-0.0-1.10","null","<span style='color:GreenYellow; font-size: 70px;'>正确! </span>","null","","","","","","","","","","","","","","","","","","","","","","","feedback_test",""
"","","","","","psychophysics","110","270907","0.0-12.0-0.0-0.11","3685","","f","","","","","","","","","","","","","key","f","6.42610714285715","768","428","f","true","img/H_28.png","朋友","freeprac_stranger","",""
"","","","","","html-keyboard-response","111","271212","0.0-12.0-0.0-1.11","null","<span style='color:GreenYellow; font-size: 70px;'>正确! </span>","null","","","","","","","","","","","","","","","","","","","","","","","feedback_test",""
"","","","","","instructions","112","283975","0.0-13.0","12762","","","","","","","","","","","","","","[{""page_index"":0,""viewing_time"":12762}]","","","","","","","","","","","",""
"","","","","","psychophysics","113","286024","0.0-14.0-0.0-0.0","1048","","j","","","","","","","","","","","","","key","j","6.381637500000034","768","428","d","false","img/S_28.png","生人","prac_self","","生人"
"","","","","","html-keyboard-response","114","286335","0.0-14.0-0.0-1.0","null","<span style='color:red; font-size: 70px;'>错误! </span>","null","","","","","","","","","","","","","","","","","","","","","","","feedback_test",""
"","","","","","psychophysics","115","288522","0.0-14.0-0.0-0.1","1186","","f","","","","","","","","","","","","","key","f","6.0599303621168685","768","428","d","false","img/C_28.png","朋友","prac_self","","朋友"
"","","","","","html-keyboard-response","116","288825","0.0-14.0-0.0-1.1","null","<span style='color:red; font-size: 70px;'>错误! </span>","null","","","","","","","","","","","","","","","","","","","","","","","feedback_test",""
"","","","","","psychophysics","117","290960","0.0-14.0-0.0-0.2","1135","","f","","","","","","","","","","","","","key","f","6.330901492537354","768","428","f","true","img/C_28.png","生人","prac_self","","朋友"
"","","","","","html-keyboard-response","118","291268","0.0-14.0-0.0-1.2","null","<span style='color:GreenYellow; font-size: 70px;'>正确! </span>","null","","","","","","","","","","","","","","","","","","","","","","","feedback_test",""
"","","","","","psychophysics","119","293698","0.0-14.0-0.0-0.3","1430","","j","","","","","","","","","","","","","key","j","6.090498740554192","768","428","f","false","img/S_28.png","自我","prac_self","","生人"
"","","","","","html-keyboard-response","120","294014","0.0-14.0-0.0-1.3","null","<span style='color:red; font-size: 70px;'>错误! </span>","null","","","","","","","","","","","","","","","","","","","","","","","feedback_test",""
"","","","","","psychophysics","121","296517","0.0-14.0-0.0-0.4","null","","null","","","","","","","","","","","","","key","null","6.370066496163673","768","428","d","false","img/C_28.png","朋友","prac_self","","朋友"
"","","","","","html-keyboard-response","122","296832","0.0-14.0-0.0-1.4","null","<span class='add_' style='color:yellow; font-size: 70px;'> 太慢! </span>","null","","","","","","","","","","","","","","","","","","","","","","","feedback_test",""
"","","","","","psychophysics","123","298872","0.0-14.0-0.0-0.5","1037","","d","","","","","","","","","","","","","key","d","6.3241619937695965","768","428","k","false","img/H_28.png","自我","prac_self","","自我"
"","","","","","html-keyboard-response","124","299178","0.0-14.0-0.0-1.5","null","<span style='color:red; font-size: 70px;'>错误! </span>","null","","","","","","","","","","","","","","","","","","","","","","","feedback_test",""
"","","","","","psychophysics","125","301451","0.0-14.0-0.0-0.6","1271","","f","","","","","","","","","","","","","key","f","6.059743315508131","768","428","j","false","img/H_28.png","朋友","prac_self","","自我"
"","","","","","html-keyboard-response","126","301761","0.0-14.0-0.0-1.6","null","<span style='color:red; font-size: 70px;'>错误! </span>","null","","","","","","","","","","","","","","","","","","","","","","","feedback_test",""
"","","","","","psychophysics","127","303864","0.0-14.0-0.0-0.7","1102","","d","","","","","","","","","","","","","key","d","6.240794029850652","768","428","d","true","img/S_28.png","生人","prac_self","","生人"
"","","","","","html-keyboard-response","128","304177","0.0-14.0-0.0-1.7","null","<span style='color:GreenYellow; font-size: 70px;'>正确! </span>","null","","","","","","","","","","","","","","","","","","","","","","","feedback_test",""
"","","","","","psychophysics","129","306152","0.0-14.0-0.0-0.8","973","","k","","","","","","","","","","","","","key","k","6.437154098360639","768","428","k","true","img/H_28.png","自我","prac_self","","自我"
"","","","","","html-keyboard-response","130","306467","0.0-14.0-0.0-1.8","null","<span style='color:GreenYellow; font-size: 70px;'>正确! </span>","null","","","","","","","","","","","","","","","","","","","","","","","feedback_test",""
"","","","","","psychophysics","131","308593","0.0-14.0-0.0-0.9","1123","","f","","","","","","","","","","","","","key","f","6.4283434650455575","768","428","f","true","img/C_28.png","自我","prac_self","","朋友"
"","","","","","html-keyboard-response","132","308894","0.0-14.0-0.0-1.9","null","<span style='color:GreenYellow; font-size: 70px;'>正确! </span>","null","","","","","","","","","","","","","","","","","","","","","","","feedback_test",""
"","","","","","psychophysics","133","311072","0.0-14.0-0.0-0.10","1175","","d","","","","","","","","","","","","","key","d","6.363061764705858","768","428","f","false","img/S_28.png","朋友","prac_self","","生人"
"","","","","","html-keyboard-response","134","311384","0.0-14.0-0.0-1.10","null","<span style='color:red; font-size: 70px;'>错误! </span>","null","","","","","","","","","","","","","","","","","","","","","","","feedback_test",""
"","","","","","psychophysics","135","313816","0.0-14.0-0.0-0.11","1431","","j","","","","","","","","","","","","","key","j","6.279877922077839","768","428","j","true","img/H_28.png","生人","prac_self","","自我"
"","","","","","html-keyboard-response","136","314128","0.0-14.0-0.0-1.11","null","<span style='color:GreenYellow; font-size: 70px;'>正确! </span>","null","","","","","","","","","","","","","","","","","","","","","","","feedback_test",""
"","","","","","psychophysics","137","316200","0.0-14.0-0.0-0.12","1068","","j","","","","","","","","","","","","","key","j","6.414553125000021","768","428","j","true","img/H_28.png","生人","prac_self","","自我"
"","","","","","html-keyboard-response","138","316512","0.0-14.0-0.0-1.12","null","<span style='color:GreenYellow; font-size: 70px;'>正确! </span>","null","","","","","","","","","","","","","","","","","","","","","","","feedback_test",""
"","","","","","psychophysics","139","318585","0.0-14.0-0.0-0.13","1071","","d","","","","","","","","","","","","","key","d","6.281246951219545","768","428","f","false","img/S_28.png","自我","prac_self","","生人"
"","","","","","html-keyboard-response","140","318892","0.0-14.0-0.0-1.13","null","<span style='color:red; font-size: 70px;'>错误! </span>","null","","","","","","","","","","","","","","","","","","","","","","","feedback_test",""
"","","","","","psychophysics","141","320986","0.0-14.0-0.0-0.14","1092","","d","","","","","","","","","","","","","key","d","6.316487878788029","768","428","f","false","img/S_28.png","朋友","prac_self","","生人"
"","","","","","html-keyboard-response","142","321291","0.0-14.0-0.0-1.14","null","<span style='color:red; font-size: 70px;'>错误! </span>","null","","","","","","","","","","","","","","","","","","","","","","","feedback_test",""
"","","","","","psychophysics","143","323312","0.0-14.0-0.0-0.15","1021","","k","","","","","","","","","","","","","key","k","6.343858490566066","768","428","k","true","img/H_28.png","自我","prac_self","","自我"
"","","","","","html-keyboard-response","144","323626","0.0-14.0-0.0-1.15","null","<span style='color:GreenYellow; font-size: 70px;'>正确! </span>","null","","","","","","","","","","","","","","","","","","","","","","","feedback_test",""
"","","","","","psychophysics","145","325624","0.0-14.0-0.0-0.16","991","","d","","","","","","","","","","","","","key","d","6.413161812297598","768","428","d","true","img/S_28.png","生人","prac_self","","生人"
"","","","","","html-keyboard-response","146","325927","0.0-14.0-0.0-1.16","null","<span style='color:GreenYellow; font-size: 70px;'>正确! </span>","null","","","","","","","","","","","","","","","","","","","","","","","feedback_test",""
"","","","","","psychophysics","147","328216","0.0-14.0-0.0-0.17","1287","","d","","","","","","","","","","","","","key","d","6.22471857923506","768","428","f","false","img/C_28.png","生人","prac_self","","朋友"
"","","","","","html-keyboard-response","148","328530","0.0-14.0-0.0-1.17","null","<span style='color:red; font-size: 70px;'>错误! </span>","null","","","","","","","","","","","","","","","","","","","","","","","feedback_test",""
"","","","","","psychophysics","149","330433","0.0-14.0-0.0-0.18","902","","d","","","","","","","","","","","","","key","d","6.323030000000144","768","428","d","true","img/C_28.png","朋友","prac_self","","朋友"
"","","","","","html-keyboard-response","150","330735","0.0-14.0-0.0-1.18","null","<span style='color:GreenYellow; font-size: 70px;'>正确! </span>","null","","","","","","","","","","","","","","","","","","","","","","","feedback_test",""
"","","","","","psychophysics","151","332474","0.0-14.0-0.0-0.19","734","","f","","","","","","","","","","","","","key","f","6.081056338028235","768","428","f","true","img/C_28.png","自我","prac_self","","朋友"
"","","","","","html-keyboard-response","152","332775","0.0-14.0-0.0-1.19","null","<span style='color:GreenYellow; font-size: 70px;'>正确! </span>","null","","","","","","","","","","","","","","","","","","","","","","","feedback_test",""
"","","","","","psychophysics","153","334792","0.0-14.0-0.0-0.20","1015","","j","","","","","","","","","","","","","key","j","6.367882539682452","768","428","j","true","img/H_28.png","朋友","prac_self","","自我"
"","","","","","html-keyboard-response","154","335096","0.0-14.0-0.0-1.20","null","<span style='color:GreenYellow; font-size: 70px;'>正确! </span>","null","","","","","","","","","","","","","","","","","","","","","","","feedback_test",""
"","","","","","psychophysics","155","337073","0.0-14.0-0.0-0.21","977","","k","","","","","","","","","","","","","key","k","6.2727859424921455","768","428","k","true","img/H_28.png","自我","prac_self","","自我"
"","","","","","html-keyboard-response","156","337387","0.0-14.0-0.0-1.21","null","<span style='color:GreenYellow; font-size: 70px;'>正确! </span>","null","","","","","","","","","","","","","","","","","","","","","","","feedback_test",""
"","","","","","psychophysics","157","339592","0.0-14.0-0.0-0.22","1203","","d","","","","","","","","","","","","","key","d","6.214235127478753","768","428","d","true","img/C_28.png","朋友","prac_self","","朋友"
"","","","","","html-keyboard-response","158","339900","0.0-14.0-0.0-1.22","null","<span style='color:GreenYellow; font-size: 70px;'>正确! </span>","null","","","","","","","","","","","","","","","","","","","","","","","feedback_test",""
"","","","","","psychophysics","159","341904","0.0-14.0-0.0-0.23","1001","","d","","","","","","","","","","","","","key","d","6.303628571428514","768","428","d","true","img/S_28.png","生人","prac_self","","生人"
"","","","","","html-keyboard-response","160","342209","0.0-14.0-0.0-1.23","null","<span style='color:GreenYellow; font-size: 70px;'>正确! </span>","null","","","","","","","","","","","","","","","","","","","","","","","feedback_test",""
"","","","","","html-keyboard-response","161","343680","0.0-14.0-1.0-0.0","1470","<style>.context{color:white; font-size: 35px; line-height:40px}</style>                              <div><p class='context'>您正确回答了58% 的试次。</p><p class='context'>您的平均反应时为1048毫秒。</p>"," ","","","","","","","","","","","","","","","","","","","","","","","",""
"","","","","","instructions","162","355292","0.0-14.0-1.0-1.0","11610","","","","","","","","","","","","","","[{""page_index"":0,""viewing_time"":2459},{""page_index"":1,""viewing_time"":7834},{""page_index"":2,""viewing_time"":1318}]","","","","","","","","","","","",""
"","","","","","psychophysics","163","357145","0.0-14.1-0.1-0.24","851","","j","","","","","","","","","","","","","key","j","6.4424035087717995","768","428","j","true","img/H_28.png","生人","prac_self","","自我"
"","","","","","html-keyboard-response","164","357450","0.0-14.1-0.1-1.24","null","<span style='color:GreenYellow; font-size: 70px;'>正确! </span>","null","","","","","","","","","","","","","","","","","","","","","","","feedback_test",""
"","","","","","psychophysics","165","359682","0.0-14.1-0.1-0.25","1231","","f","","","","","","","","","","","","","key","f","6.408729106628152","768","428","f","true","img/C_28.png","生人","prac_self","","朋友"
"","","","","","html-keyboard-response","166","359987","0.0-14.1-0.1-1.25","null","<span style='color:GreenYellow; font-size: 70px;'>正确! </span>","null","","","","","","","","","","","","","","","","","","","","","","","feedback_test",""
"","","","","","psychophysics","167","362090","0.0-14.1-0.1-0.26","1101","","k","","","","","","","","","","","","","key","k","6.372963525835916","768","428","k","true","img/H_28.png","自我","prac_self","","自我"
"","","","","","html-keyboard-response","168","362400","0.0-14.1-0.1-1.26","null","<span style='color:GreenYellow; font-size: 70px;'>正确! </span>","null","","","","","","","","","","","","","","","","","","","","","","","feedback_test",""
"","","","","","psychophysics","169","364289","0.0-14.1-0.1-0.27","888","","d","","","","","","","","","","","","","key","d","6.295420875420844","768","428","f","false","img/S_28.png","朋友","prac_self","","生人"
"","","","","","html-keyboard-response","170","364599","0.0-14.1-0.1-1.27","null","<span style='color:red; font-size: 70px;'>错误! </span>","null","","","","","","","","","","","","","","","","","","","","","","","feedback_test",""
"","","","","","psychophysics","171","366865","0.0-14.1-0.1-0.28","1265","","f","","","","","","","","","","","","","key","f","6.347878531073378","768","428","f","true","img/S_28.png","自我","prac_self","","生人"
"","","","","","html-keyboard-response","172","367180","0.0-14.1-0.1-1.28","null","<span style='color:GreenYellow; font-size: 70px;'>正确! </span>","null","","","","","","","","","","","","","","","","","","","","","","","feedback_test",""
"","","","","","psychophysics","173","369201","0.0-14.1-0.1-0.29","1018","","d","","","","","","","","","","","","","key","d","6.229692546583883","768","428","d","true","img/S_28.png","生人","prac_self","","生人"
"","","","","","html-keyboard-response","174","369504","0.0-14.1-0.1-1.29","null","<span style='color:GreenYellow; font-size: 70px;'>正确! </span>","null","","","","","","","","","","","","","","","","","","","","","","","feedback_test",""
"","","","","","psychophysics","175","371497","0.0-14.1-0.1-0.30","992","","k","","","","","","","","","","","","","key","k","6.27020886075949","768","428","k","true","img/H_28.png","自我","prac_self","","自我"
"","","","","","html-keyboard-response","176","371811","0.0-14.1-0.1-1.30","null","<span style='color:GreenYellow; font-size: 70px;'>正确! </span>","null","","","","","","","","","","","","","","","","","","","","","","","feedback_test",""
"","","","","","psychophysics","177","373840","0.0-14.1-0.1-0.31","1027","","d","","","","","","","","","","","","","key","d","6.300890282131651","768","428","d","true","img/C_28.png","朋友","prac_self","","朋友"
"","","","","","html-keyboard-response","178","374151","0.0-14.1-0.1-1.31","null","<span style='color:GreenYellow; font-size: 70px;'>正确! </span>","null","","","","","","","","","","","","","","","","","","","","","","","feedback_test",""
"","","","","","psychophysics","179","376161","0.0-14.1-0.1-0.32","1010","","d","","","","","","","","","","","","","key","d","6.308560126582293","768","428","d","true","img/C_28.png","朋友","prac_self","","朋友"
"","","","","","html-keyboard-response","180","376473","0.0-14.1-0.1-1.32","null","<span style='color:GreenYellow; font-size: 70px;'>正确! </span>","null","","","","","","","","","","","","","","","","","","","","","","","feedback_test",""
"","","","","","psychophysics","181","378672","0.0-14.1-0.1-0.33","1198","","d","","","","","","","","","","","","","key","d","6.433729411764687","768","428","j","false","img/H_28.png","朋友","prac_self","","自我"
"","","","","","html-keyboard-response","182","378975","0.0-14.1-0.1-1.33","null","<span style='color:red; font-size: 70px;'>错误! </span>","null","","","","","","","","","","","","","","","","","","","","","","","feedback_test",""
"","","","","","psychophysics","183","380873","0.0-14.1-0.1-0.34","897","","d","","","","","","","","","","","","","key","d","6.059313099041541","768","428","d","true","img/S_28.png","生人","prac_self","","生人"
"","","","","","html-keyboard-response","184","381186","0.0-14.1-0.1-1.34","null","<span style='color:GreenYellow; font-size: 70px;'>正确! </span>","null","","","","","","","","","","","","","","","","","","","","","","","feedback_test",""
"","","","","","psychophysics","185","383179","0.0-14.1-0.1-0.35","991","","f","","","","","","","","","","","","","key","f","6.330552715654917","768","428","f","true","img/C_28.png","自我","prac_self","","朋友"
"","","","","","html-keyboard-response","186","383485","0.0-14.1-0.1-1.35","null","<span style='color:GreenYellow; font-size: 70px;'>正确! </span>","null","","","","","","","","","","","","","","","","","","","","","","","feedback_test",""
"","","","","","psychophysics","187","385505","0.0-14.1-0.1-0.36","1017","","k","","","","","","","","","","","","","key","k","6.449832797427609","768","428","k","true","img/H_28.png","自我","prac_self","","自我"
"","","","","","html-keyboard-response","188","385808","0.0-14.1-0.1-1.36","null","<span style='color:GreenYellow; font-size: 70px;'>正确! </span>","null","","","","","","","","","","","","","","","","","","","","","","","feedback_test",""
"","","","","","psychophysics","189","387697","0.0-14.1-0.1-0.37","886","","d","","","","","","","","","","","","","key","d","6.3248087248322316","768","428","f","false","img/S_28.png","朋友","prac_self","","生人"
"","","","","","html-keyboard-response","190","388006","0.0-14.1-0.1-1.37","null","<span style='color:red; font-size: 70px;'>错误! </span>","null","","","","","","","","","","","","","","","","","","","","","","","feedback_test",""
"","","","","","psychophysics","191","390081","0.0-14.1-0.1-0.38","1073","","j","","","","","","","","","","","","","key","j","6.3974365325078395","768","428","j","true","img/H_28.png","生人","prac_self","","自我"
"","","","","","html-keyboard-response","192","390397","0.0-14.1-0.1-1.38","null","<span style='color:GreenYellow; font-size: 70px;'>正确! </span>","null","","","","","","","","","","","","","","","","","","","","","","","feedback_test",""
"","","","","","psychophysics","193","392901","0.0-14.1-0.1-0.39","null","","null","","","","","","","","","","","","","key","null","6.434914728682259","768","428","d","false","img/C_28.png","朋友","prac_self","","朋友"
"","","","","","html-keyboard-response","194","393206","0.0-14.1-0.1-1.39","null","<span class='add_' style='color:yellow; font-size: 70px;'> 太慢! </span>","null","","","","","","","","","","","","","","","","","","","","","","","feedback_test",""
"","","","","","psychophysics","195","395073","0.0-14.1-0.1-0.40","866","","d","","","","","","","","","","","","","key","d","6.439701388888959","768","428","d","true","img/S_28.png","生人","prac_self","","生人"
"","","","","","html-keyboard-response","196","395389","0.0-14.1-0.1-1.40","null","<span style='color:GreenYellow; font-size: 70px;'>正确! </span>","null","","","","","","","","","","","","","","","","","","","","","","","feedback_test",""
"","","","","","psychophysics","197","397729","0.0-14.1-0.1-0.41","1338","","j","","","","","","","","","","","","","key","j","6.305788617886207","768","428","f","false","img/S_28.png","自我","prac_self","","生人"
"","","","","","html-keyboard-response","198","398040","0.0-14.1-0.1-1.41","null","<span style='color:red; font-size: 70px;'>错误! </span>","null","","","","","","","","","","","","","","","","","","","","","","","feedback_test",""
"","","","","","psychophysics","199","400097","0.0-14.1-0.1-0.42","1056","","j","","","","","","","","","","","","","key","j","6.095949253731463","768","428","k","false","img/H_28.png","自我","prac_self","","自我"
"","","","","","html-keyboard-response","200","400398","0.0-14.1-0.1-1.42","null","<span style='color:red; font-size: 70px;'>错误! </span>","null","","","","","","","","","","","","","","","","","","","","","","","feedback_test",""
"","","","","","psychophysics","201","402400","0.0-14.1-0.1-0.43","997","","j","","","","","","","","","","","","","key","j","6.309284810126572","768","428","j","true","img/H_28.png","朋友","prac_self","","自我"
"","","","","","html-keyboard-response","202","402716","0.0-14.1-0.1-1.43","null","<span style='color:GreenYellow; font-size: 70px;'>正确! </span>","null","","","","","","","","","","","","","","","","","","","","","","","feedback_test",""
"","","","","","psychophysics","203","404824","0.0-14.1-0.1-0.44","1106","","f","","","","","","","","","","","","","key","f","6.430892638036691","768","428","d","false","img/C_28.png","朋友","prac_self","","朋友"
"","","","","","html-keyboard-response","204","405130","0.0-14.1-0.1-1.44","null","<span style='color:red; font-size: 70px;'>错误! </span>","null","","","","","","","","","","","","","","","","","","","","","","","feedback_test",""
"","","","","","psychophysics","205","407017","0.0-14.1-0.1-0.45","878","","f","","","","","","","","","","","","","key","f","6.433082191780894","768","428","f","true","img/C_28.png","自我","prac_self","","朋友"
"","","","","","html-keyboard-response","206","407324","0.0-14.1-0.1-1.45","null","<span style='color:GreenYellow; font-size: 70px;'>正确! </span>","null","","","","","","","","","","","","","","","","","","","","","","","feedback_test",""
"","","","","","psychophysics","207","409210","0.0-14.1-0.1-0.46","886","","d","","","","","","","","","","","","","key","d","6.303788590604157","768","428","d","true","img/S_28.png","生人","prac_self","","生人"
"","","","","","html-keyboard-response","208","409513","0.0-14.1-0.1-1.46","null","<span style='color:GreenYellow; font-size: 70px;'>正确! </span>","null","","","","","","","","","","","","","","","","","","","","","","","feedback_test",""
"","","","","","psychophysics","209","411921","0.0-14.1-0.1-0.47","1406","","f","","","","","","","","","","","","","key","f","6.316113456464305","768","428","f","true","img/C_28.png","生人","prac_self","","朋友"
"","","","","","html-keyboard-response","210","412223","0.0-14.1-0.1-1.47","null","<span style='color:GreenYellow; font-size: 70px;'>正确! </span>","null","","","","","","","","","","","","","","","","","","","","","","","feedback_test",""
"","","","","","html-keyboard-response","211","418544","0.0-15.0","6318","[""<style>.context{color:white; font-size: 35px; line-height:40px}</style>              <div><p class='context'>您正确回答了71% 的试次。</p><p class='context'>您的平均反应时为1030毫秒。</p><p class='context'>恭喜您完成这一阶段的练习。按任意键进入<span style='color: yellow;'>重点关注图形为“朋友”</span>的练习。</p></div><p class='footer' style='font-size:35px; line-height:30px;'>任务要求：\n              <p class='footer' style='font-size:35px; line-height:35px;'>对于与“朋友”对应的图形：如果 匹配 ，请按 <span style=\""color: lightgreen;\"">k键</span></p><p class='footer' style='font-size:35px'>如果 不匹配 ，请按<span style=\""color: lightgreen;\"">j键</p></span>\n              <p class='footer' style='font-size:35px; line-height:35px;'>对于非“朋友”对应的图形：如果 匹配 ，请按 <span style=\""color: lightgreen;\"">d键</span></p><p class='footer' style='font-size:35px'>如果 不匹配 ，请按<span style=\""color: lightgreen;\"">f键</p></span>\n              <p class='footer' style='font-size:22px; line-height:25px;'>请在实验过程中将您的<span style=\""color: lightgreen;\"">食指和中指</span>放在电脑键盘的相应键位上进行按键。</p></span>""]"," ","","","","","","","","","","","","","","","","","","","","","","","",""
"","","","","","psychophysics","212","420753","0.0-16.0-0.0-0.0","1205","","f","","","","","","","","","","","","","key","f","6.357320809248476","768","428","f","true","img/H_28.png","朋友","prac_friend","","自我"
"","","","","","html-keyboard-response","213","421065","0.0-16.0-0.0-1.0","null","<span style='color:GreenYellow; font-size: 70px;'>正确! </span>","null","","","","","","","","","","","","","","","","","","","","","","","feedback_test",""
"","","","","","psychophysics","214","422976","0.0-16.0-0.0-0.1","910","","f","","","","","","","","","","","","","key","f","6.3018372093023345","768","428","d","false","img/H_28.png","自我","prac_friend","","自我"
"","","","","","html-keyboard-response","215","423284","0.0-16.0-0.0-1.1","null","<span style='color:red; font-size: 70px;'>错误! </span>","null","","","","","","","","","","","","","","","","","","","","","","","feedback_test",""
"","","","","","psychophysics","216","425584","0.0-16.0-0.0-0.2","1298","","k","","","","","","","","","","","","","key","k","6.435078873239379","768","428","j","false","img/C_28.png","自我","prac_friend","","朋友"
"","","","","","html-keyboard-response","217","425891","0.0-16.0-0.0-1.2","null","<span style='color:red; font-size: 70px;'>错误! </span>","null","","","","","","","","","","","","","","","","","","","","","","","feedback_test",""
"","","","","","psychophysics","218","427568","0.0-16.0-0.0-0.3","676","","k","","","","","","","","","","","","","key","k","6.335608365018843","768","428","k","true","img/C_28.png","朋友","prac_friend","","朋友"
"","","","","","html-keyboard-response","219","427882","0.0-16.0-0.0-1.3","null","<span style='color:GreenYellow; font-size: 70px;'>正确! </span>","null","","","","","","","","","","","","","","","","","","","","","","","feedback_test",""
"","","","","","psychophysics","220","429737","0.0-16.0-0.0-0.4","853","","f","","","","","","","","","","","","","key","f","6.079029702970285","768","428","d","false","img/H_28.png","自我","prac_friend","","自我"
"","","","","","html-keyboard-response","221","430043","0.0-16.0-0.0-1.4","null","<span style='color:red; font-size: 70px;'>错误! </span>","null","","","","","","","","","","","","","","","","","","","","","","","feedback_test",""
"","","","","","psychophysics","222","432129","0.0-16.0-0.0-0.5","1082","","f","","","","","","","","","","","","","key","f","6.260186746987901","768","428","f","true","img/S_28.png","自我","prac_friend","","生人"
"","","","","","html-keyboard-response","223","432440","0.0-16.0-0.0-1.5","null","<span style='color:GreenYellow; font-size: 70px;'>正确! </span>","null","","","","","","","","","","","","","","","","","","","","","","","feedback_test",""
"","","","","","psychophysics","224","434240","0.0-16.0-0.0-0.6","799","","d","","","","","","","","","","","","","key","d","6.384853571428643","768","428","d","true","img/S_28.png","生人","prac_friend","","生人"
"","","","","","html-keyboard-response","225","434554","0.0-16.0-0.0-1.6","null","<span style='color:GreenYellow; font-size: 70px;'>正确! </span>","null","","","","","","","","","","","","","","","","","","","","","","","feedback_test",""
"","","","","","psychophysics","226","436624","0.0-16.0-0.0-0.7","1068","","d","","","","","","","","","","","","","key","d","6.358638888888958","768","428","j","false","img/C_28.png","生人","prac_friend","","朋友"
"","","","","","html-keyboard-response","227","436938","0.0-16.0-0.0-1.7","null","<span style='color:red; font-size: 70px;'>错误! </span>","null","","","","","","","","","","","","","","","","","","","","","","","feedback_test",""
"","","","","","psychophysics","228","439255","0.0-16.0-0.0-0.8","1313","","d","","","","","","","","","","","","","key","d","6.124172413793167","768","428","d","true","img/S_28.png","生人","prac_friend","","生人"
"","","","","","html-keyboard-response","229","439563","0.0-16.0-0.0-1.8","null","<span style='color:GreenYellow; font-size: 70px;'>正确! </span>","null","","","","","","","","","","","","","","","","","","","","","","","feedback_test",""
"","","","","","psychophysics","230","441504","0.0-16.0-0.0-0.9","939","","d","","","","","","","","","","","","","key","d","6.359098684210422","768","428","f","false","img/S_28.png","朋友","prac_friend","","生人"
"","","","","","html-keyboard-response","231","441820","0.0-16.0-0.0-1.9","null","<span style='color:red; font-size: 70px;'>错误! </span>","null","","","","","","","","","","","","","","","","","","","","","","","feedback_test",""
"","","","","","psychophysics","232","443704","0.0-16.0-0.0-0.10","883","","d","","","","","","","","","","","","","key","d","6.34772881355918","768","428","f","false","img/H_28.png","生人","prac_friend","","自我"
"","","","","","html-keyboard-response","233","444017","0.0-16.0-0.0-1.10","null","<span style='color:red; font-size: 70px;'>错误! </span>","null","","","","","","","","","","","","","","","","","","","","","","","feedback_test",""
"","","","","","psychophysics","234","445945","0.0-16.0-0.0-0.11","925","","k","","","","","","","","","","","","","key","k","6.079446202531587","768","428","k","true","img/C_28.png","朋友","prac_friend","","朋友"
"","","","","","html-keyboard-response","235","446255","0.0-16.0-0.0-1.11","null","<span style='color:GreenYellow; font-size: 70px;'>正确! </span>","null","","","","","","","","","","","","","","","","","","","","","","","feedback_test",""
"","","","","","psychophysics","236","448072","0.0-16.0-0.0-0.12","815","","d","","","","","","","","","","","","","key","d","6.404558718861354","768","428","d","true","img/S_28.png","生人","prac_friend","","生人"
"","","","","","html-keyboard-response","237","448376","0.0-16.0-0.0-1.12","null","<span style='color:GreenYellow; font-size: 70px;'>正确! </span>","null","","","","","","","","","","","","","","","","","","","","","","","feedback_test",""
"","","","","","psychophysics","238","450248","0.0-16.0-0.0-0.13","870","","k","","","","","","","","","","","","","key","k","6.3421678082191795","768","428","k","true","img/C_28.png","朋友","prac_friend","","朋友"
"","","","","","html-keyboard-response","239","450554","0.0-16.0-0.0-1.13","null","<span style='color:GreenYellow; font-size: 70px;'>正确! </span>","null","","","","","","","","","","","","","","","","","","","","","","","feedback_test",""
"","","","","","psychophysics","240","452432","0.0-16.0-0.0-0.14","876","","j","","","","","","","","","","","","","key","j","6.326755932203328","768","428","f","false","img/S_28.png","自我","prac_friend","","生人"
"","","","","","html-keyboard-response","241","452739","0.0-16.0-0.0-1.14","null","<span style='color:red; font-size: 70px;'>错误! </span>","null","","","","","","","","","","","","","","","","","","","","","","","feedback_test",""
"","","","","","psychophysics","242","454992","0.0-16.0-0.0-0.15","1253","","d","","","","","","","","","","","","","key","d","6.240603351955303","768","428","f","false","img/S_28.png","朋友","prac_friend","","生人"
"","","","","","html-keyboard-response","243","455293","0.0-16.0-0.0-1.15","null","<span style='color:red; font-size: 70px;'>错误! </span>","null","","","","","","","","","","","","","","","","","","","","","","","feedback_test",""
"","","","","","psychophysics","244","457192","0.0-16.0-0.0-0.16","895","","d","","","","","","","","","","","","","key","d","6.099242718446688","768","428","k","false","img/C_28.png","朋友","prac_friend","","朋友"
"","","","","","html-keyboard-response","245","457499","0.0-16.0-0.0-1.16","null","<span style='color:red; font-size: 70px;'>错误! </span>","null","","","","","","","","","","","","","","","","","","","","","","","feedback_test",""
"","","","","","psychophysics","246","459496","0.0-16.0-0.0-0.17","993","","f","","","","","","","","","","","","","key","f","6.211549999999988","768","428","j","false","img/C_28.png","生人","prac_friend","","朋友"
"","","","","","html-keyboard-response","247","459812","0.0-16.0-0.0-1.17","null","<span style='color:red; font-size: 70px;'>错误! </span>","null","","","","","","","","","","","","","","","","","","","","","","","feedback_test",""
"","","","","","psychophysics","248","461928","0.0-16.0-0.0-0.18","1115","","j","","","","","","","","","","","","","key","j","6.27687462686575","768","428","j","true","img/C_28.png","自我","prac_friend","","朋友"
"","","","","","html-keyboard-response","249","462241","0.0-16.0-0.0-1.18","null","<span style='color:GreenYellow; font-size: 70px;'>正确! </span>","null","","","","","","","","","","","","","","","","","","","","","","","feedback_test",""
"","","","","","psychophysics","250","464152","0.0-16.0-0.0-0.19","910","","d","","","","","","","","","","","","","key","d","6.322719999999972","768","428","d","true","img/H_28.png","自我","prac_friend","","自我"
"","","","","","html-keyboard-response","251","464468","0.0-16.0-0.0-1.19","null","<span style='color:GreenYellow; font-size: 70px;'>正确! </span>","null","","","","","","","","","","","","","","","","","","","","","","","feedback_test",""
"","","","","","psychophysics","252","466547","0.0-16.0-0.0-0.20","1075","","d","","","","","","","","","","","","","key","d","6.4764500000001135","768","428","d","true","img/H_28.png","自我","prac_friend","","自我"
"","","","","","html-keyboard-response","253","466864","0.0-16.0-0.0-1.20","null","<span style='color:GreenYellow; font-size: 70px;'>正确! </span>","null","","","","","","","","","","","","","","","","","","","","","","","feedback_test",""
"","","","","","psychophysics","254","468739","0.0-16.0-0.0-0.21","872","","d","","","","","","","","","","","","","key","d","6.285222972972898","768","428","f","false","img/H_28.png","生人","prac_friend","","自我"
"","","","","","html-keyboard-response","255","469048","0.0-16.0-0.0-1.21","null","<span style='color:red; font-size: 70px;'>错误! </span>","null","","","","","","","","","","","","","","","","","","","","","","","feedback_test",""
"","","","","","psychophysics","256","470544","0.0-16.0-0.0-0.22","495","","d","","","","","","","","","","","","","key","d","6.34535897435903","768","428","f","false","img/H_28.png","朋友","prac_friend","","自我"
"","","","","","html-keyboard-response","257","470850","0.0-16.0-0.0-1.22","null","<span style='color:red; font-size: 70px;'>错误! </span>","null","","","","","","","","","","","","","","","","","","","","","","","feedback_test",""
"","","","","","psychophysics","258","472744","0.0-16.0-0.0-0.23","894","","d","","","","","","","","","","","","","key","d","6.454664383561602","768","428","d","true","img/S_28.png","生人","prac_friend","","生人"
"","","","","","html-keyboard-response","259","473046","0.0-16.0-0.0-1.23","null","<span style='color:GreenYellow; font-size: 70px;'>正确! </span>","null","","","","","","","","","","","","","","","","","","","","","","","feedback_test",""
"","","","","","html-keyboard-response","260","475577","0.0-16.0-1.0-0.0","2530","<style>.context{color:white; font-size: 35px; line-height:40px}</style>                              <div><p class='context'>您正确回答了50% 的试次。</p><p class='context'>您的平均反应时为973毫秒。</p>"," ","","","","","","","","","","","","","","","","","","","","","","","",""
"","","","","","instructions","261","515140","0.0-16.0-1.0-1.0","39561","","","","","","","","","","","","","","[{""page_index"":0,""viewing_time"":14340},{""page_index"":1,""viewing_time"":22264},{""page_index"":2,""viewing_time"":2957}]","","","","","","","","","","","",""
"","","","","","psychophysics","262","517072","0.0-16.1-0.1-0.24","929","","d","","","","","","","","","","","","","key","d","6.466765100671206","768","428","f","false","img/H_28.png","生人","prac_friend","","自我"
"","","","","","html-keyboard-response","263","517379","0.0-16.1-0.1-1.24","null","<span style='color:red; font-size: 70px;'>错误! </span>","null","","","","","","","","","","","","","","","","","","","","","","","feedback_test",""
"","","","","","psychophysics","264","519096","0.0-16.1-0.1-0.25","716","","k","","","","","","","","","","","","","key","k","6.260172161172168","768","428","k","true","img/C_28.png","朋友","prac_friend","","朋友"
"","","","","","html-keyboard-response","265","519401","0.0-16.1-0.1-1.25","null","<span style='color:GreenYellow; font-size: 70px;'>正确! </span>","null","","","","","","","","","","","","","","","","","","","","","","","feedback_test",""
"","","","","","psychophysics","266","521624","0.0-16.1-0.1-0.26","1220","","f","","","","","","","","","","","","","key","f","6.278829059829077","768","428","f","true","img/S_28.png","自我","prac_friend","","生人"
"","","","","","html-keyboard-response","267","521935","0.0-16.1-0.1-1.26","null","<span style='color:GreenYellow; font-size: 70px;'>正确! </span>","null","","","","","","","","","","","","","","","","","","","","","","","feedback_test",""
"","","","","","psychophysics","268","523737","0.0-16.1-0.1-0.27","801","","k","","","","","","","","","","","","","key","k","6.239279720279749","768","428","j","false","img/C_28.png","自我","prac_friend","","朋友"
"","","","","","html-keyboard-response","269","524039","0.0-16.1-0.1-1.27","null","<span style='color:red; font-size: 70px;'>错误! </span>","null","","","","","","","","","","","","","","","","","","","","","","","feedback_test",""
"","","","","","psychophysics","270","526023","0.0-16.1-0.1-0.28","983","","d","","","","","","","","","","","","","key","d","6.291382165605301","768","428","d","true","img/H_28.png","自我","prac_friend","","自我"
"","","","","","html-keyboard-response","271","526330","0.0-16.1-0.1-1.28","null","<span style='color:GreenYellow; font-size: 70px;'>正确! </span>","null","","","","","","","","","","","","","","","","","","","","","","","feedback_test",""
"","","","","","psychophysics","272","528240","0.0-16.1-0.1-0.29","909","","d","","","","","","","","","","","","","key","d","6.178760517799615","768","428","d","true","img/S_28.png","生人","prac_friend","","生人"
"","","","","","html-keyboard-response","273","528545","0.0-16.1-0.1-1.29","null","<span style='color:GreenYellow; font-size: 70px;'>正确! </span>","null","","","","","","","","","","","","","","","","","","","","","","","feedback_test",""
"","","","","","psychophysics","274","530385","0.0-16.1-0.1-0.30","838","","j","","","","","","","","","","","","","key","j","6.203118243243315","768","428","j","true","img/C_28.png","生人","prac_friend","","朋友"
"","","","","","html-keyboard-response","275","530688","0.0-16.1-0.1-1.30","null","<span style='color:GreenYellow; font-size: 70px;'>正确! </span>","null","","","","","","","","","","","","","","","","","","","","","","","feedback_test",""
"","","","","","psychophysics","276","532424","0.0-16.1-0.1-0.31","732","","d","","","","","","","","","","","","","key","d","6.191215053763187","768","428","d","true","img/S_28.png","生人","prac_friend","","生人"
"","","","","","html-keyboard-response","277","532727","0.0-16.1-0.1-1.31","null","<span style='color:GreenYellow; font-size: 70px;'>正确! </span>","null","","","","","","","","","","","","","","","","","","","","","","","feedback_test",""
"","","","","","psychophysics","278","534664","0.0-16.1-0.1-0.32","936","","f","","","","","","","","","","","","","key","f","6.230781758957579","768","428","f","true","img/H_28.png","朋友","prac_friend","","自我"
"","","","","","html-keyboard-response","279","534966","0.0-16.1-0.1-1.32","null","<span style='color:GreenYellow; font-size: 70px;'>正确! </span>","null","","","","","","","","","","","","","","","","","","","","","","","feedback_test",""
"","","","","","psychophysics","280","537025","0.0-16.1-0.1-0.33","1054","","f","","","","","","","","","","","","","key","f","6.3614751552792","768","428","f","true","img/S_28.png","朋友","prac_friend","","生人"
"","","","","","html-keyboard-response","281","537334","0.0-16.1-0.1-1.33","null","<span style='color:GreenYellow; font-size: 70px;'>正确! </span>","null","","","","","","","","","","","","","","","","","","","","","","","feedback_test",""
"","","","","","psychophysics","282","539248","0.0-16.1-0.1-0.34","912","","d","","","","","","","","","","","","","key","d","6.1579676375405645","768","428","d","true","img/H_28.png","自我","prac_friend","","自我"
"","","","","","html-keyboard-response","283","539555","0.0-16.1-0.1-1.34","null","<span style='color:GreenYellow; font-size: 70px;'>正确! </span>","null","","","","","","","","","","","","","","","","","","","","","","","feedback_test",""
"","","","","","psychophysics","284","541536","0.0-16.1-0.1-0.35","978","","k","","","","","","","","","","","","","key","k","6.329550161812316","768","428","k","true","img/C_28.png","朋友","prac_friend","","朋友"
"","","","","","html-keyboard-response","285","541842","0.0-16.1-0.1-1.35","null","<span style='color:GreenYellow; font-size: 70px;'>正确! </span>","null","","","","","","","","","","","","","","","","","","","","","","","feedback_test",""
"","","","","","psychophysics","286","543625","0.0-16.1-0.1-0.36","778","","k","","","","","","","","","","","","","key","k","6.274960992907765","768","428","k","true","img/C_28.png","朋友","prac_friend","","朋友"
"","","","","","html-keyboard-response","287","543926","0.0-16.1-0.1-1.36","null","<span style='color:GreenYellow; font-size: 70px;'>正确! </span>","null","","","","","","","","","","","","","","","","","","","","","","","feedback_test",""
"","","","","","psychophysics","288","545857","0.0-16.1-0.1-0.37","930","","j","","","","","","","","","","","","","key","j","6.168567741935652","768","428","j","true","img/C_28.png","生人","prac_friend","","朋友"
"","","","","","html-keyboard-response","289","546167","0.0-16.1-0.1-1.37","null","<span style='color:GreenYellow; font-size: 70px;'>正确! </span>","null","","","","","","","","","","","","","","","","","","","","","","","feedback_test",""
"","","","","","psychophysics","290","548130","0.0-16.1-0.1-0.38","962","","f","","","","","","","","","","","","","key","f","6.418209836065586","768","428","f","true","img/H_28.png","生人","prac_friend","","自我"
"","","","","","html-keyboard-response","291","548444","0.0-16.1-0.1-1.38","null","<span style='color:GreenYellow; font-size: 70px;'>正确! </span>","null","","","","","","","","","","","","","","","","","","","","","","","feedback_test",""
"","","","","","psychophysics","292","550481","0.0-16.1-0.1-0.39","1033","","f","","","","","","","","","","","","","key","f","6.1895762195121415","768","428","f","true","img/H_28.png","朋友","prac_friend","","自我"
"","","","","","html-keyboard-response","293","550789","0.0-16.1-0.1-1.39","null","<span style='color:GreenYellow; font-size: 70px;'>正确! </span>","null","","","","","","","","","","","","","","","","","","","","","","","feedback_test",""
"","","","","","psychophysics","294","552554","0.0-16.1-0.1-0.40","761","","d","","","","","","","","","","","","","key","d","6.276739285714159","768","428","d","true","img/H_28.png","自我","prac_friend","","自我"
"","","","","","html-keyboard-response","295","552862","0.0-16.1-0.1-1.40","null","<span style='color:GreenYellow; font-size: 70px;'>正确! </span>","null","","","","","","","","","","","","","","","","","","","","","","","feedback_test",""
"","","","","","psychophysics","296","554784","0.0-16.1-0.1-0.41","921","","k","","","","","","","","","","","","","key","k","6.340635761589703","768","428","j","false","img/C_28.png","自我","prac_friend","","朋友"
"","","","","","html-keyboard-response","297","555100","0.0-16.1-0.1-1.41","null","<span style='color:red; font-size: 70px;'>错误! </span>","null","","","","","","","","","","","","","","","","","","","","","","","feedback_test",""
"","","","","","psychophysics","298","556905","0.0-16.1-0.1-0.42","802","","k","","","","","","","","","","","","","key","k","6.271884615384482","768","428","k","true","img/C_28.png","朋友","prac_friend","","朋友"
"","","","","","html-keyboard-response","299","557210","0.0-16.1-0.1-1.42","null","<span style='color:GreenYellow; font-size: 70px;'>正确! </span>","null","","","","","","","","","","","","","","","","","","","","","","","feedback_test",""
"","","","","","psychophysics","300","559296","0.0-16.1-0.1-0.43","1085","","d","","","","","","","","","","","","","key","d","6.241252252252076","768","428","d","true","img/S_28.png","生人","prac_friend","","生人"
"","","","","","html-keyboard-response","301","559609","0.0-16.1-0.1-1.43","null","<span style='color:GreenYellow; font-size: 70px;'>正确! </span>","null","","","","","","","","","","","","","","","","","","","","","","","feedback_test",""
"","","","","","psychophysics","302","561569","0.0-16.1-0.1-0.44","959","","f","","","","","","","","","","","","","key","f","6.274453376206102","768","428","f","true","img/S_28.png","朋友","prac_friend","","生人"
"","","","","","html-keyboard-response","303","561880","0.0-16.1-0.1-1.44","null","<span style='color:GreenYellow; font-size: 70px;'>正确! </span>","null","","","","","","","","","","","","","","","","","","","","","","","feedback_test",""
"","","","","","psychophysics","304","563840","0.0-16.1-0.1-0.45","959","","d","","","","","","","","","","","","","key","d","6.334811688311982","768","428","d","true","img/H_28.png","自我","prac_friend","","自我"
"","","","","","html-keyboard-response","305","564147","0.0-16.1-0.1-1.45","null","<span style='color:GreenYellow; font-size: 70px;'>正确! </span>","null","","","","","","","","","","","","","","","","","","","","","","","feedback_test",""
"","","","","","psychophysics","306","566171","0.0-16.1-0.1-0.46","1023","","f","","","","","","","","","","","","","key","f","6.386095238095224","768","428","f","true","img/S_28.png","自我","prac_friend","","生人"
"","","","","","html-keyboard-response","307","566478","0.0-16.1-0.1-1.46","null","<span style='color:GreenYellow; font-size: 70px;'>正确! </span>","null","","","","","","","","","","","","","","","","","","","","","","","feedback_test",""
"","","","","","psychophysics","308","568274","0.0-16.1-0.1-0.47","793","","d","","","","","","","","","","","","","key","d","6.295084507042267","768","428","d","true","img/S_28.png","生人","prac_friend","","生人"
"","","","","","html-keyboard-response","309","568589","0.0-16.1-0.1-1.47","null","<span style='color:GreenYellow; font-size: 70px;'>正确! </span>","null","","","","","","","","","","","","","","","","","","","","","","","feedback_test",""
"","","","","","html-keyboard-response","310","576177","0.0-17.0","7586","[""<style>.context{color:white; font-size: 35px; line-height:40px}</style>                  <div><p class='context'>您正确回答了88% 的试次。</p><p class='context'>您的平均反应时为922毫秒。</p><p class='context'>恭喜您完成这一阶段的练习。按任意键进入<span style='color: yellow;'>重点关注图形为“生人”</span>的练习。</p></div><p class='footer' style='font-size:35px; line-height:30px;'>任务要求：\n                  <p class='footer' style='font-size:35px; line-height:35px;'>对与“生人”对应的图形，如果 匹配 ，请按 <span style=\""color: lightgreen;\"">k键</span></p><p class='footer' style='font-size:35px'>如果 不匹配 ，请按<span style=\""color: lightgreen;\"">j键</p></span>\n                  <p class='footer' style='font-size:35px; line-height:35px;'>对非“生人”对应的图形，如果 匹配 ，请按 <span style=\""color: lightgreen;\"">d键</span></p><p class='footer' style='font-size:35px'>如果 不匹配 ，请按<span style=\""color: lightgreen;\"">f键</p></span>\n                  <p class='footer' style='font-size:22px; line-height:25px;'>请在实验过程中将您的<span style=\""color: lightgreen;\"">食指和中指</span>放在电脑键盘的相应键位上进行按键。</p></span>""]"," ","","","","","","","","","","","","","","","","","","","","","","","",""
"","","","","","psychophysics","311","577864","0.0-18.0-0.0-0.0","681","","k","","","","","","","","","","","","","key","k","6.287389513108642","768","428","k","true","img/S_28.png","生人","prac_stranger","","生人"
"","","","","","html-keyboard-response","312","578170","0.0-18.0-0.0-1.0","null","<span style='color:GreenYellow; font-size: 70px;'>正确! </span>","null","","","","","","","","","","","","","","","","","","","","","","","feedback_test",""
"","","","","","psychophysics","313","580273","0.0-18.0-0.0-0.1","1102","","f","","","","","","","","","","","","","key","f","6.354802431610886","768","428","f","true","img/C_28.png","自我","prac_stranger","","朋友"
"","","","","","html-keyboard-response","314","580586","0.0-18.0-0.0-1.1","null","<span style='color:GreenYellow; font-size: 70px;'>正确! </span>","null","","","","","","","","","","","","","","","","","","","","","","","feedback_test",""
"","","","","","psychophysics","315","582833","0.0-18.0-0.0-0.2","1244","","d","","","","","","","","","","","","","key","d","6.315864788732347","768","428","f","false","img/H_28.png","生人","prac_stranger","","自我"
"","","","","","html-keyboard-response","316","583139","0.0-18.0-0.0-1.2","null","<span style='color:red; font-size: 70px;'>错误! </span>","null","","","","","","","","","","","","","","","","","","","","","","","feedback_test",""
"","","","","","psychophysics","317","585009","0.0-18.0-0.0-0.3","867","","d","","","","","","","","","","","","","key","d","6.307363945578199","768","428","d","true","img/H_28.png","自我","prac_stranger","","自我"
"","","","","","html-keyboard-response","318","585321","0.0-18.0-0.0-1.3","null","<span style='color:GreenYellow; font-size: 70px;'>正确! </span>","null","","","","","","","","","","","","","","","","","","","","","","","feedback_test",""
"","","","","","psychophysics","319","587200","0.0-18.0-0.0-0.4","877","","d","","","","","","","","","","","","","key","d","6.304215488215338","768","428","d","true","img/H_28.png","自我","prac_stranger","","自我"
"","","","","","html-keyboard-response","320","587506","0.0-18.0-0.0-1.4","null","<span style='color:GreenYellow; font-size: 70px;'>正确! </span>","null","","","","","","","","","","","","","","","","","","","","","","","feedback_test",""
"","","","","","psychophysics","321","589546","0.0-18.0-0.0-0.5","1037","","j","","","","","","","","","","","","","key","j","6.364344827586283","768","428","f","false","img/C_28.png","生人","prac_stranger","","朋友"
"","","","","","html-keyboard-response","322","589858","0.0-18.0-0.0-1.5","null","<span style='color:red; font-size: 70px;'>错误! </span>","null","","","","","","","","","","","","","","","","","","","","","","","feedback_test",""
"","","","","","psychophysics","323","591777","0.0-18.0-0.0-0.6","917","","j","","","","","","","","","","","","","key","j","6.335752508361251","768","428","j","true","img/S_28.png","朋友","prac_stranger","","生人"
"","","","","","html-keyboard-response","324","592085","0.0-18.0-0.0-1.6","null","<span style='color:GreenYellow; font-size: 70px;'>正确! </span>","null","","","","","","","","","","","","","","","","","","","","","","","feedback_test",""
"","","","","","psychophysics","325","594010","0.0-18.0-0.0-0.7","922","","d","","","","","","","","","","","","","key","d","6.2172759740258865","768","428","j","false","img/S_28.png","自我","prac_stranger","","生人"
"","","","","","html-keyboard-response","326","594324","0.0-18.0-0.0-1.7","null","<span style='color:red; font-size: 70px;'>错误! </span>","null","","","","","","","","","","","","","","","","","","","","","","","feedback_test",""
"","","","","","psychophysics","327","596193","0.0-18.0-0.0-0.8","868","","k","","","","","","","","","","","","","key","k","6.235999999999818","768","428","d","false","img/C_28.png","朋友","prac_stranger","","朋友"
"","","","","","html-keyboard-response","328","596505","0.0-18.0-0.0-1.8","null","<span style='color:red; font-size: 70px;'>错误! </span>","null","","","","","","","","","","","","","","","","","","","","","","","feedback_test",""
"","","","","","psychophysics","329","598657","0.0-18.0-0.0-0.9","1149","","f","","","","","","","","","","","","","key","f","6.217781976744232","768","428","f","true","img/H_28.png","朋友","prac_stranger","","自我"
"","","","","","html-keyboard-response","330","598967","0.0-18.0-0.0-1.9","null","<span style='color:GreenYellow; font-size: 70px;'>正确! </span>","null","","","","","","","","","","","","","","","","","","","","","","","feedback_test",""
"","","","","","psychophysics","331","601186","0.0-18.0-0.0-0.10","1216","","f","","","","","","","","","","","","","key","f","6.320398280802343","768","428","d","false","img/C_28.png","朋友","prac_stranger","","朋友"
"","","","","","html-keyboard-response","332","601501","0.0-18.0-0.0-1.10","null","<span style='color:red; font-size: 70px;'>错误! </span>","null","","","","","","","","","","","","","","","","","","","","","","","feedback_test",""
"","","","","","psychophysics","333","603648","0.0-18.0-0.0-0.11","1145","","k","","","","","","","","","","","","","key","k","6.201026162790841","768","428","k","true","img/S_28.png","生人","prac_stranger","","生人"
"","","","","","html-keyboard-response","334","603959","0.0-18.0-0.0-1.11","null","<span style='color:GreenYellow; font-size: 70px;'>正确! </span>","null","","","","","","","","","","","","","","","","","","","","","","","feedback_test",""
"","","","","","psychophysics","335","605824","0.0-18.0-0.0-0.12","863","","j","","","","","","","","","","","","","key","j","6.2777133105801886","768","428","j","true","img/S_28.png","自我","prac_stranger","","生人"
"","","","","","html-keyboard-response","336","606140","0.0-18.0-0.0-1.12","null","<span style='color:GreenYellow; font-size: 70px;'>正确! </span>","null","","","","","","","","","","","","","","","","","","","","","","","feedback_test",""
"","","","","","psychophysics","337","608368","0.0-18.0-0.0-0.13","1227","","f","","","","","","","","","","","","","key","f","6.3143696275074035","768","428","f","true","img/H_28.png","生人","prac_stranger","","自我"
"","","","","","html-keyboard-response","338","608683","0.0-18.0-0.0-1.13","null","<span style='color:GreenYellow; font-size: 70px;'>正确! </span>","null","","","","","","","","","","","","","","","","","","","","","","","feedback_test",""
"","","","","","psychophysics","339","610761","0.0-18.0-0.0-0.14","1076","","f","","","","","","","","","","","","","key","f","6.224852409638417","768","428","f","true","img/C_28.png","自我","prac_stranger","","朋友"
"","","","","","html-keyboard-response","340","611065","0.0-18.0-0.0-1.14","null","<span style='color:GreenYellow; font-size: 70px;'>正确! </span>","null","","","","","","","","","","","","","","","","","","","","","","","feedback_test",""
"","","","","","psychophysics","341","612984","0.0-18.0-0.0-0.15","915","","d","","","","","","","","","","","","","key","d","6.137623794212147","768","428","d","true","img/C_28.png","朋友","prac_stranger","","朋友"
"","","","","","html-keyboard-response","342","613298","0.0-18.0-0.0-1.15","null","<span style='color:GreenYellow; font-size: 70px;'>正确! </span>","null","","","","","","","","","","","","","","","","","","","","","","","feedback_test",""
"","","","","","psychophysics","343","615185","0.0-18.0-0.0-0.16","881","","d","","","","","","","","","","","","","key","d","6.2409169435214125","768","428","d","true","img/H_28.png","自我","prac_stranger","","自我"
"","","","","","html-keyboard-response","344","615499","0.0-18.0-0.0-1.16","null","<span style='color:GreenYellow; font-size: 70px;'>正确! </span>","null","","","","","","","","","","","","","","","","","","","","","","","feedback_test",""
"","","","","","psychophysics","345","617408","0.0-18.0-0.0-0.17","909","","d","","","","","","","","","","","","","key","d","6.218924590163925","768","428","j","false","img/S_28.png","朋友","prac_stranger","","生人"
"","","","","","html-keyboard-response","346","617713","0.0-18.0-0.0-1.17","null","<span style='color:red; font-size: 70px;'>错误! </span>","null","","","","","","","","","","","","","","","","","","","","","","","feedback_test",""
"","","","","","psychophysics","347","619599","0.0-18.0-0.0-0.18","884","","f","","","","","","","","","","","","","key","f","6.368288135593284","768","428","f","true","img/C_28.png","生人","prac_stranger","","朋友"
"","","","","","html-keyboard-response","348","619911","0.0-18.0-0.0-1.18","null","<span style='color:GreenYellow; font-size: 70px;'>正确! </span>","null","","","","","","","","","","","","","","","","","","","","","","","feedback_test",""
"","","","","","psychophysics","349","621856","0.0-18.0-0.0-0.19","940","","d","","","","","","","","","","","","","key","d","6.1757961783441715","768","428","k","false","img/S_28.png","生人","prac_stranger","","生人"
"","","","","","html-keyboard-response","350","622165","0.0-18.0-0.0-1.19","null","<span style='color:red; font-size: 70px;'>错误! </span>","null","","","","","","","","","","","","","","","","","","","","","","","feedback_test",""
"","","","","","psychophysics","351","624136","0.0-18.0-0.0-0.20","968","","d","","","","","","","","","","","","","key","d","6.233289808917281","768","428","d","true","img/C_28.png","朋友","prac_stranger","","朋友"
"","","","","","html-keyboard-response","352","624451","0.0-18.0-0.0-1.20","null","<span style='color:GreenYellow; font-size: 70px;'>正确! </span>","null","","","","","","","","","","","","","","","","","","","","","","","feedback_test",""
"","","","","","psychophysics","353","626648","0.0-18.0-0.0-0.21","1196","","f","","","","","","","","","","","","","key","f","6.178870422535078","768","428","f","true","img/H_28.png","朋友","prac_stranger","","自我"
"","","","","","html-keyboard-response","354","626956","0.0-18.0-0.0-1.21","null","<span style='color:GreenYellow; font-size: 70px;'>正确! </span>","null","","","","","","","","","","","","","","","","","","","","","","","feedback_test",""
"","","","","","psychophysics","355","628848","0.0-18.0-0.0-0.22","889","","k","","","","","","","","","","","","","key","k","6.30354697986595","768","428","k","true","img/S_28.png","生人","prac_stranger","","生人"
"","","","","","html-keyboard-response","356","629155","0.0-18.0-0.0-1.22","null","<span style='color:GreenYellow; font-size: 70px;'>正确! </span>","null","","","","","","","","","","","","","","","","","","","","","","","feedback_test",""
"","","","","","psychophysics","357","631257","0.0-18.0-0.0-0.23","1100","","f","","","","","","","","","","","","","key","f","6.240313432835835","768","428","d","false","img/H_28.png","自我","prac_stranger","","自我"
"","","","","","html-keyboard-response","358","631568","0.0-18.0-0.0-1.23","null","<span style='color:red; font-size: 70px;'>错误! </span>","null","","","","","","","","","","","","","","","","","","","","","","","feedback_test",""
"","","","","","html-keyboard-response","359","632577","0.0-18.0-1.0-0.0","1007","<style>.context{color:white; font-size: 35px; line-height:40px}</style>                              <div><p class='context'>您正确回答了67% 的试次。</p><p class='context'>您的平均反应时为977毫秒。</p>"," ","","","","","","","","","","","","","","","","","","","","","","","",""
"","","","","","instructions","360","645308","0.0-18.0-1.0-1.0","12727","","","","","","","","","","","","","","[{""page_index"":0,""viewing_time"":2134},{""page_index"":1,""viewing_time"":8069},{""page_index"":2,""viewing_time"":2524}]","","","","","","","","","","","",""
"","","","","","psychophysics","361","647362","0.0-18.1-0.1-0.24","1050","","d","","","","","","","","","","","","","key","d","6.323130434782458","768","428","d","true","img/H_28.png","自我","prac_stranger","","自我"
"","","","","","html-keyboard-response","362","647667","0.0-18.1-0.1-1.24","null","<span style='color:GreenYellow; font-size: 70px;'>正确! </span>","null","","","","","","","","","","","","","","","","","","","","","","","feedback_test",""
"","","","","","psychophysics","363","649624","0.0-18.1-0.1-0.25","955","","f","","","","","","","","","","","","","key","f","6.187859424920276","768","428","f","true","img/C_28.png","自我","prac_stranger","","朋友"
"","","","","","html-keyboard-response","364","649939","0.0-18.1-0.1-1.25","null","<span style='color:GreenYellow; font-size: 70px;'>正确! </span>","null","","","","","","","","","","","","","","","","","","","","","","","feedback_test",""
"","","","","","psychophysics","365","651985","0.0-18.1-0.1-0.26","1044","","f","","","","","","","","","","","","","key","f","6.285176470588126","768","428","f","true","img/H_28.png","朋友","prac_stranger","","自我"
"","","","","","html-keyboard-response","366","652288","0.0-18.1-0.1-1.26","null","<span style='color:GreenYellow; font-size: 70px;'>正确! </span>","null","","","","","","","","","","","","","","","","","","","","","","","feedback_test",""
"","","","","","psychophysics","367","654552","0.0-18.1-0.1-0.27","1259","","j","","","","","","","","","","","","","key","j","6.2274585635361435","768","428","j","true","img/S_28.png","朋友","prac_stranger","","生人"
"","","","","","html-keyboard-response","368","654865","0.0-18.1-0.1-1.27","null","<span style='color:GreenYellow; font-size: 70px;'>正确! </span>","null","","","","","","","","","","","","","","","","","","","","","","","feedback_test",""
"","","","","","psychophysics","369","657367","0.0-18.1-0.1-0.28","null","","null","","","","","","","","","","","","","key","null","6.272801507537571","768","428","f","false","img/C_28.png","生人","prac_stranger","","朋友"
"","","","","","html-keyboard-response","370","657672","0.0-18.1-0.1-1.28","null","<span class='add_' style='color:yellow; font-size: 70px;'> 太慢! </span>","null","","","","","","","","","","","","","","","","","","","","","","","feedback_test",""
"","","","","","psychophysics","371","659729","0.0-18.1-0.1-0.29","1056","","j","","","","","","","","","","","","","key","j","6.239515337423476","768","428","j","true","img/S_28.png","自我","prac_stranger","","生人"
"","","","","","html-keyboard-response","372","660034","0.0-18.1-0.1-1.29","null","<span style='color:GreenYellow; font-size: 70px;'>正确! </span>","null","","","","","","","","","","","","","","","","","","","","","","","feedback_test",""
"","","","","","psychophysics","373","662456","0.0-18.1-0.1-0.30","1419","","k","","","","","","","","","","","","","key","k","6.379593667546275","768","428","k","true","img/S_28.png","生人","prac_stranger","","生人"
"","","","","","html-keyboard-response","374","662760","0.0-18.1-0.1-1.30","null","<span style='color:GreenYellow; font-size: 70px;'>正确! </span>","null","","","","","","","","","","","","","","","","","","","","","","","feedback_test",""
"","","","","","psychophysics","375","664737","0.0-18.1-0.1-0.31","972","","k","","","","","","","","","","","","","key","k","6.272578274760509","768","428","k","true","img/S_28.png","生人","prac_stranger","","生人"
"","","","","","html-keyboard-response","376","665048","0.0-18.1-0.1-1.31","null","<span style='color:GreenYellow; font-size: 70px;'>正确! </span>","null","","","","","","","","","","","","","","","","","","","","","","","feedback_test",""
"","","","","","psychophysics","377","667154","0.0-18.1-0.1-0.32","1104","","d","","","","","","","","","","","","","key","d","6.24056250000008","768","428","d","true","img/H_28.png","自我","prac_stranger","","自我"
"","","","","","html-keyboard-response","378","667465","0.0-18.1-0.1-1.32","null","<span style='color:GreenYellow; font-size: 70px;'>正确! </span>","null","","","","","","","","","","","","","","","","","","","","","","","feedback_test",""
"","","","","","psychophysics","379","669754","0.0-18.1-0.1-0.33","1288","","d","","","","","","","","","","","","","key","d","6.268668493150721","768","428","d","true","img/C_28.png","朋友","prac_stranger","","朋友"
"","","","","","html-keyboard-response","380","670058","0.0-18.1-0.1-1.33","null","<span style='color:GreenYellow; font-size: 70px;'>正确! </span>","null","","","","","","","","","","","","","","","","","","","","","","","feedback_test",""
"","","","","","psychophysics","381","671857","0.0-18.1-0.1-0.34","798","","d","","","","","","","","","","","","","key","d","6.249655052264649","768","428","d","true","img/C_28.png","朋友","prac_stranger","","朋友"
"","","","","","html-keyboard-response","382","672165","0.0-18.1-0.1-1.34","null","<span style='color:GreenYellow; font-size: 70px;'>正确! </span>","null","","","","","","","","","","","","","","","","","","","","","","","feedback_test",""
"","","","","","psychophysics","383","674521","0.0-18.1-0.1-0.35","1352","","f","","","","","","","","","","","","","key","f","6.1231822916667324","768","428","f","true","img/H_28.png","生人","prac_stranger","","自我"
"","","","","","html-keyboard-response","384","674825","0.0-18.1-0.1-1.35","null","<span style='color:GreenYellow; font-size: 70px;'>正确! </span>","null","","","","","","","","","","","","","","","","","","","","","","","feedback_test",""
"","","","","","psychophysics","385","676792","0.0-18.1-0.1-0.36","963","","k","","","","","","","","","","","","","key","k","6.214117460317599","768","428","k","true","img/S_28.png","生人","prac_stranger","","生人"
"","","","","","html-keyboard-response","386","677100","0.0-18.1-0.1-1.36","null","<span style='color:GreenYellow; font-size: 70px;'>正确! </span>","null","","","","","","","","","","","","","","","","","","","","","","","feedback_test",""
"","","","","","psychophysics","387","679097","0.0-18.1-0.1-0.37","995","","d","","","","","","","","","","","","","key","d","6.1920281250000695","768","428","j","false","img/S_28.png","自我","prac_stranger","","生人"
"","","","","","html-keyboard-response","388","679405","0.0-18.1-0.1-1.37","null","<span style='color:red; font-size: 70px;'>错误! </span>","null","","","","","","","","","","","","","","","","","","","","","","","feedback_test",""
"","","","","","psychophysics","389","681371","0.0-18.1-0.1-0.38","964","","d","","","","","","","","","","","","","key","d","6.293247588424288","768","428","d","true","img/H_28.png","自我","prac_stranger","","自我"
"","","","","","html-keyboard-response","390","681676","0.0-18.1-0.1-1.38","null","<span style='color:GreenYellow; font-size: 70px;'>正确! </span>","null","","","","","","","","","","","","","","","","","","","","","","","feedback_test",""
"","","","","","psychophysics","391","683793","0.0-18.1-0.1-0.39","1116","","f","","","","","","","","","","","","","key","f","6.295274626865371","768","428","d","false","img/C_28.png","朋友","prac_stranger","","朋友"
"","","","","","html-keyboard-response","392","684103","0.0-18.1-0.1-1.39","null","<span style='color:red; font-size: 70px;'>错误! </span>","null","","","","","","","","","","","","","","","","","","","","","","","feedback_test",""
"","","","","","psychophysics","393","686361","0.0-18.1-0.1-0.40","1257","","f","","","","","","","","","","","","","key","f","6.3513926553670155","768","428","f","true","img/H_28.png","朋友","prac_stranger","","自我"
"","","","","","html-keyboard-response","394","686663","0.0-18.1-0.1-1.40","null","<span style='color:GreenYellow; font-size: 70px;'>正确! </span>","null","","","","","","","","","","","","","","","","","","","","","","","feedback_test",""
"","","","","","psychophysics","395","688872","0.0-18.1-0.1-0.41","1208","","f","","","","","","","","","","","","","key","f","6.196155367231675","768","428","d","false","img/H_28.png","自我","prac_stranger","","自我"
"","","","","","html-keyboard-response","396","689186","0.0-18.1-0.1-1.41","null","<span style='color:red; font-size: 70px;'>错误! </span>","null","","","","","","","","","","","","","","","","","","","","","","","feedback_test",""
"","","","","","psychophysics","397","691048","0.0-18.1-0.1-0.42","862","","k","","","","","","","","","","","","","key","k","6.307363945578199","768","428","j","false","img/S_28.png","朋友","prac_stranger","","生人"
"","","","","","html-keyboard-response","398","691351","0.0-18.1-0.1-1.42","null","<span style='color:red; font-size: 70px;'>错误! </span>","null","","","","","","","","","","","","","","","","","","","","","","","feedback_test",""
"","","","","","psychophysics","399","693473","0.0-18.1-0.1-0.43","1122","","f","","","","","","","","","","","","","key","f","6.239115044247609","768","428","f","true","img/C_28.png","生人","prac_stranger","","朋友"
"","","","","","html-keyboard-response","400","693780","0.0-18.1-0.1-1.43","null","<span style='color:GreenYellow; font-size: 70px;'>正确! </span>","null","","","","","","","","","","","","","","","","","","","","","","","feedback_test",""
"","","","","","psychophysics","401","695840","0.0-18.1-0.1-0.44","1058","","f","","","","","","","","","","","","","key","f","6.340854938271711","768","428","f","true","img/H_28.png","生人","prac_stranger","","自我"
"","","","","","html-keyboard-response","402","696142","0.0-18.1-0.1-1.44","null","<span style='color:GreenYellow; font-size: 70px;'>正确! </span>","null","","","","","","","","","","","","","","","","","","","","","","","feedback_test",""
"","","","","","psychophysics","403","698257","0.0-18.1-0.1-0.45","1110","","f","","","","","","","","","","","","","key","f","6.277089552238667","768","428","f","true","img/C_28.png","自我","prac_stranger","","朋友"
"","","","","","html-keyboard-response","404","698560","0.0-18.1-0.1-1.45","null","<span style='color:GreenYellow; font-size: 70px;'>正确! </span>","null","","","","","","","","","","","","","","","","","","","","","","","feedback_test",""
"","","","","","psychophysics","405","700329","0.0-18.1-0.1-0.46","766","","k","","","","","","","","","","","","","key","k","6.254206405694056","768","428","k","true","img/S_28.png","生人","prac_stranger","","生人"
"","","","","","html-keyboard-response","406","700641","0.0-18.1-0.1-1.46","null","<span style='color:GreenYellow; font-size: 70px;'>正确! </span>","null","","","","","","","","","","","","","","","","","","","","","","","feedback_test",""
"","","","","","psychophysics","407","702776","0.0-18.1-0.1-0.47","1133","","f","","","","","","","","","","","","","key","f","6.274893805309429","768","428","d","false","img/C_28.png","朋友","prac_stranger","","朋友"
"","","","","","html-keyboard-response","408","703088","0.0-18.1-0.1-1.47","null","<span style='color:red; font-size: 70px;'>错误! </span>","null","","","","","","","","","","","","","","","","","","","","","","","feedback_test",""
"","","","","","html-keyboard-response","409","825545","0.0-19.0","122454","[""<style>.context{color:white; font-size: 35px; line-height:40px}</style>                                        <div><p class='context'>您正确回答了75% 的试次。</p><p class='context'>您的平均反应时为1085毫秒。</p><p class='context'>恭喜您完成练习。您可以在此时休息一段时间，准备好后按任意键进入正式实验。</p><p class='footer' style='font-size: 35px; line-height:40px;'>请在进入正式实验实验之前将您的<span style='color: lightgreen;'>食指和中指</span>放在电脑键盘的相应键位上，做好按键准备。</p>""]","f","","","","","","","","","","","","","","","","","","","","","","","",""
"","","","","","html-keyboard-response","410","832057","0.0-20.0-1.0-0.0","6508","
                    <p>请您将食指和中指放在相应按键上，准备进入<span style='color: yellow;'>重点图形为“朋友”对应图形</span>的正式匹配任务</p>
                    <p> <div style = ""color: green""><按任意键开始></div></p>
                    ","f","","","","","","","","","","","","","","","","","","","","","","","",""
"","","","","","psychophysics","411","834001","0.0-20.0-1.0-1.0-0.0-0.0","942","","d","","","","","","","","","","","","","key","d","6.400350993377733","768","428","d","true","img/S_28.png","生人","friend","","生人"
"","","","","","html-keyboard-response","412","834304","0.0-20.0-1.0-1.0-0.0-1.0","null","<span style='color:GreenYellow; font-size: 70px;'>正确! </span>","null","","","","","","","","","","","","","","","","","","","","","","","feedback_test",""
"","","","","","psychophysics","413","836281","0.0-20.0-1.0-1.0-0.0-0.1","972","","f","","","","","","","","","","","","","key","f","6.292798076923086","768","428","f","true","img/S_28.png","自我","friend","","生人"
"","","","","","html-keyboard-response","414","836592","0.0-20.0-1.0-1.0-0.0-1.1","null","<span style='color:GreenYellow; font-size: 70px;'>正确! </span>","null","","","","","","","","","","","","","","","","","","","","","","","feedback_test",""
"","","","","","psychophysics","415","838729","0.0-20.0-1.0-1.0-0.0-0.2","1136","","f","","","","","","","","","","","","","key","f","6.183309037900875","768","428","f","true","img/H_28.png","生人","friend","","自我"
"","","","","","html-keyboard-response","416","839042","0.0-20.0-1.0-1.0-0.0-1.2","null","<span style='color:GreenYellow; font-size: 70px;'>正确! </span>","null","","","","","","","","","","","","","","","","","","","","","","","feedback_test",""
"","","","","","psychophysics","417","841226","0.0-20.0-1.0-1.0-0.0-0.3","1182","","f","","","","","","","","","","","","","key","f","6.34271428571422","768","428","f","true","img/H_28.png","朋友","friend","","自我"
"","","","","","html-keyboard-response","418","841535","0.0-20.0-1.0-1.0-0.0-1.3","null","<span style='color:GreenYellow; font-size: 70px;'>正确! </span>","null","","","","","","","","","","","","","","","","","","","","","","","feedback_test",""
"","","","","","psychophysics","419","843378","0.0-20.0-1.0-1.0-0.0-0.4","834","","d","","","","","","","","","","","","","key","d","6.266129692832847","768","428","d","true","img/S_28.png","生人","friend","","生人"
"","","","","","html-keyboard-response","420","843683","0.0-20.0-1.0-1.0-0.0-1.4","null","<span style='color:GreenYellow; font-size: 70px;'>正确! </span>","null","","","","","","","","","","","","","","","","","","","","","","","feedback_test",""
"","","","","","psychophysics","421","845545","0.0-20.0-1.0-1.0-0.0-0.5","859","","d","","","","","","","","","","","","","key","d","6.242693602693461","768","428","d","true","img/H_28.png","自我","friend","","自我"
"","","","","","html-keyboard-response","422","845862","0.0-20.0-1.0-1.0-0.0-1.5","null","<span style='color:GreenYellow; font-size: 70px;'>正确! </span>","null","","","","","","","","","","","","","","","","","","","","","","","feedback_test",""
"","","","","","psychophysics","423","847769","0.0-20.0-1.0-1.0-0.0-0.6","906","","k","","","","","","","","","","","","","key","k","6.302192691029776","768","428","j","false","img/C_28.png","生人","friend","","朋友"
"","","","","","html-keyboard-response","424","848084","0.0-20.0-1.0-1.0-0.0-1.6","null","<span style='color:red; font-size: 70px;'>错误! </span>","null","","","","","","","","","","","","","","","","","","","","","","","feedback_test",""
