"success","timeout","failed_images","failed_audio","failed_video","trial_type","trial_index","time_elapsed","internal_node_id","rt","stimulus","response","value","item_width_mm","item_height_mm","item_width_px","px2mm","view_dist_mm","item_width_deg","px2deg","scale_factor","win_width_deg","win_height_deg","view_history","response_type","key_press","avg_frame_time","center_x","center_y","correct_response","correct","Image","text","condition","screen_id","label"
"true","false","[]","[]","[]","preload","0","1016","0.0-0.0","","","","","","","","","","","","","","","","","","","","","","","","","","",""
"","","","","","html-keyboard-response","1","66894","0.0-1.0","65876","
  <p>您好，欢迎参加本次实验。</p>
  <p>为充分保障您的权利，请确保您已经知晓并同意《参与实验同意书》以及《数据公开知情同意书》。</p>
  <p>如果您未见过上述内容，请咨询实验员。</p>
  <p>如果您选择继续实验，则表示您已经清楚两份知情同意书的内容并同意。</p>
  <p> <div style = ""color: green""><按任意键至下页></div> </p>
  "," ","","","","","","","","","","","","","","","","","","","","","","","",""
"","","","","","html-keyboard-response","2","68955","0.0-2.0","2060","
  <p>本实验首先需要您填写一些基本个人信息。</p>
  <p> <div style = ""color: green""><按任意键至下页></div></p>
  "," ","","","","","","","","","","","","","","","","","","","","","","","",""
"","","","","","call-function","3","68963","0.0-3.0-0.0","","","","","","","","","","","","","","","","","","","","","","","","","","",""
"","","","","","survey-html-form","4","74315","0.0-3.0-1.0","5237","","{""Q0"":""7""}","","","","","","","","","","","","","","","","","","","","","","","",""
"","","","","","html-button-response","5","75608","0.0-3.0-2.0","1282","<p style = 'color : white'>您的性别</p>","0","","","","","","","","","","","","","","","","","","","","","","","",""
"","","","","","survey-html-form","6","79735","0.0-3.0-3.0","4123","","{""Q0"":""2000""}","","","","","","","","","","","","","","","","","","","","","","","",""
"","","","","","survey-html-form","7","85132","0.0-3.0-4.0","5390","","{""Q0"":""5""}","","","","","","","","","","","","","","","","","","","","","","","",""
"","","","","","virtual-chinrest","8","234383","0.0-4.0","148914","","","","85.6","53.98","469.0192129747266","5.4830899396472335","521.68","9.380384259494532","50","0.7441059776346648","27.12","13.24","","","","","","","","","","","","",""
"true","","","","","fullscreen","9","237590","0.0-5.0","","","","","","","","","","","","","","","","","","","","","","","","","","",""
"","","","","","instructions","10","324503","0.0-6.0","86912","","","","","","","","","","","","","","[{""page_index"":0,""viewing_time"":3856},{""page_index"":1,""viewing_time"":9784},{""page_index"":2,""viewing_time"":64176},{""page_index"":3,""viewing_time"":6712},{""page_index"":4,""viewing_time"":2384}]","","","","","","","","","","","",""
"","","","","","instructions","11","341727","0.0-7.0","17223","","","","","","","","","","","","","","[{""page_index"":0,""viewing_time"":17223}]","","","","","","","","","","","",""
"","","","","","psychophysics","12","365651","0.0-8.0-0.0-0.0","22496","","d","","","","","","","","","","","","","key","d","17.116297117516613","697.8181818181819","388.3636363636364","k","false","img/H_28.png","自我","freeprac_self","",""
"","","","","","html-keyboard-response","13","365964","0.0-8.0-0.0-1.0","null","<span style='color:red; font-size: 70px;'>错误! </span>","null","","","","","","","","","","","","","","","","","","","","","","","feedback_test",""
"","","","","","psychophysics","14","388388","0.0-8.0-0.0-0.1","21420","","j","","","","","","","","","","","","","key","j","17.106514132925916","697.8181818181819","388.3636363636364","k","false","img/S_28.png","朋友","freeprac_self","",""
"","","","","","html-keyboard-response","15","388706","0.0-8.0-0.0-1.1","null","<span style='color:red; font-size: 70px;'>错误! </span>","null","","","","","","","","","","","","","","","","","","","","","","","feedback_test",""
"","","","","","psychophysics","16","391692","0.0-8.0-0.0-0.2","1984","","d","","","","","","","","","","","","","key","d","16.75606214689284","697.8181818181819","388.3636363636364","f","false","img/C_28.png","自我","freeprac_self","",""
"","","","","","html-keyboard-response","17","391995","0.0-8.0-0.0-1.2","null","<span style='color:red; font-size: 70px;'>错误! </span>","null","","","","","","","","","","","","","","","","","","","","","","","feedback_test",""
"","","","","","psychophysics","18","395764","0.0-8.0-0.0-0.3","2767","","k","","","","","","","","","","","","","key","k","16.661435555555443","697.8181818181819","388.3636363636364","j","false","img/H_28.png","朋友","freeprac_self","",""
"","","","","","html-keyboard-response","19","396070","0.0-8.0-0.0-1.3","null","<span style='color:red; font-size: 70px;'>错误! </span>","null","","","","","","","","","","","","","","","","","","","","","","","feedback_test",""
"","","","","","psychophysics","20","398547","0.0-8.0-0.0-0.4","1475","","j","","","","","","","","","","","","","key","j","16.661442176870477","697.8181818181819","388.3636363636364","j","true","img/S_28.png","生人","freeprac_self","",""
"","","","","","html-keyboard-response","21","398864","0.0-8.0-0.0-1.4","null","<span style='color:GreenYellow; font-size: 70px;'>正确! </span>","null","","","","","","","","","","","","","","","","","","","","","","","feedback_test",""
"","","","","","psychophysics","22","402045","0.0-8.0-0.0-0.5","2178","","j","","","","","","","","","","","","","key","j","16.749137566137563","697.8181818181819","388.3636363636364","j","true","img/S_28.png","生人","freeprac_self","",""
"","","","","","html-keyboard-response","23","402359","0.0-8.0-0.0-1.5","null","<span style='color:GreenYellow; font-size: 70px;'>正确! </span>","null","","","","","","","","","","","","","","","","","","","","","","","feedback_test",""
"","","","","","psychophysics","24","404636","0.0-8.0-0.0-0.6","1276","","f","","","","","","","","","","","","","key","f","16.783629629629473","697.8181818181819","388.3636363636364","f","true","img/C_28.png","自我","freeprac_self","",""
"","","","","","html-keyboard-response","25","404943","0.0-8.0-0.0-1.6","null","<span style='color:GreenYellow; font-size: 70px;'>正确! </span>","null","","","","","","","","","","","","","","","","","","","","","","","feedback_test",""
"","","","","","psychophysics","26","408628","0.0-8.0-0.0-0.7","2684","","d","","","","","","","","","","","","","key","d","16.813715596330074","697.8181818181819","388.3636363636364","j","false","img/H_28.png","朋友","freeprac_self","",""
"","","","","","html-keyboard-response","27","408940","0.0-8.0-0.0-1.7","null","<span style='color:red; font-size: 70px;'>错误! </span>","null","","","","","","","","","","","","","","","","","","","","","","","feedback_test",""
"","","","","","psychophysics","28","414653","0.0-8.0-0.0-0.8","4712","","k","","","","","","","","","","","","","key","k","16.7098387096774","697.8181818181819","388.3636363636364","d","false","img/C_28.png","生人","freeprac_self","",""
"","","","","","html-keyboard-response","29","414967","0.0-8.0-0.0-1.8","null","<span style='color:red; font-size: 70px;'>错误! </span>","null","","","","","","","","","","","","","","","","","","","","","","","feedback_test",""
"","","","","","psychophysics","30","420832","0.0-8.0-0.0-0.9","4863","","j","","","","","","","","","","","","","key","j","16.756541547277926","697.8181818181819","388.3636363636364","k","false","img/H_28.png","生人","freeprac_self","",""
"","","","","","html-keyboard-response","31","421149","0.0-8.0-0.0-1.9","null","<span style='color:red; font-size: 70px;'>错误! </span>","null","","","","","","","","","","","","","","","","","","","","","","","feedback_test",""
"","","","","","psychophysics","32","429777","0.0-8.0-0.0-0.10","7623","","k","","","","","","","","","","","","","key","k","16.758369649805495","697.8181818181819","388.3636363636364","d","false","img/C_28.png","朋友","freeprac_self","",""
"","","","","","html-keyboard-response","33","430086","0.0-8.0-0.0-1.10","null","<span style='color:red; font-size: 70px;'>错误! </span>","null","","","","","","","","","","","","","","","","","","","","","","","feedback_test",""
"","","","","","psychophysics","34","435130","0.0-8.0-0.0-0.11","4041","","f","","","","","","","","","","","","","key","f","16.661301324503274","697.8181818181819","388.3636363636364","k","false","img/S_28.png","自我","freeprac_self","",""
"","","","","","html-keyboard-response","35","435432","0.0-8.0-0.0-1.11","null","<span style='color:red; font-size: 70px;'>错误! </span>","null","","","","","","","","","","","","","","","","","","","","","","","feedback_test",""
"","","","","","html-keyboard-response","36","447069","0.0-8.0-1.0-0.0","11631","<style>.context{color:white; font-size: 35px; line-height:40px}</style>                           <div><p class='context'>您正确回答了25% 的试次。</p><p class='context'>您的平均反应时为1643毫秒。</p>"," ","","","","","","","","","","","","","","","","","","","","","","","",""
"","","","","","instructions","37","496711","0.0-8.0-1.0-1.0","49634","","","","","","","","","","","","","","[{""page_index"":0,""viewing_time"":5944},{""page_index"":1,""viewing_time"":42265},{""page_index"":2,""viewing_time"":1425}]","","","","","","","","","","","",""
"","","","","","psychophysics","38","502878","0.0-8.1-0.1-0.12","5046","","j","","","","","","","","","","","","","key","j","16.84558774373257","697.8181818181819","388.3636363636364","j","true","img/H_28.png","朋友","freeprac_self","",""
"","","","","","html-keyboard-response","39","503189","0.0-8.1-0.1-1.12","null","<span style='color:GreenYellow; font-size: 70px;'>正确! </span>","null","","","","","","","","","","","","","","","","","","","","","","","feedback_test",""
"","","","","","psychophysics","40","508044","0.0-8.1-0.1-0.13","3853","","j","","","","","","","","","","","","","key","j","16.660958620689506","697.8181818181819","388.3636363636364","j","true","img/S_28.png","生人","freeprac_self","",""
"","","","","","html-keyboard-response","41","508354","0.0-8.1-0.1-1.13","null","<span style='color:GreenYellow; font-size: 70px;'>正确! </span>","null","","","","","","","","","","","","","","","","","","","","","","","feedback_test",""
"","","","","","psychophysics","42","511399","0.0-8.1-0.1-0.14","2043","","f","","","","","","","","","","","","","key","f","16.660883977900525","697.8181818181819","388.3636363636364","d","false","img/C_28.png","生人","freeprac_self","",""
"","","","","","html-keyboard-response","43","511701","0.0-8.1-0.1-1.14","null","<span style='color:red; font-size: 70px;'>错误! </span>","null","","","","","","","","","","","","","","","","","","","","","","","feedback_test",""
"","","","","","psychophysics","44","515354","0.0-8.1-0.1-0.15","2652","","k","","","","","","","","","","","","","key","k","16.661536697247826","697.8181818181819","388.3636363636364","k","true","img/H_28.png","生人","freeprac_self","",""
"","","","","","html-keyboard-response","45","515655","0.0-8.1-0.1-1.15","null","<span style='color:GreenYellow; font-size: 70px;'>正确! </span>","null","","","","","","","","","","","","","","","","","","","","","","","feedback_test",""
"","","","","","psychophysics","46","517659","0.0-8.1-0.1-0.16","1002","","d","","","","","","","","","","","","","key","d","16.66215966386523","697.8181818181819","388.3636363636364","f","false","img/C_28.png","自我","freeprac_self","",""
"","","","","","html-keyboard-response","47","517961","0.0-8.1-0.1-1.16","null","<span style='color:red; font-size: 70px;'>错误! </span>","null","","","","","","","","","","","","","","","","","","","","","","","feedback_test",""
"","","","","","psychophysics","48","522853","0.0-8.1-0.1-0.17","3891","","k","","","","","","","","","","","","","key","k","16.71872508591077","697.8181818181819","388.3636363636364","k","true","img/H_28.png","自我","freeprac_self","",""
"","","","","","html-keyboard-response","49","523158","0.0-8.1-0.1-1.17","null","<span style='color:GreenYellow; font-size: 70px;'>正确! </span>","null","","","","","","","","","","","","","","","","","","","","","","","feedback_test",""
"","","","","","psychophysics","50","527820","0.0-8.1-0.1-0.18","3660","","k","","","","","","","","","","","","","key","k","16.72131768953045","697.8181818181819","388.3636363636364","k","true","img/S_28.png","自我","freeprac_self","",""
"","","","","","html-keyboard-response","51","528124","0.0-8.1-0.1-1.18","null","<span style='color:GreenYellow; font-size: 70px;'>正确! </span>","null","","","","","","","","","","","","","","","","","","","","","","","feedback_test",""
"","","","","","psychophysics","52","531644","0.0-8.1-0.1-0.19","2517","","k","","","","","","","","","","","","","key","k","16.660885714286096","697.8181818181819","388.3636363636364","k","true","img/S_28.png","朋友","freeprac_self","",""
"","","","","","html-keyboard-response","53","531954","0.0-8.1-0.1-1.19","null","<span style='color:GreenYellow; font-size: 70px;'>正确! </span>","null","","","","","","","","","","","","","","","","","","","","","","","feedback_test",""
"","","","","","psychophysics","54","534344","0.0-8.1-0.1-0.20","1388","","d","","","","","","","","","","","","","key","d","16.661253521126255","697.8181818181819","388.3636363636364","f","false","img/C_28.png","自我","freeprac_self","",""
"","","","","","html-keyboard-response","55","534650","0.0-8.1-0.1-1.20","null","<span style='color:red; font-size: 70px;'>错误! </span>","null","","","","","","","","","","","","","","","","","","","","","","","feedback_test",""
"","","","","","psychophysics","56","540817","0.0-8.1-0.1-0.21","5164","","k","","","","","","","","","","","","","key","k","16.936528925619733","697.8181818181819","388.3636363636364","j","false","img/H_28.png","朋友","freeprac_self","",""
"","","","","","html-keyboard-response","57","541121","0.0-8.1-0.1-1.21","null","<span style='color:red; font-size: 70px;'>错误! </span>","null","","","","","","","","","","","","","","","","","","","","","","","feedback_test",""
"","","","","","psychophysics","58","544341","0.0-8.1-0.1-0.22","2220","","k","","","","","","","","","","","","","key","k","16.661130208333514","697.8181818181819","388.3636363636364","d","false","img/C_28.png","朋友","freeprac_self","",""
"","","","","","html-keyboard-response","59","544653","0.0-8.1-0.1-1.22","null","<span style='color:red; font-size: 70px;'>错误! </span>","null","","","","","","","","","","","","","","","","","","","","","","","feedback_test",""
"","","","","","psychophysics","60","548122","0.0-8.1-0.1-0.23","2467","","j","","","","","","","","","","","","","key","j","16.823678048780167","697.8181818181819","388.3636363636364","j","true","img/S_28.png","生人","freeprac_self","",""
"","","","","","html-keyboard-response","61","548439","0.0-8.1-0.1-1.23","null","<span style='color:GreenYellow; font-size: 70px;'>正确! </span>","null","","","","","","","","","","","","","","","","","","","","","","","feedback_test",""
"","","","","","html-keyboard-response","62","555894","0.0-8.1-1.1-0.1","7454","<style>.context{color:white; font-size: 35px; line-height:40px}</style>                           <div><p class='context'>您正确回答了58% 的试次。</p><p class='context'>您的平均反应时为3441毫秒。</p>"," ","","","","","","","","","","","","","","","","","","","","","","","",""
"","","","","","instructions","63","673799","0.0-8.1-1.1-1.1","117902","","","","","","","","","","","","","","[{""page_index"":0,""viewing_time"":3221},{""page_index"":1,""viewing_time"":24584},{""page_index"":2,""viewing_time"":2864},{""page_index"":1,""viewing_time"":86224},{""page_index"":2,""viewing_time"":1008}]","","","","","","","","","","","",""
"","","","","","psychophysics","64","677769","0.0-8.2-0.2-0.24","2967","","f","","","","","","","","","","","","","key","f","16.801689361702117","697.8181818181819","388.3636363636364","f","true","img/C_28.png","自我","freeprac_self","",""
"","","","","","html-keyboard-response","65","678074","0.0-8.2-0.2-1.24","null","<span style='color:GreenYellow; font-size: 70px;'>正确! </span>","null","","","","","","","","","","","","","","","","","","","","","","","feedback_test",""
"","","","","","psychophysics","66","683333","0.0-8.2-0.2-0.25","4258","","k","","","","","","","","","","","","","key","k","16.821372990353463","697.8181818181819","388.3636363636364","k","true","img/H_28.png","生人","freeprac_self","",""
"","","","","","html-keyboard-response","67","683642","0.0-8.2-0.2-1.25","null","<span style='color:GreenYellow; font-size: 70px;'>正确! </span>","null","","","","","","","","","","","","","","","","","","","","","","","feedback_test",""
"","","","","","psychophysics","68","687204","0.0-8.2-0.2-0.26","2558","","d","","","","","","","","","","","","","key","d","16.81895714285728","697.8181818181819","388.3636363636364","d","true","img/C_28.png","生人","freeprac_self","",""
"","","","","","html-keyboard-response","69","687513","0.0-8.2-0.2-1.26","null","<span style='color:GreenYellow; font-size: 70px;'>正确! </span>","null","","","","","","","","","","","","","","","","","","","","","","","feedback_test",""
"","","","","","psychophysics","70","693026","0.0-8.2-0.2-0.27","4513","","d","","","","","","","","","","","","","key","d","16.814079510703447","697.8181818181819","388.3636363636364","d","true","img/C_28.png","朋友","freeprac_self","",""
"","","","","","html-keyboard-response","71","693341","0.0-8.2-0.2-1.27","null","<span style='color:GreenYellow; font-size: 70px;'>正确! </span>","null","","","","","","","","","","","","","","","","","","","","","","","feedback_test",""
"","","","","","psychophysics","72","697324","0.0-8.2-0.2-0.28","2981","","k","","","","","","","","","","","","","key","k","16.731379746835195","697.8181818181819","388.3636363636364","k","true","img/H_28.png","自我","freeprac_self","",""
"","","","","","html-keyboard-response","73","697633","0.0-8.2-0.2-1.28","null","<span style='color:GreenYellow; font-size: 70px;'>正确! </span>","null","","","","","","","","","","","","","","","","","","","","","","","feedback_test",""
"","","","","","psychophysics","74","700912","0.0-8.2-0.2-0.29","2274","","j","","","","","","","","","","","","","key","j","16.661010256410243","697.8181818181819","388.3636363636364","j","true","img/S_28.png","生人","freeprac_self","",""
"","","","","","html-keyboard-response","75","701219","0.0-8.2-0.2-1.29","null","<span style='color:GreenYellow; font-size: 70px;'>正确! </span>","null","","","","","","","","","","","","","","","","","","","","","","","feedback_test",""
"","","","","","psychophysics","76","703636","0.0-8.2-0.2-0.30","1416","","f","","","","","","","","","","","","","key","f","16.660743055555535","697.8181818181819","388.3636363636364","f","true","img/C_28.png","自我","freeprac_self","",""
"","","","","","html-keyboard-response","77","703949","0.0-8.2-0.2-1.30","null","<span style='color:GreenYellow; font-size: 70px;'>正确! </span>","null","","","","","","","","","","","","","","","","","","","","","","","feedback_test",""
"","","","","","psychophysics","78","707404","0.0-8.2-0.2-0.31","2454","","j","","","","","","","","","","","","","key","j","16.742712195122206","697.8181818181819","388.3636363636364","j","true","img/H_28.png","朋友","freeprac_self","",""
"","","","","","html-keyboard-response","79","707718","0.0-8.2-0.2-1.31","null","<span style='color:GreenYellow; font-size: 70px;'>正确! </span>","null","","","","","","","","","","","","","","","","","","","","","","","feedback_test",""
"","","","","","psychophysics","80","711054","0.0-8.2-0.2-0.32","2335","","k","","","","","","","","","","","","","key","k","16.66072361809014","697.8181818181819","388.3636363636364","k","true","img/S_28.png","自我","freeprac_self","",""
"","","","","","html-keyboard-response","81","711368","0.0-8.2-0.2-1.32","null","<span style='color:GreenYellow; font-size: 70px;'>正确! </span>","null","","","","","","","","","","","","","","","","","","","","","","","feedback_test",""
"","","","","","psychophysics","82","713778","0.0-8.2-0.2-0.33","1401","","k","","","","","","","","","","","","","key","k","16.66079166666653","697.8181818181819","388.3636363636364","k","true","img/S_28.png","朋友","freeprac_self","",""
"","","","","","html-keyboard-response","83","714089","0.0-8.2-0.2-1.33","null","<span style='color:GreenYellow; font-size: 70px;'>正确! </span>","null","","","","","","","","","","","","","","","","","","","","","","","feedback_test",""
"","","","","","psychophysics","84","716602","0.0-8.2-0.2-0.34","1512","","j","","","","","","","","","","","","","key","j","16.886020270270624","697.8181818181819","388.3636363636364","j","true","img/H_28.png","朋友","freeprac_self","",""
"","","","","","html-keyboard-response","85","716916","0.0-8.2-0.2-1.34","null","<span style='color:GreenYellow; font-size: 70px;'>正确! </span>","null","","","","","","","","","","","","","","","","","","","","","","","feedback_test",""
"","","","","","psychophysics","86","719405","0.0-8.2-0.2-0.35","1487","","j","","","","","","","","","","","","","key","j","16.661128378378045","697.8181818181819","388.3636363636364","j","true","img/S_28.png","生人","freeprac_self","",""
"","","","","","html-keyboard-response","87","719708","0.0-8.2-0.2-1.35","null","<span style='color:GreenYellow; font-size: 70px;'>正确! </span>","null","","","","","","","","","","","","","","","","","","","","","","","feedback_test",""
"","","","","","html-keyboard-response","88","734590","0.0-9.0","14879","[""<style>.context{color:white; font-size: 35px; line-height:40px}</style>           <div><p class='context'>您正确回答了100% 的试次。</p><p class='context'>您的平均反应时为2513毫秒。</p><p class='context'>恭喜您完成这一阶段的练习。按任意键进入<span style='color: yellow;'>重点关注图形为“朋友”</span>的练习。</p></div><p class='footer' style='font-size:35px; line-height:30px;'>任务要求：\n           <p class='footer' style='font-size:35px; line-height:35px;'>对于与“朋友”对应的图形：如果 匹配 ，请按 <span style=\""color: lightgreen;\"">f键</span></p><p class='footer' style='font-size:35px'>如果 不匹配 ，请按<span style=\""color: lightgreen;\"">d键</p></span>\n           <p class='footer' style='font-size:35px; line-height:35px;'>对于非“朋友”对应的图形：如果 匹配 ，请按 <span style=\""color: lightgreen;\"">j键</span></p><p class='footer' style='font-size:35px'>如果 不匹配 ，请按<span style=\""color: lightgreen;\"">k键</p></span>\n           <p class='footer' style='font-size:22px; line-height:25px;'>请在实验过程中将您的<span style=\""color: lightgreen;\"">食指和中指</span>放在电脑键盘的相应键位上进行按键。</p></span>""]"," ","","","","","","","","","","","","","","","","","","","","","","","",""
"","","","","","psychophysics","89","739206","0.0-10.0-0.0-0.0","3610","","f","","","","","","","","","","","","","key","f","17.967093750000004","697.8181818181819","388.3636363636364","k","false","img/S_28.png","朋友","freeprac_friend","",""
"","","","","","html-keyboard-response","90","739507","0.0-10.0-0.0-1.0","null","<span style='color:red; font-size: 70px;'>错误! </span>","null","","","","","","","","","","","","","","","","","","","","","","","feedback_test",""
"","","","","","psychophysics","91","743221","0.0-10.0-0.0-0.1","2712","","j","","","","","","","","","","","","","key","j","16.73580909090921","697.8181818181819","388.3636363636364","j","true","img/C_28.png","自我","freeprac_friend","",""
"","","","","","html-keyboard-response","92","743525","0.0-10.0-0.0-1.1","null","<span style='color:GreenYellow; font-size: 70px;'>正确! </span>","null","","","","","","","","","","","","","","","","","","","","","","","feedback_test",""
"","","","","","psychophysics","93","746443","0.0-10.0-0.0-0.2","1916","","f","","","","","","","","","","","","","key","f","16.757260115607238","697.8181818181819","388.3636363636364","f","true","img/H_28.png","朋友","freeprac_friend","",""
"","","","","","html-keyboard-response","94","746747","0.0-10.0-0.0-1.2","null","<span style='color:GreenYellow; font-size: 70px;'>正确! </span>","null","","","","","","","","","","","","","","","","","","","","","","","feedback_test",""
"","","","","","psychophysics","95","748766","0.0-10.0-0.0-0.3","1016","","f","","","","","","","","","","","","","key","f","16.661341666665976","697.8181818181819","388.3636363636364","f","true","img/H_28.png","朋友","freeprac_friend","",""
"","","","","","html-keyboard-response","96","749080","0.0-10.0-0.0-1.3","null","<span style='color:GreenYellow; font-size: 70px;'>正确! </span>","null","","","","","","","","","","","","","","","","","","","","","","","feedback_test",""
"","","","","","psychophysics","97","751813","0.0-10.0-0.0-0.4","1731","","d","","","","","","","","","","","","","key","d","16.66161349693319","697.8181818181819","388.3636363636364","k","false","img/C_28.png","朋友","freeprac_friend","",""
"","","","","","html-keyboard-response","98","752114","0.0-10.0-0.0-1.4","null","<span style='color:red; font-size: 70px;'>错误! </span>","null","","","","","","","","","","","","","","","","","","","","","","","feedback_test",""
"","","","","","psychophysics","99","755847","0.0-10.0-0.0-0.5","2731","","j","","","","","","","","","","","","","key","j","16.66124324324312","697.8181818181819","388.3636363636364","j","true","img/S_28.png","生人","freeprac_friend","",""
"","","","","","html-keyboard-response","100","756152","0.0-10.0-0.0-1.5","null","<span style='color:GreenYellow; font-size: 70px;'>正确! </span>","null","","","","","","","","","","","","","","","","","","","","","","","feedback_test",""
"","","","","","psychophysics","101","765180","0.0-10.0-0.0-0.6","8026","","d","","","","","","","","","","","","","key","d","16.816613084112216","697.8181818181819","388.3636363636364","d","true","img/H_28.png","生人","freeprac_friend","",""
"","","","","","html-keyboard-response","102","765496","0.0-10.0-0.0-1.6","null","<span style='color:GreenYellow; font-size: 70px;'>正确! </span>","null","","","","","","","","","","","","","","","","","","","","","","","feedback_test",""
"","","","","","psychophysics","103","771102","0.0-10.0-0.0-0.7","4605","","k","","","","","","","","","","","","","key","k","16.66074626865665","697.8181818181819","388.3636363636364","k","true","img/S_28.png","自我","freeprac_friend","",""
"","","","","","html-keyboard-response","104","771404","0.0-10.0-0.0-1.7","null","<span style='color:GreenYellow; font-size: 70px;'>正确! </span>","null","","","","","","","","","","","","","","","","","","","","","","","feedback_test",""
"","","","","","psychophysics","105","774521","0.0-10.0-0.0-0.8","2116","","k","","","","","","","","","","","","","key","k","16.661596774193708","697.8181818181819","388.3636363636364","d","false","img/H_28.png","自我","freeprac_friend","",""
"","","","","","html-keyboard-response","106","774829","0.0-10.0-0.0-1.8","null","<span style='color:red; font-size: 70px;'>错误! </span>","null","","","","","","","","","","","","","","","","","","","","","","","feedback_test",""
"","","","","","psychophysics","107","777898","0.0-10.0-0.0-0.9","2068","","j","","","","","","","","","","","","","key","j","16.661792349726817","697.8181818181819","388.3636363636364","j","true","img/C_28.png","自我","freeprac_friend","",""
"","","","","","html-keyboard-response","108","778201","0.0-10.0-0.0-1.9","null","<span style='color:GreenYellow; font-size: 70px;'>正确! </span>","null","","","","","","","","","","","","","","","","","","","","","","","feedback_test",""
"","","","","","psychophysics","109","783229","0.0-10.0-0.0-0.10","4025","","j","","","","","","","","","","","","","key","j","16.88591582491572","697.8181818181819","388.3636363636364","j","true","img/S_28.png","生人","freeprac_friend","",""
"","","","","","html-keyboard-response","110","783531","0.0-10.0-0.0-1.10","null","<span style='color:GreenYellow; font-size: 70px;'>正确! </span>","null","","","","","","","","","","","","","","","","","","","","","","","feedback_test",""
"","","","","","psychophysics","111","786151","0.0-10.0-0.0-0.11","1619","","k","","","","","","","","","","","","","key","k","16.661455128204604","697.8181818181819","388.3636363636364","k","true","img/C_28.png","生人","freeprac_friend","",""
"","","","","","html-keyboard-response","112","786463","0.0-10.0-0.0-1.11","null","<span style='color:GreenYellow; font-size: 70px;'>正确! </span>","null","","","","","","","","","","","","","","","","","","","","","","","feedback_test",""
"","","","","","html-keyboard-response","113","798198","0.0-11.0","11732","[""<style>.context{color:white; font-size: 35px; line-height:40px}</style>               <div><p class='context'>您正确回答了75% 的试次。</p><p class='context'>您的平均反应时为3191毫秒。</p><p class='context'>恭喜您完成这一阶段的练习。按任意键进入<span style='color: yellow;'>重点关注图形为“生人”</span>的练习。</p></div><p class='footer' style='font-size:35px; line-height:30px;'>任务要求：\n               <p class='footer' style='font-size:35px; line-height:35px;'>对与“生人”对应的图形，如果 匹配 ，请按 <span style=\""color: lightgreen;\"">f键</span></p><p class='footer' style='font-size:35px'>如果 不匹配 ，请按<span style=\""color: lightgreen;\"">d键</p></span>\n               <p class='footer' style='font-size:35px; line-height:35px;'>对非“生人”对应的图形，如果 匹配 ，请按 <span style=\""color: lightgreen;\"">j键</span></p><p class='footer' style='font-size:35px'>如果 不匹配 ，请按<span style=\""color: lightgreen;\"">k键</p></span>\n               <p class='footer' style='font-size:22px; line-height:25px;'>请在实验过程中将您的<span style=\""color: lightgreen;\"">食指和中指</span>放在电脑键盘的相应键位上进行按键。</p></span>""]"," ","","","","","","","","","","","","","","","","","","","","","","","",""
"","","","","","psychophysics","114","802827","0.0-12.0-0.0-0.0","3619","","d","","","","","","","","","","","","","key","d","16.785478102189426","697.8181818181819","388.3636363636364","d","true","img/S_28.png","自我","freeprac_stranger","",""
"","","","","","html-keyboard-response","115","803132","0.0-12.0-0.0-1.0","null","<span style='color:GreenYellow; font-size: 70px;'>正确! </span>","null","","","","","","","","","","","","","","","","","","","","","","","feedback_test",""
"","","","","","psychophysics","116","805630","0.0-12.0-0.0-0.1","1496","","j","","","","","","","","","","","","","key","j","16.661263513514093","697.8181818181819","388.3636363636364","j","true","img/C_28.png","自我","freeprac_stranger","",""
"","","","","","html-keyboard-response","117","805939","0.0-12.0-0.0-1.1","null","<span style='color:GreenYellow; font-size: 70px;'>正确! </span>","null","","","","","","","","","","","","","","","","","","","","","","","feedback_test",""
"","","","","","psychophysics","118","808556","0.0-12.0-0.0-0.2","1616","","k","","","","","","","","","","","","","key","k","16.768883870967905","697.8181818181819","388.3636363636364","k","true","img/H_28.png","自我","freeprac_stranger","",""
"","","","","","html-keyboard-response","119","808863","0.0-12.0-0.0-1.2","null","<span style='color:GreenYellow; font-size: 70px;'>正确! </span>","null","","","","","","","","","","","","","","","","","","","","","","","feedback_test",""
"","","","","","psychophysics","120","813607","0.0-12.0-0.0-0.3","3743","","d","","","","","","","","","","","","","key","d","16.66092932862172","697.8181818181819","388.3636363636364","d","true","img/S_28.png","朋友","freeprac_stranger","",""
"","","","","","html-keyboard-response","121","813920","0.0-12.0-0.0-1.3","null","<span style='color:GreenYellow; font-size: 70px;'>正确! </span>","null","","","","","","","","","","","","","","","","","","","","","","","feedback_test",""
"","","","","","psychophysics","122","816376","0.0-12.0-0.0-0.4","1454","","j","","","","","","","","","","","","","key","j","16.66114383561645","697.8181818181819","388.3636363636364","j","true","img/C_28.png","自我","freeprac_stranger","",""
"","","","","","html-keyboard-response","123","816690","0.0-12.0-0.0-1.4","null","<span style='color:GreenYellow; font-size: 70px;'>正确! </span>","null","","","","","","","","","","","","","","","","","","","","","","","feedback_test",""
"","","","","","psychophysics","124","818864","0.0-12.0-0.0-0.5","1172","","k","","","","","","","","","","","","","key","k","16.790007751937704","697.8181818181819","388.3636363636364","k","true","img/C_28.png","朋友","freeprac_stranger","",""
"","","","","","html-keyboard-response","125","819168","0.0-12.0-0.0-1.5","null","<span style='color:GreenYellow; font-size: 70px;'>正确! </span>","null","","","","","","","","","","","","","","","","","","","","","","","feedback_test",""
"","","","","","psychophysics","126","823370","0.0-12.0-0.0-0.6","3200","","k","","","","","","","","","","","","","key","k","16.795361445782834","697.8181818181819","388.3636363636364","k","true","img/H_28.png","生人","freeprac_stranger","",""
"","","","","","html-keyboard-response","127","823685","0.0-12.0-0.0-1.6","null","<span style='color:GreenYellow; font-size: 70px;'>正确! </span>","null","","","","","","","","","","","","","","","","","","","","","","","feedback_test",""
"","","","","","psychophysics","128","828183","0.0-12.0-0.0-0.7","3497","","f","","","","","","","","","","","","","key","f","16.660494423792073","697.8181818181819","388.3636363636364","f","true","img/S_28.png","生人","freeprac_stranger","",""
"","","","","","html-keyboard-response","129","828498","0.0-12.0-0.0-1.7","null","<span style='color:GreenYellow; font-size: 70px;'>正确! </span>","null","","","","","","","","","","","","","","","","","","","","","","","feedback_test",""
"","","","","","psychophysics","130","831716","0.0-12.0-0.0-0.8","2215","","f","","","","","","","","","","","","","key","f","16.661765625000044","697.8181818181819","388.3636363636364","f","true","img/S_28.png","生人","freeprac_stranger","",""
"","","","","","html-keyboard-response","131","832022","0.0-12.0-0.0-1.8","null","<span style='color:GreenYellow; font-size: 70px;'>正确! </span>","null","","","","","","","","","","","","","","","","","","","","","","","feedback_test",""
"","","","","","psychophysics","132","834695","0.0-12.0-0.0-0.9","1670","","j","","","","","","","","","","","","","key","j","16.661226415094397","697.8181818181819","388.3636363636364","j","true","img/H_28.png","朋友","freeprac_stranger","",""
"","","","","","html-keyboard-response","133","835007","0.0-12.0-0.0-1.9","null","<span style='color:GreenYellow; font-size: 70px;'>正确! </span>","null","","","","","","","","","","","","","","","","","","","","","","","feedback_test",""
"","","","","","psychophysics","134","837726","0.0-12.0-0.0-0.10","1716","","d","","","","","","","","","","","","","key","d","16.661512345678524","697.8181818181819","388.3636363636364","k","false","img/C_28.png","生人","freeprac_stranger","",""
"","","","","","html-keyboard-response","135","838033","0.0-12.0-0.0-1.10","null","<span style='color:red; font-size: 70px;'>错误! </span>","null","","","","","","","","","","","","","","","","","","","","","","","feedback_test",""
"","","","","","psychophysics","136","843619","0.0-12.0-0.0-0.11","4583","","j","","","","","","","","","","","","","key","j","16.71124324324302","697.8181818181819","388.3636363636364","j","true","img/H_28.png","朋友","freeprac_stranger","",""
"","","","","","html-keyboard-response","137","843927","0.0-12.0-0.0-1.11","null","<span style='color:GreenYellow; font-size: 70px;'>正确! </span>","null","","","","","","","","","","","","","","","","","","","","","","","feedback_test",""
"","","","","","instructions","138","854088","0.0-13.0","10159","","","","","","","","","","","","","","[{""page_index"":0,""viewing_time"":10159}]","","","","","","","","","","","",""
"","","","","","psychophysics","139","856590","0.0-14.0-0.0-0.0","null","","null","","","","","","","","","","","","","key","null","16.66082550335563","697.8181818181819","388.3636363636364","j","false","img/H_28.png","朋友","prac_self","","朋友"
"","","","","","html-keyboard-response","140","856892","0.0-14.0-0.0-1.0","null","<span class='add_' style='color:yellow; font-size: 70px;'> 太慢! </span>","null","","","","","","","","","","","","","","","","","","","","","","","feedback_test",""
"","","","","","psychophysics","141","859219","0.0-14.0-0.0-0.1","1325","","k","","","","","","","","","","","","","key","k","16.659244604316612","697.8181818181819","388.3636363636364","d","false","img/C_28.png","生人","prac_self","","自我"
"","","","","","html-keyboard-response","142","859521","0.0-14.0-0.0-1.1","null","<span style='color:red; font-size: 70px;'>错误! </span>","null","","","","","","","","","","","","","","","","","","","","","","","feedback_test",""
"","","","","","psychophysics","143","861654","0.0-14.0-0.0-0.2","1132","","j","","","","","","","","","","","","","key","j","16.794055555555378","697.8181818181819","388.3636363636364","f","false","img/C_28.png","自我","prac_self","","自我"
"","","","","","html-keyboard-response","144","861963","0.0-14.0-0.0-1.2","null","<span style='color:red; font-size: 70px;'>错误! </span>","null","","","","","","","","","","","","","","","","","","","","","","","feedback_test",""
"","","","","","psychophysics","145","864465","0.0-14.0-0.0-0.3","null","","null","","","","","","","","","","","","","key","null","16.66044295302064","697.8181818181819","388.3636363636364","j","false","img/H_28.png","朋友","prac_self","","朋友"
"","","","","","html-keyboard-response","146","864781","0.0-14.0-0.0-1.3","null","<span class='add_' style='color:yellow; font-size: 70px;'> 太慢! </span>","null","","","","","","","","","","","","","","","","","","","","","","","feedback_test",""
"","","","","","psychophysics","147","866863","0.0-14.0-0.0-0.4","1080","","k","","","","","","","","","","","","","key","k","16.936404958677148","697.8181818181819","388.3636363636364","d","false","img/C_28.png","朋友","prac_self","","自我"
"","","","","","html-keyboard-response","148","867168","0.0-14.0-0.0-1.4","null","<span style='color:red; font-size: 70px;'>错误! </span>","null","","","","","","","","","","","","","","","","","","","","","","","feedback_test",""
"","","","","","psychophysics","149","869674","0.0-14.0-0.0-0.5","null","","null","","","","","","","","","","","","","key","null","16.77355405405428","697.8181818181819","388.3636363636364","k","false","img/H_28.png","生人","prac_self","","朋友"
"","","","","","html-keyboard-response","150","869982","0.0-14.0-0.0-1.5","null","<span class='add_' style='color:yellow; font-size: 70px;'> 太慢! </span>","null","","","","","","","","","","","","","","","","","","","","","","","feedback_test",""
"","","","","","psychophysics","151","871979","0.0-14.0-0.0-0.6","996","","j","","","","","","","","","","","","","key","j","16.6628907563022","697.8181818181819","388.3636363636364","k","false","img/S_28.png","自我","prac_self","","生人"
"","","","","","html-keyboard-response","152","872291","0.0-14.0-0.0-1.6","null","<span style='color:red; font-size: 70px;'>错误! </span>","null","","","","","","","","","","","","","","","","","","","","","","","feedback_test",""
"","","","","","psychophysics","153","874476","0.0-14.0-0.0-0.7","1183","","d","","","","","","","","","","","","","key","d","16.661707692307672","697.8181818181819","388.3636363636364","f","false","img/C_28.png","自我","prac_self","","自我"
"","","","","","html-keyboard-response","154","874783","0.0-14.0-0.0-1.7","null","<span style='color:red; font-size: 70px;'>错误! </span>","null","","","","","","","","","","","","","","","","","","","","","","","feedback_test",""
"","","","","","psychophysics","155","876756","0.0-14.0-0.0-0.8","971","","k","","","","","","","","","","","","","key","k","16.661239316239236","697.8181818181819","388.3636363636364","j","false","img/S_28.png","生人","prac_self","","生人"
"","","","","","html-keyboard-response","156","877059","0.0-14.0-0.0-1.8","null","<span style='color:red; font-size: 70px;'>错误! </span>","null","","","","","","","","","","","","","","","","","","","","","","","feedback_test",""
"","","","","","psychophysics","157","879011","0.0-14.0-0.0-0.9","949","","j","","","","","","","","","","","","","key","j","16.661784482758556","697.8181818181819","388.3636363636364","j","true","img/S_28.png","生人","prac_self","","生人"
"","","","","","html-keyboard-response","158","879316","0.0-14.0-0.0-1.9","null","<span style='color:GreenYellow; font-size: 70px;'>正确! </span>","null","","","","","","","","","","","","","","","","","","","","","","","feedback_test",""
"","","","","","psychophysics","159","881501","0.0-14.0-0.0-0.10","1184","","k","","","","","","","","","","","","","key","k","16.66172307692289","697.8181818181819","388.3636363636364","k","true","img/S_28.png","朋友","prac_self","","生人"
"","","","","","html-keyboard-response","160","881806","0.0-14.0-0.0-1.10","null","<span style='color:GreenYellow; font-size: 70px;'>正确! </span>","null","","","","","","","","","","","","","","","","","","","","","","","feedback_test",""
"","","","","","psychophysics","161","884071","0.0-14.0-0.0-0.11","1262","","d","","","","","","","","","","","","","key","d","16.660488888888654","697.8181818181819","388.3636363636364","k","false","img/H_28.png","自我","prac_self","","朋友"
"","","","","","html-keyboard-response","162","884385","0.0-14.0-0.0-1.11","null","<span style='color:red; font-size: 70px;'>错误! </span>","null","","","","","","","","","","","","","","","","","","","","","","","feedback_test",""
"","","","","","psychophysics","163","886841","0.0-14.0-0.0-0.12","1454","","k","","","","","","","","","","","","","key","k","16.660544217686915","697.8181818181819","388.3636363636364","k","true","img/H_28.png","生人","prac_self","","朋友"
"","","","","","html-keyboard-response","164","887153","0.0-14.0-0.0-1.12","null","<span style='color:GreenYellow; font-size: 70px;'>正确! </span>","null","","","","","","","","","","","","","","","","","","","","","","","feedback_test",""
"","","","","","psychophysics","165","889379","0.0-14.0-0.0-0.13","1223","","f","","","","","","","","","","","","","key","f","16.660613636363642","697.8181818181819","388.3636363636364","d","false","img/C_28.png","朋友","prac_self","","自我"
"","","","","","html-keyboard-response","166","889680","0.0-14.0-0.0-1.13","null","<span style='color:red; font-size: 70px;'>错误! </span>","null","","","","","","","","","","","","","","","","","","","","","","","feedback_test",""
"","","","","","psychophysics","167","891933","0.0-14.0-0.0-0.14","1251","","k","","","","","","","","","","","","","key","k","16.660656716418277","697.8181818181819","388.3636363636364","k","true","img/S_28.png","朋友","prac_self","","生人"
"","","","","","html-keyboard-response","168","892248","0.0-14.0-0.0-1.14","null","<span style='color:GreenYellow; font-size: 70px;'>正确! </span>","null","","","","","","","","","","","","","","","","","","","","","","","feedback_test",""
"","","","","","psychophysics","169","894429","0.0-14.0-0.0-0.15","1178","","k","","","","","","","","","","","","","key","k","16.789968992247744","697.8181818181819","388.3636363636364","k","true","img/S_28.png","自我","prac_self","","生人"
"","","","","","html-keyboard-response","170","894740","0.0-14.0-0.0-1.15","null","<span style='color:GreenYellow; font-size: 70px;'>正确! </span>","null","","","","","","","","","","","","","","","","","","","","","","","feedback_test",""
"","","","","","psychophysics","171","896810","0.0-14.0-0.0-0.16","1068","","j","","","","","","","","","","","","","key","j","16.661459016393238","697.8181818181819","388.3636363636364","j","true","img/S_28.png","生人","prac_self","","生人"
"","","","","","html-keyboard-response","172","897114","0.0-14.0-0.0-1.16","null","<span style='color:GreenYellow; font-size: 70px;'>正确! </span>","null","","","","","","","","","","","","","","","","","","","","","","","feedback_test",""
"","","","","","psychophysics","173","898921","0.0-14.0-0.0-0.17","805","","k","","","","","","","","","","","","","key","k","16.81715887850455","697.8181818181819","388.3636363636364","j","false","img/H_28.png","朋友","prac_self","","朋友"
"","","","","","html-keyboard-response","174","899232","0.0-14.0-0.0-1.17","null","<span style='color:red; font-size: 70px;'>错误! </span>","null","","","","","","","","","","","","","","","","","","","","","","","feedback_test",""
"","","","","","psychophysics","175","901161","0.0-14.0-0.0-0.18","928","","f","","","","","","","","","","","","","key","f","16.661657894736877","697.8181818181819","388.3636363636364","f","true","img/C_28.png","自我","prac_self","","自我"
"","","","","","html-keyboard-response","176","901472","0.0-14.0-0.0-1.18","null","<span style='color:GreenYellow; font-size: 70px;'>正确! </span>","null","","","","","","","","","","","","","","","","","","","","","","","feedback_test",""
"","","","","","psychophysics","177","903557","0.0-14.0-0.0-0.19","1084","","j","","","","","","","","","","","","","key","j","17.074685950413315","697.8181818181819","388.3636363636364","j","true","img/H_28.png","朋友","prac_self","","朋友"
"","","","","","html-keyboard-response","178","903872","0.0-14.0-0.0-1.19","null","<span style='color:GreenYellow; font-size: 70px;'>正确! </span>","null","","","","","","","","","","","","","","","","","","","","","","","feedback_test",""
"","","","","","psychophysics","179","905868","0.0-14.0-0.0-0.20","993","","d","","","","","","","","","","","","","key","d","16.660369747899427","697.8181818181819","388.3636363636364","f","false","img/C_28.png","自我","prac_self","","自我"
"","","","","","html-keyboard-response","180","906173","0.0-14.0-0.0-1.20","null","<span style='color:red; font-size: 70px;'>错误! </span>","null","","","","","","","","","","","","","","","","","","","","","","","feedback_test",""
"","","","","","psychophysics","181","908619","0.0-14.0-0.0-0.21","1445","","d","","","","","","","","","","","","","key","d","16.660958904109588","697.8181818181819","388.3636363636364","d","true","img/C_28.png","生人","prac_self","","自我"
"","","","","","html-keyboard-response","182","908924","0.0-14.0-0.0-1.21","null","<span style='color:GreenYellow; font-size: 70px;'>正确! </span>","null","","","","","","","","","","","","","","","","","","","","","","","feedback_test",""
"","","","","","psychophysics","183","910902","0.0-14.0-0.0-0.22","976","","k","","","","","","","","","","","","","key","k","16.66041525423732","697.8181818181819","388.3636363636364","j","false","img/S_28.png","生人","prac_self","","生人"
"","","","","","html-keyboard-response","184","911215","0.0-14.0-0.0-1.22","null","<span style='color:red; font-size: 70px;'>错误! </span>","null","","","","","","","","","","","","","","","","","","","","","","","feedback_test",""
"","","","","","psychophysics","185","913423","0.0-14.0-0.0-0.23","1206","","f","","","","","","","","","","","","","key","f","16.66101526717552","697.8181818181819","388.3636363636364","k","false","img/H_28.png","自我","prac_self","","朋友"
"","","","","","html-keyboard-response","186","913727","0.0-14.0-0.0-1.23","null","<span style='color:red; font-size: 70px;'>错误! </span>","null","","","","","","","","","","","","","","","","","","","","","","","feedback_test",""
"","","","","","html-keyboard-response","187","927196","0.0-14.0-1.0-0.0","13466","<style>.context{color:white; font-size: 35px; line-height:40px}</style>                           <div><p class='context'>您正确回答了38% 的试次。</p><p class='context'>您的平均反应时为1171毫秒。</p>"," ","","","","","","","","","","","","","","","","","","","","","","","",""
"","","","","","instructions","188","944926","0.0-14.0-1.0-1.0","17727","","","","","","","","","","","","","","[{""page_index"":0,""viewing_time"":4121},{""page_index"":1,""viewing_time"":10974},{""page_index"":2,""viewing_time"":2632}]","","","","","","","","","","","",""
"","","","","","psychophysics","189","947431","0.0-14.1-0.1-0.24","null","","null","","","","","","","","","","","","","key","null","16.660979865771257","697.8181818181819","388.3636363636364","k","false","img/H_28.png","生人","prac_self","","朋友"
"","","","","","html-keyboard-response","190","947737","0.0-14.1-0.1-1.24","null","<span class='add_' style='color:yellow; font-size: 70px;'> 太慢! </span>","null","","","","","","","","","","","","","","","","","","","","","","","feedback_test",""
"","","","","","psychophysics","191","950245","0.0-14.1-0.1-0.25","null","","null","","","","","","","","","","","","","key","null","16.772358108108165","697.8181818181819","388.3636363636364","j","false","img/H_28.png","朋友","prac_self","","朋友"
"","","","","","html-keyboard-response","192","950555","0.0-14.1-0.1-1.25","null","<span class='add_' style='color:yellow; font-size: 70px;'> 太慢! </span>","null","","","","","","","","","","","","","","","","","","","","","","","feedback_test",""
"","","","","","psychophysics","193","953061","0.0-14.1-0.1-0.26","null","","null","","","","","","","","","","","","","key","null","16.888278911564957","697.8181818181819","388.3636363636364","k","false","img/H_28.png","自我","prac_self","","朋友"
"","","","","","html-keyboard-response","194","953376","0.0-14.1-0.1-1.26","null","<span class='add_' style='color:yellow; font-size: 70px;'> 太慢! </span>","null","","","","","","","","","","","","","","","","","","","","","","","feedback_test",""
"","","","","","psychophysics","195","955554","0.0-14.1-0.1-0.27","1176","","k","","","","","","","","","","","","","key","k","16.6612076923081","697.8181818181819","388.3636363636364","d","false","img/C_28.png","朋友","prac_self","","自我"
"","","","","","html-keyboard-response","196","955867","0.0-14.1-0.1-1.27","null","<span style='color:red; font-size: 70px;'>错误! </span>","null","","","","","","","","","","","","","","","","","","","","","","","feedback_test",""
"","","","","","psychophysics","197","958101","0.0-14.1-0.1-0.28","1232","","k","","","","","","","","","","","","","key","k","16.916786259541443","697.8181818181819","388.3636363636364","d","false","img/C_28.png","生人","prac_self","","自我"
"","","","","","html-keyboard-response","198","958404","0.0-14.1-0.1-1.28","null","<span style='color:red; font-size: 70px;'>错误! </span>","null","","","","","","","","","","","","","","","","","","","","","","","feedback_test",""
"","","","","","psychophysics","199","960382","0.0-14.1-0.1-0.29","976","","j","","","","","","","","","","","","","key","j","16.66185593220279","697.8181818181819","388.3636363636364","j","true","img/H_28.png","朋友","prac_self","","朋友"
"","","","","","html-keyboard-response","200","960693","0.0-14.1-0.1-1.29","null","<span style='color:GreenYellow; font-size: 70px;'>正确! </span>","null","","","","","","","","","","","","","","","","","","","","","","","feedback_test",""
"","","","","","psychophysics","201","962644","0.0-14.1-0.1-0.30","948","","k","","","","","","","","","","","","","key","k","16.661758620689366","697.8181818181819","388.3636363636364","k","true","img/S_28.png","朋友","prac_self","","生人"
"","","","","","html-keyboard-response","202","962951","0.0-14.1-0.1-1.30","null","<span style='color:GreenYellow; font-size: 70px;'>正确! </span>","null","","","","","","","","","","","","","","","","","","","","","","","feedback_test",""
"","","","","","psychophysics","203","965214","0.0-14.1-0.1-0.31","1260","","j","","","","","","","","","","","","","key","j","16.78632089552216","697.8181818181819","388.3636363636364","j","true","img/S_28.png","生人","prac_self","","生人"
"","","","","","html-keyboard-response","204","965518","0.0-14.1-0.1-1.31","null","<span style='color:GreenYellow; font-size: 70px;'>正确! </span>","null","","","","","","","","","","","","","","","","","","","","","","","feedback_test",""
"","","","","","psychophysics","205","967477","0.0-14.1-0.1-0.32","952","","k","","","","","","","","","","","","","key","k","16.661689655172864","697.8181818181819","388.3636363636364","j","false","img/S_28.png","生人","prac_self","","生人"
"","","","","","html-keyboard-response","206","967787","0.0-14.1-0.1-1.32","null","<span style='color:red; font-size: 70px;'>错误! </span>","null","","","","","","","","","","","","","","","","","","","","","","","feedback_test",""
"","","","","","psychophysics","207","969667","0.0-14.1-0.1-0.33","878","","f","","","","","","","","","","","","","key","f","16.66032142857148","697.8181818181819","388.3636363636364","f","true","img/C_28.png","自我","prac_self","","自我"
"","","","","","html-keyboard-response","208","969972","0.0-14.1-0.1-1.33","null","<span style='color:GreenYellow; font-size: 70px;'>正确! </span>","null","","","","","","","","","","","","","","","","","","","","","","","feedback_test",""
"","","","","","psychophysics","209","971978","0.0-14.1-0.1-0.34","1004","","k","","","","","","","","","","","","","key","k","16.800495798319986","697.8181818181819","388.3636363636364","k","true","img/S_28.png","自我","prac_self","","生人"
"","","","","","html-keyboard-response","210","972287","0.0-14.1-0.1-1.34","null","<span style='color:GreenYellow; font-size: 70px;'>正确! </span>","null","","","","","","","","","","","","","","","","","","","","","","","feedback_test",""
"","","","","","psychophysics","211","974402","0.0-14.1-0.1-0.35","1114","","f","","","","","","","","","","","","","key","f","16.794743999999948","697.8181818181819","388.3636363636364","f","true","img/C_28.png","自我","prac_self","","自我"
"","","","","","html-keyboard-response","212","974717","0.0-14.1-0.1-1.35","null","<span style='color:GreenYellow; font-size: 70px;'>正确! </span>","null","","","","","","","","","","","","","","","","","","","","","","","feedback_test",""
"","","","","","psychophysics","213","976756","0.0-14.1-0.1-0.36","1033","","d","","","","","","","","","","","","","key","d","16.662198347107832","697.8181818181819","388.3636363636364","d","true","img/C_28.png","朋友","prac_self","","自我"
"","","","","","html-keyboard-response","214","977068","0.0-14.1-0.1-1.36","null","<span style='color:GreenYellow; font-size: 70px;'>正确! </span>","null","","","","","","","","","","","","","","","","","","","","","","","feedback_test",""
"","","","","","psychophysics","215","979231","0.0-14.1-0.1-0.37","1161","","d","","","","","","","","","","","","","key","d","16.659860465116076","697.8181818181819","388.3636363636364","d","true","img/C_28.png","生人","prac_self","","自我"
"","","","","","html-keyboard-response","216","979544","0.0-14.1-0.1-1.37","null","<span style='color:GreenYellow; font-size: 70px;'>正确! </span>","null","","","","","","","","","","","","","","","","","","","","","","","feedback_test",""
"","","","","","psychophysics","217","981525","0.0-14.1-0.1-0.38","971","","j","","","","","","","","","","","","","key","j","16.660059322033796","697.8181818181819","388.3636363636364","j","true","img/H_28.png","朋友","prac_self","","朋友"
"","","","","","html-keyboard-response","218","981837","0.0-14.1-0.1-1.38","null","<span style='color:GreenYellow; font-size: 70px;'>正确! </span>","null","","","","","","","","","","","","","","","","","","","","","","","feedback_test",""
"","","","","","psychophysics","219","983706","0.0-14.1-0.1-0.39","865","","k","","","","","","","","","","","","","key","k","16.661045454545157","697.8181818181819","388.3636363636364","j","false","img/S_28.png","生人","prac_self","","生人"
"","","","","","html-keyboard-response","220","984008","0.0-14.1-0.1-1.39","null","<span style='color:red; font-size: 70px;'>错误! </span>","null","","","","","","","","","","","","","","","","","","","","","","","feedback_test",""
"","","","","","psychophysics","221","986308","0.0-14.1-0.1-0.40","1299","","k","","","","","","","","","","","","","key","k","16.66121897810261","697.8181818181819","388.3636363636364","k","true","img/H_28.png","生人","prac_self","","朋友"
"","","","","","html-keyboard-response","222","986618","0.0-14.1-0.1-1.40","null","<span style='color:GreenYellow; font-size: 70px;'>正确! </span>","null","","","","","","","","","","","","","","","","","","","","","","","feedback_test",""
"","","","","","psychophysics","223","988590","0.0-14.1-0.1-0.41","968","","j","","","","","","","","","","","","","key","j","16.66107692307709","697.8181818181819","388.3636363636364","j","true","img/S_28.png","生人","prac_self","","生人"
"","","","","","html-keyboard-response","224","988893","0.0-14.1-0.1-1.41","null","<span style='color:GreenYellow; font-size: 70px;'>正确! </span>","null","","","","","","","","","","","","","","","","","","","","","","","feedback_test",""
"","","","","","psychophysics","225","990690","0.0-14.1-0.1-0.42","797","","f","","","","","","","","","","","","","key","f","16.662607476636374","697.8181818181819","388.3636363636364","f","true","img/C_28.png","自我","prac_self","","自我"
"","","","","","html-keyboard-response","226","990999","0.0-14.1-0.1-1.42","null","<span style='color:GreenYellow; font-size: 70px;'>正确! </span>","null","","","","","","","","","","","","","","","","","","","","","","","feedback_test",""
"","","","","","psychophysics","227","992914","0.0-14.1-0.1-0.43","914","","f","","","","","","","","","","","","","key","f","16.659701754386013","697.8181818181819","388.3636363636364","f","true","img/C_28.png","自我","prac_self","","自我"
"","","","","","html-keyboard-response","228","993229","0.0-14.1-0.1-1.43","null","<span style='color:GreenYellow; font-size: 70px;'>正确! </span>","null","","","","","","","","","","","","","","","","","","","","","","","feedback_test",""
"","","","","","psychophysics","229","995306","0.0-14.1-0.1-0.44","1076","","d","","","","","","","","","","","","","key","d","16.661249999999963","697.8181818181819","388.3636363636364","k","false","img/H_28.png","自我","prac_self","","朋友"
"","","","","","html-keyboard-response","230","995611","0.0-14.1-0.1-1.44","null","<span style='color:red; font-size: 70px;'>错误! </span>","null","","","","","","","","","","","","","","","","","","","","","","","feedback_test",""
"","","","","","psychophysics","231","998115","0.0-14.1-0.1-0.45","null","","null","","","","","","","","","","","","","key","null","16.7742297297298","697.8181818181819","388.3636363636364","k","false","img/S_28.png","自我","prac_self","","生人"
"","","","","","html-keyboard-response","232","998426","0.0-14.1-0.1-1.45","null","<span class='add_' style='color:yellow; font-size: 70px;'> 太慢! </span>","null","","","","","","","","","","","","","","","","","","","","","","","feedback_test",""
"","","","","","psychophysics","233","1000803","0.0-14.1-0.1-0.46","1372","","j","","","","","","","","","","","","","key","j","16.779120567375266","697.8181818181819","388.3636363636364","k","false","img/S_28.png","朋友","prac_self","","生人"
"","","","","","html-keyboard-response","234","1001107","0.0-14.1-0.1-1.46","null","<span style='color:red; font-size: 70px;'>错误! </span>","null","","","","","","","","","","","","","","","","","","","","","","","feedback_test",""
"","","","","","psychophysics","235","1003041","0.0-14.1-0.1-0.47","932","","j","","","","","","","","","","","","","key","j","16.6598086956524","697.8181818181819","388.3636363636364","j","true","img/H_28.png","朋友","prac_self","","朋友"
"","","","","","html-keyboard-response","236","1003345","0.0-14.1-0.1-1.47","null","<span style='color:GreenYellow; font-size: 70px;'>正确! </span>","null","","","","","","","","","","","","","","","","","","","","","","","feedback_test",""
"","","","","","html-keyboard-response","237","1006695","0.0-14.1-1.1-0.1","3345","<style>.context{color:white; font-size: 35px; line-height:40px}</style>                           <div><p class='context'>您正确回答了58% 的试次。</p><p class='context'>您的平均反应时为1018毫秒。</p>"," ","","","","","","","","","","","","","","","","","","","","","","","",""
"","","","","","instructions","238","1013872","0.0-14.1-1.1-1.1","7173","","","","","","","","","","","","","","[{""page_index"":0,""viewing_time"":1613},{""page_index"":1,""viewing_time"":3936},{""page_index"":2,""viewing_time"":1624}]","","","","","","","","","","","",""
"","","","","","psychophysics","239","1016376","0.0-14.2-0.2-0.48","null","","null","","","","","","","","","","","","","key","null","16.99993150684925","697.8181818181819","388.3636363636364","k","false","img/S_28.png","自我","prac_self","","生人"
"","","","","","html-keyboard-response","240","1016678","0.0-14.2-0.2-1.48","null","<span class='add_' style='color:yellow; font-size: 70px;'> 太慢! </span>","null","","","","","","","","","","","","","","","","","","","","","","","feedback_test",""
"","","","","","psychophysics","241","1018727","0.0-14.2-0.2-0.49","1048","","k","","","","","","","","","","","","","key","k","16.660319672131216","697.8181818181819","388.3636363636364","k","true","img/H_28.png","生人","prac_self","","朋友"
"","","","","","html-keyboard-response","242","1019034","0.0-14.2-0.2-1.49","null","<span style='color:GreenYellow; font-size: 70px;'>正确! </span>","null","","","","","","","","","","","","","","","","","","","","","","","feedback_test",""
"","","","","","psychophysics","243","1021053","0.0-14.2-0.2-0.50","1018","","f","","","","","","","","","","","","","key","f","16.660599999999977","697.8181818181819","388.3636363636364","f","true","img/C_28.png","自我","prac_self","","自我"
"","","","","","html-keyboard-response","244","1021369","0.0-14.2-0.2-1.50","null","<span style='color:GreenYellow; font-size: 70px;'>正确! </span>","null","","","","","","","","","","","","","","","","","","","","","","","feedback_test",""
"","","","","","psychophysics","245","1023206","0.0-14.2-0.2-0.51","833","","d","","","","","","","","","","","","","key","d","16.661211009173645","697.8181818181819","388.3636363636364","d","true","img/C_28.png","朋友","prac_self","","自我"
"","","","","","html-keyboard-response","246","1023520","0.0-14.2-0.2-1.51","null","<span style='color:GreenYellow; font-size: 70px;'>正确! </span>","null","","","","","","","","","","","","","","","","","","","","","","","feedback_test",""
"","","","","","psychophysics","247","1025484","0.0-14.2-0.2-0.52","962","","j","","","","","","","","","","","","","key","j","16.804086206897345","697.8181818181819","388.3636363636364","j","true","img/S_28.png","生人","prac_self","","生人"
"","","","","","html-keyboard-response","248","1025794","0.0-14.2-0.2-1.52","null","<span style='color:GreenYellow; font-size: 70px;'>正确! </span>","null","","","","","","","","","","","","","","","","","","","","","","","feedback_test",""
"","","","","","psychophysics","249","1028293","0.0-14.2-0.2-0.53","1497","","k","","","","","","","","","","","","","key","k","16.66058389261762","697.8181818181819","388.3636363636364","d","false","img/C_28.png","生人","prac_self","","自我"
"","","","","","html-keyboard-response","250","1028608","0.0-14.2-0.2-1.53","null","<span style='color:red; font-size: 70px;'>错误! </span>","null","","","","","","","","","","","","","","","","","","","","","","","feedback_test",""
"","","","","","psychophysics","251","1030817","0.0-14.2-0.2-0.54","1207","","j","","","","","","","","","","","","","key","j","16.661809160305676","697.8181818181819","388.3636363636364","j","true","img/H_28.png","朋友","prac_self","","朋友"
"","","","","","html-keyboard-response","252","1031128","0.0-14.2-0.2-1.54","null","<span style='color:GreenYellow; font-size: 70px;'>正确! </span>","null","","","","","","","","","","","","","","","","","","","","","","","feedback_test",""
"","","","","","psychophysics","253","1032913","0.0-14.2-0.2-0.55","783","","j","","","","","","","","","","","","","key","j","16.66101886792425","697.8181818181819","388.3636363636364","k","false","img/H_28.png","自我","prac_self","","朋友"
"","","","","","html-keyboard-response","254","1033223","0.0-14.2-0.2-1.55","null","<span style='color:red; font-size: 70px;'>错误! </span>","null","","","","","","","","","","","","","","","","","","","","","","","feedback_test",""
"","","","","","psychophysics","255","1035153","0.0-14.2-0.2-0.56","927","","j","","","","","","","","","","","","","key","j","16.661780701754125","697.8181818181819","388.3636363636364","j","true","img/S_28.png","生人","prac_self","","生人"
"","","","","","html-keyboard-response","256","1035465","0.0-14.2-0.2-1.56","null","<span style='color:GreenYellow; font-size: 70px;'>正确! </span>","null","","","","","","","","","","","","","","","","","","","","","","","feedback_test",""
"","","","","","psychophysics","257","1037343","0.0-14.2-0.2-0.57","876","","k","","","","","","","","","","","","","key","k","16.81113513513481","697.8181818181819","388.3636363636364","k","true","img/S_28.png","朋友","prac_self","","生人"
"","","","","","html-keyboard-response","258","1037657","0.0-14.2-0.2-1.57","null","<span style='color:GreenYellow; font-size: 70px;'>正确! </span>","null","","","","","","","","","","","","","","","","","","","","","","","feedback_test",""
"","","","","","psychophysics","259","1039534","0.0-14.2-0.2-0.58","876","","f","","","","","","","","","","","","","key","f","16.661810810810902","697.8181818181819","388.3636363636364","f","true","img/C_28.png","自我","prac_self","","自我"
"","","","","","html-keyboard-response","260","1039838","0.0-14.2-0.2-1.58","null","<span style='color:GreenYellow; font-size: 70px;'>正确! </span>","null","","","","","","","","","","","","","","","","","","","","","","","feedback_test",""
"","","","","","psychophysics","261","1042036","0.0-14.2-0.2-0.59","1194","","j","","","","","","","","","","","","","key","j","16.79089922480675","697.8181818181819","388.3636363636364","j","true","img/H_28.png","朋友","prac_self","","朋友"
"","","","","","html-keyboard-response","262","1042346","0.0-14.2-0.2-1.59","null","<span style='color:GreenYellow; font-size: 70px;'>正确! </span>","null","","","","","","","","","","","","","","","","","","","","","","","feedback_test",""
"","","","","","psychophysics","263","1044191","0.0-14.2-0.2-0.60","842","","k","","","","","","","","","","","","","key","k","16.660472727272744","697.8181818181819","388.3636363636364","j","false","img/S_28.png","生人","prac_self","","生人"
"","","","","","html-keyboard-response","264","1044500","0.0-14.2-0.2-1.60","null","<span style='color:red; font-size: 70px;'>错误! </span>","null","","","","","","","","","","","","","","","","","","","","","","","feedback_test",""
"","","","","","psychophysics","265","1046543","0.0-14.2-0.2-0.61","1042","","k","","","","","","","","","","","","","key","k","16.661115702480263","697.8181818181819","388.3636363636364","k","true","img/S_28.png","朋友","prac_self","","生人"
"","","","","","html-keyboard-response","266","1046850","0.0-14.2-0.2-1.61","null","<span style='color:GreenYellow; font-size: 70px;'>正确! </span>","null","","","","","","","","","","","","","","","","","","","","","","","feedback_test",""
"","","","","","psychophysics","267","1048566","0.0-14.2-0.2-0.62","714","","f","","","","","","","","","","","","","key","f","16.66029411764797","697.8181818181819","388.3636363636364","f","true","img/C_28.png","自我","prac_self","","自我"
"","","","","","html-keyboard-response","268","1048872","0.0-14.2-0.2-1.62","null","<span style='color:GreenYellow; font-size: 70px;'>正确! </span>","null","","","","","","","","","","","","","","","","","","","","","","","feedback_test",""
"","","","","","psychophysics","269","1050873","0.0-14.2-0.2-0.63","999","","d","","","","","","","","","","","","","key","d","16.660882352941332","697.8181818181819","388.3636363636364","d","true","img/C_28.png","朋友","prac_self","","自我"
"","","","","","html-keyboard-response","270","1051179","0.0-14.2-0.2-1.63","null","<span style='color:GreenYellow; font-size: 70px;'>正确! </span>","null","","","","","","","","","","","","","","","","","","","","","","","feedback_test",""
"","","","","","psychophysics","271","1053055","0.0-14.2-0.2-0.64","873","","j","","","","","","","","","","","","","key","j","16.66205357142982","697.8181818181819","388.3636363636364","k","false","img/H_28.png","自我","prac_self","","朋友"
"","","","","","html-keyboard-response","272","1053358","0.0-14.2-0.2-1.64","null","<span style='color:red; font-size: 70px;'>错误! </span>","null","","","","","","","","","","","","","","","","","","","","","","","feedback_test",""
"","","","","","psychophysics","273","1055654","0.0-14.2-0.2-0.65","1295","","j","","","","","","","","","","","","","key","j","16.661058394160175","697.8181818181819","388.3636363636364","k","false","img/S_28.png","自我","prac_self","","生人"
"","","","","","html-keyboard-response","274","1055959","0.0-14.2-0.2-1.65","null","<span style='color:red; font-size: 70px;'>错误! </span>","null","","","","","","","","","","","","","","","","","","","","","","","feedback_test",""
"","","","","","psychophysics","275","1058134","0.0-14.2-0.2-0.66","1173","","j","","","","","","","","","","","","","key","j","16.661415384614912","697.8181818181819","388.3636363636364","j","true","img/S_28.png","生人","prac_self","","生人"
"","","","","","html-keyboard-response","276","1058438","0.0-14.2-0.2-1.66","null","<span style='color:GreenYellow; font-size: 70px;'>正确! </span>","null","","","","","","","","","","","","","","","","","","","","","","","feedback_test",""
"","","","","","psychophysics","277","1060243","0.0-14.2-0.2-0.67","804","","k","","","","","","","","","","","","","key","k","16.66134579439221","697.8181818181819","388.3636363636364","j","false","img/H_28.png","朋友","prac_self","","朋友"
"","","","","","html-keyboard-response","278","1060558","0.0-14.2-0.2-1.67","null","<span style='color:red; font-size: 70px;'>错误! </span>","null","","","","","","","","","","","","","","","","","","","","","","","feedback_test",""
"","","","","","psychophysics","279","1062323","0.0-14.2-0.2-0.68","764","","f","","","","","","","","","","","","","key","f","16.819836538461878","697.8181818181819","388.3636363636364","f","true","img/C_28.png","自我","prac_self","","自我"
"","","","","","html-keyboard-response","280","1062632","0.0-14.2-0.2-1.68","null","<span style='color:GreenYellow; font-size: 70px;'>正确! </span>","null","","","","","","","","","","","","","","","","","","","","","","","feedback_test",""
"","","","","","psychophysics","281","1064605","0.0-14.2-0.2-0.69","972","","j","","","","","","","","","","","","","key","j","16.659282051281544","697.8181818181819","388.3636363636364","j","true","img/H_28.png","朋友","prac_self","","朋友"
"","","","","","html-keyboard-response","282","1064922","0.0-14.2-0.2-1.69","null","<span style='color:GreenYellow; font-size: 70px;'>正确! </span>","null","","","","","","","","","","","","","","","","","","","","","","","feedback_test",""
"","","","","","psychophysics","283","1067069","0.0-14.2-0.2-0.70","1144","","k","","","","","","","","","","","","","key","k","16.661828125001193","697.8181818181819","388.3636363636364","d","false","img/C_28.png","生人","prac_self","","自我"
"","","","","","html-keyboard-response","284","1067385","0.0-14.2-0.2-1.70","null","<span style='color:red; font-size: 70px;'>错误! </span>","null","","","","","","","","","","","","","","","","","","","","","","","feedback_test",""
"","","","","","psychophysics","285","1069495","0.0-14.2-0.2-0.71","1108","","k","","","","","","","","","","","","","key","k","16.661134920635497","697.8181818181819","388.3636363636364","k","true","img/H_28.png","生人","prac_self","","朋友"
"","","","","","html-keyboard-response","286","1069808","0.0-14.2-0.2-1.71","null","<span style='color:GreenYellow; font-size: 70px;'>正确! </span>","null","","","","","","","","","","","","","","","","","","","","","","","feedback_test",""
"","","","","","html-keyboard-response","287","1074506","0.0-14.2-1.2-0.2","4691","<style>.context{color:white; font-size: 35px; line-height:40px}</style>                           <div><p class='context'>您正确回答了67% 的试次。</p><p class='context'>您的平均反应时为982毫秒。</p>"," ","","","","","","","","","","","","","","","","","","","","","","","",""
"","","","","","instructions","288","1080631","0.0-14.2-1.2-1.2","6117","","","","","","","","","","","","","","[{""page_index"":0,""viewing_time"":1493},{""page_index"":1,""viewing_time"":3409},{""page_index"":2,""viewing_time"":1215}]","","","","","","","","","","","",""
"","","","","","psychophysics","289","1083083","0.0-14.3-0.3-0.72","1450","","k","","","","","","","","","","","","","key","k","16.662082191779955","697.8181818181819","388.3636363636364","d","false","img/C_28.png","朋友","prac_self","","自我"
"","","","","","html-keyboard-response","290","1083395","0.0-14.3-0.3-1.72","null","<span style='color:red; font-size: 70px;'>错误! </span>","null","","","","","","","","","","","","","","","","","","","","","","","feedback_test",""
"","","","","","psychophysics","291","1085284","0.0-14.3-0.3-0.73","886","","j","","","","","","","","","","","","","key","j","16.660116071428224","697.8181818181819","388.3636363636364","j","true","img/H_28.png","朋友","prac_self","","朋友"
"","","","","","html-keyboard-response","292","1085595","0.0-14.3-0.3-1.73","null","<span style='color:GreenYellow; font-size: 70px;'>正确! </span>","null","","","","","","","","","","","","","","","","","","","","","","","feedback_test",""
"","","","","","psychophysics","293","1087784","0.0-14.3-0.3-0.74","1188","","k","","","","","","","","","","","","","key","k","16.66150769230802","697.8181818181819","388.3636363636364","k","true","img/S_28.png","朋友","prac_self","","生人"
"","","","","","html-keyboard-response","294","1088087","0.0-14.3-0.3-1.74","null","<span style='color:GreenYellow; font-size: 70px;'>正确! </span>","null","","","","","","","","","","","","","","","","","","","","","","","feedback_test",""
"","","","","","psychophysics","295","1089982","0.0-14.3-0.3-0.75","893","","f","","","","","","","","","","","","","key","f","16.66184821428656","697.8181818181819","388.3636363636364","f","true","img/C_28.png","自我","prac_self","","自我"
"","","","","","html-keyboard-response","296","1090296","0.0-14.3-0.3-1.75","null","<span style='color:GreenYellow; font-size: 70px;'>正确! </span>","null","","","","","","","","","","","","","","","","","","","","","","","feedback_test",""
"","","","","","psychophysics","297","1092221","0.0-14.3-0.3-0.76","923","","d","","","","","","","","","","","","","key","d","16.662643478262115","697.8181818181819","388.3636363636364","d","true","img/C_28.png","生人","prac_self","","自我"
"","","","","","html-keyboard-response","298","1092523","0.0-14.3-0.3-1.76","null","<span style='color:GreenYellow; font-size: 70px;'>正确! </span>","null","","","","","","","","","","","","","","","","","","","","","","","feedback_test",""
"","","","","","psychophysics","299","1094568","0.0-14.3-0.3-0.77","1043","","j","","","","","","","","","","","","","key","j","16.66135245901685","697.8181818181819","388.3636363636364","j","true","img/S_28.png","生人","prac_self","","生人"
"","","","","","html-keyboard-response","300","1094876","0.0-14.3-0.3-1.77","null","<span style='color:GreenYellow; font-size: 70px;'>正确! </span>","null","","","","","","","","","","","","","","","","","","","","","","","feedback_test",""
"","","","","","psychophysics","301","1096961","0.0-14.3-0.3-0.78","1079","","j","","","","","","","","","","","","","key","j","16.661064516127695","697.8181818181819","388.3636363636364","j","true","img/S_28.png","生人","prac_self","","生人"
"","","","","","html-keyboard-response","302","1097267","0.0-14.3-0.3-1.78","null","<span style='color:GreenYellow; font-size: 70px;'>正确! </span>","null","","","","","","","","","","","","","","","","","","","","","","","feedback_test",""
"","","","","","psychophysics","303","1099268","0.0-14.3-0.3-0.79","1000","","k","","","","","","","","","","","","","key","k","16.661344537814735","697.8181818181819","388.3636363636364","k","true","img/S_28.png","自我","prac_self","","生人"
"","","","","","html-keyboard-response","304","1099584","0.0-14.3-0.3-1.79","null","<span style='color:GreenYellow; font-size: 70px;'>正确! </span>","null","","","","","","","","","","","","","","","","","","","","","","","feedback_test",""
"","","","","","psychophysics","305","1101684","0.0-14.3-0.3-0.80","1099","","f","","","","","","","","","","","","","key","f","16.661256000000982","697.8181818181819","388.3636363636364","f","true","img/C_28.png","自我","prac_self","","自我"
"","","","","","html-keyboard-response","306","1101994","0.0-14.3-0.3-1.80","null","<span style='color:GreenYellow; font-size: 70px;'>正确! </span>","null","","","","","","","","","","","","","","","","","","","","","","","feedback_test",""
"","","","","","psychophysics","307","1104163","0.0-14.3-0.3-0.81","1167","","k","","","","","","","","","","","","","key","k","16.66190769230732","697.8181818181819","388.3636363636364","k","true","img/H_28.png","生人","prac_self","","朋友"
"","","","","","html-keyboard-response","308","1104480","0.0-14.3-0.3-1.81","null","<span style='color:GreenYellow; font-size: 70px;'>正确! </span>","null","","","","","","","","","","","","","","","","","","","","","","","feedback_test",""
"","","","","","psychophysics","309","1106382","0.0-14.3-0.3-0.82","901","","j","","","","","","","","","","","","","key","j","16.66240707964562","697.8181818181819","388.3636363636364","j","true","img/H_28.png","朋友","prac_self","","朋友"
"","","","","","html-keyboard-response","310","1106690","0.0-14.3-0.3-1.82","null","<span style='color:GreenYellow; font-size: 70px;'>正确! </span>","null","","","","","","","","","","","","","","","","","","","","","","","feedback_test",""
"","","","","","psychophysics","311","1108350","0.0-14.3-0.3-0.83","656","","j","","","","","","","","","","","","","key","j","16.65974747474691","697.8181818181819","388.3636363636364","k","false","img/H_28.png","自我","prac_self","","朋友"
"","","","","","html-keyboard-response","312","1108660","0.0-14.3-0.3-1.83","null","<span style='color:red; font-size: 70px;'>错误! </span>","null","","","","","","","","","","","","","","","","","","","","","","","feedback_test",""
"","","","","","psychophysics","313","1110674","0.0-14.3-0.3-0.84","1011","","j","","","","","","","","","","","","","key","j","16.66278991596617","697.8181818181819","388.3636363636364","j","true","img/S_28.png","生人","prac_self","","生人"
"","","","","","html-keyboard-response","314","1110977","0.0-14.3-0.3-1.84","null","<span style='color:GreenYellow; font-size: 70px;'>正确! </span>","null","","","","","","","","","","","","","","","","","","","","","","","feedback_test",""
"","","","","","psychophysics","315","1113062","0.0-14.3-0.3-0.85","1083","","j","","","","","","","","","","","","","key","j","16.663137096774598","697.8181818181819","388.3636363636364","j","true","img/S_28.png","生人","prac_self","","生人"
"","","","","","html-keyboard-response","316","1113377","0.0-14.3-0.3-1.85","null","<span style='color:GreenYellow; font-size: 70px;'>正确! </span>","null","","","","","","","","","","","","","","","","","","","","","","","feedback_test",""
"","","","","","psychophysics","317","1115687","0.0-14.3-0.3-0.86","1309","","f","","","","","","","","","","","","","key","f","16.78405147058862","697.8181818181819","388.3636363636364","k","false","img/H_28.png","自我","prac_self","","朋友"
"","","","","","html-keyboard-response","318","1115994","0.0-14.3-0.3-1.86","null","<span style='color:red; font-size: 70px;'>错误! </span>","null","","","","","","","","","","","","","","","","","","","","","","","feedback_test",""
"","","","","","psychophysics","319","1118004","0.0-14.3-0.3-0.87","1008","","f","","","","","","","","","","","","","key","f","16.802805084746993","697.8181818181819","388.3636363636364","f","true","img/C_28.png","自我","prac_self","","自我"
"","","","","","html-keyboard-response","320","1118314","0.0-14.3-0.3-1.87","null","<span style='color:GreenYellow; font-size: 70px;'>正确! </span>","null","","","","","","","","","","","","","","","","","","","","","","","feedback_test",""
"","","","","","psychophysics","321","1120481","0.0-14.3-0.3-0.88","1165","","d","","","","","","","","","","","","","key","d","16.6599689922476","697.8181818181819","388.3636363636364","k","false","img/S_28.png","自我","prac_self","","生人"
"","","","","","html-keyboard-response","322","1120789","0.0-14.3-0.3-1.88","null","<span style='color:red; font-size: 70px;'>错误! </span>","null","","","","","","","","","","","","","","","","","","","","","","","feedback_test",""
"","","","","","psychophysics","323","1122793","0.0-14.3-0.3-0.89","998","","k","","","","","","","","","","","","","key","k","16.660158333331733","697.8181818181819","388.3636363636364","k","true","img/H_28.png","生人","prac_self","","朋友"
"","","","","","html-keyboard-response","324","1123096","0.0-14.3-0.3-1.89","null","<span style='color:GreenYellow; font-size: 70px;'>正确! </span>","null","","","","","","","","","","","","","","","","","","","","","","","feedback_test",""
"","","","","","psychophysics","325","1124983","0.0-14.3-0.3-0.90","886","","f","","","","","","","","","","","","","key","f","16.66122321428598","697.8181818181819","388.3636363636364","f","true","img/C_28.png","自我","prac_self","","自我"
"","","","","","html-keyboard-response","326","1125289","0.0-14.3-0.3-1.90","null","<span style='color:GreenYellow; font-size: 70px;'>正确! </span>","null","","","","","","","","","","","","","","","","","","","","","","","feedback_test",""
"","","","","","psychophysics","327","1127232","0.0-14.3-0.3-0.91","935","","j","","","","","","","","","","","","","key","j","16.660817391303894","697.8181818181819","388.3636363636364","j","true","img/H_28.png","朋友","prac_self","","朋友"
"","","","","","html-keyboard-response","328","1127546","0.0-14.3-0.3-1.91","null","<span style='color:GreenYellow; font-size: 70px;'>正确! </span>","null","","","","","","","","","","","","","","","","","","","","","","","feedback_test",""
"","","","","","psychophysics","329","1129546","0.0-14.3-0.3-0.92","999","","k","","","","","","","","","","","","","key","k","16.661235294118914","697.8181818181819","388.3636363636364","k","true","img/S_28.png","朋友","prac_self","","生人"
"","","","","","html-keyboard-response","330","1129851","0.0-14.3-0.3-1.92","null","<span style='color:GreenYellow; font-size: 70px;'>正确! </span>","null","","","","","","","","","","","","","","","","","","","","","","","feedback_test",""
"","","","","","psychophysics","331","1131917","0.0-14.3-0.3-0.93","1064","","d","","","","","","","","","","","","","key","d","16.936322314048972","697.8181818181819","388.3636363636364","d","true","img/C_28.png","生人","prac_self","","自我"
"","","","","","html-keyboard-response","332","1132222","0.0-14.3-0.3-1.93","null","<span style='color:GreenYellow; font-size: 70px;'>正确! </span>","null","","","","","","","","","","","","","","","","","","","","","","","feedback_test",""
"","","","","","psychophysics","333","1134424","0.0-14.3-0.3-0.94","1200","","d","","","","","","","","","","","","","key","d","16.661576923076062","697.8181818181819","388.3636363636364","d","true","img/C_28.png","朋友","prac_self","","自我"
"","","","","","html-keyboard-response","334","1134727","0.0-14.3-0.3-1.94","null","<span style='color:GreenYellow; font-size: 70px;'>正确! </span>","null","","","","","","","","","","","","","","","","","","","","","","","feedback_test",""
"","","","","","psychophysics","335","1136776","0.0-14.3-0.3-0.95","1048","","j","","","","","","","","","","","","","key","j","16.798958677686905","697.8181818181819","388.3636363636364","j","true","img/H_28.png","朋友","prac_self","","朋友"
"","","","","","html-keyboard-response","336","1137090","0.0-14.3-0.3-1.95","null","<span style='color:GreenYellow; font-size: 70px;'>正确! </span>","null","","","","","","","","","","","","","","","","","","","","","","","feedback_test",""
"","","","","","html-keyboard-response","337","1149962","0.0-15.0","12854","[""<style>.context{color:white; font-size: 35px; line-height:40px}</style>           <div><p class='context'>您正确回答了83% 的试次。</p><p class='context'>您的平均反应时为1021毫秒。</p><p class='context'>恭喜您完成这一阶段的练习。按任意键进入<span style='color: yellow;'>重点关注图形为“朋友”</span>的练习。</p></div><p class='footer' style='font-size:35px; line-height:30px;'>任务要求：\n           <p class='footer' style='font-size:35px; line-height:35px;'>对于与“朋友”对应的图形：如果 匹配 ，请按 <span style=\""color: lightgreen;\"">f键</span></p><p class='footer' style='font-size:35px'>如果 不匹配 ，请按<span style=\""color: lightgreen;\"">d键</p></span>\n           <p class='footer' style='font-size:35px; line-height:35px;'>对于非“朋友”对应的图形：如果 匹配 ，请按 <span style=\""color: lightgreen;\"">j键</span></p><p class='footer' style='font-size:35px'>如果 不匹配 ，请按<span style=\""color: lightgreen;\"">k键</p></span>\n           <p class='footer' style='font-size:22px; line-height:25px;'>请在实验过程中将您的<span style=\""color: lightgreen;\"">食指和中指</span>放在电脑键盘的相应键位上进行按键。</p></span>""]"," ","","","","","","","","","","","","","","","","","","","","","","","",""
"","","","","","psychophysics","338","1152482","0.0-16.0-0.0-0.0","null","","null","","","","","","","","","","","","","key","null","19.10043076923153","697.8181818181819","388.3636363636364","k","false","img/C_28.png","生人","prac_friend","","自我"
"","","","","","html-keyboard-response","339","1152792","0.0-16.0-0.0-1.0","null","<span class='add_' style='color:yellow; font-size: 70px;'> 太慢! </span>","null","","","","","","","","","","","","","","","","","","","","","","","feedback_test",""
"","","","","","psychophysics","340","1154967","0.0-16.0-0.0-0.1","1174","","f","","","","","","","","","","","","","key","f","16.659176923078483","697.8181818181819","388.3636363636364","f","true","img/H_28.png","朋友","prac_friend","","朋友"
"","","","","","html-keyboard-response","341","1155279","0.0-16.0-0.0-1.1","null","<span style='color:GreenYellow; font-size: 70px;'>正确! </span>","null","","","","","","","","","","","","","","","","","","","","","","","feedback_test",""
"","","","","","psychophysics","342","1157622","0.0-16.0-0.0-0.2","1341","","k","","","","","","","","","","","","","key","k","16.659359712230724","697.8181818181819","388.3636363636364","d","false","img/H_28.png","生人","prac_friend","","朋友"
"","","","","","html-keyboard-response","343","1157930","0.0-16.0-0.0-1.2","null","<span style='color:red; font-size: 70px;'>错误! </span>","null","","","","","","","","","","","","","","","","","","","","","","","feedback_test",""
"","","","","","psychophysics","344","1160102","0.0-16.0-0.0-0.3","1171","","j","","","","","","","","","","","","","key","j","16.923590551179974","697.8181818181819","388.3636363636364","j","true","img/S_28.png","生人","prac_friend","","生人"
"","","","","","html-keyboard-response","345","1160413","0.0-16.0-0.0-1.3","null","<span style='color:GreenYellow; font-size: 70px;'>正确! </span>","null","","","","","","","","","","","","","","","","","","","","","","","feedback_test",""
"","","","","","psychophysics","346","1162741","0.0-16.0-0.0-0.4","1324","","k","","","","","","","","","","","","","key","k","16.78172262773652","697.8181818181819","388.3636363636364","k","true","img/S_28.png","朋友","prac_friend","","生人"
"","","","","","html-keyboard-response","347","1163043","0.0-16.0-0.0-1.4","null","<span style='color:GreenYellow; font-size: 70px;'>正确! </span>","null","","","","","","","","","","","","","","","","","","","","","","","feedback_test",""
"","","","","","psychophysics","348","1165187","0.0-16.0-0.0-0.5","1144","","d","","","","","","","","","","","","","key","d","16.66127559055178","697.8181818181819","388.3636363636364","d","true","img/H_28.png","自我","prac_friend","","朋友"
"","","","","","html-keyboard-response","349","1165502","0.0-16.0-0.0-1.5","null","<span style='color:GreenYellow; font-size: 70px;'>正确! </span>","null","","","","","","","","","","","","","","","","","","","","","","","feedback_test",""
"","","","","","psychophysics","350","1167755","0.0-16.0-0.0-0.6","1252","","d","","","","","","","","","","","","","key","d","16.661186567165387","697.8181818181819","388.3636363636364","k","false","img/C_28.png","朋友","prac_friend","","自我"
"","","","","","html-keyboard-response","351","1168071","0.0-16.0-0.0-1.6","null","<span style='color:red; font-size: 70px;'>错误! </span>","null","","","","","","","","","","","","","","","","","","","","","","","feedback_test",""
"","","","","","psychophysics","352","1170009","0.0-16.0-0.0-0.7","936","","f","","","","","","","","","","","","","key","f","16.660827586206544","697.8181818181819","388.3636363636364","f","true","img/H_28.png","朋友","prac_friend","","朋友"
"","","","","","html-keyboard-response","353","1170311","0.0-16.0-0.0-1.7","null","<span style='color:GreenYellow; font-size: 70px;'>正确! </span>","null","","","","","","","","","","","","","","","","","","","","","","","feedback_test",""
"","","","","","psychophysics","354","1172328","0.0-16.0-0.0-0.8","1016","","j","","","","","","","","","","","","","key","j","16.65985833333301","697.8181818181819","388.3636363636364","j","true","img/C_28.png","自我","prac_friend","","自我"
"","","","","","html-keyboard-response","355","1172632","0.0-16.0-0.0-1.8","null","<span style='color:GreenYellow; font-size: 70px;'>正确! </span>","null","","","","","","","","","","","","","","","","","","","","","","","feedback_test",""
"","","","","","psychophysics","356","1175134","0.0-16.0-0.0-0.9","null","","null","","","","","","","","","","","","","key","null","16.66111409395852","697.8181818181819","388.3636363636364","k","false","img/S_28.png","自我","prac_friend","","生人"
"","","","","","html-keyboard-response","357","1175446","0.0-16.0-0.0-1.9","null","<span class='add_' style='color:yellow; font-size: 70px;'> 太慢! </span>","null","","","","","","","","","","","","","","","","","","","","","","","feedback_test",""
"","","","","","psychophysics","358","1177534","0.0-16.0-0.0-0.10","1086","","j","","","","","","","","","","","","","key","j","16.66074193548411","697.8181818181819","388.3636363636364","j","true","img/C_28.png","自我","prac_friend","","自我"
"","","","","","html-keyboard-response","359","1177843","0.0-16.0-0.0-1.10","null","<span style='color:GreenYellow; font-size: 70px;'>正确! </span>","null","","","","","","","","","","","","","","","","","","","","","","","feedback_test",""
"","","","","","psychophysics","360","1180104","0.0-16.0-0.0-0.11","1261","","d","","","","","","","","","","","","","key","d","16.66128888888871","697.8181818181819","388.3636363636364","j","false","img/S_28.png","生人","prac_friend","","生人"
"","","","","","html-keyboard-response","361","1180420","0.0-16.0-0.0-1.11","null","<span style='color:red; font-size: 70px;'>错误! </span>","null","","","","","","","","","","","","","","","","","","","","","","","feedback_test",""
"","","","","","psychophysics","362","1182249","0.0-16.0-0.0-0.12","828","","f","","","","","","","","","","","","","key","f","16.661861111112458","697.8181818181819","388.3636363636364","d","false","img/H_28.png","生人","prac_friend","","朋友"
"","","","","","html-keyboard-response","363","1182556","0.0-16.0-0.0-1.12","null","<span style='color:red; font-size: 70px;'>错误! </span>","null","","","","","","","","","","","","","","","","","","","","","","","feedback_test",""
"","","","","","psychophysics","364","1184541","0.0-16.0-0.0-0.13","983","","d","","","","","","","","","","","","","key","d","16.804119658119117","697.8181818181819","388.3636363636364","k","false","img/S_28.png","朋友","prac_friend","","生人"
"","","","","","html-keyboard-response","365","1184847","0.0-16.0-0.0-1.13","null","<span style='color:red; font-size: 70px;'>错误! </span>","null","","","","","","","","","","","","","","","","","","","","","","","feedback_test",""
"","","","","","psychophysics","366","1186679","0.0-16.0-0.0-0.14","828","","f","","","","","","","","","","","","","key","f","16.66114678899245","697.8181818181819","388.3636363636364","f","true","img/H_28.png","朋友","prac_friend","","朋友"
"","","","","","html-keyboard-response","367","1186981","0.0-16.0-0.0-1.14","null","<span style='color:GreenYellow; font-size: 70px;'>正确! </span>","null","","","","","","","","","","","","","","","","","","","","","","","feedback_test",""
"","","","","","psychophysics","368","1189208","0.0-16.0-0.0-0.15","1222","","k","","","","","","","","","","","","","key","k","17.045646153845322","697.8181818181819","388.3636363636364","j","false","img/S_28.png","生人","prac_friend","","生人"
"","","","","","html-keyboard-response","369","1189522","0.0-16.0-0.0-1.15","null","<span style='color:red; font-size: 70px;'>错误! </span>","null","","","","","","","","","","","","","","","","","","","","","","","feedback_test",""
"","","","","","psychophysics","370","1191421","0.0-16.0-0.0-0.16","896","","j","","","","","","","","","","","","","key","j","16.663053097345546","697.8181818181819","388.3636363636364","k","false","img/S_28.png","自我","prac_friend","","生人"
"","","","","","html-keyboard-response","371","1191732","0.0-16.0-0.0-1.16","null","<span style='color:red; font-size: 70px;'>错误! </span>","null","","","","","","","","","","","","","","","","","","","","","","","feedback_test",""
"","","","","","psychophysics","372","1193531","0.0-16.0-0.0-0.17","797","","j","","","","","","","","","","","","","key","j","16.66118867924648","697.8181818181819","388.3636363636364","j","true","img/C_28.png","自我","prac_friend","","自我"
"","","","","","html-keyboard-response","373","1193834","0.0-16.0-0.0-1.17","null","<span style='color:GreenYellow; font-size: 70px;'>正确! </span>","null","","","","","","","","","","","","","","","","","","","","","","","feedback_test",""
"","","","","","psychophysics","374","1195549","0.0-16.0-0.0-0.18","714","","f","","","","","","","","","","","","","key","f","16.66055445544569","697.8181818181819","388.3636363636364","f","true","img/H_28.png","朋友","prac_friend","","朋友"
"","","","","","html-keyboard-response","375","1195856","0.0-16.0-0.0-1.18","null","<span style='color:GreenYellow; font-size: 70px;'>正确! </span>","null","","","","","","","","","","","","","","","","","","","","","","","feedback_test",""
"","","","","","psychophysics","376","1198003","0.0-16.0-0.0-0.19","1146","","k","","","","","","","","","","","","","key","k","16.661273437499403","697.8181818181819","388.3636363636364","k","true","img/C_28.png","朋友","prac_friend","","自我"
"","","","","","html-keyboard-response","377","1198319","0.0-16.0-0.0-1.19","null","<span style='color:GreenYellow; font-size: 70px;'>正确! </span>","null","","","","","","","","","","","","","","","","","","","","","","","feedback_test",""
"","","","","","psychophysics","378","1200048","0.0-16.0-0.0-0.20","728","","k","","","","","","","","","","","","","key","k","16.661097087377446","697.8181818181819","388.3636363636364","j","false","img/C_28.png","自我","prac_friend","","自我"
"","","","","","html-keyboard-response","379","1200359","0.0-16.0-0.0-1.20","null","<span style='color:red; font-size: 70px;'>错误! </span>","null","","","","","","","","","","","","","","","","","","","","","","","feedback_test",""
"","","","","","psychophysics","380","1202794","0.0-16.0-0.0-0.21","1434","","j","","","","","","","","","","","","","key","j","16.894461538461915","697.8181818181819","388.3636363636364","j","true","img/S_28.png","生人","prac_friend","","生人"
"","","","","","html-keyboard-response","381","1203105","0.0-16.0-0.0-1.21","null","<span style='color:GreenYellow; font-size: 70px;'>正确! </span>","null","","","","","","","","","","","","","","","","","","","","","","","feedback_test",""
"","","","","","psychophysics","382","1204951","0.0-16.0-0.0-0.22","845","","f","","","","","","","","","","","","","key","f","16.661763636363585","697.8181818181819","388.3636363636364","d","false","img/H_28.png","自我","prac_friend","","朋友"
"","","","","","html-keyboard-response","383","1205267","0.0-16.0-0.0-1.22","null","<span style='color:red; font-size: 70px;'>错误! </span>","null","","","","","","","","","","","","","","","","","","","","","","","feedback_test",""
"","","","","","psychophysics","384","1207175","0.0-16.0-0.0-0.23","906","","d","","","","","","","","","","","","","key","d","16.66195575221425","697.8181818181819","388.3636363636364","k","false","img/C_28.png","生人","prac_friend","","自我"
"","","","","","html-keyboard-response","385","1207483","0.0-16.0-0.0-1.23","null","<span style='color:red; font-size: 70px;'>错误! </span>","null","","","","","","","","","","","","","","","","","","","","","","","feedback_test",""
"","","","","","html-keyboard-response","386","1210794","0.0-16.0-1.0-0.0","3307","<style>.context{color:white; font-size: 35px; line-height:40px}</style>                           <div><p class='context'>您正确回答了50% 的试次。</p><p class='context'>您的平均反应时为1064毫秒。</p>"," ","","","","","","","","","","","","","","","","","","","","","","","",""
"","","","","","instructions","387","1226503","0.0-16.0-1.0-1.0","15704","","","","","","","","","","","","","","[{""page_index"":0,""viewing_time"":4586},{""page_index"":1,""viewing_time"":5886},{""page_index"":2,""viewing_time"":5232}]","","","","","","","","","","","",""
"","","","","","psychophysics","388","1228722","0.0-16.1-0.1-0.24","1209","","k","","","","","","","","","","","","","key","k","16.66184210526421","697.8181818181819","388.3636363636364","j","false","img/S_28.png","生人","prac_friend","","生人"
"","","","","","html-keyboard-response","389","1229026","0.0-16.1-0.1-1.24","null","<span style='color:red; font-size: 70px;'>错误! </span>","null","","","","","","","","","","","","","","","","","","","","","","","feedback_test",""
"","","","","","psychophysics","390","1230962","0.0-16.1-0.1-0.25","933","","j","","","","","","","","","","","","","key","j","16.807614035087457","697.8181818181819","388.3636363636364","j","true","img/S_28.png","生人","prac_friend","","生人"
"","","","","","html-keyboard-response","391","1231271","0.0-16.1-0.1-1.25","null","<span style='color:GreenYellow; font-size: 70px;'>正确! </span>","null","","","","","","","","","","","","","","","","","","","","","","","feedback_test",""
"","","","","","psychophysics","392","1233215","0.0-16.1-0.1-0.26","942","","k","","","","","","","","","","","","","key","k","16.661486956521706","697.8181818181819","388.3636363636364","k","true","img/S_28.png","自我","prac_friend","","生人"
"","","","","","html-keyboard-response","393","1233526","0.0-16.1-0.1-1.26","null","<span style='color:GreenYellow; font-size: 70px;'>正确! </span>","null","","","","","","","","","","","","","","","","","","","","","","","feedback_test",""
"","","","","","psychophysics","394","1235291","0.0-16.1-0.1-0.27","764","","f","","","","","","","","","","","","","key","f","16.660466666665993","697.8181818181819","388.3636363636364","f","true","img/H_28.png","朋友","prac_friend","","朋友"
"","","","","","html-keyboard-response","395","1235606","0.0-16.1-0.1-1.27","null","<span style='color:GreenYellow; font-size: 70px;'>正确! </span>","null","","","","","","","","","","","","","","","","","","","","","","","feedback_test",""
"","","","","","psychophysics","396","1237788","0.0-16.1-0.1-0.28","1181","","k","","","","","","","","","","","","","key","k","16.658553846155364","697.8181818181819","388.3636363636364","k","true","img/C_28.png","朋友","prac_friend","","自我"
"","","","","","html-keyboard-response","397","1238095","0.0-16.1-0.1-1.28","null","<span style='color:GreenYellow; font-size: 70px;'>正确! </span>","null","","","","","","","","","","","","","","","","","","","","","","","feedback_test",""
"","","","","","psychophysics","398","1240328","0.0-16.1-0.1-0.29","1232","","j","","","","","","","","","","","","","key","j","16.78665151515143","697.8181818181819","388.3636363636364","d","false","img/H_28.png","自我","prac_friend","","朋友"
"","","","","","html-keyboard-response","399","1240637","0.0-16.1-0.1-1.29","null","<span style='color:red; font-size: 70px;'>错误! </span>","null","","","","","","","","","","","","","","","","","","","","","","","feedback_test",""
"","","","","","psychophysics","400","1242827","0.0-16.1-0.1-0.30","1189","","j","","","","","","","","","","","","","key","j","16.661799999999886","697.8181818181819","388.3636363636364","j","true","img/C_28.png","自我","prac_friend","","自我"
"","","","","","html-keyboard-response","401","1243130","0.0-16.1-0.1-1.30","null","<span style='color:GreenYellow; font-size: 70px;'>正确! </span>","null","","","","","","","","","","","","","","","","","","","","","","","feedback_test",""
"","","","","","psychophysics","402","1245237","0.0-16.1-0.1-0.31","1106","","k","","","","","","","","","","","","","key","k","16.928806451613067","697.8181818181819","388.3636363636364","k","true","img/S_28.png","朋友","prac_friend","","生人"
"","","","","","html-keyboard-response","403","1245545","0.0-16.1-0.1-1.31","null","<span style='color:GreenYellow; font-size: 70px;'>正确! </span>","null","","","","","","","","","","","","","","","","","","","","","","","feedback_test",""
"","","","","","psychophysics","404","1247320","0.0-16.1-0.1-0.32","774","","f","","","","","","","","","","","","","key","f","16.66086792452744","697.8181818181819","388.3636363636364","f","true","img/H_28.png","朋友","prac_friend","","朋友"
