"success","timeout","failed_images","failed_audio","failed_video","trial_type","trial_index","time_elapsed","internal_node_id","rt","stimulus","response","value","item_width_mm","item_height_mm","item_width_px","px2mm","view_dist_mm","item_width_deg","px2deg","scale_factor","win_width_deg","win_height_deg","view_history","response_type","key_press","avg_frame_time","center_x","center_y","correct_response","correct","Image","text","condition","screen_id","label"
"true","false","[]","[]","[]","preload","0","492","0.0-0.0","","","","","","","","","","","","","","","","","","","","","","","","","","",""
"","","","","","html-keyboard-response","1","6327","0.0-1.0","5834","
  <p>您好，欢迎参加本次实验。</p>
  <p>为充分保障您的权利，请确保您已经知晓并同意《参与实验同意书》以及《数据公开知情同意书》。</p>
  <p>如果您未见过上述内容，请咨询实验员。</p>
  <p>如果您选择继续实验，则表示您已经清楚两份知情同意书的内容并同意。</p>
  <p> <div style = ""color: green""><按任意键至下页></div> </p>
  ","enter","","","","","","","","","","","","","","","","","","","","","","","",""
"","","","","","html-keyboard-response","2","13961","0.0-2.0","7631","
  <p>本实验首先需要您填写一些基本个人信息。</p>
  <p> <div style = ""color: green""><按任意键至下页></div></p>
  ","enter","","","","","","","","","","","","","","","","","","","","","","","",""
"","","","","","call-function","3","13962","0.0-3.0-0.0","","","","","","","","","","","","","","","","","","","","","","","","","","",""
"","","","","","survey-html-form","4","17373","0.0-3.0-1.0","3410","","{""Q0"":""26""}","","","","","","","","","","","","","","","","","","","","","","","",""
"","","","","","html-button-response","5","18678","0.0-3.0-2.0","1302","<p style = 'color : white'>您的性别</p>","1","","","","","","","","","","","","","","","","","","","","","","","",""
"","","","","","survey-html-form","6","21415","0.0-3.0-3.0","2731","","{""Q0"":""2000""}","","","","","","","","","","","","","","","","","","","","","","","",""
"","","","","","survey-html-form","7","24013","0.0-3.0-4.0","2596","","{""Q0"":""5""}","","","","","","","","","","","","","","","","","","","","","","","",""
"","","","","","virtual-chinrest","8","173184","0.0-4.0","149167","","","","85.6","53.98","394.258977560963","4.61063970981015","621.01","7.8851795512192595","50","0.9131053964252073","25.6","12.34","","","","","","","","","","","","",""
"true","","","","","fullscreen","9","181261","0.0-5.0","","","","","","","","","","","","","","","","","","","","","","","","","","",""
"","","","","","instructions","10","472992","0.0-6.0","291724","","","","","","","","","","","","","","[{""page_index"":0,""viewing_time"":7692},{""page_index"":1,""viewing_time"":40634},{""page_index"":2,""viewing_time"":9260},{""page_index"":1,""viewing_time"":1978},{""page_index"":2,""viewing_time"":207848},{""page_index"":1,""viewing_time"":4627},{""page_index"":2,""viewing_time"":15594},{""page_index"":3,""viewing_time"":2524},{""page_index"":4,""viewing_time"":1567}]","","","","","","","","","","","",""
"","","","","","instructions","11","481309","0.0-7.0","8316","","","","","","","","","","","","","","[{""page_index"":0,""viewing_time"":8316}]","","","","","","","","","","","",""
"","","","","","psychophysics","12","493770","0.0-8.0-0.0-0.0","11455","","f","","","","","","","","","","","","","key","f","16.6808344549125","640","396","j","false","img/H_28.png","自我","freeprac_self","",""
"","","","","","html-keyboard-response","13","494075","0.0-8.0-0.0-1.0","null","<span style='color:red; font-size: 70px;'>错误! </span>","null","","","","","","","","","","","","","","","","","","","","","","","feedback_test",""
"","","","","","psychophysics","14","497462","0.0-8.0-0.0-0.1","2381","","d","","","","","","","","","","","","","key","d","16.733663366336692","640","396","d","true","img/S_28.png","自我","freeprac_self","",""
"","","","","","html-keyboard-response","15","497765","0.0-8.0-0.0-1.1","null","<span style='color:GreenYellow; font-size: 70px;'>正确! </span>","null","","","","","","","","","","","","","","","","","","","","","","","feedback_test",""
"","","","","","psychophysics","16","503292","0.0-8.0-0.0-0.2","4521","","f","","","","","","","","","","","","","key","f","16.743161094224924","640","396","k","false","img/H_28.png","生人","freeprac_self","",""
"","","","","","html-keyboard-response","17","503595","0.0-8.0-0.0-1.2","null","<span style='color:red; font-size: 70px;'>错误! </span>","null","","","","","","","","","","","","","","","","","","","","","","","feedback_test",""
"","","","","","psychophysics","18","508433","0.0-8.0-0.0-0.3","3833","","d","","","","","","","","","","","","","key","d","16.713564013840934","640","396","j","false","img/H_28.png","朋友","freeprac_self","",""
"","","","","","html-keyboard-response","19","508736","0.0-8.0-0.0-1.3","null","<span style='color:red; font-size: 70px;'>错误! </span>","null","","","","","","","","","","","","","","","","","","","","","","","feedback_test",""
"","","","","","psychophysics","20","512235","0.0-8.0-0.0-0.4","2496","","f","","","","","","","","","","","","","key","f","16.792884615384537","640","396","j","false","img/C_28.png","生人","freeprac_self","",""
"","","","","","html-keyboard-response","21","512537","0.0-8.0-0.0-1.4","null","<span style='color:red; font-size: 70px;'>错误! </span>","null","","","","","","","","","","","","","","","","","","","","","","","feedback_test",""
"","","","","","psychophysics","22","522851","0.0-8.0-0.0-0.5","9310","","f","","","","","","","","","","","","","key","f","16.690048622366305","640","396","k","false","img/H_28.png","生人","freeprac_self","",""
"","","","","","html-keyboard-response","23","523153","0.0-8.0-0.0-1.5","null","<span style='color:red; font-size: 70px;'>错误! </span>","null","","","","","","","","","","","","","","","","","","","","","","","feedback_test",""
"","","","","","psychophysics","24","524208","0.0-8.0-0.0-0.6","50","","d","","","","","","","","","","","","","key","d","16.920645161291525","640","396","f","false","img/S_28.png","生人","freeprac_self","",""
"","","","","","html-keyboard-response","25","524511","0.0-8.0-0.0-1.6","null","<span style='color:red; font-size: 70px;'>错误! </span>","null","","","","","","","","","","","","","","","","","","","","","","","feedback_test",""
"","","","","","psychophysics","26","525575","0.0-8.0-0.0-0.7","58","","f","","","","","","","","","","","","","key","f","17.070645161290397","640","396","d","false","img/S_28.png","自我","freeprac_self","",""
"","","","","","html-keyboard-response","27","525878","0.0-8.0-0.0-1.7","null","<span style='color:red; font-size: 70px;'>错误! </span>","null","","","","","","","","","","","","","","","","","","","","","","","feedback_test",""
"","","","","","psychophysics","28","528138","0.0-8.0-0.0-0.8","1254","","f","","","","","","","","","","","","","key","f","16.989999999999505","640","396","f","true","img/S_28.png","朋友","freeprac_self","",""
"","","","","","html-keyboard-response","29","528441","0.0-8.0-0.0-1.8","null","<span style='color:GreenYellow; font-size: 70px;'>正确! </span>","null","","","","","","","","","","","","","","","","","","","","","","","feedback_test",""
"","","","","","psychophysics","30","529921","0.0-8.0-0.0-0.9","478","","f","","","","","","","","","","","","","key","f","16.830574712643784","640","396","k","false","img/C_28.png","朋友","freeprac_self","",""
"","","","","","html-keyboard-response","31","530227","0.0-8.0-0.0-1.9","null","<span style='color:red; font-size: 70px;'>错误! </span>","null","","","","","","","","","","","","","","","","","","","","","","","feedback_test",""
"","","","","","psychophysics","32","531745","0.0-8.0-0.0-0.10","516","","f","","","","","","","","","","","","","key","f","16.9964044943826","640","396","j","false","img/C_28.png","自我","freeprac_self","",""
"","","","","","html-keyboard-response","33","532048","0.0-8.0-0.0-1.10","null","<span style='color:red; font-size: 70px;'>错误! </span>","null","","","","","","","","","","","","","","","","","","","","","","","feedback_test",""
"","","","","","psychophysics","34","533993","0.0-8.0-0.0-0.11","944","","f","","","","","","","","","","","","","key","f","16.876347826087198","640","396","k","false","img/C_28.png","朋友","freeprac_self","",""
"","","","","","html-keyboard-response","35","534297","0.0-8.0-0.0-1.11","null","<span style='color:red; font-size: 70px;'>错误! </span>","null","","","","","","","","","","","","","","","","","","","","","","","feedback_test",""
"","","","","","html-keyboard-response","36","536158","0.0-8.0-1.0-0.0","1859","<style>.context{color:white; font-size: 35px; line-height:40px}</style>                           <div><p class='context'>您正确回答了17% 的试次。</p><p class='context'>您的平均反应时为1818毫秒。</p>","f","","","","","","","","","","","","","","","","","","","","","","","",""
"","","","","","instructions","37","551664","0.0-8.0-1.0-1.0","15505","","","","","","","","","","","","","","[{""page_index"":0,""viewing_time"":4398},{""page_index"":1,""viewing_time"":4743},{""page_index"":2,""viewing_time"":6364}]","","","","","","","","","","","",""
"","","","","","psychophysics","38","565088","0.0-8.1-0.1-0.12","12417","","d","","","","","","","","","","","","","key","d","16.70224438902752","640","396","d","true","img/S_28.png","自我","freeprac_self","",""
"","","","","","html-keyboard-response","39","565391","0.0-8.1-0.1-1.12","null","<span style='color:GreenYellow; font-size: 70px;'>正确! </span>","null","","","","","","","","","","","","","","","","","","","","","","","feedback_test",""
"","","","","","psychophysics","40","568822","0.0-8.1-0.1-0.13","2424","","f","","","","","","","","","","","","","key","f","16.951683168316787","640","396","k","false","img/H_28.png","生人","freeprac_self","",""
"","","","","","html-keyboard-response","41","569126","0.0-8.1-0.1-1.13","null","<span style='color:red; font-size: 70px;'>错误! </span>","null","","","","","","","","","","","","","","","","","","","","","","","feedback_test",""
"","","","","","psychophysics","42","570482","0.0-8.1-0.1-0.14","351","","d","","","","","","","","","","","","","key","d","16.964810126583398","640","396","k","false","img/H_28.png","生人","freeprac_self","",""
"","","","","","html-keyboard-response","43","570787","0.0-8.1-0.1-1.14","null","<span style='color:red; font-size: 70px;'>错误! </span>","null","","","","","","","","","","","","","","","","","","","","","","","feedback_test",""
"","","","","","psychophysics","44","571826","0.0-8.1-0.1-0.15","35","","f","","","","","","","","","","","","","key","f","16.898688524589325","640","396","f","true","img/S_28.png","朋友","freeprac_self","",""
"","","","","","html-keyboard-response","45","572133","0.0-8.1-0.1-1.15","null","<span style='color:GreenYellow; font-size: 70px;'>正确! </span>","null","","","","","","","","","","","","","","","","","","","","","","","feedback_test",""
"","","","","","psychophysics","46","573469","0.0-8.1-0.1-0.16","328","","f","","","","","","","","","","","","","key","f","16.913333333333213","640","396","f","true","img/S_28.png","生人","freeprac_self","",""
"","","","","","html-keyboard-response","47","573773","0.0-8.1-0.1-1.16","null","<span style='color:GreenYellow; font-size: 70px;'>正确! </span>","null","","","","","","","","","","","","","","","","","","","","","","","feedback_test",""
"","","","","","psychophysics","48","575285","0.0-8.1-0.1-0.17","508","","d","","","","","","","","","","","","","key","d","16.816853932585055","640","396","k","false","img/C_28.png","朋友","freeprac_self","",""
"","","","","","html-keyboard-response","49","575590","0.0-8.1-0.1-1.17","null","<span style='color:red; font-size: 70px;'>错误! </span>","null","","","","","","","","","","","","","","","","","","","","","","","feedback_test",""
"","","","","","psychophysics","50","576903","0.0-8.1-0.1-0.18","307","","f","","","","","","","","","","","","","key","f","16.839220779220717","640","396","j","false","img/H_28.png","朋友","freeprac_self","",""
"","","","","","html-keyboard-response","51","577207","0.0-8.1-0.1-1.18","null","<span style='color:red; font-size: 70px;'>错误! </span>","null","","","","","","","","","","","","","","","","","","","","","","","feedback_test",""
"","","","","","psychophysics","52","579035","0.0-8.1-0.1-0.19","823","","f","","","","","","","","","","","","","key","f","16.797222222222008","640","396","k","false","img/C_28.png","朋友","freeprac_self","",""
"","","","","","html-keyboard-response","53","579338","0.0-8.1-0.1-1.19","null","<span style='color:red; font-size: 70px;'>错误! </span>","null","","","","","","","","","","","","","","","","","","","","","","","feedback_test",""
"","","","","","psychophysics","54","581047","0.0-8.1-0.1-0.20","705","","d","","","","","","","","","","","","","key","d","17.009799999999814","640","396","d","true","img/S_28.png","自我","freeprac_self","",""
"","","","","","html-keyboard-response","55","581349","0.0-8.1-0.1-1.20","null","<span style='color:GreenYellow; font-size: 70px;'>正确! </span>","null","","","","","","","","","","","","","","","","","","","","","","","feedback_test",""
"","","","","","psychophysics","56","584047","0.0-8.1-0.1-0.21","1693","","f","","","","","","","","","","","","","key","f","16.824750000000495","640","396","j","false","img/H_28.png","自我","freeprac_self","",""
"","","","","","html-keyboard-response","57","584350","0.0-8.1-0.1-1.21","null","<span style='color:red; font-size: 70px;'>错误! </span>","null","","","","","","","","","","","","","","","","","","","","","","","feedback_test",""
"","","","","","psychophysics","58","587875","0.0-8.1-0.1-0.22","2519","","f","","","","","","","","","","","","","key","f","16.786985645932926","640","396","j","false","img/C_28.png","生人","freeprac_self","",""
"","","","","","html-keyboard-response","59","588178","0.0-8.1-0.1-1.22","null","<span style='color:red; font-size: 70px;'>错误! </span>","null","","","","","","","","","","","","","","","","","","","","","","","feedback_test",""
"","","","","","psychophysics","60","591460","0.0-8.1-0.1-0.23","2276","","d","","","","","","","","","","","","","key","d","16.73969230769226","640","396","j","false","img/C_28.png","自我","freeprac_self","",""
"","","","","","html-keyboard-response","61","591765","0.0-8.1-0.1-1.23","null","<span style='color:red; font-size: 70px;'>错误! </span>","null","","","","","","","","","","","","","","","","","","","","","","","feedback_test",""
"","","","","","html-keyboard-response","62","593343","0.0-8.1-1.1-0.1","1579","<style>.context{color:white; font-size: 35px; line-height:40px}</style>                           <div><p class='context'>您正确回答了33% 的试次。</p><p class='context'>您的平均反应时为3371毫秒。</p>","f","","","","","","","","","","","","","","","","","","","","","","","",""
"","","","","","instructions","63","607502","0.0-8.1-1.1-1.1","14159","","","","","","","","","","","","","","[{""page_index"":0,""viewing_time"":4412},{""page_index"":1,""viewing_time"":4615},{""page_index"":2,""viewing_time"":5132}]","","","","","","","","","","","",""
"","","","","","psychophysics","64","615411","0.0-8.2-0.2-0.24","6903","","f","","","","","","","","","","","","","key","f","16.828803418803428","640","396","d","false","img/S_28.png","自我","freeprac_self","",""
"","","","","","html-keyboard-response","65","615717","0.0-8.2-0.2-1.24","null","<span style='color:red; font-size: 70px;'>错误! </span>","null","","","","","","","","","","","","","","","","","","","","","","","feedback_test",""
"","","","","","psychophysics","66","617145","0.0-8.2-0.2-0.25","424","","d","","","","","","","","","","","","","key","d","16.990843373493863","640","396","k","false","img/C_28.png","朋友","freeprac_self","",""
"","","","","","html-keyboard-response","67","617450","0.0-8.2-0.2-1.25","null","<span style='color:red; font-size: 70px;'>错误! </span>","null","","","","","","","","","","","","","","","","","","","","","","","feedback_test",""
"","","","","","psychophysics","68","618662","0.0-8.2-0.2-0.26","209","","f","","","","","","","","","","","","","key","f","16.856056338028562","640","396","k","false","img/H_28.png","生人","freeprac_self","",""
"","","","","","html-keyboard-response","69","618964","0.0-8.2-0.2-1.26","null","<span style='color:red; font-size: 70px;'>错误! </span>","null","","","","","","","","","","","","","","","","","","","","","","","feedback_test",""
"","","","","","psychophysics","70","620672","0.0-8.2-0.2-0.27","704","","f","","","","","","","","","","","","","key","f","16.83287128712867","640","396","j","false","img/H_28.png","自我","freeprac_self","",""
"","","","","","html-keyboard-response","71","620978","0.0-8.2-0.2-1.27","null","<span style='color:red; font-size: 70px;'>错误! </span>","null","","","","","","","","","","","","","","","","","","","","","","","feedback_test",""
"","","","","","psychophysics","72","623143","0.0-8.2-0.2-0.28","1161","","d","","","","","","","","","","","","","key","d","16.827656249999563","640","396","f","false","img/S_28.png","朋友","freeprac_self","",""
"","","","","","html-keyboard-response","73","623446","0.0-8.2-0.2-1.28","null","<span style='color:red; font-size: 70px;'>错误! </span>","null","","","","","","","","","","","","","","","","","","","","","","","feedback_test",""
"","","","","","psychophysics","74","625512","0.0-8.2-0.2-0.29","1061","","d","","","","","","","","","","","","","key","d","16.84032786885261","640","396","f","false","img/S_28.png","生人","freeprac_self","",""
"","","","","","html-keyboard-response","75","625815","0.0-8.2-0.2-1.29","null","<span style='color:red; font-size: 70px;'>错误! </span>","null","","","","","","","","","","","","","","","","","","","","","","","feedback_test",""
"","","","","","psychophysics","76","627370","0.0-8.2-0.2-0.30","549","","d","","","","","","","","","","","","","key","d","16.874065934065065","640","396","k","false","img/C_28.png","朋友","freeprac_self","",""
"","","","","","html-keyboard-response","77","627670","0.0-8.2-0.2-1.30","null","<span style='color:red; font-size: 70px;'>错误! </span>","null","","","","","","","","","","","","","","","","","","","","","","","feedback_test",""
"","","","","","psychophysics","78","630119","0.0-8.2-0.2-0.31","1444","","f","","","","","","","","","","","","","key","f","16.76910344827599","640","396","d","false","img/S_28.png","自我","freeprac_self","",""
"","","","","","html-keyboard-response","79","630419","0.0-8.2-0.2-1.31","null","<span style='color:red; font-size: 70px;'>错误! </span>","null","","","","","","","","","","","","","","","","","","","","","","","feedback_test",""
"","","","","","psychophysics","80","632504","0.0-8.2-0.2-0.32","1078","","d","","","","","","","","","","","","","key","d","16.79544715447128","640","396","k","false","img/H_28.png","生人","freeprac_self","",""
"","","","","","html-keyboard-response","81","632808","0.0-8.2-0.2-1.32","null","<span style='color:red; font-size: 70px;'>错误! </span>","null","","","","","","","","","","","","","","","","","","","","","","","feedback_test",""
"","","","","","psychophysics","82","633901","0.0-8.2-0.2-0.33","87","","d","","","","","","","","","","","","","key","d","16.85687499999949","640","396","j","false","img/H_28.png","朋友","freeprac_self","",""
"","","","","","html-keyboard-response","83","634203","0.0-8.2-0.2-1.33","null","<span style='color:red; font-size: 70px;'>错误! </span>","null","","","","","","","","","","","","","","","","","","","","","","","feedback_test",""
"","","","","","psychophysics","84","635404","0.0-8.2-0.2-0.34","194","","d","","","","","","","","","","","","","key","d","16.918000000000134","640","396","j","false","img/C_28.png","生人","freeprac_self","",""
"","","","","","html-keyboard-response","85","635708","0.0-8.2-0.2-1.34","null","<span style='color:red; font-size: 70px;'>错误! </span>","null","","","","","","","","","","","","","","","","","","","","","","","feedback_test",""
"","","","","","psychophysics","86","636854","0.0-8.2-0.2-0.35","142","","f","","","","","","","","","","","","","key","f","16.863283582089064","640","396","j","false","img/C_28.png","自我","freeprac_self","",""
"","","","","","html-keyboard-response","87","637158","0.0-8.2-0.2-1.35","null","<span style='color:red; font-size: 70px;'>错误! </span>","null","","","","","","","","","","","","","","","","","","","","","","","feedback_test",""
"","","","","","html-keyboard-response","88","637320","0.0-8.2-1.2-0.2","160","<style>.context{color:white; font-size: 35px; line-height:40px}</style>                           <div><p class='context'>您正确回答了0% 的试次。</p><p class='context'>您的平均反应时为NaN毫秒。</p>","f","","","","","","","","","","","","","","","","","","","","","","","",""
"","","","","","instructions","89","755125","0.0-8.2-1.2-1.2","117802","","","","","","","","","","","","","","[{""page_index"":0,""viewing_time"":23355},{""page_index"":1,""viewing_time"":87684},{""page_index"":2,""viewing_time"":6763}]","","","","","","","","","","","",""
"","","","","","psychophysics","90","760375","0.0-8.3-0.3-0.36","4241","","d","","","","","","","","","","","","","key","d","16.850258064515995","640","396","f","false","img/S_28.png","生人","freeprac_self","",""
"","","","","","html-keyboard-response","91","760677","0.0-8.3-0.3-1.36","null","<span style='color:red; font-size: 70px;'>错误! </span>","null","","","","","","","","","","","","","","","","","","","","","","","feedback_test",""
"","","","","","psychophysics","92","765328","0.0-8.3-0.3-0.37","3645","","k","","","","","","","","","","","","","key","k","16.736028880866442","640","396","j","false","img/H_28.png","自我","freeprac_self","",""
"","","","","","html-keyboard-response","93","765632","0.0-8.3-0.3-1.37","null","<span style='color:red; font-size: 70px;'>错误! </span>","null","","","","","","","","","","","","","","","","","","","","","","","feedback_test",""
"","","","","","psychophysics","94","768821","0.0-8.3-0.3-0.38","2184","","k","","","","","","","","","","","","","key","k","16.74968421052602","640","396","k","true","img/C_28.png","朋友","freeprac_self","",""
"","","","","","html-keyboard-response","95","769124","0.0-8.3-0.3-1.38","null","<span style='color:GreenYellow; font-size: 70px;'>正确! </span>","null","","","","","","","","","","","","","","","","","","","","","","","feedback_test",""
"","","","","","psychophysics","96","772740","0.0-8.3-0.3-0.39","2610","","j","","","","","","","","","","","","","key","j","16.78930232558172","640","396","k","false","img/H_28.png","生人","freeprac_self","",""
"","","","","","html-keyboard-response","97","773041","0.0-8.3-0.3-1.39","null","<span style='color:red; font-size: 70px;'>错误! </span>","null","","","","","","","","","","","","","","","","","","","","","","","feedback_test",""
"","","","","","psychophysics","98","775034","0.0-8.3-0.3-0.40","988","","k","","","","","","","","","","","","","key","k","16.883931623931982","640","396","j","false","img/C_28.png","生人","freeprac_self","",""
"","","","","","html-keyboard-response","99","775337","0.0-8.3-0.3-1.40","null","<span style='color:red; font-size: 70px;'>错误! </span>","null","","","","","","","","","","","","","","","","","","","","","","","feedback_test",""
"","","","","","psychophysics","100","776610","0.0-8.3-0.3-0.41","267","","j","","","","","","","","","","","","","key","j","16.842133333333766","640","396","d","false","img/S_28.png","自我","freeprac_self","",""
"","","","","","html-keyboard-response","101","776914","0.0-8.3-0.3-1.41","null","<span style='color:red; font-size: 70px;'>错误! </span>","null","","","","","","","","","","","","","","","","","","","","","","","feedback_test",""
"","","","","","psychophysics","102","778243","0.0-8.3-0.3-0.42","324","","k","","","","","","","","","","","","","key","k","16.950512820513","640","396","f","false","img/S_28.png","朋友","freeprac_self","",""
"","","","","","html-keyboard-response","103","778545","0.0-8.3-0.3-1.42","null","<span style='color:red; font-size: 70px;'>错误! </span>","null","","","","","","","","","","","","","","","","","","","","","","","feedback_test",""
"","","","","","psychophysics","104","783603","0.0-8.3-0.3-0.43","4052","","k","","","","","","","","","","","","","key","k","16.755083056478497","640","396","d","false","img/S_28.png","自我","freeprac_self","",""
"","","","","","html-keyboard-response","105","783906","0.0-8.3-0.3-1.43","null","<span style='color:red; font-size: 70px;'>错误! </span>","null","","","","","","","","","","","","","","","","","","","","","","","feedback_test",""
"","","","","","psychophysics","106","786066","0.0-8.3-0.3-0.44","1152","","k","","","","","","","","","","","","","key","k","16.798125000000255","640","396","j","false","img/H_28.png","朋友","freeprac_self","",""
"","","","","","html-keyboard-response","107","786371","0.0-8.3-0.3-1.44","null","<span style='color:red; font-size: 70px;'>错误! </span>","null","","","","","","","","","","","","","","","","","","","","","","","feedback_test",""
"","","","","","psychophysics","108","790283","0.0-8.3-0.3-0.45","2909","","k","","","","","","","","","","","","","key","k","16.758969957081906","640","396","j","false","img/C_28.png","自我","freeprac_self","",""
"","","","","","html-keyboard-response","109","790588","0.0-8.3-0.3-1.45","null","<span style='color:red; font-size: 70px;'>错误! </span>","null","","","","","","","","","","","","","","","","","","","","","","","feedback_test",""
"","","","","","psychophysics","110","792098","0.0-8.3-0.3-0.46","505","","k","","","","","","","","","","","","","key","k","16.89999999999974","640","396","k","true","img/H_28.png","生人","freeprac_self","",""
"","","","","","html-keyboard-response","111","792401","0.0-8.3-0.3-1.46","null","<span style='color:GreenYellow; font-size: 70px;'>正确! </span>","null","","","","","","","","","","","","","","","","","","","","","","","feedback_test",""
"","","","","","psychophysics","112","793709","0.0-8.3-0.3-0.47","304","","j","","","","","","","","","","","","","key","j","16.992631578946632","640","396","k","false","img/C_28.png","朋友","freeprac_self","",""
"","","","","","html-keyboard-response","113","794012","0.0-8.3-0.3-1.47","null","<span style='color:red; font-size: 70px;'>错误! </span>","null","","","","","","","","","","","","","","","","","","","","","","","feedback_test",""
"","","","","","html-keyboard-response","114","801905","0.0-8.3-1.3-0.3","7891","<style>.context{color:white; font-size: 35px; line-height:40px}</style>                           <div><p class='context'>您正确回答了17% 的试次。</p><p class='context'>您的平均反应时为1345毫秒。</p>","j","","","","","","","","","","","","","","","","","","","","","","","",""
"","","","","","instructions","115","822066","0.0-8.3-1.3-1.3","20159","","","","","","","","","","","","","","[{""page_index"":0,""viewing_time"":2282},{""page_index"":1,""viewing_time"":16884},{""page_index"":2,""viewing_time"":993}]","","","","","","","","","","","",""
"","","","","","psychophysics","116","828612","0.0-8.4-0.4-0.48","5538","","f","","","","","","","","","","","","","key","f","16.752506459948247","640","396","f","true","img/S_28.png","朋友","freeprac_self","",""
"","","","","","html-keyboard-response","117","828914","0.0-8.4-0.4-1.48","null","<span style='color:GreenYellow; font-size: 70px;'>正确! </span>","null","","","","","","","","","","","","","","","","","","","","","","","feedback_test",""
"","","","","","psychophysics","118","835477","0.0-8.4-0.4-0.49","5554","","j","","","","","","","","","","","","","key","j","16.72178571428587","640","396","k","false","img/H_28.png","生人","freeprac_self","",""
"","","","","","html-keyboard-response","119","835783","0.0-8.4-0.4-1.49","null","<span style='color:red; font-size: 70px;'>错误! </span>","null","","","","","","","","","","","","","","","","","","","","","","","feedback_test",""
"","","","","","psychophysics","120","839444","0.0-8.4-0.4-0.50","2658","","f","","","","","","","","","","","","","key","f","16.763394495413035","640","396","f","true","img/S_28.png","生人","freeprac_self","",""
"","","","","","html-keyboard-response","121","839748","0.0-8.4-0.4-1.50","null","<span style='color:GreenYellow; font-size: 70px;'>正确! </span>","null","","","","","","","","","","","","","","","","","","","","","","","feedback_test",""
"","","","","","psychophysics","122","847717","0.0-8.4-0.4-0.51","6967","","j","","","","","","","","","","","","","key","j","16.72222689075636","640","396","j","true","img/H_28.png","自我","freeprac_self","",""
"","","","","","html-keyboard-response","123","848022","0.0-8.4-0.4-1.51","null","<span style='color:GreenYellow; font-size: 70px;'>正确! </span>","null","","","","","","","","","","","","","","","","","","","","","","","feedback_test",""
"","","","","","psychophysics","124","855492","0.0-8.4-0.4-0.52","6463","","k","","","","","","","","","","","","","key","k","16.71825112107616","640","396","j","false","img/C_28.png","生人","freeprac_self","",""
"","","","","","html-keyboard-response","125","855796","0.0-8.4-0.4-1.52","null","<span style='color:red; font-size: 70px;'>错误! </span>","null","","","","","","","","","","","","","","","","","","","","","","","feedback_test",""
"","","","","","psychophysics","126","860721","0.0-8.4-0.4-0.53","3921","","d","","","","","","","","","","","","","key","d","16.728095238095428","640","396","d","true","img/S_28.png","自我","freeprac_self","",""
"","","","","","html-keyboard-response","127","861024","0.0-8.4-0.4-1.53","null","<span style='color:GreenYellow; font-size: 70px;'>正确! </span>","null","","","","","","","","","","","","","","","","","","","","","","","feedback_test",""
"","","","","","psychophysics","128","866401","0.0-8.4-0.4-0.54","4375","","k","","","","","","","","","","","","","key","k","16.751250000000073","640","396","j","false","img/H_28.png","朋友","freeprac_self","",""
"","","","","","html-keyboard-response","129","866702","0.0-8.4-0.4-1.54","null","<span style='color:red; font-size: 70px;'>错误! </span>","null","","","","","","","","","","","","","","","","","","","","","","","feedback_test",""
"","","","","","psychophysics","130","870976","0.0-8.4-0.4-0.55","3271","","j","","","","","","","","","","","","","key","j","16.731137254901743","640","396","k","false","img/C_28.png","朋友","freeprac_self","",""
"","","","","","html-keyboard-response","131","871282","0.0-8.4-0.4-1.55","null","<span style='color:red; font-size: 70px;'>错误! </span>","null","","","","","","","","","","","","","","","","","","","","","","","feedback_test",""
"","","","","","psychophysics","132","882732","0.0-8.4-0.4-0.56","10446","","k","","","","","","","","","","","","","key","k","16.705605839416013","640","396","j","false","img/C_28.png","自我","freeprac_self","",""
"","","","","","html-keyboard-response","133","883037","0.0-8.4-0.4-1.56","null","<span style='color:red; font-size: 70px;'>错误! </span>","null","","","","","","","","","","","","","","","","","","","","","","","feedback_test",""
"","","","","","psychophysics","134","885175","0.0-8.4-0.4-0.57","1132","","j","","","","","","","","","","","","","key","j","16.976959999999963","640","396","k","false","img/C_28.png","朋友","freeprac_self","",""
"","","","","","html-keyboard-response","135","885478","0.0-8.4-0.4-1.57","null","<span style='color:red; font-size: 70px;'>错误! </span>","null","","","","","","","","","","","","","","","","","","","","","","","feedback_test",""
"","","","","","psychophysics","136","893061","0.0-8.4-0.4-0.58","6576","","j","","","","","","","","","","","","","key","j","16.70830022075052","640","396","k","false","img/H_28.png","生人","freeprac_self","",""
"","","","","","html-keyboard-response","137","893363","0.0-8.4-0.4-1.58","null","<span style='color:red; font-size: 70px;'>错误! </span>","null","","","","","","","","","","","","","","","","","","","","","","","feedback_test",""
"","","","","","psychophysics","138","897930","0.0-8.4-0.4-0.59","3560","","d","","","","","","","","","","","","","key","d","16.73977941176503","640","396","d","true","img/S_28.png","自我","freeprac_self","",""
"","","","","","html-keyboard-response","139","898237","0.0-8.4-0.4-1.59","null","<span style='color:GreenYellow; font-size: 70px;'>正确! </span>","null","","","","","","","","","","","","","","","","","","","","","","","feedback_test",""
"","","","","","html-keyboard-response","140","905562","0.0-8.4-1.4-0.4","7323","<style>.context{color:white; font-size: 35px; line-height:40px}</style>                           <div><p class='context'>您正确回答了42% 的试次。</p><p class='context'>您的平均反应时为4529毫秒。</p>","j","","","","","","","","","","","","","","","","","","","","","","","",""
"","","","","","instructions","141","929009","0.0-8.4-1.4-1.4","23447","","","","","","","","","","","","","","[{""page_index"":0,""viewing_time"":3654},{""page_index"":1,""viewing_time"":18155},{""page_index"":2,""viewing_time"":1638}]","","","","","","","","","","","",""
"","","","","","psychophysics","142","933478","0.0-8.5-0.5-0.60","3461","","f","","","","","","","","","","","","","key","f","16.664661654135077","640","396","f","true","img/S_28.png","朋友","freeprac_self","",""
"","","","","","html-keyboard-response","143","933779","0.0-8.5-0.5-1.60","null","<span style='color:GreenYellow; font-size: 70px;'>正确! </span>","null","","","","","","","","","","","","","","","","","","","","","","","feedback_test",""
"","","","","","psychophysics","144","938461","0.0-8.5-0.5-0.61","3677","","k","","","","","","","","","","","","","key","k","16.753189964157755","640","396","j","false","img/C_28.png","生人","freeprac_self","",""
"","","","","","html-keyboard-response","145","938766","0.0-8.5-0.5-1.61","null","<span style='color:red; font-size: 70px;'>错误! </span>","null","","","","","","","","","","","","","","","","","","","","","","","feedback_test",""
"","","","","","psychophysics","146","944563","0.0-8.5-0.5-0.62","4790","","j","","","","","","","","","","","","","key","j","16.733005780346808","640","396","j","true","img/H_28.png","朋友","freeprac_self","",""
"","","","","","html-keyboard-response","147","944864","0.0-8.5-0.5-1.62","null","<span style='color:GreenYellow; font-size: 70px;'>正确! </span>","null","","","","","","","","","","","","","","","","","","","","","","","feedback_test",""
"","","","","","psychophysics","148","947139","0.0-8.5-0.5-0.63","1270","","d","","","","","","","","","","","","","key","d","16.856716417910796","640","396","d","true","img/S_28.png","自我","freeprac_self","",""
"","","","","","html-keyboard-response","149","947445","0.0-8.5-0.5-1.63","null","<span style='color:GreenYellow; font-size: 70px;'>正确! </span>","null","","","","","","","","","","","","","","","","","","","","","","","feedback_test",""
"","","","","","psychophysics","150","949596","0.0-8.5-0.5-0.64","1148","","f","","","","","","","","","","","","","key","f","16.904409448818786","640","396","j","false","img/C_28.png","自我","freeprac_self","",""
"","","","","","html-keyboard-response","151","949897","0.0-8.5-0.5-1.64","null","<span style='color:red; font-size: 70px;'>错误! </span>","null","","","","","","","","","","","","","","","","","","","","","","","feedback_test",""
"","","","","","psychophysics","152","955232","0.0-8.5-0.5-0.65","4332","","k","","","","","","","","","","","","","key","k","16.707711598746112","640","396","k","true","img/H_28.png","生人","freeprac_self","",""
"","","","","","html-keyboard-response","153","955534","0.0-8.5-0.5-1.65","null","<span style='color:GreenYellow; font-size: 70px;'>正确! </span>","null","","","","","","","","","","","","","","","","","","","","","","","feedback_test",""
"","","","","","psychophysics","154","958965","0.0-8.5-0.5-0.66","2428","","j","","","","","","","","","","","","","key","j","16.726078431372525","640","396","k","false","img/C_28.png","朋友","freeprac_self","",""
"","","","","","html-keyboard-response","155","959268","0.0-8.5-0.5-1.66","null","<span style='color:red; font-size: 70px;'>错误! </span>","null","","","","","","","","","","","","","","","","","","","","","","","feedback_test",""
"","","","","","psychophysics","156","961906","0.0-8.5-0.5-0.67","1635","","j","","","","","","","","","","","","","key","j","16.751337579617598","640","396","k","false","img/C_28.png","朋友","freeprac_self","",""
"","","","","","html-keyboard-response","157","962207","0.0-8.5-0.5-1.67","null","<span style='color:red; font-size: 70px;'>错误! </span>","null","","","","","","","","","","","","","","","","","","","","","","","feedback_test",""
"","","","","","psychophysics","158","969714","0.0-8.5-0.5-0.68","6503","","k","","","","","","","","","","","","","key","k","16.729910714285715","640","396","j","false","img/H_28.png","自我","freeprac_self","",""
"","","","","","html-keyboard-response","159","970018","0.0-8.5-0.5-1.68","null","<span style='color:red; font-size: 70px;'>错误! </span>","null","","","","","","","","","","","","","","","","","","","","","","","feedback_test",""
"","","","","","psychophysics","160","971082","0.0-8.5-0.5-0.69","58","","j","","","","","","","","","","","","","key","j","16.963225806451163","640","396","f","false","img/S_28.png","生人","freeprac_self","",""
"","","","","","html-keyboard-response","161","971389","0.0-8.5-0.5-1.69","null","<span style='color:red; font-size: 70px;'>错误! </span>","null","","","","","","","","","","","","","","","","","","","","","","","feedback_test",""
"","","","","","psychophysics","162","972678","0.0-8.5-0.5-0.70","285","","k","","","","","","","","","","","","","key","k","16.862631578946573","640","396","k","true","img/H_28.png","生人","freeprac_self","",""
"","","","","","html-keyboard-response","163","972981","0.0-8.5-0.5-1.70","null","<span style='color:GreenYellow; font-size: 70px;'>正确! </span>","null","","","","","","","","","","","","","","","","","","","","","","","feedback_test",""
"","","","","","psychophysics","164","974911","0.0-8.5-0.5-0.71","926","","d","","","","","","","","","","","","","key","d","16.86263157894708","640","396","d","true","img/S_28.png","自我","freeprac_self","",""
"","","","","","html-keyboard-response","165","975213","0.0-8.5-0.5-1.71","null","<span style='color:GreenYellow; font-size: 70px;'>正确! </span>","null","","","","","","","","","","","","","","","","","","","","","","","feedback_test",""
"","","","","","html-keyboard-response","166","982686","0.0-8.5-1.5-0.5","7471","<style>.context{color:white; font-size: 35px; line-height:40px}</style>                           <div><p class='context'>您正确回答了50% 的试次。</p><p class='context'>您的平均反应时为2511毫秒。</p>","arrowright","","","","","","","","","","","","","","","","","","","","","","","",""
"","","","","","instructions","167","992203","0.0-8.5-1.5-1.5","9516","","","","","","","","","","","","","","[{""page_index"":0,""viewing_time"":3310},{""page_index"":1,""viewing_time"":4421},{""page_index"":2,""viewing_time"":1785}]","","","","","","","","","","","",""
"","","","","","psychophysics","168","995201","0.0-8.6-0.6-0.72","1994","","k","","","","","","","","","","","","","key","k","16.704943820224614","640","396","k","true","img/H_28.png","生人","freeprac_self","",""
"","","","","","html-keyboard-response","169","995505","0.0-8.6-0.6-1.72","null","<span style='color:GreenYellow; font-size: 70px;'>正确! </span>","null","","","","","","","","","","","","","","","","","","","","","","","feedback_test",""
"","","","","","psychophysics","170","997802","0.0-8.6-0.6-0.73","1293","","d","","","","","","","","","","","","","key","d","16.832205882353318","640","396","d","true","img/S_28.png","自我","freeprac_self","",""
"","","","","","html-keyboard-response","171","998106","0.0-8.6-0.6-1.73","null","<span style='color:GreenYellow; font-size: 70px;'>正确! </span>","null","","","","","","","","","","","","","","","","","","","","","","","feedback_test",""
"","","","","","psychophysics","172","1000825","0.0-8.6-0.6-0.74","1716","","f","","","","","","","","","","","","","key","f","16.809689440994426","640","396","k","false","img/H_28.png","生人","freeprac_self","",""
"","","","","","html-keyboard-response","173","1001130","0.0-8.6-0.6-1.74","null","<span style='color:red; font-size: 70px;'>错误! </span>","null","","","","","","","","","","","","","","","","","","","","","","","feedback_test",""
"","","","","","psychophysics","174","1004162","0.0-8.6-0.6-0.75","2031","","j","","","","","","","","","","","","","key","j","16.763666666667106","640","396","f","false","img/S_28.png","生人","freeprac_self","",""
"","","","","","html-keyboard-response","175","1004465","0.0-8.6-0.6-1.75","null","<span style='color:red; font-size: 70px;'>错误! </span>","null","","","","","","","","","","","","","","","","","","","","","","","feedback_test",""
"","","","","","psychophysics","176","1010876","0.0-8.6-0.6-0.76","5406","","k","","","","","","","","","","","","","key","k","16.71660574412523","640","396","f","false","img/S_28.png","朋友","freeprac_self","",""
"","","","","","html-keyboard-response","177","1011182","0.0-8.6-0.6-1.76","null","<span style='color:red; font-size: 70px;'>错误! </span>","null","","","","","","","","","","","","","","","","","","","","","","","feedback_test",""
"","","","","","psychophysics","178","1015885","0.0-8.6-0.6-0.77","3700","","d","","","","","","","","","","","","","key","d","16.926425992779766","640","396","d","true","img/S_28.png","自我","freeprac_self","",""
"","","","","","html-keyboard-response","179","1016188","0.0-8.6-0.6-1.77","null","<span style='color:GreenYellow; font-size: 70px;'>正确! </span>","null","","","","","","","","","","","","","","","","","","","","","","","feedback_test",""
"","","","","","psychophysics","180","1021522","0.0-8.6-0.6-0.78","4328","","j","","","","","","","","","","","","","key","j","16.71974842767297","640","396","j","true","img/H_28.png","朋友","freeprac_self","",""
"","","","","","html-keyboard-response","181","1021826","0.0-8.6-0.6-1.78","null","<span style='color:GreenYellow; font-size: 70px;'>正确! </span>","null","","","","","","","","","","","","","","","","","","","","","","","feedback_test",""
"","","","","","psychophysics","182","1030434","0.0-8.6-0.6-0.79","7606","","k","","","","","","","","","","","","","key","k","16.698407766990165","640","396","k","true","img/C_28.png","朋友","freeprac_self","",""
"","","","","","html-keyboard-response","183","1030739","0.0-8.6-0.6-1.79","null","<span style='color:GreenYellow; font-size: 70px;'>正确! </span>","null","","","","","","","","","","","","","","","","","","","","","","","feedback_test",""
"","","","","","psychophysics","184","1032578","0.0-8.6-0.6-0.80","836","","k","","","","","","","","","","","","","key","k","16.86962962963002","640","396","k","true","img/C_28.png","朋友","freeprac_self","",""
"","","","","","html-keyboard-response","185","1032880","0.0-8.6-0.6-1.80","null","<span style='color:GreenYellow; font-size: 70px;'>正确! </span>","null","","","","","","","","","","","","","","","","","","","","","","","feedback_test",""
"","","","","","psychophysics","186","1035945","0.0-8.6-0.6-0.81","2059","","j","","","","","","","","","","","","","key","j","16.75384615384654","640","396","j","true","img/C_28.png","自我","freeprac_self","",""
"","","","","","html-keyboard-response","187","1036252","0.0-8.6-0.6-1.81","null","<span style='color:GreenYellow; font-size: 70px;'>正确! </span>","null","","","","","","","","","","","","","","","","","","","","","","","feedback_test",""
"","","","","","psychophysics","188","1040255","0.0-8.6-0.6-0.82","2998","","j","","","","","","","","","","","","","key","j","16.726359832635886","640","396","j","true","img/C_28.png","生人","freeprac_self","",""
"","","","","","html-keyboard-response","189","1040557","0.0-8.6-0.6-1.82","null","<span style='color:GreenYellow; font-size: 70px;'>正确! </span>","null","","","","","","","","","","","","","","","","","","","","","","","feedback_test",""
"","","","","","psychophysics","190","1047796","0.0-8.6-0.6-0.83","6235","","j","","","","","","","","","","","","","key","j","16.732083333333623","640","396","j","true","img/H_28.png","自我","freeprac_self","",""
"","","","","","html-keyboard-response","191","1048102","0.0-8.6-0.6-1.83","null","<span style='color:GreenYellow; font-size: 70px;'>正确! </span>","null","","","","","","","","","","","","","","","","","","","","","","","feedback_test",""
"","","","","","html-keyboard-response","192","1074488","0.0-9.0","26383","[""<style>.context{color:white; font-size: 35px; line-height:40px}</style>           <div><p class='context'>您正确回答了75% 的试次。</p><p class='context'>您的平均反应时为3450毫秒。</p><p class='context'>恭喜您完成这一阶段的练习。按任意键进入<span style='color: yellow;'>重点关注图形为“朋友”</span>的练习。</p></div><p class='footer' style='font-size:35px; line-height:30px;'>任务要求：\n           <p class='footer' style='font-size:35px; line-height:35px;'>对于与“朋友”对应的图形：如果 匹配 ，请按 <span style=\""color: lightgreen;\"">d键</span></p><p class='footer' style='font-size:35px'>如果 不匹配 ，请按<span style=\""color: lightgreen;\"">f键</p></span>\n           <p class='footer' style='font-size:35px; line-height:35px;'>对于非“朋友”对应的图形：如果 匹配 ，请按 <span style=\""color: lightgreen;\"">k键</span></p><p class='footer' style='font-size:35px'>如果 不匹配 ，请按<span style=\""color: lightgreen;\"">j键</p></span>\n           <p class='footer' style='font-size:22px; line-height:25px;'>请在实验过程中将您的<span style=\""color: lightgreen;\"">食指和中指</span>放在电脑键盘的相应键位上进行按键。</p></span>""]","j","","","","","","","","","","","","","","","","","","","","","","","",""
"","","","","","psychophysics","193","1079391","0.0-10.0-0.0-0.0","3896","","j","","","","","","","","","","","","","key","j","16.814639175257923","640","396","j","true","img/H_28.png","自我","freeprac_friend","",""
"","","","","","html-keyboard-response","194","1079692","0.0-10.0-0.0-1.0","null","<span style='color:GreenYellow; font-size: 70px;'>正确! </span>","null","","","","","","","","","","","","","","","","","","","","","","","feedback_test",""
"","","","","","psychophysics","195","1082375","0.0-10.0-0.0-0.1","1676","","k","","","","","","","","","","","","","key","k","16.757861635220127","640","396","k","true","img/S_28.png","自我","freeprac_friend","",""
"","","","","","html-keyboard-response","196","1082676","0.0-10.0-0.0-1.1","null","<span style='color:GreenYellow; font-size: 70px;'>正确! </span>","null","","","","","","","","","","","","","","","","","","","","","","","feedback_test",""
"","","","","","psychophysics","197","1089410","0.0-10.0-0.0-0.2","5728","","j","","","","","","","","","","","","","key","j","16.67446384039891","640","396","j","true","img/S_28.png","朋友","freeprac_friend","",""
"","","","","","html-keyboard-response","198","1089713","0.0-10.0-0.0-1.2","null","<span style='color:GreenYellow; font-size: 70px;'>正确! </span>","null","","","","","","","","","","","","","","","","","","","","","","","feedback_test",""
"","","","","","psychophysics","199","1092418","0.0-10.0-0.0-0.3","1700","","j","","","","","","","","","","","","","key","j","16.761242236025193","640","396","j","true","img/S_28.png","生人","freeprac_friend","",""
"","","","","","html-keyboard-response","200","1092722","0.0-10.0-0.0-1.3","null","<span style='color:GreenYellow; font-size: 70px;'>正确! </span>","null","","","","","","","","","","","","","","","","","","","","","","","feedback_test",""
"","","","","","psychophysics","201","1096655","0.0-10.0-0.0-0.4","2926","","d","","","","","","","","","","","","","key","d","16.773162393162075","640","396","d","true","img/C_28.png","朋友","freeprac_friend","",""
"","","","","","html-keyboard-response","202","1096958","0.0-10.0-0.0-1.4","null","<span style='color:GreenYellow; font-size: 70px;'>正确! </span>","null","","","","","","","","","","","","","","","","","","","","","","","feedback_test",""
"","","","","","psychophysics","203","1100920","0.0-10.0-0.0-0.5","2957","","f","","","","","","","","","","","","","key","f","16.771949152542096","640","396","f","true","img/C_28.png","自我","freeprac_friend","",""
"","","","","","html-keyboard-response","204","1101225","0.0-10.0-0.0-1.5","null","<span style='color:GreenYellow; font-size: 70px;'>正确! </span>","null","","","","","","","","","","","","","","","","","","","","","","","feedback_test",""
"","","","","","psychophysics","205","1104961","0.0-10.0-0.0-0.6","2733","","k","","","","","","","","","","","","","key","k","16.783783783783782","640","396","k","true","img/H_28.png","生人","freeprac_friend","",""
"","","","","","html-keyboard-response","206","1105263","0.0-10.0-0.0-1.6","null","<span style='color:GreenYellow; font-size: 70px;'>正确! </span>","null","","","","","","","","","","","","","","","","","","","","","","","feedback_test",""
"","","","","","psychophysics","207","1108812","0.0-10.0-0.0-0.7","2543","","j","","","","","","","","","","","","","key","j","16.783317535545155","640","396","k","false","img/S_28.png","自我","freeprac_friend","",""
"","","","","","html-keyboard-response","208","1109114","0.0-10.0-0.0-1.7","null","<span style='color:red; font-size: 70px;'>错误! </span>","null","","","","","","","","","","","","","","","","","","","","","","","feedback_test",""
"","","","","","psychophysics","209","1111952","0.0-10.0-0.0-0.8","1834","","j","","","","","","","","","","","","","key","j","16.813333333332725","640","396","j","true","img/H_28.png","朋友","freeprac_friend","",""
"","","","","","html-keyboard-response","210","1112254","0.0-10.0-0.0-1.8","null","<span style='color:GreenYellow; font-size: 70px;'>正确! </span>","null","","","","","","","","","","","","","","","","","","","","","","","feedback_test",""
"","","","","","psychophysics","211","1116361","0.0-10.0-0.0-0.9","3105","","f","","","","","","","","","","","","","key","f","16.747591836735303","640","396","f","true","img/C_28.png","生人","freeprac_friend","",""
"","","","","","html-keyboard-response","212","1116664","0.0-10.0-0.0-1.9","null","<span style='color:GreenYellow; font-size: 70px;'>正确! </span>","null","","","","","","","","","","","","","","","","","","","","","","","feedback_test",""
"","","","","","psychophysics","213","1118846","0.0-10.0-0.0-0.10","1179","","d","","","","","","","","","","","","","key","d","16.751538461538104","640","396","d","true","img/C_28.png","朋友","freeprac_friend","",""
"","","","","","html-keyboard-response","214","1119151","0.0-10.0-0.0-1.10","null","<span style='color:GreenYellow; font-size: 70px;'>正确! </span>","null","","","","","","","","","","","","","","","","","","","","","","","feedback_test",""
"","","","","","psychophysics","215","1123068","0.0-10.0-0.0-0.11","2914","","k","","","","","","","","","","","","","key","k","16.775965665236253","640","396","k","true","img/H_28.png","生人","freeprac_friend","",""
"","","","","","html-keyboard-response","216","1123371","0.0-10.0-0.0-1.11","null","<span style='color:GreenYellow; font-size: 70px;'>正确! </span>","null","","","","","","","","","","","","","","","","","","","","","","","feedback_test",""
"","","","","","html-keyboard-response","217","1139048","0.0-11.0","15673","[""<style>.context{color:white; font-size: 35px; line-height:40px}</style>               <div><p class='context'>您正确回答了92% 的试次。</p><p class='context'>您的平均反应时为2786毫秒。</p><p class='context'>恭喜您完成这一阶段的练习。按任意键进入<span style='color: yellow;'>重点关注图形为“生人”</span>的练习。</p></div><p class='footer' style='font-size:35px; line-height:30px;'>任务要求：\n               <p class='footer' style='font-size:35px; line-height:35px;'>对与“生人”对应的图形，如果 匹配 ，请按 <span style=\""color: lightgreen;\"">d键</span></p><p class='footer' style='font-size:35px'>如果 不匹配 ，请按<span style=\""color: lightgreen;\"">f键</p></span>\n               <p class='footer' style='font-size:35px; line-height:35px;'>对非“生人”对应的图形，如果 匹配 ，请按 <span style=\""color: lightgreen;\"">k键</span></p><p class='footer' style='font-size:35px'>如果 不匹配 ，请按<span style=\""color: lightgreen;\"">j键</p></span>\n               <p class='footer' style='font-size:22px; line-height:25px;'>请在实验过程中将您的<span style=\""color: lightgreen;\"">食指和中指</span>放在电脑键盘的相应键位上进行按键。</p></span>""]","j","","","","","","","","","","","","","","","","","","","","","","","",""
"","","","","","psychophysics","218","1141993","0.0-12.0-0.0-0.0","1938","","j","","","","","","","","","","","","","key","j","17.334201183431844","640","396","j","true","img/S_28.png","生人","freeprac_stranger","",""
"","","","","","html-keyboard-response","219","1142296","0.0-12.0-0.0-1.0","null","<span style='color:GreenYellow; font-size: 70px;'>正确! </span>","null","","","","","","","","","","","","","","","","","","","","","","","feedback_test",""
"","","","","","psychophysics","220","1145503","0.0-12.0-0.0-0.1","2202","","j","","","","","","","","","","","","","key","j","16.79157894736793","640","396","j","true","img/S_28.png","朋友","freeprac_stranger","",""
"","","","","","html-keyboard-response","221","1145809","0.0-12.0-0.0-1.1","null","<span style='color:GreenYellow; font-size: 70px;'>正确! </span>","null","","","","","","","","","","","","","","","","","","","","","","","feedback_test",""
"","","","","","psychophysics","222","1149059","0.0-12.0-0.0-0.2","2246","","k","","","","","","","","","","","","","key","k","16.728659793813762","640","396","k","true","img/S_28.png","自我","freeprac_stranger","",""
"","","","","","html-keyboard-response","223","1149361","0.0-12.0-0.0-1.2","null","<span style='color:GreenYellow; font-size: 70px;'>正确! </span>","null","","","","","","","","","","","","","","","","","","","","","","","feedback_test",""
"","","","","","psychophysics","224","1152216","0.0-12.0-0.0-0.3","1850","","f","","","","","","","","","","","","","key","f","16.739176470587743","640","396","f","true","img/H_28.png","朋友","freeprac_stranger","",""
"","","","","","html-keyboard-response","225","1152519","0.0-12.0-0.0-1.3","null","<span style='color:GreenYellow; font-size: 70px;'>正确! </span>","null","","","","","","","","","","","","","","","","","","","","","","","feedback_test",""
"","","","","","psychophysics","226","1157409","0.0-12.0-0.0-0.4","3884","","j","","","","","","","","","","","","","key","j","16.742542955325916","640","396","k","false","img/C_28.png","朋友","freeprac_stranger","",""
"","","","","","html-keyboard-response","227","1157711","0.0-12.0-0.0-1.4","null","<span style='color:red; font-size: 70px;'>错误! </span>","null","","","","","","","","","","","","","","","","","","","","","","","feedback_test",""
"","","","","","psychophysics","228","1161995","0.0-12.0-0.0-0.5","3280","","f","","","","","","","","","","","","","key","f","16.729333333333262","640","396","f","true","img/H_28.png","自我","freeprac_stranger","",""
"","","","","","html-keyboard-response","229","1162300","0.0-12.0-0.0-1.5","null","<span style='color:GreenYellow; font-size: 70px;'>正确! </span>","null","","","","","","","","","","","","","","","","","","","","","","","feedback_test",""
"","","","","","psychophysics","230","1165452","0.0-12.0-0.0-0.6","2146","","j","","","","","","","","","","","","","key","j","16.727446808510688","640","396","j","true","img/C_28.png","自我","freeprac_stranger","",""
"","","","","","html-keyboard-response","231","1165758","0.0-12.0-0.0-1.6","null","<span style='color:GreenYellow; font-size: 70px;'>正确! </span>","null","","","","","","","","","","","","","","","","","","","","","","","feedback_test",""
"","","","","","psychophysics","232","1170622","0.0-12.0-0.0-0.7","3859","","k","","","","","","","","","","","","","key","k","16.751241379309896","640","396","k","true","img/C_28.png","朋友","freeprac_stranger","",""
"","","","","","html-keyboard-response","233","1170924","0.0-12.0-0.0-1.7","null","<span style='color:GreenYellow; font-size: 70px;'>正确! </span>","null","","","","","","","","","","","","","","","","","","","","","","","feedback_test",""
"","","","","","psychophysics","234","1173712","0.0-12.0-0.0-0.8","1783","","k","","","","","","","","","","","","","key","k","16.826909090908753","640","396","k","true","img/S_28.png","自我","freeprac_stranger","",""
"","","","","","html-keyboard-response","235","1174018","0.0-12.0-0.0-1.8","null","<span style='color:GreenYellow; font-size: 70px;'>正确! </span>","null","","","","","","","","","","","","","","","","","","","","","","","feedback_test",""
"","","","","","psychophysics","236","1176000","0.0-12.0-0.0-0.9","977","","d","","","","","","","","","","","","","key","d","16.80700854700791","640","396","d","true","img/H_28.png","生人","freeprac_stranger","",""
"","","","","","html-keyboard-response","237","1176305","0.0-12.0-0.0-1.9","null","<span style='color:GreenYellow; font-size: 70px;'>正确! </span>","null","","","","","","","","","","","","","","","","","","","","","","","feedback_test",""
"","","","","","psychophysics","238","1179210","0.0-12.0-0.0-0.10","1899","","j","","","","","","","","","","","","","key","j","16.750867052023928","640","396","j","true","img/C_28.png","生人","freeprac_stranger","",""
"","","","","","html-keyboard-response","239","1179513","0.0-12.0-0.0-1.10","null","<span style='color:GreenYellow; font-size: 70px;'>正确! </span>","null","","","","","","","","","","","","","","","","","","","","","","","feedback_test",""
"","","","","","psychophysics","240","1181470","0.0-12.0-0.0-0.11","952","","d","","","","","","","","","","","","","key","d","16.8772173913054","640","396","d","true","img/H_28.png","生人","freeprac_stranger","",""
"","","","","","html-keyboard-response","241","1181770","0.0-12.0-0.0-1.11","null","<span style='color:GreenYellow; font-size: 70px;'>正确! </span>","null","","","","","","","","","","","","","","","","","","","","","","","feedback_test",""
"","","","","","instructions","242","1202494","0.0-13.0","20722","","","","","","","","","","","","","","[{""page_index"":0,""viewing_time"":20722}]","","","","","","","","","","","",""
"","","","","","psychophysics","243","1205002","0.0-14.0-0.0-0.0","null","","null","","","","","","","","","","","","","key","null","16.70630872483215","640","396","j","false","img/C_28.png","生人","prac_self","","朋友"
"","","","","","html-keyboard-response","244","1205304","0.0-14.0-0.0-1.0","null","<span class='add_' style='color:yellow; font-size: 70px;'> 太慢! </span>","null","","","","","","","","","","","","","","","","","","","","","","","feedback_test",""
"","","","","","psychophysics","245","1207300","0.0-14.0-0.0-0.1","991","","d","","","","","","","","","","","","","key","d","16.963478260867944","640","396","d","true","img/S_28.png","自我","prac_self","","自我"
"","","","","","html-keyboard-response","246","1207603","0.0-14.0-0.0-1.1","null","<span style='color:GreenYellow; font-size: 70px;'>正确! </span>","null","","","","","","","","","","","","","","","","","","","","","","","feedback_test",""
"","","","","","psychophysics","247","1209747","0.0-14.0-0.0-0.2","1138","","f","","","","","","","","","","","","","key","f","16.760944881888957","640","396","f","true","img/S_28.png","朋友","prac_self","","自我"
"","","","","","html-keyboard-response","248","1210049","0.0-14.0-0.0-1.2","null","<span style='color:GreenYellow; font-size: 70px;'>正确! </span>","null","","","","","","","","","","","","","","","","","","","","","","","feedback_test",""
"","","","","","psychophysics","249","1212554","0.0-14.0-0.0-0.3","null","","null","","","","","","","","","","","","","key","null","16.77248322147557","640","396","j","false","img/C_28.png","自我","prac_self","","朋友"
"","","","","","html-keyboard-response","250","1212857","0.0-14.0-0.0-1.3","null","<span class='add_' style='color:yellow; font-size: 70px;'> 太慢! </span>","null","","","","","","","","","","","","","","","","","","","","","","","feedback_test",""
"","","","","","psychophysics","251","1214907","0.0-14.0-0.0-0.4","1044","","f","","","","","","","","","","","","","key","f","16.745573770491497","640","396","f","true","img/S_28.png","生人","prac_self","","自我"
"","","","","","html-keyboard-response","252","1215213","0.0-14.0-0.0-1.4","null","<span style='color:GreenYellow; font-size: 70px;'>正确! </span>","null","","","","","","","","","","","","","","","","","","","","","","","feedback_test",""
"","","","","","psychophysics","253","1217534","0.0-14.0-0.0-0.5","1319","","j","","","","","","","","","","","","","key","j","16.762318840579372","640","396","j","true","img/H_28.png","朋友","prac_self","","生人"
"","","","","","html-keyboard-response","254","1217841","0.0-14.0-0.0-1.5","null","<span style='color:GreenYellow; font-size: 70px;'>正确! </span>","null","","","","","","","","","","","","","","","","","","","","","","","feedback_test",""
"","","","","","psychophysics","255","1220345","0.0-14.0-0.0-0.6","null","","null","","","","","","","","","","","","","key","null","16.811081081081333","640","396","j","false","img/H_28.png","自我","prac_self","","生人"
"","","","","","html-keyboard-response","256","1220650","0.0-14.0-0.0-1.6","null","<span class='add_' style='color:yellow; font-size: 70px;'> 太慢! </span>","null","","","","","","","","","","","","","","","","","","","","","","","feedback_test",""
"","","","","","psychophysics","257","1223156","0.0-14.0-0.0-0.7","null","","null","","","","","","","","","","","","","key","null","16.746040268457374","640","396","k","false","img/H_28.png","生人","prac_self","","生人"
"","","","","","html-keyboard-response","258","1223457","0.0-14.0-0.0-1.7","null","<span class='add_' style='color:yellow; font-size: 70px;'> 太慢! </span>","null","","","","","","","","","","","","","","","","","","","","","","","feedback_test",""
"","","","","","psychophysics","259","1225644","0.0-14.0-0.0-0.8","1183","","j","","","","","","","","","","","","","key","j","16.84573643410925","640","396","k","false","img/C_28.png","朋友","prac_self","","朋友"
"","","","","","html-keyboard-response","260","1225950","0.0-14.0-0.0-1.8","null","<span style='color:red; font-size: 70px;'>错误! </span>","null","","","","","","","","","","","","","","","","","","","","","","","feedback_test",""
"","","","","","psychophysics","261","1228172","0.0-14.0-0.0-0.9","1218","","d","","","","","","","","","","","","","key","d","16.77909090908978","640","396","d","true","img/S_28.png","自我","prac_self","","自我"
"","","","","","html-keyboard-response","262","1228475","0.0-14.0-0.0-1.9","null","<span style='color:GreenYellow; font-size: 70px;'>正确! </span>","null","","","","","","","","","","","","","","","","","","","","","","","feedback_test",""
"","","","","","psychophysics","263","1230790","0.0-14.0-0.0-0.10","1309","","j","","","","","","","","","","","","","key","j","16.849051094889287","640","396","k","false","img/C_28.png","朋友","prac_self","","朋友"
"","","","","","html-keyboard-response","264","1231092","0.0-14.0-0.0-1.10","null","<span style='color:red; font-size: 70px;'>错误! </span>","null","","","","","","","","","","","","","","","","","","","","","","","feedback_test",""
"","","","","","psychophysics","265","1233599","0.0-14.0-0.0-0.11","null","","null","","","","","","","","","","","","","key","null","16.840270270270963","640","396","k","false","img/H_28.png","生人","prac_self","","生人"
"","","","","","html-keyboard-response","266","1233904","0.0-14.0-0.0-1.11","null","<span class='add_' style='color:yellow; font-size: 70px;'> 太慢! </span>","null","","","","","","","","","","","","","","","","","","","","","","","feedback_test",""
"","","","","","psychophysics","267","1235903","0.0-14.0-0.0-0.12","994","","k","","","","","","","","","","","","","key","k","16.804237288134804","640","396","k","true","img/H_28.png","生人","prac_self","","生人"
"","","","","","html-keyboard-response","268","1236208","0.0-14.0-0.0-1.12","null","<span style='color:GreenYellow; font-size: 70px;'>正确! </span>","null","","","","","","","","","","","","","","","","","","","","","","","feedback_test",""
"","","","","","psychophysics","269","1238713","0.0-14.0-0.0-0.13","null","","null","","","","","","","","","","","","","key","null","17.09178082191717","640","396","j","false","img/C_28.png","生人","prac_self","","朋友"
"","","","","","html-keyboard-response","270","1239016","0.0-14.0-0.0-1.13","null","<span class='add_' style='color:yellow; font-size: 70px;'> 太慢! </span>","null","","","","","","","","","","","","","","","","","","","","","","","feedback_test",""
"","","","","","psychophysics","271","1241413","0.0-14.0-0.0-0.14","1390","","j","","","","","","","","","","","","","key","j","16.82661971830907","640","396","j","true","img/C_28.png","自我","prac_self","","朋友"
"","","","","","html-keyboard-response","272","1241717","0.0-14.0-0.0-1.14","null","<span style='color:GreenYellow; font-size: 70px;'>正确! </span>","null","","","","","","","","","","","","","","","","","","","","","","","feedback_test",""
"","","","","","psychophysics","273","1244058","0.0-14.0-0.0-0.15","1336","","k","","","","","","","","","","","","","key","k","16.829855072463904","640","396","k","true","img/H_28.png","生人","prac_self","","生人"
"","","","","","html-keyboard-response","274","1244360","0.0-14.0-0.0-1.15","null","<span style='color:GreenYellow; font-size: 70px;'>正确! </span>","null","","","","","","","","","","","","","","","","","","","","","","","feedback_test",""
"","","","","","psychophysics","275","1246364","0.0-14.0-0.0-0.16","997","","j","","","","","","","","","","","","","key","j","16.77831932773203","640","396","f","false","img/S_28.png","生人","prac_self","","自我"
"","","","","","html-keyboard-response","276","1246665","0.0-14.0-0.0-1.16","null","<span style='color:red; font-size: 70px;'>错误! </span>","null","","","","","","","","","","","","","","","","","","","","","","","feedback_test",""
"","","","","","psychophysics","277","1248433","0.0-14.0-0.0-0.17","765","","d","","","","","","","","","","","","","key","d","16.923653846154384","640","396","d","true","img/S_28.png","自我","prac_self","","自我"
"","","","","","html-keyboard-response","278","1248735","0.0-14.0-0.0-1.17","null","<span style='color:GreenYellow; font-size: 70px;'>正确! </span>","null","","","","","","","","","","","","","","","","","","","","","","","feedback_test",""
"","","","","","psychophysics","279","1250315","0.0-14.0-0.0-0.18","575","","d","","","","","","","","","","","","","key","d","16.92172043010973","640","396","d","true","img/S_28.png","自我","prac_self","","自我"
"","","","","","html-keyboard-response","280","1250619","0.0-14.0-0.0-1.18","null","<span style='color:GreenYellow; font-size: 70px;'>正确! </span>","null","","","","","","","","","","","","","","","","","","","","","","","feedback_test",""
"","","","","","psychophysics","281","1252243","0.0-14.0-0.0-0.19","622","","f","","","","","","","","","","","","","key","f","16.914315789474763","640","396","f","true","img/S_28.png","朋友","prac_self","","自我"
"","","","","","html-keyboard-response","282","1252547","0.0-14.0-0.0-1.19","null","<span style='color:GreenYellow; font-size: 70px;'>正确! </span>","null","","","","","","","","","","","","","","","","","","","","","","","feedback_test",""
"","","","","","psychophysics","283","1254569","0.0-14.0-0.0-0.20","1018","","j","","","","","","","","","","","","","key","j","16.798500000000544","640","396","j","true","img/H_28.png","朋友","prac_self","","生人"
"","","","","","html-keyboard-response","284","1254874","0.0-14.0-0.0-1.20","null","<span style='color:GreenYellow; font-size: 70px;'>正确! </span>","null","","","","","","","","","","","","","","","","","","","","","","","feedback_test",""
"","","","","","psychophysics","285","1256752","0.0-14.0-0.0-0.21","873","","k","","","","","","","","","","","","","key","k","16.85855855855688","640","396","k","true","img/C_28.png","朋友","prac_self","","朋友"
"","","","","","html-keyboard-response","286","1257057","0.0-14.0-0.0-1.21","null","<span style='color:GreenYellow; font-size: 70px;'>正确! </span>","null","","","","","","","","","","","","","","","","","","","","","","","feedback_test",""
"","","","","","psychophysics","287","1259209","0.0-14.0-0.0-0.22","1145","","j","","","","","","","","","","","","","key","j","16.856692913386194","640","396","j","true","img/H_28.png","自我","prac_self","","生人"
"","","","","","html-keyboard-response","288","1259511","0.0-14.0-0.0-1.22","null","<span style='color:GreenYellow; font-size: 70px;'>正确! </span>","null","","","","","","","","","","","","","","","","","","","","","","","feedback_test",""
"","","","","","psychophysics","289","1261640","0.0-14.0-0.0-0.23","1123","","j","","","","","","","","","","","","","key","j","16.83269841269782","640","396","k","false","img/C_28.png","朋友","prac_self","","朋友"
"","","","","","html-keyboard-response","290","1261941","0.0-14.0-0.0-1.23","null","<span style='color:red; font-size: 70px;'>错误! </span>","null","","","","","","","","","","","","","","","","","","","","","","","feedback_test",""
"","","","","","html-keyboard-response","291","1282905","0.0-14.0-1.0-0.0","20961","<style>.context{color:white; font-size: 35px; line-height:40px}</style>                           <div><p class='context'>您正确回答了58% 的试次。</p><p class='context'>您的平均反应时为1031毫秒。</p>","j","","","","","","","","","","","","","","","","","","","","","","","",""
"","","","","","instructions","292","1295441","0.0-14.0-1.0-1.0","12534","","","","","","","","","","","","","","[{""page_index"":0,""viewing_time"":2709},{""page_index"":1,""viewing_time"":8792},{""page_index"":2,""viewing_time"":1033}]","","","","","","","","","","","",""
"","","","","","psychophysics","293","1297949","0.0-14.1-0.1-0.24","null","","null","","","","","","","","","","","","","key","null","16.897655172413216","640","396","j","false","img/C_28.png","自我","prac_self","","朋友"
"","","","","","html-keyboard-response","294","1298252","0.0-14.1-0.1-1.24","null","<span class='add_' style='color:yellow; font-size: 70px;'> 太慢! </span>","null","","","","","","","","","","","","","","","","","","","","","","","feedback_test",""
"","","","","","psychophysics","295","1300760","0.0-14.1-0.1-0.25","null","","null","","","","","","","","","","","","","key","null","16.802416107382925","640","396","k","false","img/C_28.png","朋友","prac_self","","朋友"
"","","","","","html-keyboard-response","296","1301063","0.0-14.1-0.1-1.25","null","<span class='add_' style='color:yellow; font-size: 70px;'> 太慢! </span>","null","","","","","","","","","","","","","","","","","","","","","","","feedback_test",""
"","","","","","psychophysics","297","1302947","0.0-14.1-0.1-0.26","879","","f","","","","","","","","","","","","","key","f","16.763571428571595","640","396","k","false","img/H_28.png","生人","prac_self","","生人"
"","","","","","html-keyboard-response","298","1303251","0.0-14.1-0.1-1.26","null","<span style='color:red; font-size: 70px;'>错误! </span>","null","","","","","","","","","","","","","","","","","","","","","","","feedback_test",""
"","","","","","psychophysics","299","1305756","0.0-14.1-0.1-0.27","null","","null","","","","","","","","","","","","","key","null","16.822432432432244","640","396","j","false","img/H_28.png","朋友","prac_self","","生人"
"","","","","","html-keyboard-response","300","1306057","0.0-14.1-0.1-1.27","null","<span class='add_' style='color:yellow; font-size: 70px;'> 太慢! </span>","null","","","","","","","","","","","","","","","","","","","","","","","feedback_test",""
"","","","","","psychophysics","301","1308565","0.0-14.1-0.1-0.28","null","","null","","","","","","","","","","","","","key","null","16.798389261744717","640","396","k","false","img/C_28.png","朋友","prac_self","","朋友"
"","","","","","html-keyboard-response","302","1308868","0.0-14.1-0.1-1.28","null","<span class='add_' style='color:yellow; font-size: 70px;'> 太慢! </span>","null","","","","","","","","","","","","","","","","","","","","","","","feedback_test",""
"","","","","","psychophysics","303","1310829","0.0-14.1-0.1-0.29","957","","f","","","","","","","","","","","","","key","f","16.894086956520283","640","396","f","true","img/S_28.png","生人","prac_self","","自我"
"","","","","","html-keyboard-response","304","1311132","0.0-14.1-0.1-1.29","null","<span style='color:GreenYellow; font-size: 70px;'>正确! </span>","null","","","","","","","","","","","","","","","","","","","","","","","feedback_test",""
"","","","","","psychophysics","305","1312741","0.0-14.1-0.1-0.30","603","","d","","","","","","","","","","","","","key","d","16.805894736842692","640","396","d","true","img/S_28.png","自我","prac_self","","自我"
"","","","","","html-keyboard-response","306","1313045","0.0-14.1-0.1-1.30","null","<span style='color:GreenYellow; font-size: 70px;'>正确! </span>","null","","","","","","","","","","","","","","","","","","","","","","","feedback_test",""
"","","","","","psychophysics","307","1314713","0.0-14.1-0.1-0.31","664","","f","","","","","","","","","","","","","key","f","16.861836734695874","640","396","f","true","img/S_28.png","朋友","prac_self","","自我"
"","","","","","html-keyboard-response","308","1315018","0.0-14.1-0.1-1.31","null","<span style='color:GreenYellow; font-size: 70px;'>正确! </span>","null","","","","","","","","","","","","","","","","","","","","","","","feedback_test",""
"","","","","","psychophysics","309","1317220","0.0-14.1-0.1-0.32","1198","","j","","","","","","","","","","","","","key","j","16.768702290075982","640","396","j","true","img/C_28.png","生人","prac_self","","朋友"
"","","","","","html-keyboard-response","310","1317523","0.0-14.1-0.1-1.32","null","<span style='color:GreenYellow; font-size: 70px;'>正确! </span>","null","","","","","","","","","","","","","","","","","","","","","","","feedback_test",""
"","","","","","psychophysics","311","1319723","0.0-14.1-0.1-0.33","1196","","k","","","","","","","","","","","","","key","k","16.875076923076996","640","396","k","true","img/H_28.png","生人","prac_self","","生人"
"","","","","","html-keyboard-response","312","1320025","0.0-14.1-0.1-1.33","null","<span style='color:GreenYellow; font-size: 70px;'>正确! </span>","null","","","","","","","","","","","","","","","","","","","","","","","feedback_test",""
"","","","","","psychophysics","313","1322282","0.0-14.1-0.1-0.34","1252","","f","","","","","","","","","","","","","key","f","16.858496240601013","640","396","j","false","img/H_28.png","自我","prac_self","","生人"
"","","","","","html-keyboard-response","314","1322585","0.0-14.1-0.1-1.34","null","<span style='color:red; font-size: 70px;'>错误! </span>","null","","","","","","","","","","","","","","","","","","","","","","","feedback_test",""
"","","","","","psychophysics","315","1324325","0.0-14.1-0.1-0.35","736","","d","","","","","","","","","","","","","key","d","16.82912621359359","640","396","d","true","img/S_28.png","自我","prac_self","","自我"
"","","","","","html-keyboard-response","316","1324625","0.0-14.1-0.1-1.35","null","<span style='color:GreenYellow; font-size: 70px;'>正确! </span>","null","","","","","","","","","","","","","","","","","","","","","","","feedback_test",""
"","","","","","psychophysics","317","1326373","0.0-14.1-0.1-0.36","745","","f","","","","","","","","","","","","","key","f","16.919029126212777","640","396","f","true","img/S_28.png","生人","prac_self","","自我"
"","","","","","html-keyboard-response","318","1326678","0.0-14.1-0.1-1.36","null","<span style='color:GreenYellow; font-size: 70px;'>正确! </span>","null","","","","","","","","","","","","","","","","","","","","","","","feedback_test",""
"","","","","","psychophysics","319","1328335","0.0-14.1-0.1-0.37","652","","d","","","","","","","","","","","","","key","d","16.928041237113593","640","396","d","true","img/S_28.png","自我","prac_self","","自我"
"","","","","","html-keyboard-response","320","1328637","0.0-14.1-0.1-1.37","null","<span style='color:GreenYellow; font-size: 70px;'>正确! </span>","null","","","","","","","","","","","","","","","","","","","","","","","feedback_test",""
"","","","","","psychophysics","321","1330887","0.0-14.1-0.1-0.38","1244","","j","","","","","","","","","","","","","key","j","16.79624060150481","640","396","j","true","img/C_28.png","生人","prac_self","","朋友"
"","","","","","html-keyboard-response","322","1331190","0.0-14.1-0.1-1.38","null","<span style='color:GreenYellow; font-size: 70px;'>正确! </span>","null","","","","","","","","","","","","","","","","","","","","","","","feedback_test",""
"","","","","","psychophysics","323","1333693","0.0-14.1-0.1-0.39","null","","null","","","","","","","","","","","","","key","null","16.76885906040306","640","396","j","false","img/C_28.png","自我","prac_self","","朋友"
"","","","","","html-keyboard-response","324","1333994","0.0-14.1-0.1-1.39","null","<span class='add_' style='color:yellow; font-size: 70px;'> 太慢! </span>","null","","","","","","","","","","","","","","","","","","","","","","","feedback_test",""
"","","","","","psychophysics","325","1335997","0.0-14.1-0.1-0.40","997","","k","","","","","","","","","","","","","key","k","16.776806722690562","640","396","k","true","img/C_28.png","朋友","prac_self","","朋友"
"","","","","","html-keyboard-response","326","1336302","0.0-14.1-0.1-1.40","null","<span style='color:GreenYellow; font-size: 70px;'>正确! </span>","null","","","","","","","","","","","","","","","","","","","","","","","feedback_test",""
"","","","","","psychophysics","327","1338424","0.0-14.1-0.1-0.41","1117","","j","","","","","","","","","","","","","key","j","16.847199999999255","640","396","j","true","img/H_28.png","自我","prac_self","","生人"
"","","","","","html-keyboard-response","328","1338726","0.0-14.1-0.1-1.41","null","<span style='color:GreenYellow; font-size: 70px;'>正确! </span>","null","","","","","","","","","","","","","","","","","","","","","","","feedback_test",""
"","","","","","psychophysics","329","1340748","0.0-14.1-0.1-0.42","1016","","j","","","","","","","","","","","","","key","j","16.803333333334496","640","396","k","false","img/H_28.png","生人","prac_self","","生人"
"","","","","","html-keyboard-response","330","1341051","0.0-14.1-0.1-1.42","null","<span style='color:red; font-size: 70px;'>错误! </span>","null","","","","","","","","","","","","","","","","","","","","","","","feedback_test",""
"","","","","","psychophysics","331","1343110","0.0-14.1-0.1-0.43","1059","","j","","","","","","","","","","","","","key","j","16.879008264463657","640","396","k","false","img/C_28.png","朋友","prac_self","","朋友"
"","","","","","html-keyboard-response","332","1343411","0.0-14.1-0.1-1.43","null","<span style='color:red; font-size: 70px;'>错误! </span>","null","","","","","","","","","","","","","","","","","","","","","","","feedback_test",""
"","","","","","psychophysics","333","1345400","0.0-14.1-0.1-0.44","985","","f","","","","","","","","","","","","","key","f","16.808644067795978","640","396","d","false","img/S_28.png","自我","prac_self","","自我"
"","","","","","html-keyboard-response","334","1345703","0.0-14.1-0.1-1.44","null","<span style='color:red; font-size: 70px;'>错误! </span>","null","","","","","","","","","","","","","","","","","","","","","","","feedback_test",""
"","","","","","psychophysics","335","1347702","0.0-14.1-0.1-0.45","998","","j","","","","","","","","","","","","","key","j","16.893389830507843","640","396","j","true","img/H_28.png","朋友","prac_self","","生人"
"","","","","","html-keyboard-response","336","1348006","0.0-14.1-0.1-1.45","null","<span style='color:GreenYellow; font-size: 70px;'>正确! </span>","null","","","","","","","","","","","","","","","","","","","","","","","feedback_test",""
"","","","","","psychophysics","337","1350022","0.0-14.1-0.1-0.46","1008","","j","","","","","","","","","","","","","key","j","17.036106194688866","640","396","f","false","img/S_28.png","朋友","prac_self","","自我"
"","","","","","html-keyboard-response","338","1350325","0.0-14.1-0.1-1.46","null","<span style='color:red; font-size: 70px;'>错误! </span>","null","","","","","","","","","","","","","","","","","","","","","","","feedback_test",""
"","","","","","psychophysics","339","1352807","0.0-14.1-0.1-0.47","1477","","j","","","","","","","","","","","","","key","j","16.82979591836722","640","396","k","false","img/H_28.png","生人","prac_self","","生人"
"","","","","","html-keyboard-response","340","1353113","0.0-14.1-0.1-1.47","null","<span style='color:red; font-size: 70px;'>错误! </span>","null","","","","","","","","","","","","","","","","","","","","","","","feedback_test",""
"","","","","","html-keyboard-response","341","1365759","0.0-14.1-1.1-0.1","12644","<style>.context{color:white; font-size: 35px; line-height:40px}</style>                           <div><p class='context'>您正确回答了50% 的试次。</p><p class='context'>您的平均反应时为926毫秒。</p>","j","","","","","","","","","","","","","","","","","","","","","","","",""
"","","","","","instructions","342","1386182","0.0-14.1-1.1-1.1","20421","","","","","","","","","","","","","","[{""page_index"":0,""viewing_time"":2498},{""page_index"":1,""viewing_time"":16160},{""page_index"":2,""viewing_time"":1763}]","","","","","","","","","","","",""
"","","","","","psychophysics","343","1387908","0.0-14.2-0.2-0.48","717","","d","","","","","","","","","","","","","key","d","16.67627450980374","640","396","d","true","img/S_28.png","自我","prac_self","","自我"
"","","","","","html-keyboard-response","344","1388209","0.0-14.2-0.2-1.48","null","<span style='color:GreenYellow; font-size: 70px;'>正确! </span>","null","","","","","","","","","","","","","","","","","","","","","","","feedback_test",""
"","","","","","psychophysics","345","1390336","0.0-14.2-0.2-0.49","1122","","k","","","","","","","","","","","","","key","k","16.827142857142636","640","396","k","true","img/H_28.png","生人","prac_self","","生人"
"","","","","","html-keyboard-response","346","1390642","0.0-14.2-0.2-1.49","null","<span style='color:GreenYellow; font-size: 70px;'>正确! </span>","null","","","","","","","","","","","","","","","","","","","","","","","feedback_test",""
"","","","","","psychophysics","347","1392546","0.0-14.2-0.2-0.50","899","","j","","","","","","","","","","","","","key","j","16.857142857142858","640","396","j","true","img/H_28.png","朋友","prac_self","","生人"
"","","","","","html-keyboard-response","348","1392849","0.0-14.2-0.2-1.50","null","<span style='color:GreenYellow; font-size: 70px;'>正确! </span>","null","","","","","","","","","","","","","","","","","","","","","","","feedback_test",""
"","","","","","psychophysics","349","1394788","0.0-14.2-0.2-0.51","933","","j","","","","","","","","","","","","","key","j","16.80330434782714","640","396","k","false","img/C_28.png","朋友","prac_self","","朋友"
"","","","","","html-keyboard-response","350","1395093","0.0-14.2-0.2-1.51","null","<span style='color:red; font-size: 70px;'>错误! </span>","null","","","","","","","","","","","","","","","","","","","","","","","feedback_test",""
"","","","","","psychophysics","351","1397068","0.0-14.2-0.2-0.52","973","","k","","","","","","","","","","","","","key","k","16.892758620690138","640","396","k","true","img/H_28.png","生人","prac_self","","生人"
"","","","","","html-keyboard-response","352","1397369","0.0-14.2-0.2-1.52","null","<span style='color:GreenYellow; font-size: 70px;'>正确! </span>","null","","","","","","","","","","","","","","","","","","","","","","","feedback_test",""
"","","","","","psychophysics","353","1399377","0.0-14.2-0.2-0.53","1002","","j","","","","","","","","","","","","","key","j","16.815462184874264","640","396","j","true","img/C_28.png","自我","prac_self","","朋友"
"","","","","","html-keyboard-response","354","1399680","0.0-14.2-0.2-1.53","null","<span style='color:GreenYellow; font-size: 70px;'>正确! </span>","null","","","","","","","","","","","","","","","","","","","","","","","feedback_test",""
"","","","","","psychophysics","355","1401361","0.0-14.2-0.2-0.54","675","","d","","","","","","","","","","","","","key","d","16.97224489795947","640","396","d","true","img/S_28.png","自我","prac_self","","自我"
"","","","","","html-keyboard-response","356","1401665","0.0-14.2-0.2-1.54","null","<span style='color:GreenYellow; font-size: 70px;'>正确! </span>","null","","","","","","","","","","","","","","","","","","","","","","","feedback_test",""
"","","","","","psychophysics","357","1403324","0.0-14.2-0.2-0.55","655","","f","","","","","","","","","","","","","key","f","16.786938775511345","640","396","f","true","img/S_28.png","朋友","prac_self","","自我"
"","","","","","html-keyboard-response","358","1403627","0.0-14.2-0.2-1.55","null","<span style='color:GreenYellow; font-size: 70px;'>正确! </span>","null","","","","","","","","","","","","","","","","","","","","","","","feedback_test",""
"","","","","","psychophysics","359","1405359","0.0-14.2-0.2-0.56","727","","f","","","","","","","","","","","","","key","f","16.83999999999936","640","396","f","true","img/S_28.png","生人","prac_self","","自我"
"","","","","","html-keyboard-response","360","1405659","0.0-14.2-0.2-1.56","null","<span style='color:GreenYellow; font-size: 70px;'>正确! </span>","null","","","","","","","","","","","","","","","","","","","","","","","feedback_test",""
"","","","","","psychophysics","361","1407778","0.0-14.2-0.2-0.57","1113","","j","","","","","","","","","","","","","key","j","16.824960000000893","640","396","j","true","img/H_28.png","自我","prac_self","","生人"
"","","","","","html-keyboard-response","362","1408080","0.0-14.2-0.2-1.57","null","<span style='color:GreenYellow; font-size: 70px;'>正确! </span>","null","","","","","","","","","","","","","","","","","","","","","","","feedback_test",""
"","","","","","psychophysics","363","1410104","0.0-14.2-0.2-0.58","1020","","j","","","","","","","","","","","","","key","j","16.803833333333024","640","396","j","true","img/C_28.png","生人","prac_self","","朋友"
"","","","","","html-keyboard-response","364","1410410","0.0-14.2-0.2-1.58","null","<span style='color:GreenYellow; font-size: 70px;'>正确! </span>","null","","","","","","","","","","","","","","","","","","","","","","","feedback_test",""
"","","","","","psychophysics","365","1412914","0.0-14.2-0.2-0.59","null","","null","","","","","","","","","","","","","key","null","16.84040540540465","640","396","k","false","img/C_28.png","朋友","prac_self","","朋友"
"","","","","","html-keyboard-response","366","1413217","0.0-14.2-0.2-1.59","null","<span class='add_' style='color:yellow; font-size: 70px;'> 太慢! </span>","null","","","","","","","","","","","","","","","","","","","","","","","feedback_test",""
"","","","","","psychophysics","367","1415144","0.0-14.2-0.2-0.60","923","","j","","","","","","","","","","","","","key","j","16.83719298245565","640","396","j","true","img/C_28.png","生人","prac_self","","朋友"
"","","","","","html-keyboard-response","368","1415450","0.0-14.2-0.2-1.60","null","<span style='color:GreenYellow; font-size: 70px;'>正确! </span>","null","","","","","","","","","","","","","","","","","","","","","","","feedback_test",""
"","","","","","psychophysics","369","1417642","0.0-14.2-0.2-0.61","1187","","j","","","","","","","","","","","","","key","j","16.830153846155063","640","396","j","true","img/C_28.png","自我","prac_self","","朋友"
"","","","","","html-keyboard-response","370","1417945","0.0-14.2-0.2-1.61","null","<span style='color:GreenYellow; font-size: 70px;'>正确! </span>","null","","","","","","","","","","","","","","","","","","","","","","","feedback_test",""
"","","","","","psychophysics","371","1419737","0.0-14.2-0.2-0.62","785","","f","","","","","","","","","","","","","key","f","16.768490566037386","640","396","f","true","img/S_28.png","生人","prac_self","","自我"
"","","","","","html-keyboard-response","372","1420041","0.0-14.2-0.2-1.62","null","<span style='color:GreenYellow; font-size: 70px;'>正确! </span>","null","","","","","","","","","","","","","","","","","","","","","","","feedback_test",""
"","","","","","psychophysics","373","1422104","0.0-14.2-0.2-0.63","1058","","k","","","","","","","","","","","","","key","k","16.93752066115656","640","396","k","true","img/C_28.png","朋友","prac_self","","朋友"
"","","","","","html-keyboard-response","374","1422408","0.0-14.2-0.2-1.63","null","<span style='color:GreenYellow; font-size: 70px;'>正确! </span>","null","","","","","","","","","","","","","","","","","","","","","","","feedback_test",""
"","","","","","psychophysics","375","1424647","0.0-14.2-0.2-0.64","1232","","j","","","","","","","","","","","","","key","j","17.308527131783308","640","396","k","false","img/H_28.png","生人","prac_self","","生人"
"","","","","","html-keyboard-response","376","1424952","0.0-14.2-0.2-1.64","null","<span style='color:red; font-size: 70px;'>错误! </span>","null","","","","","","","","","","","","","","","","","","","","","","","feedback_test",""
"","","","","","psychophysics","377","1427117","0.0-14.2-0.2-0.65","1160","","j","","","","","","","","","","","","","key","j","16.84796875000029","640","396","j","true","img/H_28.png","自我","prac_self","","生人"
"","","","","","html-keyboard-response","378","1427421","0.0-14.2-0.2-1.65","null","<span style='color:GreenYellow; font-size: 70px;'>正确! </span>","null","","","","","","","","","","","","","","","","","","","","","","","feedback_test",""
"","","","","","psychophysics","379","1429261","0.0-14.2-0.2-0.66","835","","d","","","","","","","","","","","","","key","d","16.88222222222248","640","396","d","true","img/S_28.png","自我","prac_self","","自我"
"","","","","","html-keyboard-response","380","1429564","0.0-14.2-0.2-1.66","null","<span style='color:GreenYellow; font-size: 70px;'>正确! </span>","null","","","","","","","","","","","","","","","","","","","","","","","feedback_test",""
"","","","","","psychophysics","381","1431993","0.0-14.2-0.2-0.67","1424","","f","","","","","","","","","","","","","key","f","16.764305555555943","640","396","f","true","img/S_28.png","朋友","prac_self","","自我"
"","","","","","html-keyboard-response","382","1432294","0.0-14.2-0.2-1.67","null","<span style='color:GreenYellow; font-size: 70px;'>正确! </span>","null","","","","","","","","","","","","","","","","","","","","","","","feedback_test",""
"","","","","","psychophysics","383","1434007","0.0-14.2-0.2-0.68","710","","d","","","","","","","","","","","","","key","d","16.84217821782003","640","396","d","true","img/S_28.png","自我","prac_self","","自我"
"","","","","","html-keyboard-response","384","1434314","0.0-14.2-0.2-1.68","null","<span style='color:GreenYellow; font-size: 70px;'>正确! </span>","null","","","","","","","","","","","","","","","","","","","","","","","feedback_test",""
"","","","","","psychophysics","385","1436103","0.0-14.2-0.2-0.69","784","","k","","","","","","","","","","","","","key","k","16.82339622641536","640","396","k","true","img/C_28.png","朋友","prac_self","","朋友"
"","","","","","html-keyboard-response","386","1436405","0.0-14.2-0.2-1.69","null","<span style='color:GreenYellow; font-size: 70px;'>正确! </span>","null","","","","","","","","","","","","","","","","","","","","","","","feedback_test",""
"","","","","","psychophysics","387","1438629","0.0-14.2-0.2-0.70","1221","","k","","","","","","","","","","","","","key","k","16.74393939393904","640","396","k","true","img/H_28.png","生人","prac_self","","生人"
"","","","","","html-keyboard-response","388","1438934","0.0-14.2-0.2-1.70","null","<span style='color:GreenYellow; font-size: 70px;'>正确! </span>","null","","","","","","","","","","","","","","","","","","","","","","","feedback_test",""
"","","","","","psychophysics","389","1441082","0.0-14.2-0.2-0.71","1143","","j","","","","","","","","","","","","","key","j","16.78881889763728","640","396","j","true","img/H_28.png","朋友","prac_self","","生人"
"","","","","","html-keyboard-response","390","1441385","0.0-14.2-0.2-1.71","null","<span style='color:GreenYellow; font-size: 70px;'>正确! </span>","null","","","","","","","","","","","","","","","","","","","","","","","feedback_test",""
"","","","","","html-keyboard-response","391","1449815","0.0-15.0","8427","[""<style>.context{color:white; font-size: 35px; line-height:40px}</style>           <div><p class='context'>您正确回答了88% 的试次。</p><p class='context'>您的平均反应时为959毫秒。</p><p class='context'>恭喜您完成这一阶段的练习。按任意键进入<span style='color: yellow;'>重点关注图形为“朋友”</span>的练习。</p></div><p class='footer' style='font-size:35px; line-height:30px;'>任务要求：\n           <p class='footer' style='font-size:35px; line-height:35px;'>对于与“朋友”对应的图形：如果 匹配 ，请按 <span style=\""color: lightgreen;\"">d键</span></p><p class='footer' style='font-size:35px'>如果 不匹配 ，请按<span style=\""color: lightgreen;\"">f键</p></span>\n           <p class='footer' style='font-size:35px; line-height:35px;'>对于非“朋友”对应的图形：如果 匹配 ，请按 <span style=\""color: lightgreen;\"">k键</span></p><p class='footer' style='font-size:35px'>如果 不匹配 ，请按<span style=\""color: lightgreen;\"">j键</p></span>\n           <p class='footer' style='font-size:22px; line-height:25px;'>请在实验过程中将您的<span style=\""color: lightgreen;\"">食指和中指</span>放在电脑键盘的相应键位上进行按键。</p></span>""]","j","","","","","","","","","","","","","","","","","","","","","","","",""
"","","","","","psychophysics","392","1452318","0.0-16.0-0.0-0.0","null","","null","","","","","","","","","","","","","key","null","17.12506849315075","640","396","j","false","img/S_28.png","生人","prac_friend","","自我"
"","","","","","html-keyboard-response","393","1452626","0.0-16.0-0.0-1.0","null","<span class='add_' style='color:yellow; font-size: 70px;'> 太慢! </span>","null","","","","","","","","","","","","","","","","","","","","","","","feedback_test",""
"","","","","","psychophysics","394","1455130","0.0-16.0-0.0-0.1","null","","null","","","","","","","","","","","","","key","null","16.836486486486802","640","396","k","false","img/H_28.png","生人","prac_friend","","生人"
"","","","","","html-keyboard-response","395","1455435","0.0-16.0-0.0-1.1","null","<span class='add_' style='color:yellow; font-size: 70px;'> 太慢! </span>","null","","","","","","","","","","","","","","","","","","","","","","","feedback_test",""
"","","","","","psychophysics","396","1457939","0.0-16.0-0.0-0.2","null","","null","","","","","","","","","","","","","key","null","16.774228187918588","640","396","f","false","img/C_28.png","自我","prac_friend","","朋友"
"","","","","","html-keyboard-response","397","1458242","0.0-16.0-0.0-1.2","null","<span class='add_' style='color:yellow; font-size: 70px;'> 太慢! </span>","null","","","","","","","","","","","","","","","","","","","","","","","feedback_test",""
"","","","","","psychophysics","398","1460568","0.0-16.0-0.0-0.3","1320","","j","","","","","","","","","","","","","key","j","16.747826086956184","640","396","d","false","img/C_28.png","朋友","prac_friend","","朋友"
"","","","","","html-keyboard-response","399","1460869","0.0-16.0-0.0-1.3","null","<span style='color:red; font-size: 70px;'>错误! </span>","null","","","","","","","","","","","","","","","","","","","","","","","feedback_test",""
"","","","","","psychophysics","400","1462412","0.0-16.0-0.0-0.4","538","","f","","","","","","","","","","","","","key","f","16.863956043954712","640","396","j","false","img/H_28.png","自我","prac_friend","","生人"
"","","","","","html-keyboard-response","401","1462715","0.0-16.0-0.0-1.4","null","<span style='color:red; font-size: 70px;'>错误! </span>","null","","","","","","","","","","","","","","","","","","","","","","","feedback_test",""
"","","","","","psychophysics","402","1465219","0.0-16.0-0.0-0.5","null","","null","","","","","","","","","","","","","key","null","16.9012413793115","640","396","j","false","img/H_28.png","朋友","prac_friend","","生人"
"","","","","","html-keyboard-response","403","1465521","0.0-16.0-0.0-1.5","null","<span class='add_' style='color:yellow; font-size: 70px;'> 太慢! </span>","null","","","","","","","","","","","","","","","","","","","","","","","feedback_test",""
"","","","","","psychophysics","404","1468026","0.0-16.0-0.0-0.6","null","","null","","","","","","","","","","","","","key","null","16.785771812081038","640","396","k","false","img/H_28.png","生人","prac_friend","","生人"
"","","","","","html-keyboard-response","405","1468331","0.0-16.0-0.0-1.6","null","<span class='add_' style='color:yellow; font-size: 70px;'> 太慢! </span>","null","","","","","","","","","","","","","","","","","","","","","","","feedback_test",""
"","","","","","psychophysics","406","1470836","0.0-16.0-0.0-0.7","null","","null","","","","","","","","","","","","","key","null","16.843648648649342","640","396","j","false","img/S_28.png","朋友","prac_friend","","自我"
"","","","","","html-keyboard-response","407","1471140","0.0-16.0-0.0-1.7","null","<span class='add_' style='color:yellow; font-size: 70px;'> 太慢! </span>","null","","","","","","","","","","","","","","","","","","","","","","","feedback_test",""
"","","","","","psychophysics","408","1473166","0.0-16.0-0.0-0.8","1020","","k","","","","","","","","","","","","","key","k","16.82599999999899","640","396","k","true","img/S_28.png","自我","prac_friend","","自我"
"","","","","","html-keyboard-response","409","1473469","0.0-16.0-0.0-1.8","null","<span style='color:GreenYellow; font-size: 70px;'>正确! </span>","null","","","","","","","","","","","","","","","","","","","","","","","feedback_test",""
"","","","","","psychophysics","410","1475676","0.0-16.0-0.0-0.9","1205","","j","","","","","","","","","","","","","key","j","16.86215384615263","640","396","f","false","img/C_28.png","生人","prac_friend","","朋友"
"","","","","","html-keyboard-response","411","1475978","0.0-16.0-0.0-1.9","null","<span style='color:red; font-size: 70px;'>错误! </span>","null","","","","","","","","","","","","","","","","","","","","","","","feedback_test",""
"","","","","","psychophysics","412","1477726","0.0-16.0-0.0-0.10","743","","d","","","","","","","","","","","","","key","d","16.82485436893168","640","396","d","true","img/C_28.png","朋友","prac_friend","","朋友"
"","","","","","html-keyboard-response","413","1478030","0.0-16.0-0.0-1.10","null","<span style='color:GreenYellow; font-size: 70px;'>正确! </span>","null","","","","","","","","","","","","","","","","","","","","","","","feedback_test",""
"","","","","","psychophysics","414","1480177","0.0-16.0-0.0-0.11","1141","","k","","","","","","","","","","","","","key","k","16.788976377952388","640","396","k","true","img/S_28.png","自我","prac_friend","","自我"
"","","","","","html-keyboard-response","415","1480481","0.0-16.0-0.0-1.11","null","<span style='color:GreenYellow; font-size: 70px;'>正确! </span>","null","","","","","","","","","","","","","","","","","","","","","","","feedback_test",""
"","","","","","psychophysics","416","1482196","0.0-16.0-0.0-0.12","709","","f","","","","","","","","","","","","","key","f","16.824554455443515","640","396","f","true","img/C_28.png","生人","prac_friend","","朋友"
"","","","","","html-keyboard-response","417","1482498","0.0-16.0-0.0-1.12","null","<span style='color:GreenYellow; font-size: 70px;'>正确! </span>","null","","","","","","","","","","","","","","","","","","","","","","","feedback_test",""
"","","","","","psychophysics","418","1484347","0.0-16.0-0.0-0.13","846","","k","","","","","","","","","","","","","key","k","16.81779816513881","640","396","k","true","img/S_28.png","自我","prac_friend","","自我"
"","","","","","html-keyboard-response","419","1484652","0.0-16.0-0.0-1.13","null","<span style='color:GreenYellow; font-size: 70px;'>正确! </span>","null","","","","","","","","","","","","","","","","","","","","","","","feedback_test",""
"","","","","","psychophysics","420","1486548","0.0-16.0-0.0-0.14","891","","f","","","","","","","","","","","","","key","f","16.7844642857152","640","396","f","true","img/C_28.png","自我","prac_friend","","朋友"
"","","","","","html-keyboard-response","421","1486849","0.0-16.0-0.0-1.14","null","<span style='color:GreenYellow; font-size: 70px;'>正确! </span>","null","","","","","","","","","","","","","","","","","","","","","","","feedback_test",""
"","","","","","psychophysics","422","1488932","0.0-16.0-0.0-0.15","1077","","j","","","","","","","","","","","","","key","j","16.811382113821516","640","396","j","true","img/S_28.png","朋友","prac_friend","","自我"
"","","","","","html-keyboard-response","423","1489235","0.0-16.0-0.0-1.15","null","<span style='color:GreenYellow; font-size: 70px;'>正确! </span>","null","","","","","","","","","","","","","","","","","","","","","","","feedback_test",""
"","","","","","psychophysics","424","1491418","0.0-16.0-0.0-0.16","1178","","d","","","","","","","","","","","","","key","d","16.786821705426355","640","396","d","true","img/C_28.png","朋友","prac_friend","","朋友"
"","","","","","html-keyboard-response","425","1491719","0.0-16.0-0.0-1.16","null","<span style='color:GreenYellow; font-size: 70px;'>正确! </span>","null","","","","","","","","","","","","","","","","","","","","","","","feedback_test",""
"","","","","","psychophysics","426","1493702","0.0-16.0-0.0-0.17","976","","j","","","","","","","","","","","","","key","j","17.24561403508772","640","396","j","true","img/H_28.png","自我","prac_friend","","生人"
