"success","timeout","failed_images","failed_audio","failed_video","trial_type","trial_index","time_elapsed","internal_node_id","rt","stimulus","response","value","item_width_mm","item_height_mm","item_width_px","px2mm","view_dist_mm","item_width_deg","px2deg","scale_factor","win_width_deg","win_height_deg","view_history","response_type","key_press","avg_frame_time","center_x","center_y","correct_response","correct","Image","text","condition","screen_id","label"
"true","false","[]","[]","[]","preload","0","7548","0.0-0.0","","","","","","","","","","","","","","","","","","","","","","","","","","",""
"","","","","","html-keyboard-response","1","88386","0.0-1.0","80836","
  <p>您好，欢迎参加本次实验。</p>
  <p>为充分保障您的权利，请确保您已经知晓并同意《参与实验同意书》以及《数据公开知情同意书》。</p>
  <p>如果您未见过上述内容，请咨询实验员。</p>
  <p>如果您选择继续实验，则表示您已经清楚两份知情同意书的内容并同意。</p>
  <p> <div style = ""color: green""><按任意键至下页></div> </p>
  "," ","","","","","","","","","","","","","","","","","","","","","","","",""
"","","","","","html-keyboard-response","2","89927","0.0-2.0","1541","
  <p>本实验首先需要您填写一些基本个人信息。</p>
  <p> <div style = ""color: green""><按任意键至下页></div></p>
  "," ","","","","","","","","","","","","","","","","","","","","","","","",""
"","","","","","call-function","3","89928","0.0-3.0-0.0","","","","","","","","","","","","","","","","","","","","","","","","","","",""
"","","","","","survey-html-form","4","98677","0.0-3.0-1.0","8740","","{""Q0"":""49""}","","","","","","","","","","","","","","","","","","","","","","","",""
"","","","","","html-button-response","5","99661","0.0-3.0-2.0","982","<p style = 'color : white'>您的性别</p>","1","","","","","","","","","","","","","","","","","","","","","","","",""
"","","","","","survey-html-form","6","108437","0.0-3.0-3.0","8774","","{""Q0"":""2002""}","","","","","","","","","","","","","","","","","","","","","","","",""
"","","","","","survey-html-form","7","111549","0.0-3.0-4.0","3111","","{""Q0"":""5""}","","","","","","","","","","","","","","","","","","","","","","","",""
"","","","","","virtual-chinrest","8","210933","0.0-4.0","99383","","","","85.6","53.98","441.9910891412888","5.160678079917841","553.72","8.839821782825776","50","0.8099710804023929","25.6","12.96","","","","","","","","","","","","",""
"true","","","","","fullscreen","9","214158","0.0-5.0","","","","","","","","","","","","","","","","","","","","","","","","","","",""
"","","","","","instructions","10","271357","0.0-6.0","57198","","","","","","","","","","","","","","[{""page_index"":0,""viewing_time"":8502},{""page_index"":1,""viewing_time"":9751},{""page_index"":2,""viewing_time"":34352},{""page_index"":3,""viewing_time"":2992},{""page_index"":4,""viewing_time"":1600}]","","","","","","","","","","","",""
"","","","","","instructions","11","283973","0.0-7.0","12615","","","","","","","","","","","","","","[{""page_index"":0,""viewing_time"":12615}]","","","","","","","","","","","",""
"","","","","","psychophysics","12","289991","0.0-8.0-0.0-0.0","5013","","j","","","","","","","","","","","","","key","j","16.666219444444547","640","356","j","true","img/S_28.png","生人","freeprac_self","",""
"","","","","","html-keyboard-response","13","290307","0.0-8.0-0.0-1.0","null","<span style='color:GreenYellow; font-size: 70px;'>正确! </span>","null","","","","","","","","","","","","","","","","","","","","","","","feedback_test",""
"","","","","","psychophysics","14","293254","0.0-8.0-0.0-0.1","1944","","f","","","","","","","","","","","","","key","f","16.665488636363577","640","356","f","true","img/C_28.png","自我","freeprac_self","",""
"","","","","","html-keyboard-response","15","293575","0.0-8.0-0.0-1.1","null","<span style='color:GreenYellow; font-size: 70px;'>正确! </span>","null","","","","","","","","","","","","","","","","","","","","","","","feedback_test",""
"","","","","","psychophysics","16","296554","0.0-8.0-0.0-0.2","1971","","k","","","","","","","","","","","","","key","k","16.666640449438265","640","356","d","false","img/C_28.png","朋友","freeprac_self","",""
"","","","","","html-keyboard-response","17","296860","0.0-8.0-0.0-1.2","null","<span style='color:red; font-size: 70px;'>错误! </span>","null","","","","","","","","","","","","","","","","","","","","","","","feedback_test",""
"","","","","","psychophysics","18","299899","0.0-8.0-0.0-0.3","2037","","j","","","","","","","","","","","","","key","j","16.660740331491617","640","356","j","true","img/S_28.png","生人","freeprac_self","",""
"","","","","","html-keyboard-response","19","300216","0.0-8.0-0.0-1.3","null","<span style='color:GreenYellow; font-size: 70px;'>正确! </span>","null","","","","","","","","","","","","","","","","","","","","","","","feedback_test",""
"","","","","","psychophysics","20","303331","0.0-8.0-0.0-0.4","2103","","j","","","","","","","","","","","","","key","j","16.66617204301073","640","356","j","true","img/H_28.png","朋友","freeprac_self","",""
"","","","","","html-keyboard-response","21","303635","0.0-8.0-0.0-1.4","null","<span style='color:GreenYellow; font-size: 70px;'>正确! </span>","null","","","","","","","","","","","","","","","","","","","","","","","feedback_test",""
"","","","","","psychophysics","22","309812","0.0-8.0-0.0-0.5","5167","","j","","","","","","","","","","","","","key","j","16.666521621621655","640","356","j","true","img/H_28.png","朋友","freeprac_self","",""
"","","","","","html-keyboard-response","23","310125","0.0-8.0-0.0-1.5","null","<span style='color:GreenYellow; font-size: 70px;'>正确! </span>","null","","","","","","","","","","","","","","","","","","","","","","","feedback_test",""
"","","","","","psychophysics","24","313785","0.0-8.0-0.0-0.6","2656","","d","","","","","","","","","","","","","key","d","16.666442922374433","640","356","k","false","img/S_28.png","自我","freeprac_self","",""
"","","","","","html-keyboard-response","25","314095","0.0-8.0-0.0-1.6","null","<span style='color:red; font-size: 70px;'>错误! </span>","null","","","","","","","","","","","","","","","","","","","","","","","feedback_test",""
"","","","","","psychophysics","26","317670","0.0-8.0-0.0-0.7","2560","","d","","","","","","","","","","","","","key","d","16.666976525821557","640","356","k","false","img/H_28.png","自我","freeprac_self","",""
"","","","","","html-keyboard-response","27","317975","0.0-8.0-0.0-1.7","null","<span style='color:red; font-size: 70px;'>错误! </span>","null","","","","","","","","","","","","","","","","","","","","","","","feedback_test",""
"","","","","","psychophysics","28","326798","0.0-8.0-0.0-0.8","7820","","k","","","","","","","","","","","","","key","k","16.666608695652172","640","356","k","true","img/H_28.png","生人","freeprac_self","",""
"","","","","","html-keyboard-response","29","327115","0.0-8.0-0.0-1.8","null","<span style='color:GreenYellow; font-size: 70px;'>正确! </span>","null","","","","","","","","","","","","","","","","","","","","","","","feedback_test",""
"","","","","","psychophysics","30","331801","0.0-8.0-0.0-0.9","3674","","k","","","","","","","","","","","","","key","k","16.667000000000034","640","356","d","false","img/C_28.png","生人","freeprac_self","",""
"","","","","","html-keyboard-response","31","332105","0.0-8.0-0.0-1.9","null","<span style='color:red; font-size: 70px;'>错误! </span>","null","","","","","","","","","","","","","","","","","","","","","","","feedback_test",""
"","","","","","psychophysics","32","336989","0.0-8.0-0.0-0.10","3881","","f","","","","","","","","","","","","","key","f","16.666558219178114","640","356","f","true","img/C_28.png","自我","freeprac_self","",""
"","","","","","html-keyboard-response","33","337305","0.0-8.0-0.0-1.10","null","<span style='color:GreenYellow; font-size: 70px;'>正确! </span>","null","","","","","","","","","","","","","","","","","","","","","","","feedback_test",""
"","","","","","psychophysics","34","345277","0.0-8.0-0.0-0.11","6966","","k","","","","","","","","","","","","","key","k","16.666830188679203","640","356","k","true","img/S_28.png","朋友","freeprac_self","",""
"","","","","","html-keyboard-response","35","345591","0.0-8.0-0.0-1.11","null","<span style='color:GreenYellow; font-size: 70px;'>正确! </span>","null","","","","","","","","","","","","","","","","","","","","","","","feedback_test",""
"","","","","","html-keyboard-response","36","352692","0.0-8.0-1.0-0.0","7099","<style>.context{color:white; font-size: 35px; line-height:40px}</style>                           <div><p class='context'>您正确回答了67% 的试次。</p><p class='context'>您的平均反应时为4366毫秒。</p>"," ","","","","","","","","","","","","","","","","","","","","","","","",""
"","","","","","instructions","37","378485","0.0-8.0-1.0-1.0","25792","","","","","","","","","","","","","","[{""page_index"":0,""viewing_time"":1743},{""page_index"":1,""viewing_time"":22984},{""page_index"":2,""viewing_time"":1064}]","","","","","","","","","","","",""
"","","","","","psychophysics","38","381313","0.0-8.1-0.1-0.12","1818","","k","","","","","","","","","","","","","key","k","16.666497041420328","640","356","k","true","img/H_28.png","生人","freeprac_self","",""
"","","","","","html-keyboard-response","39","381615","0.0-8.1-0.1-1.12","null","<span style='color:GreenYellow; font-size: 70px;'>正确! </span>","null","","","","","","","","","","","","","","","","","","","","","","","feedback_test",""
"","","","","","psychophysics","40","384632","0.0-8.1-0.1-0.13","2005","","k","","","","","","","","","","","","","key","k","16.666555555555775","640","356","d","false","img/C_28.png","朋友","freeprac_self","",""
"","","","","","html-keyboard-response","41","384935","0.0-8.1-0.1-1.13","null","<span style='color:red; font-size: 70px;'>错误! </span>","null","","","","","","","","","","","","","","","","","","","","","","","feedback_test",""
"","","","","","psychophysics","42","389021","0.0-8.1-0.1-0.14","3079","","j","","","","","","","","","","","","","key","j","16.66650819672118","640","356","j","true","img/S_28.png","生人","freeprac_self","",""
"","","","","","html-keyboard-response","43","389336","0.0-8.1-0.1-1.14","null","<span style='color:GreenYellow; font-size: 70px;'>正确! </span>","null","","","","","","","","","","","","","","","","","","","","","","","feedback_test",""
"","","","","","psychophysics","44","392155","0.0-8.1-0.1-0.15","1811","","j","","","","","","","","","","","","","key","j","16.66573809523799","640","356","j","true","img/S_28.png","生人","freeprac_self","",""
"","","","","","html-keyboard-response","45","392465","0.0-8.1-0.1-1.15","null","<span style='color:GreenYellow; font-size: 70px;'>正确! </span>","null","","","","","","","","","","","","","","","","","","","","","","","feedback_test",""
"","","","","","psychophysics","46","395077","0.0-8.1-0.1-0.16","1604","","f","","","","","","","","","","","","","key","f","16.666807692307675","640","356","f","true","img/C_28.png","自我","freeprac_self","",""
"","","","","","html-keyboard-response","47","395385","0.0-8.1-0.1-1.16","null","<span style='color:GreenYellow; font-size: 70px;'>正确! </span>","null","","","","","","","","","","","","","","","","","","","","","","","feedback_test",""
"","","","","","psychophysics","48","397124","0.0-8.1-0.1-0.17","731","","f","","","","","","","","","","","","","key","f","16.665077669903166","640","356","f","true","img/C_28.png","自我","freeprac_self","",""
"","","","","","html-keyboard-response","49","397445","0.0-8.1-0.1-1.17","null","<span style='color:GreenYellow; font-size: 70px;'>正确! </span>","null","","","","","","","","","","","","","","","","","","","","","","","feedback_test",""
"","","","","","psychophysics","50","402268","0.0-8.1-0.1-0.18","3817","","d","","","","","","","","","","","","","key","d","16.66543402777764","640","356","k","false","img/S_28.png","自我","freeprac_self","",""
"","","","","","html-keyboard-response","51","402575","0.0-8.1-0.1-1.18","null","<span style='color:red; font-size: 70px;'>错误! </span>","null","","","","","","","","","","","","","","","","","","","","","","","feedback_test",""
"","","","","","psychophysics","52","405781","0.0-8.1-0.1-0.19","2204","","d","","","","","","","","","","","","","key","d","16.662989528796086","640","356","k","false","img/H_28.png","自我","freeprac_self","",""
"","","","","","html-keyboard-response","53","406095","0.0-8.1-0.1-1.19","null","<span style='color:red; font-size: 70px;'>错误! </span>","null","","","","","","","","","","","","","","","","","","","","","","","feedback_test",""
"","","","","","psychophysics","54","411571","0.0-8.1-0.1-0.20","4462","","j","","","","","","","","","","","","","key","j","16.666892966360745","640","356","k","false","img/S_28.png","朋友","freeprac_self","",""
"","","","","","html-keyboard-response","55","411885","0.0-8.1-0.1-1.20","null","<span style='color:red; font-size: 70px;'>错误! </span>","null","","","","","","","","","","","","","","","","","","","","","","","feedback_test",""
"","","","","","psychophysics","56","416049","0.0-8.1-0.1-0.21","3157","","j","","","","","","","","","","","","","key","j","16.66690763052208","640","356","j","true","img/H_28.png","朋友","freeprac_self","",""
"","","","","","html-keyboard-response","57","416355","0.0-8.1-0.1-1.21","null","<span style='color:GreenYellow; font-size: 70px;'>正确! </span>","null","","","","","","","","","","","","","","","","","","","","","","","feedback_test",""
"","","","","","psychophysics","58","423540","0.0-8.1-0.1-0.22","6178","","k","","","","","","","","","","","","","key","k","16.6663511627906","640","356","d","false","img/C_28.png","生人","freeprac_self","",""
"","","","","","html-keyboard-response","59","423845","0.0-8.1-0.1-1.22","null","<span style='color:red; font-size: 70px;'>错误! </span>","null","","","","","","","","","","","","","","","","","","","","","","","feedback_test",""
"","","","","","psychophysics","60","429889","0.0-8.1-0.1-0.23","5030","","j","","","","","","","","","","","","","key","j","16.66610249307476","640","356","j","true","img/H_28.png","朋友","freeprac_self","",""
"","","","","","html-keyboard-response","61","430195","0.0-8.1-0.1-1.23","null","<span style='color:GreenYellow; font-size: 70px;'>正确! </span>","null","","","","","","","","","","","","","","","","","","","","","","","feedback_test",""
"","","","","","html-keyboard-response","62","433973","0.0-8.1-1.1-0.1","3777","<style>.context{color:white; font-size: 35px; line-height:40px}</style>                           <div><p class='context'>您正确回答了58% 的试次。</p><p class='context'>您的平均反应时为2461毫秒。</p>"," ","","","","","","","","","","","","","","","","","","","","","","","",""
"","","","","","instructions","63","461021","0.0-8.1-1.1-1.1","27046","","","","","","","","","","","","","","[{""page_index"":0,""viewing_time"":1142},{""page_index"":1,""viewing_time"":24224},{""page_index"":2,""viewing_time"":1680}]","","","","","","","","","","","",""
"","","","","","psychophysics","64","463927","0.0-8.2-0.2-0.24","1902","","j","","","","","","","","","","","","","key","j","16.666540229885072","640","356","k","false","img/S_28.png","朋友","freeprac_self","",""
"","","","","","html-keyboard-response","65","464235","0.0-8.2-0.2-1.24","null","<span style='color:red; font-size: 70px;'>错误! </span>","null","","","","","","","","","","","","","","","","","","","","","","","feedback_test",""
"","","","","","psychophysics","66","467843","0.0-8.2-0.2-0.25","2600","","k","","","","","","","","","","","","","key","k","16.666064814814792","640","356","f","false","img/C_28.png","自我","freeprac_self","",""
"","","","","","html-keyboard-response","67","468155","0.0-8.2-0.2-1.25","null","<span style='color:red; font-size: 70px;'>错误! </span>","null","","","","","","","","","","","","","","","","","","","","","","","feedback_test",""
"","","","","","psychophysics","68","473817","0.0-8.2-0.2-0.26","4658","","d","","","","","","","","","","","","","key","d","16.6664218289086","640","356","k","false","img/H_28.png","自我","freeprac_self","",""
"","","","","","html-keyboard-response","69","474125","0.0-8.2-0.2-1.26","null","<span style='color:red; font-size: 70px;'>错误! </span>","null","","","","","","","","","","","","","","","","","","","","","","","feedback_test",""
"","","","","","psychophysics","70","478750","0.0-8.2-0.2-0.27","3621","","j","","","","","","","","","","","","","key","j","16.666141304347757","640","356","j","true","img/H_28.png","朋友","freeprac_self","",""
"","","","","","html-keyboard-response","71","479057","0.0-8.2-0.2-1.27","null","<span style='color:GreenYellow; font-size: 70px;'>正确! </span>","null","","","","","","","","","","","","","","","","","","","","","","","feedback_test",""
"","","","","","psychophysics","72","482253","0.0-8.2-0.2-0.28","2195","","j","","","","","","","","","","","","","key","j","16.666890052355964","640","356","j","true","img/H_28.png","朋友","freeprac_self","",""
"","","","","","html-keyboard-response","73","482555","0.0-8.2-0.2-1.28","null","<span style='color:GreenYellow; font-size: 70px;'>正确! </span>","null","","","","","","","","","","","","","","","","","","","","","","","feedback_test",""
"","","","","","psychophysics","74","486914","0.0-8.2-0.2-0.29","3355","","k","","","","","","","","","","","","","key","k","16.66660153256708","640","356","k","true","img/H_28.png","生人","freeprac_self","",""
"","","","","","html-keyboard-response","75","487225","0.0-8.2-0.2-1.29","null","<span style='color:GreenYellow; font-size: 70px;'>正确! </span>","null","","","","","","","","","","","","","","","","","","","","","","","feedback_test",""
"","","","","","psychophysics","76","492622","0.0-8.2-0.2-0.30","4396","","d","","","","","","","","","","","","","key","d","16.666195652173958","640","356","k","false","img/S_28.png","自我","freeprac_self","",""
"","","","","","html-keyboard-response","77","492935","0.0-8.2-0.2-1.30","null","<span style='color:red; font-size: 70px;'>错误! </span>","null","","","","","","","","","","","","","","","","","","","","","","","feedback_test",""
"","","","","","psychophysics","78","499531","0.0-8.2-0.2-0.31","5589","","j","","","","","","","","","","","","","key","j","16.66623797468352","640","356","j","true","img/S_28.png","生人","freeprac_self","",""
"","","","","","html-keyboard-response","79","499835","0.0-8.2-0.2-1.31","null","<span style='color:GreenYellow; font-size: 70px;'>正确! </span>","null","","","","","","","","","","","","","","","","","","","","","","","feedback_test",""
"","","","","","psychophysics","80","506827","0.0-8.2-0.2-0.32","5985","","k","","","","","","","","","","","","","key","k","16.665455847255373","640","356","d","false","img/C_28.png","朋友","freeprac_self","",""
"","","","","","html-keyboard-response","81","507145","0.0-8.2-0.2-1.32","null","<span style='color:red; font-size: 70px;'>错误! </span>","null","","","","","","","","","","","","","","","","","","","","","","","feedback_test",""
"","","","","","psychophysics","82","514720","0.0-8.2-0.2-0.33","6562","","k","","","","","","","","","","","","","key","k","16.66635982339963","640","356","d","false","img/C_28.png","生人","freeprac_self","",""
"","","","","","html-keyboard-response","83","515031","0.0-8.2-0.2-1.33","null","<span style='color:red; font-size: 70px;'>错误! </span>","null","","","","","","","","","","","","","","","","","","","","","","","feedback_test",""
"","","","","","psychophysics","84","516930","0.0-8.2-0.2-0.34","888","","f","","","","","","","","","","","","","key","f","16.665566371680665","640","356","f","true","img/C_28.png","自我","freeprac_self","",""
"","","","","","html-keyboard-response","85","517235","0.0-8.2-0.2-1.34","null","<span style='color:GreenYellow; font-size: 70px;'>正确! </span>","null","","","","","","","","","","","","","","","","","","","","","","","feedback_test",""
"","","","","","psychophysics","86","524214","0.0-8.2-0.2-0.35","5973","","j","","","","","","","","","","","","","key","j","16.666531100478437","640","356","j","true","img/S_28.png","生人","freeprac_self","",""
"","","","","","html-keyboard-response","87","524525","0.0-8.2-0.2-1.35","null","<span style='color:GreenYellow; font-size: 70px;'>正确! </span>","null","","","","","","","","","","","","","","","","","","","","","","","feedback_test",""
"","","","","","html-keyboard-response","88","530628","0.0-8.2-1.2-0.2","6101","<style>.context{color:white; font-size: 35px; line-height:40px}</style>                           <div><p class='context'>您正确回答了50% 的试次。</p><p class='context'>您的平均反应时为3604毫秒。</p>"," ","","","","","","","","","","","","","","","","","","","","","","","",""
"","","","","","instructions","89","583100","0.0-8.2-1.2-1.2","52471","","","","","","","","","","","","","","[{""page_index"":0,""viewing_time"":2094},{""page_index"":1,""viewing_time"":49376},{""page_index"":2,""viewing_time"":1000}]","","","","","","","","","","","",""
"","","","","","psychophysics","90","585498","0.0-8.3-0.3-0.36","1390","","f","","","","","","","","","","","","","key","f","16.665230769230952","640","356","d","false","img/C_28.png","朋友","freeprac_self","",""
"","","","","","html-keyboard-response","91","585815","0.0-8.3-0.3-1.36","null","<span style='color:red; font-size: 70px;'>错误! </span>","null","","","","","","","","","","","","","","","","","","","","","","","feedback_test",""
"","","","","","psychophysics","92","590514","0.0-8.3-0.3-0.37","3690","","f","","","","","","","","","","","","","key","f","16.666135231316755","640","356","f","true","img/C_28.png","自我","freeprac_self","",""
"","","","","","html-keyboard-response","93","590835","0.0-8.3-0.3-1.37","null","<span style='color:GreenYellow; font-size: 70px;'>正确! </span>","null","","","","","","","","","","","","","","","","","","","","","","","feedback_test",""
"","","","","","psychophysics","94","594498","0.0-8.3-0.3-0.38","2657","","k","","","","","","","","","","","","","key","k","16.667703196346828","640","356","k","true","img/H_28.png","自我","freeprac_self","",""
"","","","","","html-keyboard-response","95","594804","0.0-8.3-0.3-1.38","null","<span style='color:GreenYellow; font-size: 70px;'>正确! </span>","null","","","","","","","","","","","","","","","","","","","","","","","feedback_test",""
"","","","","","psychophysics","96","599633","0.0-8.3-0.3-0.39","3828","","k","","","","","","","","","","","","","key","k","16.66292708333357","640","356","k","true","img/H_28.png","生人","freeprac_self","",""
"","","","","","html-keyboard-response","97","599945","0.0-8.3-0.3-1.39","null","<span style='color:GreenYellow; font-size: 70px;'>正确! </span>","null","","","","","","","","","","","","","","","","","","","","","","","feedback_test",""
"","","","","","psychophysics","98","604516","0.0-8.3-0.3-0.40","3560","","j","","","","","","","","","","","","","key","j","16.666344322344365","640","356","j","true","img/H_28.png","朋友","freeprac_self","",""
"","","","","","html-keyboard-response","99","604824","0.0-8.3-0.3-1.40","null","<span style='color:GreenYellow; font-size: 70px;'>正确! </span>","null","","","","","","","","","","","","","","","","","","","","","","","feedback_test",""
"","","","","","psychophysics","100","607823","0.0-8.3-0.3-0.41","1984","","k","","","","","","","","","","","","","key","k","16.666765363128626","640","356","k","true","img/S_28.png","朋友","freeprac_self","",""
"","","","","","html-keyboard-response","101","608134","0.0-8.3-0.3-1.41","null","<span style='color:GreenYellow; font-size: 70px;'>正确! </span>","null","","","","","","","","","","","","","","","","","","","","","","","feedback_test",""
"","","","","","psychophysics","102","610890","0.0-8.3-0.3-0.42","1749","","f","","","","","","","","","","","","","key","f","16.666618181818702","640","356","f","true","img/C_28.png","自我","freeprac_self","",""
"","","","","","html-keyboard-response","103","611205","0.0-8.3-0.3-1.42","null","<span style='color:GreenYellow; font-size: 70px;'>正确! </span>","null","","","","","","","","","","","","","","","","","","","","","","","feedback_test",""
"","","","","","psychophysics","104","614064","0.0-8.3-0.3-0.43","1858","","j","","","","","","","","","","","","","key","j","16.660482352941216","640","356","j","true","img/S_28.png","生人","freeprac_self","",""
"","","","","","html-keyboard-response","105","614373","0.0-8.3-0.3-1.43","null","<span style='color:GreenYellow; font-size: 70px;'>正确! </span>","null","","","","","","","","","","","","","","","","","","","","","","","feedback_test",""
"","","","","","psychophysics","106","618852","0.0-8.3-0.3-0.44","3463","","j","","","","","","","","","","","","","key","j","16.665670411985225","640","356","j","true","img/H_28.png","朋友","freeprac_self","",""
"","","","","","html-keyboard-response","107","619155","0.0-8.3-0.3-1.44","null","<span style='color:GreenYellow; font-size: 70px;'>正确! </span>","null","","","","","","","","","","","","","","","","","","","","","","","feedback_test",""
"","","","","","psychophysics","108","622901","0.0-8.3-0.3-0.45","2745","","j","","","","","","","","","","","","","key","j","16.664807174887795","640","356","k","false","img/S_28.png","自我","freeprac_self","",""
"","","","","","html-keyboard-response","109","623205","0.0-8.3-0.3-1.45","null","<span style='color:red; font-size: 70px;'>错误! </span>","null","","","","","","","","","","","","","","","","","","","","","","","feedback_test",""
"","","","","","psychophysics","110","625092","0.0-8.3-0.3-0.46","885","","j","","","","","","","","","","","","","key","j","16.66569642857212","640","356","j","true","img/S_28.png","生人","freeprac_self","",""
"","","","","","html-keyboard-response","111","625395","0.0-8.3-0.3-1.46","null","<span style='color:GreenYellow; font-size: 70px;'>正确! </span>","null","","","","","","","","","","","","","","","","","","","","","","","feedback_test",""
"","","","","","psychophysics","112","630257","0.0-8.3-0.3-0.47","3851","","d","","","","","","","","","","","","","key","d","16.666463917525743","640","356","d","true","img/C_28.png","生人","freeprac_self","",""
"","","","","","html-keyboard-response","113","630575","0.0-8.3-0.3-1.47","null","<span style='color:GreenYellow; font-size: 70px;'>正确! </span>","null","","","","","","","","","","","","","","","","","","","","","","","feedback_test",""
"","","","","","html-keyboard-response","114","647364","0.0-9.0","16788","[""<style>.context{color:white; font-size: 35px; line-height:40px}</style>           <div><p class='context'>您正确回答了83% 的试次。</p><p class='context'>您的平均反应时为2753毫秒。</p><p class='context'>恭喜您完成这一阶段的练习。按任意键进入<span style='color: yellow;'>重点关注图形为“朋友”</span>的练习。</p></div><p class='footer' style='font-size:35px; line-height:30px;'>任务要求：\n           <p class='footer' style='font-size:35px; line-height:35px;'>对于与“朋友”对应的图形：如果 匹配 ，请按 <span style=\""color: lightgreen;\"">f键</span></p><p class='footer' style='font-size:35px'>如果 不匹配 ，请按<span style=\""color: lightgreen;\"">d键</p></span>\n           <p class='footer' style='font-size:35px; line-height:35px;'>对于非“朋友”对应的图形：如果 匹配 ，请按 <span style=\""color: lightgreen;\"">j键</span></p><p class='footer' style='font-size:35px'>如果 不匹配 ，请按<span style=\""color: lightgreen;\"">k键</p></span>\n           <p class='footer' style='font-size:22px; line-height:25px;'>请在实验过程中将您的<span style=\""color: lightgreen;\"">食指和中指</span>放在电脑键盘的相应键位上进行按键。</p></span>""]"," ","","","","","","","","","","","","","","","","","","","","","","","",""
"","","","","","psychophysics","115","652062","0.0-10.0-0.0-0.0","3690","","j","","","","","","","","","","","","","key","j","16.66646975088944","640","356","j","true","img/S_28.png","生人","freeprac_friend","",""
"","","","","","html-keyboard-response","116","652375","0.0-10.0-0.0-1.0","null","<span style='color:GreenYellow; font-size: 70px;'>正确! </span>","null","","","","","","","","","","","","","","","","","","","","","","","feedback_test",""
"","","","","","psychophysics","117","655352","0.0-10.0-0.0-0.1","1975","","j","","","","","","","","","","","","","key","j","16.666711864406295","640","356","j","true","img/C_28.png","自我","freeprac_friend","",""
"","","","","","html-keyboard-response","118","655662","0.0-10.0-0.0-1.1","null","<span style='color:GreenYellow; font-size: 70px;'>正确! </span>","null","","","","","","","","","","","","","","","","","","","","","","","feedback_test",""
"","","","","","psychophysics","119","658445","0.0-10.0-0.0-0.2","1772","","f","","","","","","","","","","","","","key","f","16.666632530120264","640","356","f","true","img/H_28.png","朋友","freeprac_friend","",""
"","","","","","html-keyboard-response","120","658755","0.0-10.0-0.0-1.2","null","<span style='color:GreenYellow; font-size: 70px;'>正确! </span>","null","","","","","","","","","","","","","","","","","","","","","","","feedback_test",""
"","","","","","psychophysics","121","662516","0.0-10.0-0.0-0.3","2760","","d","","","","","","","","","","","","","key","d","16.665473214285676","640","356","d","true","img/H_28.png","生人","freeprac_friend","",""
"","","","","","html-keyboard-response","122","662825","0.0-10.0-0.0-1.3","null","<span style='color:GreenYellow; font-size: 70px;'>正确! </span>","null","","","","","","","","","","","","","","","","","","","","","","","feedback_test",""
"","","","","","psychophysics","123","665455","0.0-10.0-0.0-0.4","1617","","j","","","","","","","","","","","","","key","j","16.666262820512294","640","356","j","true","img/S_28.png","生人","freeprac_friend","",""
"","","","","","html-keyboard-response","124","665772","0.0-10.0-0.0-1.4","null","<span style='color:GreenYellow; font-size: 70px;'>正确! </span>","null","","","","","","","","","","","","","","","","","","","","","","","feedback_test",""
"","","","","","psychophysics","125","673539","0.0-10.0-0.0-0.5","6751","","d","","","","","","","","","","","","","key","d","16.666384946236697","640","356","d","true","img/H_28.png","自我","freeprac_friend","",""
"","","","","","html-keyboard-response","126","673847","0.0-10.0-0.0-1.5","null","<span style='color:GreenYellow; font-size: 70px;'>正确! </span>","null","","","","","","","","","","","","","","","","","","","","","","","feedback_test",""
"","","","","","psychophysics","127","680220","0.0-10.0-0.0-0.6","5365","","k","","","","","","","","","","","","","key","k","16.665958005249294","640","356","k","true","img/S_28.png","朋友","freeprac_friend","",""
"","","","","","html-keyboard-response","128","680523","0.0-10.0-0.0-1.6","null","<span style='color:GreenYellow; font-size: 70px;'>正确! </span>","null","","","","","","","","","","","","","","","","","","","","","","","feedback_test",""
"","","","","","psychophysics","129","688828","0.0-10.0-0.0-0.7","7301","","j","","","","","","","","","","","","","key","j","16.666945674044165","640","356","k","false","img/S_28.png","自我","freeprac_friend","",""
"","","","","","html-keyboard-response","130","689141","0.0-10.0-0.0-1.7","null","<span style='color:red; font-size: 70px;'>错误! </span>","null","","","","","","","","","","","","","","","","","","","","","","","feedback_test",""
"","","","","","psychophysics","131","696284","0.0-10.0-0.0-0.8","6128","","j","","","","","","","","","","","","","key","j","16.666714285714093","640","356","j","true","img/C_28.png","自我","freeprac_friend","",""
"","","","","","html-keyboard-response","132","696590","0.0-10.0-0.0-1.8","null","<span style='color:GreenYellow; font-size: 70px;'>正确! </span>","null","","","","","","","","","","","","","","","","","","","","","","","feedback_test",""
"","","","","","psychophysics","133","702538","0.0-10.0-0.0-0.9","4932","","k","","","","","","","","","","","","","key","k","16.66657746478876","640","356","k","true","img/C_28.png","朋友","freeprac_friend","",""
"","","","","","html-keyboard-response","134","702841","0.0-10.0-0.0-1.9","null","<span style='color:GreenYellow; font-size: 70px;'>正确! </span>","null","","","","","","","","","","","","","","","","","","","","","","","feedback_test",""
"","","","","","psychophysics","135","706977","0.0-10.0-0.0-0.10","3124","","f","","","","","","","","","","","","","key","f","16.67039676113403","640","356","f","true","img/H_28.png","朋友","freeprac_friend","",""
"","","","","","html-keyboard-response","136","707285","0.0-10.0-0.0-1.10","null","<span style='color:GreenYellow; font-size: 70px;'>正确! </span>","null","","","","","","","","","","","","","","","","","","","","","","","feedback_test",""
"","","","","","psychophysics","137","712233","0.0-10.0-0.0-0.11","3946","","k","","","","","","","","","","","","","key","k","16.66693243243247","640","356","k","true","img/C_28.png","生人","freeprac_friend","",""
"","","","","","html-keyboard-response","138","712547","0.0-10.0-0.0-1.11","null","<span style='color:GreenYellow; font-size: 70px;'>正确! </span>","null","","","","","","","","","","","","","","","","","","","","","","","feedback_test",""
"","","","","","html-keyboard-response","139","756665","0.0-11.0","44123","[""<style>.context{color:white; font-size: 35px; line-height:40px}</style>               <div><p class='context'>您正确回答了92% 的试次。</p><p class='context'>您的平均反应时为3824毫秒。</p><p class='context'>恭喜您完成这一阶段的练习。按任意键进入<span style='color: yellow;'>重点关注图形为“生人”</span>的练习。</p></div><p class='footer' style='font-size:35px; line-height:30px;'>任务要求：\n               <p class='footer' style='font-size:35px; line-height:35px;'>对与“生人”对应的图形，如果 匹配 ，请按 <span style=\""color: lightgreen;\"">f键</span></p><p class='footer' style='font-size:35px'>如果 不匹配 ，请按<span style=\""color: lightgreen;\"">d键</p></span>\n               <p class='footer' style='font-size:35px; line-height:35px;'>对非“生人”对应的图形，如果 匹配 ，请按 <span style=\""color: lightgreen;\"">j键</span></p><p class='footer' style='font-size:35px'>如果 不匹配 ，请按<span style=\""color: lightgreen;\"">k键</p></span>\n               <p class='footer' style='font-size:22px; line-height:25px;'>请在实验过程中将您的<span style=\""color: lightgreen;\"">食指和中指</span>放在电脑键盘的相应键位上进行按键。</p></span>""]"," ","","","","","","","","","","","","","","","","","","","","","","","",""
"","","","","","psychophysics","140","759522","0.0-12.0-0.0-0.0","1843","","f","","","","","","","","","","","","","key","f","16.66768823529402","640","356","f","true","img/S_28.png","生人","freeprac_stranger","",""
"","","","","","html-keyboard-response","141","759826","0.0-12.0-0.0-1.0","null","<span style='color:GreenYellow; font-size: 70px;'>正确! </span>","null","","","","","","","","","","","","","","","","","","","","","","","feedback_test",""
"","","","","","psychophysics","142","762731","0.0-12.0-0.0-0.1","1899","","k","","","","","","","","","","","","","key","k","16.666982658959068","640","356","k","true","img/C_28.png","生人","freeprac_stranger","",""
"","","","","","html-keyboard-response","143","763041","0.0-12.0-0.0-1.1","null","<span style='color:GreenYellow; font-size: 70px;'>正确! </span>","null","","","","","","","","","","","","","","","","","","","","","","","feedback_test",""
"","","","","","psychophysics","144","767963","0.0-12.0-0.0-0.2","3914","","j","","","","","","","","","","","","","key","j","16.666857142857083","640","356","j","true","img/C_28.png","自我","freeprac_stranger","",""
"","","","","","html-keyboard-response","145","768266","0.0-12.0-0.0-1.2","null","<span style='color:GreenYellow; font-size: 70px;'>正确! </span>","null","","","","","","","","","","","","","","","","","","","","","","","feedback_test",""
"","","","","","psychophysics","146","771530","0.0-12.0-0.0-0.3","2248","","f","","","","","","","","","","","","","key","f","16.66684536082483","640","356","f","true","img/S_28.png","生人","freeprac_stranger","",""
"","","","","","html-keyboard-response","147","771835","0.0-12.0-0.0-1.3","null","<span style='color:GreenYellow; font-size: 70px;'>正确! </span>","null","","","","","","","","","","","","","","","","","","","","","","","feedback_test",""
"","","","","","psychophysics","148","774604","0.0-12.0-0.0-0.4","1756","","j","","","","","","","","","","","","","key","j","16.666418181818372","640","356","j","true","img/H_28.png","朋友","freeprac_stranger","",""
"","","","","","html-keyboard-response","149","774916","0.0-12.0-0.0-1.4","null","<span style='color:GreenYellow; font-size: 70px;'>正确! </span>","null","","","","","","","","","","","","","","","","","","","","","","","feedback_test",""
"","","","","","psychophysics","150","779747","0.0-12.0-0.0-0.5","3816","","k","","","","","","","","","","","","","key","k","16.66637499999989","640","356","k","true","img/H_28.png","生人","freeprac_stranger","",""
"","","","","","html-keyboard-response","151","780060","0.0-12.0-0.0-1.5","null","<span style='color:GreenYellow; font-size: 70px;'>正确! </span>","null","","","","","","","","","","","","","","","","","","","","","","","feedback_test",""
"","","","","","psychophysics","152","782637","0.0-12.0-0.0-0.6","1572","","j","","","","","","","","","","","","","key","j","16.663168831169","640","356","j","true","img/C_28.png","自我","freeprac_stranger","",""
"","","","","","html-keyboard-response","153","782950","0.0-12.0-0.0-1.6","null","<span style='color:GreenYellow; font-size: 70px;'>正确! </span>","null","","","","","","","","","","","","","","","","","","","","","","","feedback_test",""
"","","","","","psychophysics","154","787648","0.0-12.0-0.0-0.7","3685","","k","","","","","","","","","","","","","key","k","16.666499999999985","640","356","k","true","img/C_28.png","朋友","freeprac_stranger","",""
"","","","","","html-keyboard-response","155","787959","0.0-12.0-0.0-1.7","null","<span style='color:GreenYellow; font-size: 70px;'>正确! </span>","null","","","","","","","","","","","","","","","","","","","","","","","feedback_test",""
"","","","","","psychophysics","156","795274","0.0-12.0-0.0-0.8","6308","","k","","","","","","","","","","","","","key","k","16.666506849315187","640","356","k","true","img/H_28.png","自我","freeprac_stranger","",""
"","","","","","html-keyboard-response","157","795585","0.0-12.0-0.0-1.8","null","<span style='color:GreenYellow; font-size: 70px;'>正确! </span>","null","","","","","","","","","","","","","","","","","","","","","","","feedback_test",""
"","","","","","psychophysics","158","797975","0.0-12.0-0.0-0.9","1377","","f","","","","","","","","","","","","","key","f","16.66564084507089","640","356","d","false","img/S_28.png","自我","freeprac_stranger","",""
"","","","","","html-keyboard-response","159","798280","0.0-12.0-0.0-1.9","null","<span style='color:red; font-size: 70px;'>错误! </span>","null","","","","","","","","","","","","","","","","","","","","","","","feedback_test",""
"","","","","","psychophysics","160","801494","0.0-12.0-0.0-0.10","2211","","j","","","","","","","","","","","","","key","j","16.66563350785309","640","356","j","true","img/H_28.png","朋友","freeprac_stranger","",""
"","","","","","html-keyboard-response","161","801800","0.0-12.0-0.0-1.10","null","<span style='color:GreenYellow; font-size: 70px;'>正确! </span>","null","","","","","","","","","","","","","","","","","","","","","","","feedback_test",""
"","","","","","psychophysics","162","806331","0.0-12.0-0.0-0.11","3519","","d","","","","","","","","","","","","","key","d","16.66612546125468","640","356","d","true","img/S_28.png","朋友","freeprac_stranger","",""
"","","","","","html-keyboard-response","163","806640","0.0-12.0-0.0-1.11","null","<span style='color:GreenYellow; font-size: 70px;'>正确! </span>","null","","","","","","","","","","","","","","","","","","","","","","","feedback_test",""
"","","","","","instructions","164","854542","0.0-13.0","47895","","","","","","","","","","","","","","[{""page_index"":0,""viewing_time"":47894}]","","","","","","","","","","","",""
"","","","","","psychophysics","165","857053","0.0-14.0-0.0-0.0","null","","null","","","","","","","","","","","","","key","null","16.666120805368983","640","356","j","false","img/H_28.png","朋友","prac_self","","朋友"
"","","","","","html-keyboard-response","166","857356","0.0-14.0-0.0-1.0","null","<span class='add_' style='color:yellow; font-size: 70px;'> 太慢! </span>","null","","","","","","","","","","","","","","","","","","","","","","","feedback_test",""
"","","","","","psychophysics","167","859610","0.0-14.0-0.0-0.1","1241","","k","","","","","","","","","","","","","key","k","16.66663432835841","640","356","k","true","img/H_28.png","生人","prac_self","","朋友"
"","","","","","html-keyboard-response","168","859916","0.0-14.0-0.0-1.1","null","<span style='color:GreenYellow; font-size: 70px;'>正确! </span>","null","","","","","","","","","","","","","","","","","","","","","","","feedback_test",""
"","","","","","psychophysics","169","862419","0.0-14.0-0.0-0.2","null","","null","","","","","","","","","","","","","key","null","16.66718120805391","640","356","k","false","img/S_28.png","自我","prac_self","","生人"
"","","","","","html-keyboard-response","170","862735","0.0-14.0-0.0-1.2","null","<span class='add_' style='color:yellow; font-size: 70px;'> 太慢! </span>","null","","","","","","","","","","","","","","","","","","","","","","","feedback_test",""
"","","","","","psychophysics","171","864515","0.0-14.0-0.0-0.3","779","","k","","","","","","","","","","","","","key","k","16.667419047619305","640","356","k","true","img/H_28.png","自我","prac_self","","朋友"
"","","","","","html-keyboard-response","172","864825","0.0-14.0-0.0-1.3","null","<span style='color:GreenYellow; font-size: 70px;'>正确! </span>","null","","","","","","","","","","","","","","","","","","","","","","","feedback_test",""
"","","","","","psychophysics","173","866776","0.0-14.0-0.0-0.4","940","","j","","","","","","","","","","","","","key","j","16.66633620689591","640","356","j","true","img/H_28.png","朋友","prac_self","","朋友"
"","","","","","html-keyboard-response","174","867081","0.0-14.0-0.0-1.4","null","<span style='color:GreenYellow; font-size: 70px;'>正确! </span>","null","","","","","","","","","","","","","","","","","","","","","","","feedback_test",""
"","","","","","psychophysics","175","868857","0.0-14.0-0.0-0.5","771","","k","","","","","","","","","","","","","key","k","16.667556603773022","640","356","k","true","img/S_28.png","朋友","prac_self","","生人"
"","","","","","html-keyboard-response","176","869165","0.0-14.0-0.0-1.5","null","<span style='color:GreenYellow; font-size: 70px;'>正确! </span>","null","","","","","","","","","","","","","","","","","","","","","","","feedback_test",""
"","","","","","psychophysics","177","870945","0.0-14.0-0.0-0.6","777","","k","","","","","","","","","","","","","key","k","16.66733018867891","640","356","d","false","img/C_28.png","朋友","prac_self","","自我"
"","","","","","html-keyboard-response","178","871255","0.0-14.0-0.0-1.6","null","<span style='color:red; font-size: 70px;'>错误! </span>","null","","","","","","","","","","","","","","","","","","","","","","","feedback_test",""
"","","","","","psychophysics","179","873608","0.0-14.0-0.0-0.7","1352","","j","","","","","","","","","","","","","key","j","16.665485714285335","640","356","j","true","img/S_28.png","生人","prac_self","","生人"
"","","","","","html-keyboard-response","180","873921","0.0-14.0-0.0-1.7","null","<span style='color:GreenYellow; font-size: 70px;'>正确! </span>","null","","","","","","","","","","","","","","","","","","","","","","","feedback_test",""
"","","","","","psychophysics","181","875883","0.0-14.0-0.0-0.8","947","","k","","","","","","","","","","","","","key","k","16.666586206896746","640","356","d","false","img/C_28.png","生人","prac_self","","自我"
"","","","","","html-keyboard-response","182","876185","0.0-14.0-0.0-1.8","null","<span style='color:red; font-size: 70px;'>错误! </span>","null","","","","","","","","","","","","","","","","","","","","","","","feedback_test",""
"","","","","","psychophysics","183","878157","0.0-14.0-0.0-0.9","970","","f","","","","","","","","","","","","","key","f","16.666461538461746","640","356","f","true","img/C_28.png","自我","prac_self","","自我"
"","","","","","html-keyboard-response","184","878465","0.0-14.0-0.0-1.9","null","<span style='color:GreenYellow; font-size: 70px;'>正确! </span>","null","","","","","","","","","","","","","","","","","","","","","","","feedback_test",""
"","","","","","psychophysics","185","880969","0.0-14.0-0.0-0.10","null","","null","","","","","","","","","","","","","key","null","16.667766666666914","640","356","j","false","img/S_28.png","生人","prac_self","","生人"
"","","","","","html-keyboard-response","186","881285","0.0-14.0-0.0-1.10","null","<span class='add_' style='color:yellow; font-size: 70px;'> 太慢! </span>","null","","","","","","","","","","","","","","","","","","","","","","","feedback_test",""
"","","","","","psychophysics","187","883181","0.0-14.0-0.0-0.11","890","","f","","","","","","","","","","","","","key","f","16.66587499999982","640","356","f","true","img/C_28.png","自我","prac_self","","自我"
"","","","","","html-keyboard-response","188","883495","0.0-14.0-0.0-1.11","null","<span style='color:GreenYellow; font-size: 70px;'>正确! </span>","null","","","","","","","","","","","","","","","","","","","","","","","feedback_test",""
"","","","","","psychophysics","189","885244","0.0-14.0-0.0-0.12","742","","f","","","","","","","","","","","","","key","f","16.66696153846211","640","356","f","true","img/C_28.png","自我","prac_self","","自我"
"","","","","","html-keyboard-response","190","885565","0.0-14.0-0.0-1.12","null","<span style='color:GreenYellow; font-size: 70px;'>正确! </span>","null","","","","","","","","","","","","","","","","","","","","","","","feedback_test",""
"","","","","","psychophysics","191","887911","0.0-14.0-0.0-0.13","1342","","j","","","","","","","","","","","","","key","j","16.66678571428638","640","356","j","true","img/H_28.png","朋友","prac_self","","朋友"
"","","","","","html-keyboard-response","192","888221","0.0-14.0-0.0-1.13","null","<span style='color:GreenYellow; font-size: 70px;'>正确! </span>","null","","","","","","","","","","","","","","","","","","","","","","","feedback_test",""
"","","","","","psychophysics","193","890342","0.0-14.0-0.0-0.14","1106","","k","","","","","","","","","","","","","key","k","16.666706349206386","640","356","d","false","img/C_28.png","生人","prac_self","","自我"
"","","","","","html-keyboard-response","194","890651","0.0-14.0-0.0-1.14","null","<span style='color:red; font-size: 70px;'>错误! </span>","null","","","","","","","","","","","","","","","","","","","","","","","feedback_test",""
"","","","","","psychophysics","195","893080","0.0-14.0-0.0-0.15","1428","","d","","","","","","","","","","","","","key","d","16.66648611111143","640","356","k","false","img/H_28.png","自我","prac_self","","朋友"
"","","","","","html-keyboard-response","196","893395","0.0-14.0-0.0-1.15","null","<span style='color:red; font-size: 70px;'>错误! </span>","null","","","","","","","","","","","","","","","","","","","","","","","feedback_test",""
"","","","","","psychophysics","197","895902","0.0-14.0-0.0-0.16","null","","null","","","","","","","","","","","","","key","null","16.66670000000003","640","356","k","false","img/S_28.png","朋友","prac_self","","生人"
"","","","","","html-keyboard-response","198","896216","0.0-14.0-0.0-1.16","null","<span class='add_' style='color:yellow; font-size: 70px;'> 太慢! </span>","null","","","","","","","","","","","","","","","","","","","","","","","feedback_test",""
"","","","","","psychophysics","199","898346","0.0-14.0-0.0-0.17","1127","","j","","","","","","","","","","","","","key","j","16.666007874015623","640","356","j","true","img/S_28.png","生人","prac_self","","生人"
"","","","","","html-keyboard-response","200","898649","0.0-14.0-0.0-1.17","null","<span style='color:GreenYellow; font-size: 70px;'>正确! </span>","null","","","","","","","","","","","","","","","","","","","","","","","feedback_test",""
"","","","","","psychophysics","201","900903","0.0-14.0-0.0-0.18","1252","","f","","","","","","","","","","","","","key","f","16.667274074073607","640","356","f","true","img/C_28.png","自我","prac_self","","自我"
"","","","","","html-keyboard-response","202","901216","0.0-14.0-0.0-1.18","null","<span style='color:GreenYellow; font-size: 70px;'>正确! </span>","null","","","","","","","","","","","","","","","","","","","","","","","feedback_test",""
"","","","","","psychophysics","203","903581","0.0-14.0-0.0-0.19","1362","","d","","","","","","","","","","","","","key","d","16.667021276596074","640","356","d","true","img/C_28.png","朋友","prac_self","","自我"
"","","","","","html-keyboard-response","204","903885","0.0-14.0-0.0-1.19","null","<span style='color:GreenYellow; font-size: 70px;'>正确! </span>","null","","","","","","","","","","","","","","","","","","","","","","","feedback_test",""
"","","","","","psychophysics","205","906095","0.0-14.0-0.0-0.20","1196","","j","","","","","","","","","","","","","key","j","16.666038167939295","640","356","j","true","img/S_28.png","生人","prac_self","","生人"
"","","","","","html-keyboard-response","206","906415","0.0-14.0-0.0-1.20","null","<span style='color:GreenYellow; font-size: 70px;'>正确! </span>","null","","","","","","","","","","","","","","","","","","","","","","","feedback_test",""
"","","","","","psychophysics","207","908738","0.0-14.0-0.0-0.21","1320","","k","","","","","","","","","","","","","key","k","16.66641726618693","640","356","k","true","img/S_28.png","自我","prac_self","","生人"
"","","","","","html-keyboard-response","208","909055","0.0-14.0-0.0-1.21","null","<span style='color:GreenYellow; font-size: 70px;'>正确! </span>","null","","","","","","","","","","","","","","","","","","","","","","","feedback_test",""
"","","","","","psychophysics","209","911569","0.0-14.0-0.0-0.22","null","","null","","","","","","","","","","","","","key","null","16.666226666666724","640","356","k","false","img/H_28.png","生人","prac_self","","朋友"
"","","","","","html-keyboard-response","210","911885","0.0-14.0-0.0-1.22","null","<span class='add_' style='color:yellow; font-size: 70px;'> 太慢! </span>","null","","","","","","","","","","","","","","","","","","","","","","","feedback_test",""
"","","","","","psychophysics","211","913892","0.0-14.0-0.0-0.23","991","","j","","","","","","","","","","","","","key","j","16.667386554621803","640","356","j","true","img/H_28.png","朋友","prac_self","","朋友"
"","","","","","html-keyboard-response","212","914206","0.0-14.0-0.0-1.23","null","<span style='color:GreenYellow; font-size: 70px;'>正确! </span>","null","","","","","","","","","","","","","","","","","","","","","","","feedback_test",""
"","","","","","html-keyboard-response","213","918244","0.0-14.0-1.0-0.0","4036","<style>.context{color:white; font-size: 35px; line-height:40px}</style>                           <div><p class='context'>您正确回答了63% 的试次。</p><p class='context'>您的平均反应时为1085毫秒。</p>"," ","","","","","","","","","","","","","","","","","","","","","","","",""
"","","","","","instructions","214","930725","0.0-14.0-1.0-1.0","12480","","","","","","","","","","","","","","[{""page_index"":0,""viewing_time"":2543},{""page_index"":1,""viewing_time"":8872},{""page_index"":2,""viewing_time"":1064}]","","","","","","","","","","","",""
"","","","","","psychophysics","215","933233","0.0-14.1-0.1-0.24","1499","","j","","","","","","","","","","","","","key","j","16.665932885906347","640","356","f","false","img/C_28.png","自我","prac_self","","自我"
"","","","","","html-keyboard-response","216","933542","0.0-14.1-0.1-1.24","null","<span style='color:red; font-size: 70px;'>错误! </span>","null","","","","","","","","","","","","","","","","","","","","","","","feedback_test",""
"","","","","","psychophysics","217","936041","0.0-14.1-0.1-0.25","1491","","j","","","","","","","","","","","","","key","j","16.665926174496633","640","356","j","true","img/H_28.png","朋友","prac_self","","朋友"
"","","","","","html-keyboard-response","218","936345","0.0-14.1-0.1-1.25","null","<span style='color:GreenYellow; font-size: 70px;'>正确! </span>","null","","","","","","","","","","","","","","","","","","","","","","","feedback_test",""
"","","","","","psychophysics","219","938330","0.0-14.1-0.1-0.26","978","","j","","","","","","","","","","","","","key","j","16.666618644067487","640","356","j","true","img/H_28.png","朋友","prac_self","","朋友"
"","","","","","html-keyboard-response","220","938642","0.0-14.1-0.1-1.26","null","<span style='color:GreenYellow; font-size: 70px;'>正确! </span>","null","","","","","","","","","","","","","","","","","","","","","","","feedback_test",""
"","","","","","psychophysics","221","941150","0.0-14.1-0.1-0.27","null","","null","","","","","","","","","","","","","key","null","16.665932885906347","640","356","k","false","img/S_28.png","自我","prac_self","","生人"
"","","","","","html-keyboard-response","222","941465","0.0-14.1-0.1-1.27","null","<span class='add_' style='color:yellow; font-size: 70px;'> 太慢! </span>","null","","","","","","","","","","","","","","","","","","","","","","","feedback_test",""
"","","","","","psychophysics","223","943928","0.0-14.1-0.1-0.28","1461","","f","","","","","","","","","","","","","key","f","16.66631972789131","640","356","j","false","img/S_28.png","生人","prac_self","","生人"
"","","","","","html-keyboard-response","224","944245","0.0-14.1-0.1-1.28","null","<span style='color:red; font-size: 70px;'>错误! </span>","null","","","","","","","","","","","","","","","","","","","","","","","feedback_test",""
"","","","","","psychophysics","225","946456","0.0-14.1-0.1-0.29","1205","","k","","","","","","","","","","","","","key","k","16.665174242423912","640","356","k","true","img/H_28.png","自我","prac_self","","朋友"
"","","","","","html-keyboard-response","226","946766","0.0-14.1-0.1-1.29","null","<span style='color:GreenYellow; font-size: 70px;'>正确! </span>","null","","","","","","","","","","","","","","","","","","","","","","","feedback_test",""
"","","","","","psychophysics","227","948743","0.0-14.1-0.1-0.30","975","","j","","","","","","","","","","","","","key","j","16.659264957264632","640","356","j","true","img/S_28.png","生人","prac_self","","生人"
"","","","","","html-keyboard-response","228","949056","0.0-14.1-0.1-1.30","null","<span style='color:GreenYellow; font-size: 70px;'>正确! </span>","null","","","","","","","","","","","","","","","","","","","","","","","feedback_test",""
"","","","","","psychophysics","229","950931","0.0-14.1-0.1-0.31","863","","f","","","","","","","","","","","","","key","f","16.666459459459055","640","356","f","true","img/C_28.png","自我","prac_self","","自我"
"","","","","","html-keyboard-response","230","951246","0.0-14.1-0.1-1.31","null","<span style='color:GreenYellow; font-size: 70px;'>正确! </span>","null","","","","","","","","","","","","","","","","","","","","","","","feedback_test",""
"","","","","","psychophysics","231","953345","0.0-14.1-0.1-0.32","1094","","k","","","","","","","","","","","","","key","k","16.662615999999456","640","356","k","true","img/H_28.png","生人","prac_self","","朋友"
"","","","","","html-keyboard-response","232","953665","0.0-14.1-0.1-1.32","null","<span style='color:GreenYellow; font-size: 70px;'>正确! </span>","null","","","","","","","","","","","","","","","","","","","","","","","feedback_test",""
"","","","","","psychophysics","233","956049","0.0-14.1-0.1-0.33","1381","","k","","","","","","","","","","","","","key","k","16.66830281690124","640","356","d","false","img/C_28.png","生人","prac_self","","自我"
"","","","","","html-keyboard-response","234","956365","0.0-14.1-0.1-1.33","null","<span style='color:red; font-size: 70px;'>错误! </span>","null","","","","","","","","","","","","","","","","","","","","","","","feedback_test",""
"","","","","","psychophysics","235","958568","0.0-14.1-0.1-0.34","1200","","k","","","","","","","","","","","","","key","k","16.666393939394215","640","356","k","true","img/S_28.png","朋友","prac_self","","生人"
"","","","","","html-keyboard-response","236","958885","0.0-14.1-0.1-1.34","null","<span style='color:GreenYellow; font-size: 70px;'>正确! </span>","null","","","","","","","","","","","","","","","","","","","","","","","feedback_test",""
"","","","","","psychophysics","237","961388","0.0-14.1-0.1-0.35","null","","null","","","","","","","","","","","","","key","null","16.666765100671128","640","356","d","false","img/C_28.png","朋友","prac_self","","自我"
"","","","","","html-keyboard-response","238","961695","0.0-14.1-0.1-1.35","null","<span class='add_' style='color:yellow; font-size: 70px;'> 太慢! </span>","null","","","","","","","","","","","","","","","","","","","","","","","feedback_test",""
"","","","","","psychophysics","239","963335","0.0-14.1-0.1-0.36","634","","k","","","","","","","","","","","","","key","k","16.664928571427982","640","356","k","true","img/S_28.png","朋友","prac_self","","生人"
"","","","","","html-keyboard-response","240","963655","0.0-14.1-0.1-1.36","null","<span style='color:GreenYellow; font-size: 70px;'>正确! </span>","null","","","","","","","","","","","","","","","","","","","","","","","feedback_test",""
"","","","","","psychophysics","241","965418","0.0-14.1-0.1-0.37","761","","f","","","","","","","","","","","","","key","f","16.66685714285732","640","356","f","true","img/C_28.png","自我","prac_self","","自我"
"","","","","","html-keyboard-response","242","965728","0.0-14.1-0.1-1.37","null","<span style='color:GreenYellow; font-size: 70px;'>正确! </span>","null","","","","","","","","","","","","","","","","","","","","","","","feedback_test",""
"","","","","","psychophysics","243","967808","0.0-14.1-0.1-0.38","1073","","j","","","","","","","","","","","","","key","j","16.667137096774944","640","356","j","true","img/H_28.png","朋友","prac_self","","朋友"
"","","","","","html-keyboard-response","244","968111","0.0-14.1-0.1-1.38","null","<span style='color:GreenYellow; font-size: 70px;'>正确! </span>","null","","","","","","","","","","","","","","","","","","","","","","","feedback_test",""
"","","","","","psychophysics","245","969986","0.0-14.1-0.1-0.39","869","","k","","","","","","","","","","","","","key","k","16.66442857142829","640","356","k","true","img/H_28.png","自我","prac_self","","朋友"
"","","","","","html-keyboard-response","246","970295","0.0-14.1-0.1-1.39","null","<span style='color:GreenYellow; font-size: 70px;'>正确! </span>","null","","","","","","","","","","","","","","","","","","","","","","","feedback_test",""
"","","","","","psychophysics","247","972177","0.0-14.1-0.1-0.40","878","","f","","","","","","","","","","","","","key","f","16.66690178571402","640","356","d","false","img/C_28.png","生人","prac_self","","自我"
"","","","","","html-keyboard-response","248","972495","0.0-14.1-0.1-1.40","null","<span style='color:red; font-size: 70px;'>错误! </span>","null","","","","","","","","","","","","","","","","","","","","","","","feedback_test",""
"","","","","","psychophysics","249","974356","0.0-14.1-0.1-0.41","856","","j","","","","","","","","","","","","","key","j","16.667198198198275","640","356","j","true","img/H_28.png","朋友","prac_self","","朋友"
"","","","","","html-keyboard-response","250","974665","0.0-14.1-0.1-1.41","null","<span style='color:GreenYellow; font-size: 70px;'>正确! </span>","null","","","","","","","","","","","","","","","","","","","","","","","feedback_test",""
"","","","","","psychophysics","251","976649","0.0-14.1-0.1-0.42","982","","k","","","","","","","","","","","","","key","k","16.666347457627744","640","356","k","true","img/S_28.png","自我","prac_self","","生人"
"","","","","","html-keyboard-response","252","976952","0.0-14.1-0.1-1.42","null","<span style='color:GreenYellow; font-size: 70px;'>正确! </span>","null","","","","","","","","","","","","","","","","","","","","","","","feedback_test",""
"","","","","","psychophysics","253","978822","0.0-14.1-0.1-0.43","856","","f","","","","","","","","","","","","","key","f","16.666045045045934","640","356","f","true","img/C_28.png","自我","prac_self","","自我"
"","","","","","html-keyboard-response","254","979131","0.0-14.1-0.1-1.43","null","<span style='color:GreenYellow; font-size: 70px;'>正确! </span>","null","","","","","","","","","","","","","","","","","","","","","","","feedback_test",""
"","","","","","psychophysics","255","980872","0.0-14.1-0.1-0.44","739","","j","","","","","","","","","","","","","key","j","16.66616346153807","640","356","d","false","img/C_28.png","朋友","prac_self","","自我"
"","","","","","html-keyboard-response","256","981181","0.0-14.1-0.1-1.44","null","<span style='color:red; font-size: 70px;'>错误! </span>","null","","","","","","","","","","","","","","","","","","","","","","","feedback_test",""
"","","","","","psychophysics","257","983126","0.0-14.1-0.1-0.45","943","","j","","","","","","","","","","","","","key","j","16.66623275862015","640","356","j","true","img/S_28.png","生人","prac_self","","生人"
"","","","","","html-keyboard-response","258","983433","0.0-14.1-0.1-1.45","null","<span style='color:GreenYellow; font-size: 70px;'>正确! </span>","null","","","","","","","","","","","","","","","","","","","","","","","feedback_test",""
"","","","","","psychophysics","259","985190","0.0-14.1-0.1-0.46","755","","k","","","","","","","","","","","","","key","k","16.666567307692066","640","356","k","true","img/H_28.png","生人","prac_self","","朋友"
"","","","","","html-keyboard-response","260","985500","0.0-14.1-0.1-1.46","null","<span style='color:GreenYellow; font-size: 70px;'>正确! </span>","null","","","","","","","","","","","","","","","","","","","","","","","feedback_test",""
"","","","","","psychophysics","261","987318","0.0-14.1-0.1-0.47","815","","k","","","","","","","","","","","","","key","k","16.667083333332645","640","356","j","false","img/S_28.png","生人","prac_self","","生人"
"","","","","","html-keyboard-response","262","987636","0.0-14.1-0.1-1.47","null","<span style='color:red; font-size: 70px;'>错误! </span>","null","","","","","","","","","","","","","","","","","","","","","","","feedback_test",""
"","","","","","html-keyboard-response","263","992996","0.0-14.1-1.1-0.1","5358","<style>.context{color:white; font-size: 35px; line-height:40px}</style>                           <div><p class='context'>您正确回答了67% 的试次。</p><p class='context'>您的平均反应时为971毫秒。</p>"," ","","","","","","","","","","","","","","","","","","","","","","","",""
"","","","","","instructions","264","1016029","0.0-14.1-1.1-1.1","23030","","","","","","","","","","","","","","[{""page_index"":0,""viewing_time"":1110},{""page_index"":1,""viewing_time"":20904},{""page_index"":2,""viewing_time"":1016}]","","","","","","","","","","","",""
"","","","","","psychophysics","265","1018045","0.0-14.2-0.2-0.48","1012","","f","","","","","","","","","","","","","key","f","16.66617499999993","640","356","f","true","img/C_28.png","自我","prac_self","","自我"
"","","","","","html-keyboard-response","266","1018361","0.0-14.2-0.2-1.48","null","<span style='color:GreenYellow; font-size: 70px;'>正确! </span>","null","","","","","","","","","","","","","","","","","","","","","","","feedback_test",""
"","","","","","psychophysics","267","1020576","0.0-14.2-0.2-0.49","1209","","k","","","","","","","","","","","","","key","k","16.66471212121189","640","356","k","true","img/S_28.png","朋友","prac_self","","生人"
"","","","","","html-keyboard-response","268","1020884","0.0-14.2-0.2-1.49","null","<span style='color:GreenYellow; font-size: 70px;'>正确! </span>","null","","","","","","","","","","","","","","","","","","","","","","","feedback_test",""
"","","","","","psychophysics","269","1022907","0.0-14.2-0.2-0.50","1021","","j","","","","","","","","","","","","","key","j","16.666233333334095","640","356","j","true","img/H_28.png","朋友","prac_self","","朋友"
"","","","","","html-keyboard-response","270","1023221","0.0-14.2-0.2-1.50","null","<span style='color:GreenYellow; font-size: 70px;'>正确! </span>","null","","","","","","","","","","","","","","","","","","","","","","","feedback_test",""
"","","","","","psychophysics","271","1025644","0.0-14.2-0.2-0.51","1411","","j","","","","","","","","","","","","","key","j","16.66590972222265","640","356","j","true","img/S_28.png","生人","prac_self","","生人"
"","","","","","html-keyboard-response","272","1025961","0.0-14.2-0.2-1.51","null","<span style='color:GreenYellow; font-size: 70px;'>正确! </span>","null","","","","","","","","","","","","","","","","","","","","","","","feedback_test",""
"","","","","","psychophysics","273","1028247","0.0-14.2-0.2-0.52","1278","","k","","","","","","","","","","","","","key","k","16.666742647059863","640","356","k","true","img/S_28.png","自我","prac_self","","生人"
"","","","","","html-keyboard-response","274","1028552","0.0-14.2-0.2-1.52","null","<span style='color:GreenYellow; font-size: 70px;'>正确! </span>","null","","","","","","","","","","","","","","","","","","","","","","","feedback_test",""
"","","","","","psychophysics","275","1030503","0.0-14.2-0.2-0.53","937","","j","","","","","","","","","","","","","key","j","16.666655172415254","640","356","j","true","img/S_28.png","生人","prac_self","","生人"
"","","","","","html-keyboard-response","276","1030807","0.0-14.2-0.2-1.53","null","<span style='color:GreenYellow; font-size: 70px;'>正确! </span>","null","","","","","","","","","","","","","","","","","","","","","","","feedback_test",""
"","","","","","psychophysics","277","1032594","0.0-14.2-0.2-0.54","777","","j","","","","","","","","","","","","","key","j","16.66166981131954","640","356","j","true","img/H_28.png","朋友","prac_self","","朋友"
"","","","","","html-keyboard-response","278","1032895","0.0-14.2-0.2-1.54","null","<span style='color:GreenYellow; font-size: 70px;'>正确! </span>","null","","","","","","","","","","","","","","","","","","","","","","","feedback_test",""
"","","","","","psychophysics","279","1034791","0.0-14.2-0.2-0.55","892","","k","","","","","","","","","","","","","key","k","16.666415929202962","640","356","d","false","img/C_28.png","朋友","prac_self","","自我"
"","","","","","html-keyboard-response","280","1035095","0.0-14.2-0.2-1.55","null","<span style='color:red; font-size: 70px;'>错误! </span>","null","","","","","","","","","","","","","","","","","","","","","","","feedback_test",""
"","","","","","psychophysics","281","1037114","0.0-14.2-0.2-0.56","1014","","k","","","","","","","","","","","","","key","k","16.665374999999766","640","356","k","true","img/H_28.png","生人","prac_self","","朋友"
"","","","","","html-keyboard-response","282","1037417","0.0-14.2-0.2-1.56","null","<span style='color:GreenYellow; font-size: 70px;'>正确! </span>","null","","","","","","","","","","","","","","","","","","","","","","","feedback_test",""
"","","","","","psychophysics","283","1039482","0.0-14.2-0.2-0.57","1049","","k","","","","","","","","","","","","","key","k","16.66676229508174","640","356","k","true","img/H_28.png","自我","prac_self","","朋友"
"","","","","","html-keyboard-response","284","1039795","0.0-14.2-0.2-1.57","null","<span style='color:GreenYellow; font-size: 70px;'>正确! </span>","null","","","","","","","","","","","","","","","","","","","","","","","feedback_test",""
"","","","","","psychophysics","285","1042251","0.0-14.2-0.2-0.58","1451","","f","","","","","","","","","","","","","key","f","16.66662585033978","640","356","f","true","img/C_28.png","自我","prac_self","","自我"
"","","","","","html-keyboard-response","286","1042556","0.0-14.2-0.2-1.58","null","<span style='color:GreenYellow; font-size: 70px;'>正确! </span>","null","","","","","","","","","","","","","","","","","","","","","","","feedback_test",""
"","","","","","psychophysics","287","1044273","0.0-14.2-0.2-0.59","709","","d","","","","","","","","","","","","","key","d","16.66772549019615","640","356","d","true","img/C_28.png","生人","prac_self","","自我"
"","","","","","html-keyboard-response","288","1044577","0.0-14.2-0.2-1.59","null","<span style='color:GreenYellow; font-size: 70px;'>正确! </span>","null","","","","","","","","","","","","","","","","","","","","","","","feedback_test",""
"","","","","","psychophysics","289","1046264","0.0-14.2-0.2-0.60","679","","d","","","","","","","","","","","","","key","d","16.666339999998453","640","356","k","false","img/H_28.png","生人","prac_self","","朋友"
"","","","","","html-keyboard-response","290","1046566","0.0-14.2-0.2-1.60","null","<span style='color:red; font-size: 70px;'>错误! </span>","null","","","","","","","","","","","","","","","","","","","","","","","feedback_test",""
"","","","","","psychophysics","291","1048982","0.0-14.2-0.2-0.61","1415","","k","","","","","","","","","","","","","key","k","16.665881118880442","640","356","k","true","img/H_28.png","自我","prac_self","","朋友"
"","","","","","html-keyboard-response","292","1049293","0.0-14.2-0.2-1.61","null","<span style='color:GreenYellow; font-size: 70px;'>正确! </span>","null","","","","","","","","","","","","","","","","","","","","","","","feedback_test",""
"","","","","","psychophysics","293","1051801","0.0-14.2-0.2-0.62","null","","null","","","","","","","","","","","","","key","null","16.66608666666628","640","356","d","false","img/C_28.png","生人","prac_self","","自我"
"","","","","","html-keyboard-response","294","1052108","0.0-14.2-0.2-1.62","null","<span class='add_' style='color:yellow; font-size: 70px;'> 太慢! </span>","null","","","","","","","","","","","","","","","","","","","","","","","feedback_test",""
"","","","","","psychophysics","295","1053764","0.0-14.2-0.2-0.63","648","","j","","","","","","","","","","","","","key","j","16.665408163264924","640","356","j","true","img/H_28.png","朋友","prac_self","","朋友"
"","","","","","html-keyboard-response","296","1054076","0.0-14.2-0.2-1.63","null","<span style='color:GreenYellow; font-size: 70px;'>正确! </span>","null","","","","","","","","","","","","","","","","","","","","","","","feedback_test",""
"","","","","","psychophysics","297","1055905","0.0-14.2-0.2-0.64","823","","k","","","","","","","","","","","","","key","k","16.665669724770282","640","356","d","false","img/C_28.png","朋友","prac_self","","自我"
"","","","","","html-keyboard-response","298","1056207","0.0-14.2-0.2-1.64","null","<span style='color:red; font-size: 70px;'>错误! </span>","null","","","","","","","","","","","","","","","","","","","","","","","feedback_test",""
"","","","","","psychophysics","299","1058207","0.0-14.2-0.2-0.65","992","","j","","","","","","","","","","","","","key","j","16.667277310924025","640","356","j","true","img/S_28.png","生人","prac_self","","生人"
"","","","","","html-keyboard-response","300","1058526","0.0-14.2-0.2-1.65","null","<span style='color:GreenYellow; font-size: 70px;'>正确! </span>","null","","","","","","","","","","","","","","","","","","","","","","","feedback_test",""
"","","","","","psychophysics","301","1060739","0.0-14.2-0.2-0.66","1208","","j","","","","","","","","","","","","","key","j","16.666295454546344","640","356","j","true","img/S_28.png","生人","prac_self","","生人"
"","","","","","html-keyboard-response","302","1061045","0.0-14.2-0.2-1.66","null","<span style='color:GreenYellow; font-size: 70px;'>正确! </span>","null","","","","","","","","","","","","","","","","","","","","","","","feedback_test",""
"","","","","","psychophysics","303","1062858","0.0-14.2-0.2-0.67","810","","f","","","","","","","","","","","","","key","f","16.66631481481535","640","356","f","true","img/C_28.png","自我","prac_self","","自我"
"","","","","","html-keyboard-response","304","1063175","0.0-14.2-0.2-1.67","null","<span style='color:GreenYellow; font-size: 70px;'>正确! </span>","null","","","","","","","","","","","","","","","","","","","","","","","feedback_test",""
"","","","","","psychophysics","305","1065181","0.0-14.2-0.2-0.68","999","","k","","","","","","","","","","","","","key","k","16.666689075631318","640","356","k","true","img/S_28.png","朋友","prac_self","","生人"
"","","","","","html-keyboard-response","306","1065495","0.0-14.2-0.2-1.68","null","<span style='color:GreenYellow; font-size: 70px;'>正确! </span>","null","","","","","","","","","","","","","","","","","","","","","","","feedback_test",""
"","","","","","psychophysics","307","1067792","0.0-14.2-0.2-0.69","1294","","j","","","","","","","","","","","","","key","j","16.666357664233345","640","356","k","false","img/S_28.png","自我","prac_self","","生人"
"","","","","","html-keyboard-response","308","1068107","0.0-14.2-0.2-1.69","null","<span style='color:red; font-size: 70px;'>错误! </span>","null","","","","","","","","","","","","","","","","","","","","","","","feedback_test",""
"","","","","","psychophysics","309","1069921","0.0-14.2-0.2-0.70","807","","f","","","","","","","","","","","","","key","f","16.665925925925237","640","356","f","true","img/C_28.png","自我","prac_self","","自我"
"","","","","","html-keyboard-response","310","1070235","0.0-14.2-0.2-1.70","null","<span style='color:GreenYellow; font-size: 70px;'>正确! </span>","null","","","","","","","","","","","","","","","","","","","","","","","feedback_test",""
"","","","","","psychophysics","311","1072066","0.0-14.2-0.2-0.71","817","","j","","","","","","","","","","","","","key","j","16.666000000000377","640","356","j","true","img/H_28.png","朋友","prac_self","","朋友"
"","","","","","html-keyboard-response","312","1072375","0.0-14.2-0.2-1.71","null","<span style='color:GreenYellow; font-size: 70px;'>正确! </span>","null","","","","","","","","","","","","","","","","","","","","","","","feedback_test",""
"","","","","","html-keyboard-response","313","1093722","0.0-15.0","21345","[""<style>.context{color:white; font-size: 35px; line-height:40px}</style>           <div><p class='context'>您正确回答了79% 的试次。</p><p class='context'>您的平均反应时为1030毫秒。</p><p class='context'>恭喜您完成这一阶段的练习。按任意键进入<span style='color: yellow;'>重点关注图形为“朋友”</span>的练习。</p></div><p class='footer' style='font-size:35px; line-height:30px;'>任务要求：\n           <p class='footer' style='font-size:35px; line-height:35px;'>对于与“朋友”对应的图形：如果 匹配 ，请按 <span style=\""color: lightgreen;\"">f键</span></p><p class='footer' style='font-size:35px'>如果 不匹配 ，请按<span style=\""color: lightgreen;\"">d键</p></span>\n           <p class='footer' style='font-size:35px; line-height:35px;'>对于非“朋友”对应的图形：如果 匹配 ，请按 <span style=\""color: lightgreen;\"">j键</span></p><p class='footer' style='font-size:35px'>如果 不匹配 ，请按<span style=\""color: lightgreen;\"">k键</p></span>\n           <p class='footer' style='font-size:22px; line-height:25px;'>请在实验过程中将您的<span style=\""color: lightgreen;\"">食指和中指</span>放在电脑键盘的相应键位上进行按键。</p></span>""]"," ","","","","","","","","","","","","","","","","","","","","","","","",""
"","","","","","psychophysics","314","1095596","0.0-16.0-0.0-0.0","864","","d","","","","","","","","","","","","","key","d","16.66352252252316","640","356","d","true","img/H_28.png","生人","prac_friend","","朋友"
"","","","","","html-keyboard-response","315","1095905","0.0-16.0-0.0-1.0","null","<span style='color:GreenYellow; font-size: 70px;'>正确! </span>","null","","","","","","","","","","","","","","","","","","","","","","","feedback_test",""
"","","","","","psychophysics","316","1097620","0.0-16.0-0.0-0.1","706","","d","","","","","","","","","","","","","key","d","16.66691176470725","640","356","d","true","img/H_28.png","自我","prac_friend","","朋友"
"","","","","","html-keyboard-response","317","1097925","0.0-16.0-0.0-1.1","null","<span style='color:GreenYellow; font-size: 70px;'>正确! </span>","null","","","","","","","","","","","","","","","","","","","","","","","feedback_test",""
"","","","","","psychophysics","318","1100320","0.0-16.0-0.0-0.2","1388","","k","","","","","","","","","","","","","key","k","16.666181818181585","640","356","k","true","img/C_28.png","生人","prac_friend","","自我"
"","","","","","html-keyboard-response","319","1100635","0.0-16.0-0.0-1.2","null","<span style='color:GreenYellow; font-size: 70px;'>正确! </span>","null","","","","","","","","","","","","","","","","","","","","","","","feedback_test",""
"","","","","","psychophysics","320","1102253","0.0-16.0-0.0-0.3","605","","f","","","","","","","","","","","","","key","f","16.66660416666855","640","356","f","true","img/H_28.png","朋友","prac_friend","","朋友"
"","","","","","html-keyboard-response","321","1102565","0.0-16.0-0.0-1.3","null","<span style='color:GreenYellow; font-size: 70px;'>正确! </span>","null","","","","","","","","","","","","","","","","","","","","","","","feedback_test",""
"","","","","","psychophysics","322","1104605","0.0-16.0-0.0-0.4","1023","","j","","","","","","","","","","","","","key","j","16.666942148759947","640","356","j","true","img/S_28.png","生人","prac_friend","","生人"
"","","","","","html-keyboard-response","323","1104925","0.0-16.0-0.0-1.4","null","<span style='color:GreenYellow; font-size: 70px;'>正确! </span>","null","","","","","","","","","","","","","","","","","","","","","","","feedback_test",""
"","","","","","psychophysics","324","1106534","0.0-16.0-0.0-0.5","603","","f","","","","","","","","","","","","","key","f","16.665479166666046","640","356","f","true","img/H_28.png","朋友","prac_friend","","朋友"
"","","","","","html-keyboard-response","325","1106845","0.0-16.0-0.0-1.5","null","<span style='color:GreenYellow; font-size: 70px;'>正确! </span>","null","","","","","","","","","","","","","","","","","","","","","","","feedback_test",""
"","","","","","psychophysics","326","1108703","0.0-16.0-0.0-0.6","855","","j","","","","","","","","","","","","","key","j","16.665945945945275","640","356","j","true","img/C_28.png","自我","prac_friend","","自我"
"","","","","","html-keyboard-response","327","1109015","0.0-16.0-0.0-1.6","null","<span style='color:GreenYellow; font-size: 70px;'>正确! </span>","null","","","","","","","","","","","","","","","","","","","","","","","feedback_test",""
"","","","","","psychophysics","328","1110723","0.0-16.0-0.0-0.7","692","","d","","","","","","","","","","","","","key","d","16.665158415840256","640","356","k","false","img/S_28.png","朋友","prac_friend","","生人"
"","","","","","html-keyboard-response","329","1111034","0.0-16.0-0.0-1.7","null","<span style='color:red; font-size: 70px;'>错误! </span>","null","","","","","","","","","","","","","","","","","","","","","","","feedback_test",""
"","","","","","psychophysics","330","1112915","0.0-16.0-0.0-0.8","867","","k","","","","","","","","","","","","","key","k","16.66776785714319","640","356","k","true","img/C_28.png","朋友","prac_friend","","自我"
"","","","","","html-keyboard-response","331","1113230","0.0-16.0-0.0-1.8","null","<span style='color:GreenYellow; font-size: 70px;'>正确! </span>","null","","","","","","","","","","","","","","","","","","","","","","","feedback_test",""
"","","","","","psychophysics","332","1115226","0.0-16.0-0.0-0.9","994","","j","","","","","","","","","","","","","key","j","16.66683898305015","640","356","j","true","img/C_28.png","自我","prac_friend","","自我"
"","","","","","html-keyboard-response","333","1115545","0.0-16.0-0.0-1.9","null","<span style='color:GreenYellow; font-size: 70px;'>正确! </span>","null","","","","","","","","","","","","","","","","","","","","","","","feedback_test",""
"","","","","","psychophysics","334","1117944","0.0-16.0-0.0-0.10","1397","","k","","","","","","","","","","","","","key","k","16.666573426573883","640","356","k","true","img/S_28.png","自我","prac_friend","","生人"
"","","","","","html-keyboard-response","335","1118255","0.0-16.0-0.0-1.10","null","<span style='color:GreenYellow; font-size: 70px;'>正确! </span>","null","","","","","","","","","","","","","","","","","","","","","","","feedback_test",""
"","","","","","psychophysics","336","1120387","0.0-16.0-0.0-0.11","1122","","j","","","","","","","","","","","","","key","j","16.665480314961115","640","356","j","true","img/S_28.png","生人","prac_friend","","生人"
"","","","","","html-keyboard-response","337","1120695","0.0-16.0-0.0-1.11","null","<span style='color:GreenYellow; font-size: 70px;'>正确! </span>","null","","","","","","","","","","","","","","","","","","","","","","","feedback_test",""
"","","","","","psychophysics","338","1122544","0.0-16.0-0.0-0.12","846","","j","","","","","","","","","","","","","key","j","16.668163636362774","640","356","j","true","img/S_28.png","生人","prac_friend","","生人"
"","","","","","html-keyboard-response","339","1122858","0.0-16.0-0.0-1.12","null","<span style='color:GreenYellow; font-size: 70px;'>正确! </span>","null","","","","","","","","","","","","","","","","","","","","","","","feedback_test",""
"","","","","","psychophysics","340","1124459","0.0-16.0-0.0-0.13","595","","j","","","","","","","","","","","","","key","j","16.664515789473235","640","356","j","true","img/S_28.png","生人","prac_friend","","生人"
"","","","","","html-keyboard-response","341","1124775","0.0-16.0-0.0-1.13","null","<span style='color:GreenYellow; font-size: 70px;'>正确! </span>","null","","","","","","","","","","","","","","","","","","","","","","","feedback_test",""
"","","","","","psychophysics","342","1126533","0.0-16.0-0.0-0.14","752","","f","","","","","","","","","","","","","key","f","16.665847619046414","640","356","f","true","img/H_28.png","朋友","prac_friend","","朋友"
"","","","","","html-keyboard-response","343","1126845","0.0-16.0-0.0-1.14","null","<span style='color:GreenYellow; font-size: 70px;'>正确! </span>","null","","","","","","","","","","","","","","","","","","","","","","","feedback_test",""
"","","","","","psychophysics","344","1128898","0.0-16.0-0.0-0.15","1051","","k","","","","","","","","","","","","","key","k","16.66591056910669","640","356","k","true","img/C_28.png","朋友","prac_friend","","自我"
"","","","","","html-keyboard-response","345","1129205","0.0-16.0-0.0-1.15","null","<span style='color:GreenYellow; font-size: 70px;'>正确! </span>","null","","","","","","","","","","","","","","","","","","","","","","","feedback_test",""
"","","","","","psychophysics","346","1131713","0.0-16.0-0.0-0.16","null","","null","","","","","","","","","","","","","key","null","16.66554362416086","640","356","d","false","img/H_28.png","自我","prac_friend","","朋友"
"","","","","","html-keyboard-response","347","1132015","0.0-16.0-0.0-1.16","null","<span class='add_' style='color:yellow; font-size: 70px;'> 太慢! </span>","null","","","","","","","","","","","","","","","","","","","","","","","feedback_test",""
"","","","","","psychophysics","348","1134205","0.0-16.0-0.0-0.17","1174","","k","","","","","","","","","","","","","key","k","16.667746153846384","640","356","k","true","img/S_28.png","朋友","prac_friend","","生人"
"","","","","","html-keyboard-response","349","1134515","0.0-16.0-0.0-1.17","null","<span style='color:GreenYellow; font-size: 70px;'>正确! </span>","null","","","","","","","","","","","","","","","","","","","","","","","feedback_test",""
"","","","","","psychophysics","350","1136726","0.0-16.0-0.0-0.18","1210","","j","","","","","","","","","","","","","key","j","16.664427480916316","640","356","j","true","img/C_28.png","自我","prac_friend","","自我"
"","","","","","html-keyboard-response","351","1137035","0.0-16.0-0.0-1.18","null","<span style='color:GreenYellow; font-size: 70px;'>正确! </span>","null","","","","","","","","","","","","","","","","","","","","","","","feedback_test",""
"","","","","","psychophysics","352","1139062","0.0-16.0-0.0-0.19","1015","","k","","","","","","","","","","","","","key","k","16.66544166666572","640","356","k","true","img/C_28.png","生人","prac_friend","","自我"
"","","","","","html-keyboard-response","353","1139364","0.0-16.0-0.0-1.19","null","<span style='color:GreenYellow; font-size: 70px;'>正确! </span>","null","","","","","","","","","","","","","","","","","","","","","","","feedback_test",""
"","","","","","psychophysics","354","1141141","0.0-16.0-0.0-0.20","775","","d","","","","","","","","","","","","","key","d","16.66754285714456","640","356","d","true","img/H_28.png","生人","prac_friend","","朋友"
"","","","","","html-keyboard-response","355","1141456","0.0-16.0-0.0-1.20","null","<span style='color:GreenYellow; font-size: 70px;'>正确! </span>","null","","","","","","","","","","","","","","","","","","","","","","","feedback_test",""
"","","","","","psychophysics","356","1143564","0.0-16.0-0.0-0.21","1100","","j","","","","","","","","","","","","","key","j","16.66625599999912","640","356","k","false","img/S_28.png","自我","prac_friend","","生人"
"","","","","","html-keyboard-response","357","1143865","0.0-16.0-0.0-1.21","null","<span style='color:red; font-size: 70px;'>错误! </span>","null","","","","","","","","","","","","","","","","","","","","","","","feedback_test",""
"","","","","","psychophysics","358","1145694","0.0-16.0-0.0-0.22","816","","j","","","","","","","","","","","","","key","j","16.66447222222255","640","356","j","true","img/C_28.png","自我","prac_friend","","自我"
"","","","","","html-keyboard-response","359","1145995","0.0-16.0-0.0-1.22","null","<span style='color:GreenYellow; font-size: 70px;'>正确! </span>","null","","","","","","","","","","","","","","","","","","","","","","","feedback_test",""
"","","","","","psychophysics","360","1147664","0.0-16.0-0.0-0.23","666","","f","","","","","","","","","","","","","key","f","16.665898989900157","640","356","f","true","img/H_28.png","朋友","prac_friend","","朋友"
"","","","","","html-keyboard-response","361","1147975","0.0-16.0-0.0-1.23","null","<span style='color:GreenYellow; font-size: 70px;'>正确! </span>","null","","","","","","","","","","","","","","","","","","","","","","","feedback_test",""
"","","","","","html-keyboard-response","362","1159949","0.0-17.0","11971","[""<style>.context{color:white; font-size: 35px; line-height:40px}</style>               <div><p class='context'>您正确回答了88% 的试次。</p><p class='context'>您的平均反应时为920毫秒。</p><p class='context'>恭喜您完成这一阶段的练习。按任意键进入<span style='color: yellow;'>重点关注图形为“生人”</span>的练习。</p></div><p class='footer' style='font-size:35px; line-height:30px;'>任务要求：\n               <p class='footer' style='font-size:35px; line-height:35px;'>对与“生人”对应的图形，如果 匹配 ，请按 <span style=\""color: lightgreen;\"">f键</span></p><p class='footer' style='font-size:35px'>如果 不匹配 ，请按<span style=\""color: lightgreen;\"">d键</p></span>\n               <p class='footer' style='font-size:35px; line-height:35px;'>对非“生人”对应的图形，如果 匹配 ，请按 <span style=\""color: lightgreen;\"">j键</span></p><p class='footer' style='font-size:35px'>如果 不匹配 ，请按<span style=\""color: lightgreen;\"">k键</p></span>\n               <p class='footer' style='font-size:22px; line-height:25px;'>请在实验过程中将您的<span style=\""color: lightgreen;\"">食指和中指</span>放在电脑键盘的相应键位上进行按键。</p></span>""]"," ","","","","","","","","","","","","","","","","","","","","","","","",""
"","","","","","psychophysics","363","1161941","0.0-18.0-0.0-0.0","977","","d","","","","","","","","","","","","","key","d","16.665110169491587","640","356","f","false","img/S_28.png","生人","prac_stranger","","生人"
"","","","","","html-keyboard-response","364","1162255","0.0-18.0-0.0-1.0","null","<span style='color:red; font-size: 70px;'>错误! </span>","null","","","","","","","","","","","","","","","","","","","","","","","feedback_test",""
"","","","","","psychophysics","365","1164252","0.0-18.0-0.0-0.1","988","","k","","","","","","","","","","","","","key","k","16.666512605041547","640","356","j","false","img/H_28.png","朋友","prac_stranger","","朋友"
"","","","","","html-keyboard-response","366","1164556","0.0-18.0-0.0-1.1","null","<span style='color:red; font-size: 70px;'>错误! </span>","null","","","","","","","","","","","","","","","","","","","","","","","feedback_test",""
"","","","","","psychophysics","367","1167064","0.0-18.0-0.0-0.2","null","","null","","","","","","","","","","","","","key","null","16.667106666665834","640","356","k","false","img/C_28.png","朋友","prac_stranger","","自我"
"","","","","","html-keyboard-response","368","1167365","0.0-18.0-0.0-1.2","null","<span class='add_' style='color:yellow; font-size: 70px;'> 太慢! </span>","null","","","","","","","","","","","","","","","","","","","","","","","feedback_test",""
"","","","","","psychophysics","369","1169592","0.0-18.0-0.0-0.3","1208","","j","","","","","","","","","","","","","key","j","16.66523484848475","640","356","j","true","img/C_28.png","自我","prac_stranger","","自我"
"","","","","","html-keyboard-response","370","1169905","0.0-18.0-0.0-1.3","null","<span style='color:GreenYellow; font-size: 70px;'>正确! </span>","null","","","","","","","","","","","","","","","","","","","","","","","feedback_test",""
"","","","","","psychophysics","371","1171641","0.0-18.0-0.0-0.4","727","","f","","","","","","","","","","","","","key","f","16.66423300970843","640","356","d","false","img/S_28.png","自我","prac_stranger","","生人"
"","","","","","html-keyboard-response","372","1171945","0.0-18.0-0.0-1.4","null","<span style='color:red; font-size: 70px;'>错误! </span>","null","","","","","","","","","","","","","","","","","","","","","","","feedback_test",""
"","","","","","psychophysics","373","1174257","0.0-18.0-0.0-0.5","1310","","d","","","","","","","","","","","","","key","d","16.663927007300003","640","356","d","true","img/S_28.png","朋友","prac_stranger","","生人"
"","","","","","html-keyboard-response","374","1174565","0.0-18.0-0.0-1.5","null","<span style='color:GreenYellow; font-size: 70px;'>正确! </span>","null","","","","","","","","","","","","","","","","","","","","","","","feedback_test",""
"","","","","","psychophysics","375","1176620","0.0-18.0-0.0-0.6","1037","","j","","","","","","","","","","","","","key","j","16.667426229508013","640","356","j","true","img/H_28.png","朋友","prac_stranger","","朋友"
"","","","","","html-keyboard-response","376","1176935","0.0-18.0-0.0-1.6","null","<span style='color:GreenYellow; font-size: 70px;'>正确! </span>","null","","","","","","","","","","","","","","","","","","","","","","","feedback_test",""
"","","","","","psychophysics","377","1179167","0.0-18.0-0.0-0.7","1219","","j","","","","","","","","","","","","","key","j","16.666127819548663","640","356","k","false","img/H_28.png","自我","prac_stranger","","朋友"
"","","","","","html-keyboard-response","378","1179486","0.0-18.0-0.0-1.7","null","<span style='color:red; font-size: 70px;'>错误! </span>","null","","","","","","","","","","","","","","","","","","","","","","","feedback_test",""
"","","","","","psychophysics","379","1181264","0.0-18.0-0.0-0.8","767","","j","","","","","","","","","","","","","key","j","16.665226415094022","640","356","k","false","img/C_28.png","生人","prac_stranger","","自我"
"","","","","","html-keyboard-response","380","1181586","0.0-18.0-0.0-1.8","null","<span style='color:red; font-size: 70px;'>错误! </span>","null","","","","","","","","","","","","","","","","","","","","","","","feedback_test",""
"","","","","","psychophysics","381","1183327","0.0-18.0-0.0-0.9","729","","k","","","","","","","","","","","","","key","k","16.66548543689474","640","356","k","true","img/H_28.png","生人","prac_stranger","","朋友"
"","","","","","html-keyboard-response","382","1183646","0.0-18.0-0.0-1.9","null","<span style='color:GreenYellow; font-size: 70px;'>正确! </span>","null","","","","","","","","","","","","","","","","","","","","","","","feedback_test",""
"","","","","","psychophysics","383","1185768","0.0-18.0-0.0-0.10","1121","","j","","","","","","","","","","","","","key","j","16.655436507936212","640","356","j","true","img/C_28.png","自我","prac_stranger","","自我"
"","","","","","html-keyboard-response","384","1186078","0.0-18.0-0.0-1.10","null","<span style='color:GreenYellow; font-size: 70px;'>正确! </span>","null","","","","","","","","","","","","","","","","","","","","","","","feedback_test",""
"","","","","","psychophysics","385","1187778","0.0-18.0-0.0-0.11","698","","f","","","","","","","","","","","","","key","f","16.66840594059253","640","356","f","true","img/S_28.png","生人","prac_stranger","","生人"
"","","","","","html-keyboard-response","386","1188096","0.0-18.0-0.0-1.11","null","<span style='color:GreenYellow; font-size: 70px;'>正确! </span>","null","","","","","","","","","","","","","","","","","","","","","","","feedback_test",""
"","","","","","psychophysics","387","1189627","0.0-18.0-0.0-0.12","530","","f","","","","","","","","","","","","","key","f","16.65283333333468","640","356","f","true","img/S_28.png","生人","prac_stranger","","生人"
"","","","","","html-keyboard-response","388","1189931","0.0-18.0-0.0-1.12","null","<span style='color:GreenYellow; font-size: 70px;'>正确! </span>","null","","","","","","","","","","","","","","","","","","","","","","","feedback_test",""
"","","","","","psychophysics","389","1191644","0.0-18.0-0.0-0.13","698","","j","","","","","","","","","","","","","key","j","16.66764356435673","640","356","j","true","img/H_28.png","朋友","prac_stranger","","朋友"
"","","","","","html-keyboard-response","390","1191946","0.0-18.0-0.0-1.13","null","<span style='color:GreenYellow; font-size: 70px;'>正确! </span>","null","","","","","","","","","","","","","","","","","","","","","","","feedback_test",""
"","","","","","psychophysics","391","1193456","0.0-18.0-0.0-0.14","509","","j","","","","","","","","","","","","","key","j","16.66164044943753","640","356","j","true","img/H_28.png","朋友","prac_stranger","","朋友"
"","","","","","html-keyboard-response","392","1193769","0.0-18.0-0.0-1.14","null","<span style='color:GreenYellow; font-size: 70px;'>正确! </span>","null","","","","","","","","","","","","","","","","","","","","","","","feedback_test",""
"","","","","","psychophysics","393","1195360","0.0-18.0-0.0-0.15","576","","k","","","","","","","","","","","","","key","k","16.665893617019236","640","356","k","true","img/H_28.png","自我","prac_stranger","","朋友"
"","","","","","html-keyboard-response","394","1195666","0.0-18.0-0.0-1.15","null","<span style='color:GreenYellow; font-size: 70px;'>正确! </span>","null","","","","","","","","","","","","","","","","","","","","","","","feedback_test",""
"","","","","","psychophysics","395","1197439","0.0-18.0-0.0-0.16","759","","j","","","","","","","","","","","","","key","j","16.666809523810766","640","356","j","true","img/C_28.png","自我","prac_stranger","","自我"
"","","","","","html-keyboard-response","396","1197756","0.0-18.0-0.0-1.16","null","<span style='color:GreenYellow; font-size: 70px;'>正确! </span>","null","","","","","","","","","","","","","","","","","","","","","","","feedback_test",""
"","","","","","psychophysics","397","1199577","0.0-18.0-0.0-0.17","815","","d","","","","","","","","","","","","","key","d","16.666657407408046","640","356","d","true","img/S_28.png","朋友","prac_stranger","","生人"
"","","","","","html-keyboard-response","398","1199889","0.0-18.0-0.0-1.17","null","<span style='color:GreenYellow; font-size: 70px;'>正确! </span>","null","","","","","","","","","","","","","","","","","","","","","","","feedback_test",""
"","","","","","psychophysics","399","1201577","0.0-18.0-0.0-0.18","679","","j","","","","","","","","","","","","","key","j","16.666810000000986","640","356","j","true","img/C_28.png","自我","prac_stranger","","自我"
"","","","","","html-keyboard-response","400","1201878","0.0-18.0-0.0-1.18","null","<span style='color:GreenYellow; font-size: 70px;'>正确! </span>","null","","","","","","","","","","","","","","","","","","","","","","","feedback_test",""
"","","","","","psychophysics","401","1203881","0.0-18.0-0.0-0.19","1000","","k","","","","","","","","","","","","","key","k","16.656521008402784","640","356","k","true","img/C_28.png","生人","prac_stranger","","自我"
"","","","","","html-keyboard-response","402","1204196","0.0-18.0-0.0-1.19","null","<span style='color:GreenYellow; font-size: 70px;'>正确! </span>","null","","","","","","","","","","","","","","","","","","","","","","","feedback_test",""
"","","","","","psychophysics","403","1206059","0.0-18.0-0.0-0.20","862","","d","","","","","","","","","","","","","key","d","16.665845454545607","640","356","d","true","img/S_28.png","自我","prac_stranger","","生人"
"","","","","","html-keyboard-response","404","1206366","0.0-18.0-0.0-1.20","null","<span style='color:GreenYellow; font-size: 70px;'>正确! </span>","null","","","","","","","","","","","","","","","","","","","","","","","feedback_test",""
"","","","","","psychophysics","405","1208159","0.0-18.0-0.0-0.21","779","","k","","","","","","","","","","","","","key","k","16.66655660377385","640","356","k","true","img/C_28.png","朋友","prac_stranger","","自我"
"","","","","","html-keyboard-response","406","1208461","0.0-18.0-0.0-1.21","null","<span style='color:GreenYellow; font-size: 70px;'>正确! </span>","null","","","","","","","","","","","","","","","","","","","","","","","feedback_test",""
"","","","","","psychophysics","407","1210142","0.0-18.0-0.0-0.22","679","","f","","","","","","","","","","","","","key","f","16.6666100000008","640","356","f","true","img/S_28.png","生人","prac_stranger","","生人"
"","","","","","html-keyboard-response","408","1210456","0.0-18.0-0.0-1.22","null","<span style='color:GreenYellow; font-size: 70px;'>正确! </span>","null","","","","","","","","","","","","","","","","","","","","","","","feedback_test",""
"","","","","","psychophysics","409","1212430","0.0-18.0-0.0-0.23","967","","d","","","","","","","","","","","","","key","d","16.667042372880456","640","356","k","false","img/H_28.png","生人","prac_stranger","","朋友"
"","","","","","html-keyboard-response","410","1212745","0.0-18.0-0.0-1.23","null","<span style='color:red; font-size: 70px;'>错误! </span>","null","","","","","","","","","","","","","","","","","","","","","","","feedback_test",""
"","","","","","html-keyboard-response","411","1237026","0.0-19.0","24277","[""<style>.context{color:white; font-size: 35px; line-height:40px}</style>                                     <div><p class='context'>您正确回答了71% 的试次。</p><p class='context'>您的平均反应时为823毫秒。</p><p class='context'>恭喜您完成练习。您可以在此时休息一段时间，准备好后按任意键进入正式实验。</p><p class='footer' style='font-size: 35px; line-height:40px;'>请在进入正式实验实验之前将您的<span style='color: lightgreen;'>食指和中指</span>放在电脑键盘的相应键位上，做好按键准备。</p>""]"," ","","","","","","","","","","","","","","","","","","","","","","","",""
"","","","","","html-keyboard-response","412","1250465","0.0-20.0-1.0-0.0","13435","
                 <p>请您将食指和中指放在相应按键上，准备进入<span style='color: yellow;'>重点图形为“朋友”对应图形</span>的正式匹配任务</p>
                 <p> <div style = ""color: green""><按任意键开始></div></p>
                 ","j","","","","","","","","","","","","","","","","","","","","","","","",""
"","","","","","psychophysics","413","1252554","0.0-20.0-1.0-1.0-0.0-0.0","1075","","k","","","","","","","","","","","","","key","k","16.670016129031747","640","356","k","true","img/C_28.png","朋友","friend","","自我"
"","","","","","html-keyboard-response","414","1252855","0.0-20.0-1.0-1.0-0.0-1.0","null","<span style='color:GreenYellow; font-size: 70px;'>正确! </span>","null","","","","","","","","","","","","","","","","","","","","","","","feedback_test",""
"","","","","","psychophysics","415","1254893","0.0-20.0-1.0-1.0-0.0-0.1","1032","","j","","","","","","","","","","","","","key","j","16.66376033057805","640","356","j","true","img/S_28.png","生人","friend","","生人"
"","","","","","html-keyboard-response","416","1255205","0.0-20.0-1.0-1.0-0.0-1.1","null","<span style='color:GreenYellow; font-size: 70px;'>正确! </span>","null","","","","","","","","","","","","","","","","","","","","","","","feedback_test",""
"","","","","","psychophysics","417","1256867","0.0-20.0-1.0-1.0-0.0-0.2","655","","f","","","","","","","","","","","","","key","f","16.666767676767773","640","356","f","true","img/H_28.png","朋友","friend","","朋友"
"","","","","","html-keyboard-response","418","1257185","0.0-20.0-1.0-1.0-0.0-1.2","null","<span style='color:GreenYellow; font-size: 70px;'>正确! </span>","null","","","","","","","","","","","","","","","","","","","","","","","feedback_test",""
"","","","","","psychophysics","419","1259374","0.0-20.0-1.0-1.0-0.0-0.3","1180","","k","","","","","","","","","","","","","key","k","16.667200000000257","640","356","k","true","img/S_28.png","自我","friend","","生人"
"","","","","","html-keyboard-response","420","1259695","0.0-20.0-1.0-1.0-0.0-1.3","null","<span style='color:GreenYellow; font-size: 70px;'>正确! </span>","null","","","","","","","","","","","","","","","","","","","","","","","feedback_test",""
"","","","","","psychophysics","421","1261752","0.0-20.0-1.0-1.0-0.0-0.4","1056","","j","","","","","","","","","","","","","key","j","16.66736885245897","640","356","j","true","img/C_28.png","自我","friend","","自我"
"","","","","","html-keyboard-response","422","1262055","0.0-20.0-1.0-1.0-0.0-1.4","null","<span style='color:GreenYellow; font-size: 70px;'>正确! </span>","null","","","","","","","","","","","","","","","","","","","","","","","feedback_test",""
