"success","timeout","failed_images","failed_audio","failed_video","trial_type","trial_index","time_elapsed","internal_node_id","rt","stimulus","response","value","item_width_mm","item_height_mm","item_width_px","px2mm","view_dist_mm","item_width_deg","px2deg","scale_factor","win_width_deg","win_height_deg","view_history","response_type","key_press","avg_frame_time","center_x","center_y","correct_response","correct","Image","text","condition","screen_id","label"
"true","false","[]","[]","[]","preload","0","450","0.0-0.0","","","","","","","","","","","","","","","","","","","","","","","","","","",""
"","","","","","html-keyboard-response","1","62729","0.0-1.0","62278","
     <p>您好，欢迎参加本次实验。</p>
     <p>为充分保障您的权利，请确保您已经知晓并同意《参与实验同意书》以及《数据公开知情同意书》。</p>
     <p>如果您未见过上述内容，请咨询实验员。</p>
     <p>如果您选择继续实验，则表示您已经清楚两份知情同意书的内容并同意。</p>
     <p> <div style = ""color: green""><按任意键至下页></div> </p>
     ","b","","","","","","","","","","","","","","","","","","","","","","","",""
"","","","","","html-keyboard-response","2","62779","0.0-2.0","49","
     <p>本实验首先需要您填写一些基本个人信息。</p>
     <p> <div style = ""color: green""><按任意键至下页></div></p>
     ","v","","","","","","","","","","","","","","","","","","","","","","","",""
"","","","","","call-function","3","62779","0.0-3.0-0.0","","","","","","","","","","","","","","","","","","","","","","","","","","",""
"","","","","","survey-html-form","4","70460","0.0-3.0-1.0","7676","","{""Q0"":""1""}","","","","","","","","","","","","","","","","","","","","","","","",""
"","","","","","html-button-response","5","71919","0.0-3.0-2.0","1455","<p style = 'color : white'>您的性别</p>","0","","","","","","","","","","","","","","","","","","","","","","","",""
"","","","","","survey-html-form","6","82295","0.0-3.0-3.0","10372","","{""Q0"":""1999""}","","","","","","","","","","","","","","","","","","","","","","","",""
"","","","","","survey-html-form","7","84969","0.0-3.0-4.0","2672","","{""Q0"":""5""}","","","","","","","","","","","","","","","","","","","","","","","",""
"","","","","","virtual-chinrest","8","212238","0.0-4.0","127267","","","","85.6","53.98","442.91528137310837","5.175115392885793","552.56","8.858305627462167","50","0.8579518837596641","30.72","14.42","","","","","","","","","","","","",""
"true","","","","","fullscreen","9","214398","0.0-5.0","","","","","","","","","","","","","","","","","","","","","","","","","","",""
"","","","","","instructions","10","255455","0.0-6.0","41056","","","","","","","","","","","","","","[{""page_index"":0,""viewing_time"":3214},{""page_index"":1,""viewing_time"":8055},{""page_index"":2,""viewing_time"":25783},{""page_index"":3,""viewing_time"":1764},{""page_index"":4,""viewing_time"":2239}]","","","","","","","","","","","",""
"","","","","","instructions","11","266094","0.0-7.0","10640","","","","","","","","","","","","","","[{""page_index"":0,""viewing_time"":10639}]","","","","","","","","","","","",""
"","","","","","psychophysics","12","269942","0.0-8.0-0.0-0.0","2837","","j","","","","","","","","","","","","","key","j","16.737292576419325","768","428","k","false","img/C_28.png","朋友","freeprac_self","",""
"","","","","","html-keyboard-response","13","270258","0.0-8.0-0.0-1.0","null","<span style='color:red; font-size: 70px;'>错误! </span>","null","","","","","","","","","","","","","","","","","","","","","","","feedback_test",""
"","","","","","psychophysics","14","272976","0.0-8.0-0.0-0.1","1696","","j","","","","","","","","","","","","","key","j","16.664197530864055","768","428","d","false","img/S_28.png","自我","freeprac_self","",""
"","","","","","html-keyboard-response","15","273289","0.0-8.0-0.0-1.1","null","<span style='color:red; font-size: 70px;'>错误! </span>","null","","","","","","","","","","","","","","","","","","","","","","","feedback_test",""
"","","","","","psychophysics","16","277553","0.0-8.0-0.0-0.2","3247","","d","","","","","","","","","","","","","key","d","16.66433070866138","768","428","f","false","img/S_28.png","生人","freeprac_self","",""
"","","","","","html-keyboard-response","17","277868","0.0-8.0-0.0-1.2","null","<span style='color:red; font-size: 70px;'>错误! </span>","null","","","","","","","","","","","","","","","","","","","","","","","feedback_test",""
"","","","","","psychophysics","18","280671","0.0-8.0-0.0-0.3","1781","","f","","","","","","","","","","","","","key","f","16.663113772455034","768","428","f","true","img/H_28.png","朋友","freeprac_self","",""
"","","","","","html-keyboard-response","19","280978","0.0-8.0-0.0-1.3","null","<span style='color:GreenYellow; font-size: 70px;'>正确! </span>","null","","","","","","","","","","","","","","","","","","","","","","","feedback_test",""
"","","","","","psychophysics","20","285039","0.0-8.0-0.0-0.4","3047","","d","","","","","","","","","","","","","key","d","16.66427983539112","768","428","k","false","img/C_28.png","生人","freeprac_self","",""
"","","","","","html-keyboard-response","21","285344","0.0-8.0-0.0-1.4","null","<span style='color:red; font-size: 70px;'>错误! </span>","null","","","","","","","","","","","","","","","","","","","","","","","feedback_test",""
"","","","","","psychophysics","22","289464","0.0-8.0-0.0-0.5","3105","","f","","","","","","","","","","","","","key","f","16.66455284552838","768","428","d","false","img/H_28.png","生人","freeprac_self","",""
"","","","","","html-keyboard-response","23","289778","0.0-8.0-0.0-1.5","null","<span style='color:red; font-size: 70px;'>错误! </span>","null","","","","","","","","","","","","","","","","","","","","","","","feedback_test",""
"","","","","","psychophysics","24","293980","0.0-8.0-0.0-0.6","3191","","j","","","","","","","","","","","","","key","j","16.664541832669276","768","428","j","true","img/C_28.png","自我","freeprac_self","",""
"","","","","","html-keyboard-response","25","294289","0.0-8.0-0.0-1.6","null","<span style='color:GreenYellow; font-size: 70px;'>正确! </span>","null","","","","","","","","","","","","","","","","","","","","","","","feedback_test",""
"","","","","","psychophysics","26","298279","0.0-8.0-0.0-0.7","2983","","j","","","","","","","","","","","","","key","j","16.663277310924556","768","428","d","false","img/S_28.png","朋友","freeprac_self","",""
"","","","","","html-keyboard-response","27","298599","0.0-8.0-0.0-1.7","null","<span style='color:red; font-size: 70px;'>错误! </span>","null","","","","","","","","","","","","","","","","","","","","","","","feedback_test",""
"","","","","","psychophysics","28","301987","0.0-8.0-0.0-0.8","2373","","d","","","","","","","","","","","","","key","d","16.664554455445497","768","428","d","true","img/H_28.png","自我","freeprac_self","",""
"","","","","","html-keyboard-response","29","302297","0.0-8.0-0.0-1.8","null","<span style='color:GreenYellow; font-size: 70px;'>正确! </span>","null","","","","","","","","","","","","","","","","","","","","","","","feedback_test",""
"","","","","","psychophysics","30","308471","0.0-8.0-0.0-0.9","5166","","f","","","","","","","","","","","","","key","f","16.66449864498648","768","428","f","true","img/H_28.png","朋友","freeprac_self","",""
"","","","","","html-keyboard-response","31","308789","0.0-8.0-0.0-1.9","null","<span style='color:GreenYellow; font-size: 70px;'>正确! </span>","null","","","","","","","","","","","","","","","","","","","","","","","feedback_test",""
"","","","","","psychophysics","32","310488","0.0-8.0-0.0-0.10","688","","j","","","","","","","","","","","","","key","j","16.660990099009418","768","428","j","true","img/C_28.png","自我","freeprac_self","",""
"","","","","","html-keyboard-response","33","310798","0.0-8.0-0.0-1.10","null","<span style='color:GreenYellow; font-size: 70px;'>正确! </span>","null","","","","","","","","","","","","","","","","","","","","","","","feedback_test",""
"","","","","","psychophysics","34","317344","0.0-8.0-0.0-0.11","5540","","f","","","","","","","","","","","","","key","f","16.66286445012786","768","428","f","true","img/S_28.png","生人","freeprac_self","",""
"","","","","","html-keyboard-response","35","317646","0.0-8.0-0.0-1.11","null","<span style='color:GreenYellow; font-size: 70px;'>正确! </span>","null","","","","","","","","","","","","","","","","","","","","","","","feedback_test",""
"","","","","","html-keyboard-response","36","328847","0.0-8.0-1.0-0.0","11200","<style>.context{color:white; font-size: 35px; line-height:40px}</style>                              <div><p class='context'>您正确回答了50% 的试次。</p><p class='context'>您的平均反应时为3123毫秒。</p>"," ","","","","","","","","","","","","","","","","","","","","","","","",""
"","","","","","instructions","37","417447","0.0-8.0-1.0-1.0","88600","","","","","","","","","","","","","","[{""page_index"":0,""viewing_time"":4957},{""page_index"":1,""viewing_time"":82102},{""page_index"":2,""viewing_time"":1541}]","","","","","","","","","","","",""
"","","","","","psychophysics","38","422173","0.0-8.1-0.1-0.12","3704","","d","","","","","","","","","","","","","key","d","16.66439716312052","768","428","d","true","img/S_28.png","自我","freeprac_self","",""
"","","","","","html-keyboard-response","39","422475","0.0-8.1-0.1-1.12","null","<span style='color:GreenYellow; font-size: 70px;'>正确! </span>","null","","","","","","","","","","","","","","","","","","","","","","","feedback_test",""
"","","","","","psychophysics","40","425526","0.0-8.1-0.1-0.13","2041","","f","","","","","","","","","","","","","key","f","16.664065934066176","768","428","f","true","img/H_28.png","朋友","freeprac_self","",""
"","","","","","html-keyboard-response","41","425838","0.0-8.1-0.1-1.13","null","<span style='color:GreenYellow; font-size: 70px;'>正确! </span>","null","","","","","","","","","","","","","","","","","","","","","","","feedback_test",""
"","","","","","psychophysics","42","428837","0.0-8.1-0.1-0.14","1982","","d","","","","","","","","","","","","","key","d","16.66446927374303","768","428","d","true","img/H_28.png","自我","freeprac_self","",""
"","","","","","html-keyboard-response","43","429148","0.0-8.1-0.1-1.14","null","<span style='color:GreenYellow; font-size: 70px;'>正确! </span>","null","","","","","","","","","","","","","","","","","","","","","","","feedback_test",""
"","","","","","psychophysics","44","432005","0.0-8.1-0.1-0.15","1847","","f","","","","","","","","","","","","","key","f","16.664470588235417","768","428","d","false","img/H_28.png","生人","freeprac_self","",""
"","","","","","html-keyboard-response","45","432309","0.0-8.1-0.1-1.15","null","<span style='color:red; font-size: 70px;'>错误! </span>","null","","","","","","","","","","","","","","","","","","","","","","","feedback_test",""
"","","","","","psychophysics","46","435006","0.0-8.1-0.1-0.16","1694","","d","","","","","","","","","","","","","key","d","16.664500000000043","768","428","f","false","img/S_28.png","生人","freeprac_self","",""
"","","","","","html-keyboard-response","47","435319","0.0-8.1-0.1-1.16","null","<span style='color:red; font-size: 70px;'>错误! </span>","null","","","","","","","","","","","","","","","","","","","","","","","feedback_test",""
"","","","","","psychophysics","48","437095","0.0-8.1-0.1-0.17","767","","j","","","","","","","","","","","","","key","j","16.6609523809526","768","428","j","true","img/C_28.png","自我","freeprac_self","",""
"","","","","","html-keyboard-response","49","437409","0.0-8.1-0.1-1.17","null","<span style='color:GreenYellow; font-size: 70px;'>正确! </span>","null","","","","","","","","","","","","","","","","","","","","","","","feedback_test",""
"","","","","","psychophysics","50","441070","0.0-8.1-0.1-0.18","2651","","f","","","","","","","","","","","","","key","f","16.664566210045834","768","428","d","false","img/S_28.png","朋友","freeprac_self","",""
"","","","","","html-keyboard-response","51","441383","0.0-8.1-0.1-1.18","null","<span style='color:red; font-size: 70px;'>错误! </span>","null","","","","","","","","","","","","","","","","","","","","","","","feedback_test",""
"","","","","","psychophysics","52","443182","0.0-8.1-0.1-0.19","794","","j","","","","","","","","","","","","","key","j","16.662264150943507","768","428","k","false","img/C_28.png","朋友","freeprac_self","",""
"","","","","","html-keyboard-response","53","443488","0.0-8.1-0.1-1.19","null","<span style='color:red; font-size: 70px;'>错误! </span>","null","","","","","","","","","","","","","","","","","","","","","","","feedback_test",""
"","","","","","psychophysics","54","447342","0.0-8.1-0.1-0.20","2842","","f","","","","","","","","","","","","","key","f","16.664521739130294","768","428","f","true","img/H_28.png","朋友","freeprac_self","",""
"","","","","","html-keyboard-response","55","447645","0.0-8.1-0.1-1.20","null","<span style='color:GreenYellow; font-size: 70px;'>正确! </span>","null","","","","","","","","","","","","","","","","","","","","","","","feedback_test",""
"","","","","","psychophysics","56","450162","0.0-8.1-0.1-0.21","1513","","d","","","","","","","","","","","","","key","d","16.664563758388997","768","428","f","false","img/S_28.png","生人","freeprac_self","",""
"","","","","","html-keyboard-response","57","450468","0.0-8.1-0.1-1.21","null","<span style='color:red; font-size: 70px;'>错误! </span>","null","","","","","","","","","","","","","","","","","","","","","","","feedback_test",""
"","","","","","psychophysics","58","452242","0.0-8.1-0.1-0.22","763","","j","","","","","","","","","","","","","key","j","16.662666666666823","768","428","j","true","img/C_28.png","自我","freeprac_self","",""
"","","","","","html-keyboard-response","59","452545","0.0-8.1-0.1-1.22","null","<span style='color:GreenYellow; font-size: 70px;'>正确! </span>","null","","","","","","","","","","","","","","","","","","","","","","","feedback_test",""
"","","","","","psychophysics","60","456991","0.0-8.1-0.1-0.23","3432","","d","","","","","","","","","","","","","key","d","16.664075471698045","768","428","k","false","img/C_28.png","生人","freeprac_self","",""
"","","","","","html-keyboard-response","61","457308","0.0-8.1-0.1-1.23","null","<span style='color:red; font-size: 70px;'>错误! </span>","null","","","","","","","","","","","","","","","","","","","","","","","feedback_test",""
"","","","","","html-keyboard-response","62","462134","0.0-8.1-1.1-0.1","4825","<style>.context{color:white; font-size: 35px; line-height:40px}</style>                              <div><p class='context'>您正确回答了50% 的试次。</p><p class='context'>您的平均反应时为2017毫秒。</p>"," ","","","","","","","","","","","","","","","","","","","","","","","",""
"","","","","","instructions","63","467825","0.0-8.1-1.1-1.1","5689","","","","","","","","","","","","","","[{""page_index"":0,""viewing_time"":1059},{""page_index"":1,""viewing_time"":3434},{""page_index"":2,""viewing_time"":1196}]","","","","","","","","","","","",""
"","","","","","psychophysics","64","471132","0.0-8.2-0.2-0.24","2302","","d","","","","","","","","","","","","","key","d","16.664467005075966","768","428","d","true","img/S_28.png","朋友","freeprac_self","",""
"","","","","","html-keyboard-response","65","471433","0.0-8.2-0.2-1.24","null","<span style='color:GreenYellow; font-size: 70px;'>正确! </span>","null","","","","","","","","","","","","","","","","","","","","","","","feedback_test",""
"","","","","","psychophysics","66","474341","0.0-8.2-0.2-0.25","1894","","f","","","","","","","","","","","","","key","f","16.66393063583807","768","428","d","false","img/H_28.png","生人","freeprac_self","",""
"","","","","","html-keyboard-response","67","474649","0.0-8.2-0.2-1.25","null","<span style='color:red; font-size: 70px;'>错误! </span>","null","","","","","","","","","","","","","","","","","","","","","","","feedback_test",""
"","","","","","psychophysics","68","476390","0.0-8.2-0.2-0.26","728","","j","","","","","","","","","","","","","key","j","16.662135922329647","768","428","j","true","img/C_28.png","自我","freeprac_self","",""
"","","","","","html-keyboard-response","69","476694","0.0-8.2-0.2-1.26","null","<span style='color:GreenYellow; font-size: 70px;'>正确! </span>","null","","","","","","","","","","","","","","","","","","","","","","","feedback_test",""
"","","","","","psychophysics","70","479897","0.0-8.2-0.2-0.27","2193","","k","","","","","","","","","","","","","key","k","16.66397905759166","768","428","k","true","img/C_28.png","朋友","freeprac_self","",""
"","","","","","html-keyboard-response","71","480199","0.0-8.2-0.2-1.27","null","<span style='color:GreenYellow; font-size: 70px;'>正确! </span>","null","","","","","","","","","","","","","","","","","","","","","","","feedback_test",""
"","","","","","psychophysics","72","483898","0.0-8.2-0.2-0.28","2686","","f","","","","","","","","","","","","","key","f","16.664434389140386","768","428","f","true","img/S_28.png","生人","freeprac_self","",""
"","","","","","html-keyboard-response","73","484218","0.0-8.2-0.2-1.28","null","<span style='color:GreenYellow; font-size: 70px;'>正确! </span>","null","","","","","","","","","","","","","","","","","","","","","","","feedback_test",""
"","","","","","psychophysics","74","486663","0.0-8.2-0.2-0.29","1426","","k","","","","","","","","","","","","","key","k","16.663698630137144","768","428","k","true","img/C_28.png","生人","freeprac_self","",""
"","","","","","html-keyboard-response","75","486972","0.0-8.2-0.2-1.29","null","<span style='color:GreenYellow; font-size: 70px;'>正确! </span>","null","","","","","","","","","","","","","","","","","","","","","","","feedback_test",""
"","","","","","psychophysics","76","488913","0.0-8.2-0.2-0.30","934","","j","","","","","","","","","","","","","key","j","16.661739130435087","768","428","j","true","img/C_28.png","自我","freeprac_self","",""
"","","","","","html-keyboard-response","77","489228","0.0-8.2-0.2-1.30","null","<span style='color:GreenYellow; font-size: 70px;'>正确! </span>","null","","","","","","","","","","","","","","","","","","","","","","","feedback_test",""
"","","","","","psychophysics","78","492046","0.0-8.2-0.2-0.31","1798","","d","","","","","","","","","","","","","key","d","16.663809523809636","768","428","d","true","img/S_28.png","自我","freeprac_self","",""
"","","","","","html-keyboard-response","79","492351","0.0-8.2-0.2-1.31","null","<span style='color:GreenYellow; font-size: 70px;'>正确! </span>","null","","","","","","","","","","","","","","","","","","","","","","","feedback_test",""
"","","","","","psychophysics","80","495070","0.0-8.2-0.2-0.32","1716","","d","","","","","","","","","","","","","key","d","16.663209876543224","768","428","d","true","img/H_28.png","自我","freeprac_self","",""
"","","","","","html-keyboard-response","81","495389","0.0-8.2-0.2-1.32","null","<span style='color:GreenYellow; font-size: 70px;'>正确! </span>","null","","","","","","","","","","","","","","","","","","","","","","","feedback_test",""
"","","","","","psychophysics","82","498187","0.0-8.2-0.2-0.33","1797","","f","","","","","","","","","","","","","key","f","16.66445783132523","768","428","f","true","img/H_28.png","朋友","freeprac_self","",""
"","","","","","html-keyboard-response","83","498499","0.0-8.2-0.2-1.33","null","<span style='color:GreenYellow; font-size: 70px;'>正确! </span>","null","","","","","","","","","","","","","","","","","","","","","","","feedback_test",""
"","","","","","psychophysics","84","502121","0.0-8.2-0.2-0.34","2602","","f","","","","","","","","","","","","","key","f","16.664074074074083","768","428","f","true","img/S_28.png","生人","freeprac_self","",""
"","","","","","html-keyboard-response","85","502428","0.0-8.2-0.2-1.34","null","<span style='color:GreenYellow; font-size: 70px;'>正确! </span>","null","","","","","","","","","","","","","","","","","","","","","","","feedback_test",""
"","","","","","psychophysics","86","505670","0.0-8.2-0.2-0.35","2227","","d","","","","","","","","","","","","","key","d","16.66227979274615","768","428","f","false","img/H_28.png","朋友","freeprac_self","",""
"","","","","","html-keyboard-response","87","505979","0.0-8.2-0.2-1.35","null","<span style='color:red; font-size: 70px;'>错误! </span>","null","","","","","","","","","","","","","","","","","","","","","","","feedback_test",""
"","","","","","html-keyboard-response","88","518199","0.0-9.0","12218","[""<style>.context{color:white; font-size: 35px; line-height:40px}</style>              <div><p class='context'>您正确回答了83% 的试次。</p><p class='context'>您的平均反应时为1818毫秒。</p><p class='context'>恭喜您完成这一阶段的练习。按任意键进入<span style='color: yellow;'>重点关注图形为“朋友”</span>的练习。</p></div><p class='footer' style='font-size:35px; line-height:30px;'>任务要求：\n              <p class='footer' style='font-size:35px; line-height:35px;'>对于与“朋友”对应的图形：如果 匹配 ，请按 <span style=\""color: lightgreen;\"">j键</span></p><p class='footer' style='font-size:35px'>如果 不匹配 ，请按<span style=\""color: lightgreen;\"">k键</p></span>\n              <p class='footer' style='font-size:35px; line-height:35px;'>对于非“朋友”对应的图形：如果 匹配 ，请按 <span style=\""color: lightgreen;\"">f键</span></p><p class='footer' style='font-size:35px'>如果 不匹配 ，请按<span style=\""color: lightgreen;\"">d键</p></span>\n              <p class='footer' style='font-size:22px; line-height:25px;'>请在实验过程中将您的<span style=\""color: lightgreen;\"">食指和中指</span>放在电脑键盘的相应键位上进行按键。</p></span>""]"," ","","","","","","","","","","","","","","","","","","","","","","","",""
"","","","","","psychophysics","89","520282","0.0-10.0-0.0-0.0","1062","","j","","","","","","","","","","","","","key","j","16.664516129031977","768","428","j","true","img/H_28.png","朋友","freeprac_friend","",""
"","","","","","html-keyboard-response","90","520587","0.0-10.0-0.0-1.0","null","<span style='color:GreenYellow; font-size: 70px;'>正确! </span>","null","","","","","","","","","","","","","","","","","","","","","","","feedback_test",""
"","","","","","psychophysics","91","522950","0.0-10.0-0.0-0.1","1347","","k","","","","","","","","","","","","","key","k","16.664571428571694","768","428","k","true","img/H_28.png","自我","freeprac_friend","",""
"","","","","","html-keyboard-response","92","523261","0.0-10.0-0.0-1.1","null","<span style='color:GreenYellow; font-size: 70px;'>正确! </span>","null","","","","","","","","","","","","","","","","","","","","","","","feedback_test",""
"","","","","","psychophysics","93","525791","0.0-10.0-0.0-0.2","1522","","d","","","","","","","","","","","","","key","d","16.662649006622885","768","428","d","true","img/S_28.png","自我","freeprac_friend","",""
"","","","","","html-keyboard-response","94","526098","0.0-10.0-0.0-1.2","null","<span style='color:GreenYellow; font-size: 70px;'>正确! </span>","null","","","","","","","","","","","","","","","","","","","","","","","feedback_test",""
"","","","","","psychophysics","95","528792","0.0-10.0-0.0-0.3","1687","","f","","","","","","","","","","","","","key","f","16.664347826086725","768","428","f","true","img/S_28.png","生人","freeprac_friend","",""
"","","","","","html-keyboard-response","96","529109","0.0-10.0-0.0-1.3","null","<span style='color:GreenYellow; font-size: 70px;'>正确! </span>","null","","","","","","","","","","","","","","","","","","","","","","","feedback_test",""
"","","","","","psychophysics","97","532118","0.0-10.0-0.0-0.4","1999","","d","","","","","","","","","","","","","key","d","16.66391061452496","768","428","d","true","img/C_28.png","生人","freeprac_friend","",""
"","","","","","html-keyboard-response","98","532438","0.0-10.0-0.0-1.4","null","<span style='color:GreenYellow; font-size: 70px;'>正确! </span>","null","","","","","","","","","","","","","","","","","","","","","","","feedback_test",""
"","","","","","psychophysics","99","534937","0.0-10.0-0.0-0.5","1488","","f","","","","","","","","","","","","","key","f","16.664459459459238","768","428","f","true","img/C_28.png","自我","freeprac_friend","",""
"","","","","","html-keyboard-response","100","535259","0.0-10.0-0.0-1.5","null","<span style='color:GreenYellow; font-size: 70px;'>正确! </span>","null","","","","","","","","","","","","","","","","","","","","","","","feedback_test",""
"","","","","","psychophysics","101","537320","0.0-10.0-0.0-0.6","1041","","d","","","","","","","","","","","","","key","d","16.66229508196664","768","428","d","true","img/C_28.png","朋友","freeprac_friend","",""
"","","","","","html-keyboard-response","102","537632","0.0-10.0-0.0-1.6","null","<span style='color:GreenYellow; font-size: 70px;'>正确! </span>","null","","","","","","","","","","","","","","","","","","","","","","","feedback_test",""
"","","","","","psychophysics","103","539990","0.0-10.0-0.0-0.7","1351","","k","","","","","","","","","","","","","key","k","16.664428571427873","768","428","k","true","img/H_28.png","生人","freeprac_friend","",""
"","","","","","html-keyboard-response","104","540299","0.0-10.0-0.0-1.7","null","<span style='color:GreenYellow; font-size: 70px;'>正确! </span>","null","","","","","","","","","","","","","","","","","","","","","","","feedback_test",""
"","","","","","psychophysics","105","542947","0.0-10.0-0.0-0.8","1627","","f","","","","","","","","","","","","","key","f","16.663566878980475","768","428","f","true","img/S_28.png","生人","freeprac_friend","",""
"","","","","","html-keyboard-response","106","543248","0.0-10.0-0.0-1.8","null","<span style='color:GreenYellow; font-size: 70px;'>正确! </span>","null","","","","","","","","","","","","","","","","","","","","","","","feedback_test",""
"","","","","","psychophysics","107","547163","0.0-10.0-0.0-0.9","2905","","j","","","","","","","","","","","","","key","j","16.664463519313085","768","428","j","true","img/H_28.png","朋友","freeprac_friend","",""
"","","","","","html-keyboard-response","108","547478","0.0-10.0-0.0-1.9","null","<span style='color:GreenYellow; font-size: 70px;'>正确! </span>","null","","","","","","","","","","","","","","","","","","","","","","","feedback_test",""
"","","","","","psychophysics","109","551025","0.0-10.0-0.0-0.10","2527","","d","","","","","","","","","","","","","key","d","16.663301886792432","768","428","d","true","img/S_28.png","朋友","freeprac_friend","",""
"","","","","","html-keyboard-response","110","551338","0.0-10.0-0.0-1.10","null","<span style='color:GreenYellow; font-size: 70px;'>正确! </span>","null","","","","","","","","","","","","","","","","","","","","","","","feedback_test",""
"","","","","","psychophysics","111","553763","0.0-10.0-0.0-0.11","1411","","f","","","","","","","","","","","","","key","f","16.662499999999355","768","428","f","true","img/C_28.png","自我","freeprac_friend","",""
"","","","","","html-keyboard-response","112","554078","0.0-10.0-0.0-1.11","null","<span style='color:GreenYellow; font-size: 70px;'>正确! </span>","null","","","","","","","","","","","","","","","","","","","","","","","feedback_test",""
"","","","","","html-keyboard-response","113","560298","0.0-11.0","6217","[""<style>.context{color:white; font-size: 35px; line-height:40px}</style>                  <div><p class='context'>您正确回答了100% 的试次。</p><p class='context'>您的平均反应时为1664毫秒。</p><p class='context'>恭喜您完成这一阶段的练习。按任意键进入<span style='color: yellow;'>重点关注图形为“生人”</span>的练习。</p></div><p class='footer' style='font-size:35px; line-height:30px;'>任务要求：\n                  <p class='footer' style='font-size:35px; line-height:35px;'>对与“生人”对应的图形，如果 匹配 ，请按 <span style=\""color: lightgreen;\"">j键</span></p><p class='footer' style='font-size:35px'>如果 不匹配 ，请按<span style=\""color: lightgreen;\"">k键</p></span>\n                  <p class='footer' style='font-size:35px; line-height:35px;'>对非“生人”对应的图形，如果 匹配 ，请按 <span style=\""color: lightgreen;\"">f键</span></p><p class='footer' style='font-size:35px'>如果 不匹配 ，请按<span style=\""color: lightgreen;\"">d键</p></span>\n                  <p class='footer' style='font-size:22px; line-height:25px;'>请在实验过程中将您的<span style=\""color: lightgreen;\"">食指和中指</span>放在电脑键盘的相应键位上进行按键。</p></span>""]"," ","","","","","","","","","","","","","","","","","","","","","","","",""
"","","","","","psychophysics","114","563466","0.0-12.0-0.0-0.0","2157","","d","","","","","","","","","","","","","key","d","16.66382978723429","768","428","d","true","img/C_28.png","朋友","freeprac_stranger","",""
"","","","","","html-keyboard-response","115","563768","0.0-12.0-0.0-1.0","null","<span style='color:GreenYellow; font-size: 70px;'>正确! </span>","null","","","","","","","","","","","","","","","","","","","","","","","feedback_test",""
"","","","","","psychophysics","116","566812","0.0-12.0-0.0-0.1","2032","","d","","","","","","","","","","","","","key","d","16.66453038673984","768","428","d","true","img/C_28.png","生人","freeprac_stranger","",""
"","","","","","html-keyboard-response","117","567120","0.0-12.0-0.0-1.1","null","<span style='color:GreenYellow; font-size: 70px;'>正确! </span>","null","","","","","","","","","","","","","","","","","","","","","","","feedback_test",""
"","","","","","psychophysics","118","572079","0.0-12.0-0.0-0.2","3953","","k","","","","","","","","","","","","","key","k","16.664459459459632","768","428","f","false","img/H_28.png","朋友","freeprac_stranger","",""
"","","","","","html-keyboard-response","119","572383","0.0-12.0-0.0-1.2","null","<span style='color:red; font-size: 70px;'>错误! </span>","null","","","","","","","","","","","","","","","","","","","","","","","feedback_test",""
"","","","","","psychophysics","120","575054","0.0-12.0-0.0-0.3","1659","","d","","","","","","","","","","","","","key","d","16.66440251572336","768","428","k","false","img/S_28.png","自我","freeprac_stranger","",""
"","","","","","html-keyboard-response","121","575359","0.0-12.0-0.0-1.3","null","<span style='color:red; font-size: 70px;'>错误! </span>","null","","","","","","","","","","","","","","","","","","","","","","","feedback_test",""
"","","","","","psychophysics","122","578236","0.0-12.0-0.0-0.4","1858","","j","","","","","","","","","","","","","key","j","16.66302325581417","768","428","j","true","img/S_28.png","生人","freeprac_stranger","",""
"","","","","","html-keyboard-response","123","578538","0.0-12.0-0.0-1.4","null","<span style='color:GreenYellow; font-size: 70px;'>正确! </span>","null","","","","","","","","","","","","","","","","","","","","","","","feedback_test",""
"","","","","","psychophysics","124","580975","0.0-12.0-0.0-0.5","1418","","f","","","","","","","","","","","","","key","f","16.664551724138637","768","428","f","true","img/C_28.png","自我","freeprac_stranger","",""
"","","","","","html-keyboard-response","125","581289","0.0-12.0-0.0-1.5","null","<span style='color:GreenYellow; font-size: 70px;'>正确! </span>","null","","","","","","","","","","","","","","","","","","","","","","","feedback_test",""
"","","","","","psychophysics","126","585127","0.0-12.0-0.0-0.6","2826","","d","","","","","","","","","","","","","key","d","16.66454148471638","768","428","j","false","img/S_28.png","生人","freeprac_stranger","",""
"","","","","","html-keyboard-response","127","585439","0.0-12.0-0.0-1.6","null","<span style='color:red; font-size: 70px;'>错误! </span>","null","","","","","","","","","","","","","","","","","","","","","","","feedback_test",""
"","","","","","psychophysics","128","587641","0.0-12.0-0.0-0.7","1198","","f","","","","","","","","","","","","","key","f","16.663358778626133","768","428","f","true","img/C_28.png","自我","freeprac_stranger","",""
"","","","","","html-keyboard-response","129","587946","0.0-12.0-0.0-1.7","null","<span style='color:GreenYellow; font-size: 70px;'>正确! </span>","null","","","","","","","","","","","","","","","","","","","","","","","feedback_test",""
"","","","","","psychophysics","130","591583","0.0-12.0-0.0-0.8","2632","","d","","","","","","","","","","","","","key","d","16.664516129032044","768","428","d","true","img/H_28.png","生人","freeprac_stranger","",""
"","","","","","html-keyboard-response","131","591885","0.0-12.0-0.0-1.8","null","<span style='color:GreenYellow; font-size: 70px;'>正确! </span>","null","","","","","","","","","","","","","","","","","","","","","","","feedback_test",""
"","","","","","psychophysics","132","595775","0.0-12.0-0.0-0.9","2875","","f","","","","","","","","","","","","","key","f","16.664482758620327","768","428","f","true","img/H_28.png","朋友","freeprac_stranger","",""
"","","","","","html-keyboard-response","133","596078","0.0-12.0-0.0-1.9","null","<span style='color:GreenYellow; font-size: 70px;'>正确! </span>","null","","","","","","","","","","","","","","","","","","","","","","","feedback_test",""
"","","","","","psychophysics","134","599164","0.0-12.0-0.0-0.10","2080","","k","","","","","","","","","","","","","key","k","16.66173913043483","768","428","k","true","img/S_28.png","朋友","freeprac_stranger","",""
"","","","","","html-keyboard-response","135","599468","0.0-12.0-0.0-1.10","null","<span style='color:GreenYellow; font-size: 70px;'>正确! </span>","null","","","","","","","","","","","","","","","","","","","","","","","feedback_test",""
"","","","","","psychophysics","136","602259","0.0-12.0-0.0-0.11","1778","","d","","","","","","","","","","","","","key","d","16.66445783132558","768","428","d","true","img/H_28.png","自我","freeprac_stranger","",""
"","","","","","html-keyboard-response","137","602576","0.0-12.0-0.0-1.11","null","<span style='color:GreenYellow; font-size: 70px;'>正确! </span>","null","","","","","","","","","","","","","","","","","","","","","","","feedback_test",""
"","","","","","instructions","138","623235","0.0-13.0","20657","","","","","","","","","","","","","","[{""page_index"":0,""viewing_time"":20657}]","","","","","","","","","","","",""
"","","","","","psychophysics","139","624879","0.0-14.0-0.0-0.0","639","","j","","","","","","","","","","","","","key","j","16.664081632653822","768","428","j","true","img/C_28.png","自我","prac_self","","自我"
"","","","","","html-keyboard-response","140","625189","0.0-14.0-0.0-1.0","null","<span style='color:GreenYellow; font-size: 70px;'>正确! </span>","null","","","","","","","","","","","","","","","","","","","","","","","feedback_test",""
"","","","","","psychophysics","141","627700","0.0-14.0-0.0-0.1","null","","null","","","","","","","","","","","","","key","null","16.66416107382525","768","428","f","false","img/S_28.png","生人","prac_self","","生人"
"","","","","","html-keyboard-response","142","628008","0.0-14.0-0.0-1.1","null","<span class='add_' style='color:yellow; font-size: 70px;'> 太慢! </span>","null","","","","","","","","","","","","","","","","","","","","","","","feedback_test",""
"","","","","","psychophysics","143","630450","0.0-14.0-0.0-0.2","1431","","f","","","","","","","","","","","","","key","f","16.661241379310376","768","428","f","true","img/H_28.png","朋友","prac_self","","朋友"
"","","","","","html-keyboard-response","144","630754","0.0-14.0-0.0-1.2","null","<span style='color:GreenYellow; font-size: 70px;'>正确! </span>","null","","","","","","","","","","","","","","","","","","","","","","","feedback_test",""
"","","","","","psychophysics","145","632758","0.0-14.0-0.0-0.3","991","","d","","","","","","","","","","","","","key","d","16.664537815125698","768","428","d","true","img/H_28.png","生人","prac_self","","朋友"
"","","","","","html-keyboard-response","146","633073","0.0-14.0-0.0-1.3","null","<span style='color:GreenYellow; font-size: 70px;'>正确! </span>","null","","","","","","","","","","","","","","","","","","","","","","","feedback_test",""
"","","","","","psychophysics","147","635436","0.0-14.0-0.0-0.4","1357","","f","","","","","","","","","","","","","key","f","16.664428571428704","768","428","d","false","img/S_28.png","自我","prac_self","","生人"
"","","","","","html-keyboard-response","148","635739","0.0-14.0-0.0-1.4","null","<span style='color:red; font-size: 70px;'>错误! </span>","null","","","","","","","","","","","","","","","","","","","","","","","feedback_test",""
"","","","","","psychophysics","149","637833","0.0-14.0-0.0-0.5","1087","","d","","","","","","","","","","","","","key","d","16.664354838709716","768","428","k","false","img/C_28.png","生人","prac_self","","自我"
"","","","","","html-keyboard-response","150","638148","0.0-14.0-0.0-1.5","null","<span style='color:red; font-size: 70px;'>错误! </span>","null","","","","","","","","","","","","","","","","","","","","","","","feedback_test",""
"","","","","","psychophysics","151","640659","0.0-14.0-0.0-0.6","null","","null","","","","","","","","","","","","","key","null","16.664533333332898","768","428","d","false","img/H_28.png","自我","prac_self","","朋友"
"","","","","","html-keyboard-response","152","640968","0.0-14.0-0.0-1.6","null","<span class='add_' style='color:yellow; font-size: 70px;'> 太慢! </span>","null","","","","","","","","","","","","","","","","","","","","","","","feedback_test",""
"","","","","","psychophysics","153","642810","0.0-14.0-0.0-0.7","835","","f","","","","","","","","","","","","","key","f","16.663853211009044","768","428","f","true","img/S_28.png","生人","prac_self","","生人"
"","","","","","html-keyboard-response","154","643120","0.0-14.0-0.0-1.7","null","<span style='color:GreenYellow; font-size: 70px;'>正确! </span>","null","","","","","","","","","","","","","","","","","","","","","","","feedback_test",""
"","","","","","psychophysics","155","644997","0.0-14.0-0.0-0.8","868","","d","","","","","","","","","","","","","key","d","16.66450450450459","768","428","d","true","img/S_28.png","朋友","prac_self","","生人"
"","","","","","html-keyboard-response","156","645308","0.0-14.0-0.0-1.8","null","<span style='color:GreenYellow; font-size: 70px;'>正确! </span>","null","","","","","","","","","","","","","","","","","","","","","","","feedback_test",""
"","","","","","psychophysics","157","647046","0.0-14.0-0.0-0.9","718","","j","","","","","","","","","","","","","key","j","16.664466019416935","768","428","j","true","img/C_28.png","自我","prac_self","","自我"
"","","","","","html-keyboard-response","158","647348","0.0-14.0-0.0-1.9","null","<span style='color:GreenYellow; font-size: 70px;'>正确! </span>","null","","","","","","","","","","","","","","","","","","","","","","","feedback_test",""
"","","","","","psychophysics","159","648891","0.0-14.0-0.0-0.10","535","","j","","","","","","","","","","","","","key","j","16.66326086956542","768","428","k","false","img/C_28.png","朋友","prac_self","","自我"
"","","","","","html-keyboard-response","160","649195","0.0-14.0-0.0-1.10","null","<span style='color:red; font-size: 70px;'>错误! </span>","null","","","","","","","","","","","","","","","","","","","","","","","feedback_test",""
"","","","","","psychophysics","161","651709","0.0-14.0-0.0-0.11","null","","null","","","","","","","","","","","","","key","null","16.664533333332898","768","428","f","false","img/H_28.png","朋友","prac_self","","朋友"
"","","","","","html-keyboard-response","162","652028","0.0-14.0-0.0-1.11","null","<span class='add_' style='color:yellow; font-size: 70px;'> 太慢! </span>","null","","","","","","","","","","","","","","","","","","","","","","","feedback_test",""
"","","","","","psychophysics","163","654431","0.0-14.0-0.0-0.12","1391","","d","","","","","","","","","","","","","key","d","16.664475524475655","768","428","d","true","img/S_28.png","朋友","prac_self","","生人"
"","","","","","html-keyboard-response","164","654738","0.0-14.0-0.0-1.12","null","<span style='color:GreenYellow; font-size: 70px;'>正确! </span>","null","","","","","","","","","","","","","","","","","","","","","","","feedback_test",""
"","","","","","psychophysics","165","656764","0.0-14.0-0.0-0.13","1004","","f","","","","","","","","","","","","","key","f","16.664499999999922","768","428","f","true","img/S_28.png","生人","prac_self","","生人"
"","","","","","html-keyboard-response","166","657077","0.0-14.0-0.0-1.13","null","<span style='color:GreenYellow; font-size: 70px;'>正确! </span>","null","","","","","","","","","","","","","","","","","","","","","","","feedback_test",""
"","","","","","psychophysics","167","658950","0.0-14.0-0.0-0.14","867","","k","","","","","","","","","","","","","key","k","16.661801801802515","768","428","d","false","img/S_28.png","自我","prac_self","","生人"
"","","","","","html-keyboard-response","168","659259","0.0-14.0-0.0-1.14","null","<span style='color:red; font-size: 70px;'>错误! </span>","null","","","","","","","","","","","","","","","","","","","","","","","feedback_test",""
"","","","","","psychophysics","169","661009","0.0-14.0-0.0-0.15","736","","j","","","","","","","","","","","","","key","j","16.66442307692285","768","428","j","true","img/C_28.png","自我","prac_self","","自我"
"","","","","","html-keyboard-response","170","661330","0.0-14.0-0.0-1.15","null","<span style='color:GreenYellow; font-size: 70px;'>正确! </span>","null","","","","","","","","","","","","","","","","","","","","","","","feedback_test",""
"","","","","","psychophysics","171","663715","0.0-14.0-0.0-0.16","1376","","d","","","","","","","","","","","","","key","d","16.66366197183092","768","428","f","false","img/H_28.png","朋友","prac_self","","朋友"
"","","","","","html-keyboard-response","172","664017","0.0-14.0-0.0-1.16","null","<span style='color:red; font-size: 70px;'>错误! </span>","null","","","","","","","","","","","","","","","","","","","","","","","feedback_test",""
"","","","","","psychophysics","173","666390","0.0-14.0-0.0-0.17","1362","","f","","","","","","","","","","","","","key","f","16.664539007091868","768","428","f","true","img/S_28.png","生人","prac_self","","生人"
"","","","","","html-keyboard-response","174","666697","0.0-14.0-0.0-1.17","null","<span style='color:GreenYellow; font-size: 70px;'>正确! </span>","null","","","","","","","","","","","","","","","","","","","","","","","feedback_test",""
"","","","","","psychophysics","175","668320","0.0-14.0-0.0-0.18","621","","j","","","","","","","","","","","","","key","j","16.66453608247384","768","428","j","true","img/C_28.png","自我","prac_self","","自我"
"","","","","","html-keyboard-response","176","668628","0.0-14.0-0.0-1.18","null","<span style='color:GreenYellow; font-size: 70px;'>正确! </span>","null","","","","","","","","","","","","","","","","","","","","","","","feedback_test",""
"","","","","","psychophysics","177","670758","0.0-14.0-0.0-0.19","1118","","d","","","","","","","","","","","","","key","d","16.662047244094158","768","428","f","false","img/H_28.png","朋友","prac_self","","朋友"
"","","","","","html-keyboard-response","178","671069","0.0-14.0-0.0-1.19","null","<span style='color:red; font-size: 70px;'>错误! </span>","null","","","","","","","","","","","","","","","","","","","","","","","feedback_test",""
"","","","","","psychophysics","179","673148","0.0-14.0-0.0-0.20","1074","","f","","","","","","","","","","","","","key","f","16.664065040649877","768","428","k","false","img/C_28.png","朋友","prac_self","","自我"
"","","","","","html-keyboard-response","180","673459","0.0-14.0-0.0-1.20","null","<span style='color:red; font-size: 70px;'>错误! </span>","null","","","","","","","","","","","","","","","","","","","","","","","feedback_test",""
"","","","","","psychophysics","181","675813","0.0-14.0-0.0-0.21","1343","","d","","","","","","","","","","","","","key","d","16.660999999999433","768","428","d","true","img/H_28.png","自我","prac_self","","朋友"
"","","","","","html-keyboard-response","182","676128","0.0-14.0-0.0-1.21","null","<span style='color:GreenYellow; font-size: 70px;'>正确! </span>","null","","","","","","","","","","","","","","","","","","","","","","","feedback_test",""
"","","","","","psychophysics","183","678638","0.0-14.0-0.0-0.22","null","","null","","","","","","","","","","","","","key","null","16.663466666666793","768","428","d","false","img/H_28.png","生人","prac_self","","朋友"
"","","","","","html-keyboard-response","184","678959","0.0-14.0-0.0-1.22","null","<span class='add_' style='color:yellow; font-size: 70px;'> 太慢! </span>","null","","","","","","","","","","","","","","","","","","","","","","","feedback_test",""
"","","","","","psychophysics","185","680604","0.0-14.0-0.0-0.23","636","","j","","","","","","","","","","","","","key","j","16.663673469386946","768","428","k","false","img/C_28.png","生人","prac_self","","自我"
"","","","","","html-keyboard-response","186","680907","0.0-14.0-0.0-1.23","null","<span style='color:red; font-size: 70px;'>错误! </span>","null","","","","","","","","","","","","","","","","","","","","","","","feedback_test",""
"","","","","","html-keyboard-response","187","684921","0.0-14.0-1.0-0.0","4011","<style>.context{color:white; font-size: 35px; line-height:40px}</style>                              <div><p class='context'>您正确回答了50% 的试次。</p><p class='context'>您的平均反应时为995毫秒。</p>"," ","","","","","","","","","","","","","","","","","","","","","","","",""
"","","","","","instructions","188","693635","0.0-14.0-1.0-1.0","8714","","","","","","","","","","","","","","[{""page_index"":0,""viewing_time"":1985},{""page_index"":1,""viewing_time"":5166},{""page_index"":2,""viewing_time"":1563}]","","","","","","","","","","","",""
"","","","","","psychophysics","189","695990","0.0-14.1-0.1-0.24","1341","","k","","","","","","","","","","","","","key","k","16.664428571428704","768","428","k","true","img/C_28.png","朋友","prac_self","","自我"
"","","","","","html-keyboard-response","190","696309","0.0-14.1-0.1-1.24","null","<span style='color:GreenYellow; font-size: 70px;'>正确! </span>","null","","","","","","","","","","","","","","","","","","","","","","","feedback_test",""
"","","","","","psychophysics","191","698829","0.0-14.1-0.1-0.25","null","","null","","","","","","","","","","","","","key","null","16.664429530201343","768","428","f","false","img/H_28.png","朋友","prac_self","","朋友"
"","","","","","html-keyboard-response","192","699149","0.0-14.1-0.1-1.25","null","<span class='add_' style='color:yellow; font-size: 70px;'> 太慢! </span>","null","","","","","","","","","","","","","","","","","","","","","","","feedback_test",""
"","","","","","psychophysics","193","700758","0.0-14.1-0.1-0.26","599","","j","","","","","","","","","","","","","key","j","16.661473684210183","768","428","j","true","img/C_28.png","自我","prac_self","","自我"
"","","","","","html-keyboard-response","194","701069","0.0-14.1-0.1-1.26","null","<span style='color:GreenYellow; font-size: 70px;'>正确! </span>","null","","","","","","","","","","","","","","","","","","","","","","","feedback_test",""
"","","","","","psychophysics","195","703053","0.0-14.1-0.1-0.27","978","","j","","","","","","","","","","","","","key","j","16.66220338982964","768","428","j","true","img/C_28.png","自我","prac_self","","自我"
"","","","","","html-keyboard-response","196","703357","0.0-14.1-0.1-1.27","null","<span style='color:GreenYellow; font-size: 70px;'>正确! </span>","null","","","","","","","","","","","","","","","","","","","","","","","feedback_test",""
"","","","","","psychophysics","197","705170","0.0-14.1-0.1-0.28","806","","f","","","","","","","","","","","","","key","f","16.664485981308193","768","428","f","true","img/H_28.png","朋友","prac_self","","朋友"
"","","","","","html-keyboard-response","198","705488","0.0-14.1-0.1-1.28","null","<span style='color:GreenYellow; font-size: 70px;'>正确! </span>","null","","","","","","","","","","","","","","","","","","","","","","","feedback_test",""
"","","","","","psychophysics","199","707210","0.0-14.1-0.1-0.29","711","","j","","","","","","","","","","","","","key","j","16.66196078431391","768","428","k","false","img/C_28.png","生人","prac_self","","自我"
"","","","","","html-keyboard-response","200","707514","0.0-14.1-0.1-1.29","null","<span style='color:red; font-size: 70px;'>错误! </span>","null","","","","","","","","","","","","","","","","","","","","","","","feedback_test",""
"","","","","","psychophysics","201","709899","0.0-14.1-0.1-0.30","1370","","d","","","","","","","","","","","","","key","d","16.663943661972027","768","428","d","true","img/H_28.png","生人","prac_self","","朋友"
"","","","","","html-keyboard-response","202","710208","0.0-14.1-0.1-1.30","null","<span style='color:GreenYellow; font-size: 70px;'>正确! </span>","null","","","","","","","","","","","","","","","","","","","","","","","feedback_test",""
"","","","","","psychophysics","203","712102","0.0-14.1-0.1-0.31","870","","f","","","","","","","","","","","","","key","f","16.66446428571466","768","428","f","true","img/S_28.png","生人","prac_self","","生人"
"","","","","","html-keyboard-response","204","712408","0.0-14.1-0.1-1.31","null","<span style='color:GreenYellow; font-size: 70px;'>正确! </span>","null","","","","","","","","","","","","","","","","","","","","","","","feedback_test",""
"","","","","","psychophysics","205","714402","0.0-14.1-0.1-0.32","971","","d","","","","","","","","","","","","","key","d","16.664537815125698","768","428","d","true","img/H_28.png","自我","prac_self","","朋友"
"","","","","","html-keyboard-response","206","714717","0.0-14.1-0.1-1.32","null","<span style='color:GreenYellow; font-size: 70px;'>正确! </span>","null","","","","","","","","","","","","","","","","","","","","","","","feedback_test",""
"","","","","","psychophysics","207","717069","0.0-14.1-0.1-0.33","1340","","f","","","","","","","","","","","","","key","f","16.664428571428704","768","428","d","false","img/S_28.png","自我","prac_self","","生人"
"","","","","","html-keyboard-response","208","717377","0.0-14.1-0.1-1.33","null","<span style='color:red; font-size: 70px;'>错误! </span>","null","","","","","","","","","","","","","","","","","","","","","","","feedback_test",""
"","","","","","psychophysics","209","719343","0.0-14.1-0.1-0.34","960","","f","","","","","","","","","","","","","key","f","16.66396551724154","768","428","f","true","img/S_28.png","生人","prac_self","","生人"
"","","","","","html-keyboard-response","210","719658","0.0-14.1-0.1-1.34","null","<span style='color:GreenYellow; font-size: 70px;'>正确! </span>","null","","","","","","","","","","","","","","","","","","","","","","","feedback_test",""
"","","","","","psychophysics","211","721519","0.0-14.1-0.1-0.35","850","","d","","","","","","","","","","","","","key","d","16.664545454545244","768","428","d","true","img/S_28.png","朋友","prac_self","","生人"
"","","","","","html-keyboard-response","212","721829","0.0-14.1-0.1-1.35","null","<span style='color:GreenYellow; font-size: 70px;'>正确! </span>","null","","","","","","","","","","","","","","","","","","","","","","","feedback_test",""
"","","","","","psychophysics","213","724338","0.0-14.1-0.1-0.36","null","","null","","","","","","","","","","","","","key","null","16.664295302013297","768","428","d","false","img/H_28.png","自我","prac_self","","朋友"
"","","","","","html-keyboard-response","214","724658","0.0-14.1-0.1-1.36","null","<span class='add_' style='color:yellow; font-size: 70px;'> 太慢! </span>","null","","","","","","","","","","","","","","","","","","","","","","","feedback_test",""
"","","","","","psychophysics","215","726334","0.0-14.1-0.1-0.37","666","","j","","","","","","","","","","","","","key","j","16.664444444444726","768","428","j","true","img/C_28.png","自我","prac_self","","自我"
"","","","","","html-keyboard-response","216","726645","0.0-14.1-0.1-1.37","null","<span style='color:GreenYellow; font-size: 70px;'>正确! </span>","null","","","","","","","","","","","","","","","","","","","","","","","feedback_test",""
"","","","","","psychophysics","217","728684","0.0-14.1-0.1-0.38","1025","","d","","","","","","","","","","","","","key","d","16.664132231404842","768","428","d","true","img/S_28.png","自我","prac_self","","生人"
"","","","","","html-keyboard-response","218","728988","0.0-14.1-0.1-1.38","null","<span style='color:GreenYellow; font-size: 70px;'>正确! </span>","null","","","","","","","","","","","","","","","","","","","","","","","feedback_test",""
"","","","","","psychophysics","219","730784","0.0-14.1-0.1-0.39","786","","f","","","","","","","","","","","","","key","f","16.664485981308193","768","428","f","true","img/H_28.png","朋友","prac_self","","朋友"
"","","","","","html-keyboard-response","220","731098","0.0-14.1-0.1-1.39","null","<span style='color:GreenYellow; font-size: 70px;'>正确! </span>","null","","","","","","","","","","","","","","","","","","","","","","","feedback_test",""
"","","","","","psychophysics","221","732947","0.0-14.1-0.1-0.40","837","","d","","","","","","","","","","","","","key","d","16.664545454545244","768","428","d","true","img/S_28.png","朋友","prac_self","","生人"
"","","","","","html-keyboard-response","222","733251","0.0-14.1-0.1-1.40","null","<span style='color:GreenYellow; font-size: 70px;'>正确! </span>","null","","","","","","","","","","","","","","","","","","","","","","","feedback_test",""
"","","","","","psychophysics","223","735105","0.0-14.1-0.1-0.41","837","","f","","","","","","","","","","","","","key","f","16.664545454545244","768","428","f","true","img/S_28.png","生人","prac_self","","生人"
"","","","","","html-keyboard-response","224","735418","0.0-14.1-0.1-1.41","null","<span style='color:GreenYellow; font-size: 70px;'>正确! </span>","null","","","","","","","","","","","","","","","","","","","","","","","feedback_test",""
"","","","","","psychophysics","225","737205","0.0-14.1-0.1-0.42","776","","j","","","","","","","","","","","","","key","j","16.662452830188414","768","428","k","false","img/C_28.png","生人","prac_self","","自我"
"","","","","","html-keyboard-response","226","737518","0.0-14.1-0.1-1.42","null","<span style='color:red; font-size: 70px;'>错误! </span>","null","","","","","","","","","","","","","","","","","","","","","","","feedback_test",""
"","","","","","psychophysics","227","739482","0.0-14.1-0.1-0.43","950","","k","","","","","","","","","","","","","key","k","16.664444444444364","768","428","k","true","img/C_28.png","朋友","prac_self","","自我"
"","","","","","html-keyboard-response","228","739798","0.0-14.1-0.1-1.43","null","<span style='color:GreenYellow; font-size: 70px;'>正确! </span>","null","","","","","","","","","","","","","","","","","","","","","","","feedback_test",""
"","","","","","psychophysics","229","741562","0.0-14.1-0.1-0.44","743","","j","","","","","","","","","","","","","key","j","16.65961538461516","768","428","j","true","img/C_28.png","自我","prac_self","","自我"
"","","","","","html-keyboard-response","230","741877","0.0-14.1-0.1-1.44","null","<span style='color:GreenYellow; font-size: 70px;'>正确! </span>","null","","","","","","","","","","","","","","","","","","","","","","","feedback_test",""
"","","","","","psychophysics","231","743697","0.0-14.1-0.1-0.45","816","","d","","","","","","","","","","","","","key","d","16.66444444444453","768","428","f","false","img/S_28.png","生人","prac_self","","生人"
"","","","","","html-keyboard-response","232","744003","0.0-14.1-0.1-1.45","null","<span style='color:red; font-size: 70px;'>错误! </span>","null","","","","","","","","","","","","","","","","","","","","","","","feedback_test",""
"","","","","","psychophysics","233","745954","0.0-14.1-0.1-0.46","935","","f","","","","","","","","","","","","","key","f","16.664482758621332","768","428","d","false","img/H_28.png","生人","prac_self","","朋友"
"","","","","","html-keyboard-response","234","746258","0.0-14.1-0.1-1.46","null","<span style='color:red; font-size: 70px;'>错误! </span>","null","","","","","","","","","","","","","","","","","","","","","","","feedback_test",""
"","","","","","psychophysics","235","748178","0.0-14.1-0.1-0.47","910","","f","","","","","","","","","","","","","key","f","16.662831858407287","768","428","f","true","img/H_28.png","朋友","prac_self","","朋友"
"","","","","","html-keyboard-response","236","748498","0.0-14.1-0.1-1.47","null","<span style='color:GreenYellow; font-size: 70px;'>正确! </span>","null","","","","","","","","","","","","","","","","","","","","","","","feedback_test",""
"","","","","","html-keyboard-response","237","756789","0.0-15.0","8289","[""<style>.context{color:white; font-size: 35px; line-height:40px}</style>              <div><p class='context'>您正确回答了71% 的试次。</p><p class='context'>您的平均反应时为912毫秒。</p><p class='context'>恭喜您完成这一阶段的练习。按任意键进入<span style='color: yellow;'>重点关注图形为“朋友”</span>的练习。</p></div><p class='footer' style='font-size:35px; line-height:30px;'>任务要求：\n              <p class='footer' style='font-size:35px; line-height:35px;'>对于与“朋友”对应的图形：如果 匹配 ，请按 <span style=\""color: lightgreen;\"">j键</span></p><p class='footer' style='font-size:35px'>如果 不匹配 ，请按<span style=\""color: lightgreen;\"">k键</p></span>\n              <p class='footer' style='font-size:35px; line-height:35px;'>对于非“朋友”对应的图形：如果 匹配 ，请按 <span style=\""color: lightgreen;\"">f键</span></p><p class='footer' style='font-size:35px'>如果 不匹配 ，请按<span style=\""color: lightgreen;\"">d键</p></span>\n              <p class='footer' style='font-size:22px; line-height:25px;'>请在实验过程中将您的<span style=\""color: lightgreen;\"">食指和中指</span>放在电脑键盘的相应键位上进行按键。</p></span>""]"," ","","","","","","","","","","","","","","","","","","","","","","","",""
"","","","","","psychophysics","238","758967","0.0-16.0-0.0-0.0","1167","","f","","","","","","","","","","","","","key","f","16.66449612403079","768","428","f","true","img/S_28.png","生人","prac_friend","","生人"
"","","","","","html-keyboard-response","239","759273","0.0-16.0-0.0-1.0","null","<span style='color:GreenYellow; font-size: 70px;'>正确! </span>","null","","","","","","","","","","","","","","","","","","","","","","","feedback_test",""
"","","","","","psychophysics","240","761136","0.0-16.0-0.0-0.1","859","","j","","","","","","","","","","","","","key","j","16.659272727272896","768","428","f","false","img/C_28.png","自我","prac_friend","","自我"
"","","","","","html-keyboard-response","241","761450","0.0-16.0-0.0-1.1","null","<span style='color:red; font-size: 70px;'>错误! </span>","null","","","","","","","","","","","","","","","","","","","","","","","feedback_test",""
"","","","","","psychophysics","242","763280","0.0-16.0-0.0-0.2","818","","j","","","","","","","","","","","","","key","j","16.664587155963858","768","428","j","true","img/H_28.png","朋友","prac_friend","","朋友"
"","","","","","html-keyboard-response","243","763599","0.0-16.0-0.0-1.2","null","<span style='color:GreenYellow; font-size: 70px;'>正确! </span>","null","","","","","","","","","","","","","","","","","","","","","","","feedback_test",""
"","","","","","psychophysics","244","765817","0.0-16.0-0.0-0.3","1208","","d","","","","","","","","","","","","","key","d","16.663636363637067","768","428","d","true","img/S_28.png","自我","prac_friend","","生人"
"","","","","","html-keyboard-response","245","766128","0.0-16.0-0.0-1.3","null","<span style='color:GreenYellow; font-size: 70px;'>正确! </span>","null","","","","","","","","","","","","","","","","","","","","","","","feedback_test",""
"","","","","","psychophysics","246","768030","0.0-16.0-0.0-0.4","889","","d","","","","","","","","","","","","","key","d","16.663716814159294","768","428","f","false","img/S_28.png","生人","prac_friend","","生人"
"","","","","","html-keyboard-response","247","768344","0.0-16.0-0.0-1.4","null","<span style='color:red; font-size: 70px;'>错误! </span>","null","","","","","","","","","","","","","","","","","","","","","","","feedback_test",""
"","","","","","psychophysics","248","769975","0.0-16.0-0.0-0.5","615","","j","","","","","","","","","","","","","key","j","16.66453608247384","768","428","k","false","img/H_28.png","自我","prac_friend","","朋友"
"","","","","","html-keyboard-response","249","770288","0.0-16.0-0.0-1.5","null","<span style='color:red; font-size: 70px;'>错误! </span>","null","","","","","","","","","","","","","","","","","","","","","","","feedback_test",""
"","","","","","psychophysics","250","772335","0.0-16.0-0.0-0.6","1037","","f","","","","","","","","","","","","","key","f","16.660991735537035","768","428","d","false","img/S_28.png","朋友","prac_friend","","生人"
"","","","","","html-keyboard-response","251","772638","0.0-16.0-0.0-1.6","null","<span style='color:red; font-size: 70px;'>错误! </span>","null","","","","","","","","","","","","","","","","","","","","","","","feedback_test",""
"","","","","","psychophysics","252","774511","0.0-16.0-0.0-0.7","851","","j","","","","","","","","","","","","","key","j","16.66414414414494","768","428","j","true","img/H_28.png","朋友","prac_friend","","朋友"
"","","","","","html-keyboard-response","253","774815","0.0-16.0-0.0-1.7","null","<span style='color:GreenYellow; font-size: 70px;'>正确! </span>","null","","","","","","","","","","","","","","","","","","","","","","","feedback_test",""
"","","","","","psychophysics","254","776595","0.0-16.0-0.0-0.8","767","","k","","","","","","","","","","","","","key","k","16.664528301887362","768","428","k","true","img/H_28.png","生人","prac_friend","","朋友"
"","","","","","html-keyboard-response","255","776910","0.0-16.0-0.0-1.8","null","<span style='color:GreenYellow; font-size: 70px;'>正确! </span>","null","","","","","","","","","","","","","","","","","","","","","","","feedback_test",""
"","","","","","psychophysics","256","778836","0.0-16.0-0.0-0.9","914","","f","","","","","","","","","","","","","key","f","16.664561403508852","768","428","d","false","img/C_28.png","生人","prac_friend","","自我"
"","","","","","html-keyboard-response","257","779158","0.0-16.0-0.0-1.9","null","<span style='color:red; font-size: 70px;'>错误! </span>","null","","","","","","","","","","","","","","","","","","","","","","","feedback_test",""
"","","","","","psychophysics","258","781235","0.0-16.0-0.0-0.10","1061","","f","","","","","","","","","","","","","key","f","16.66455284552838","768","428","f","true","img/C_28.png","自我","prac_friend","","自我"
"","","","","","html-keyboard-response","259","781543","0.0-16.0-0.0-1.10","null","<span style='color:GreenYellow; font-size: 70px;'>正确! </span>","null","","","","","","","","","","","","","","","","","","","","","","","feedback_test",""
"","","","","","psychophysics","260","783580","0.0-16.0-0.0-0.11","1024","","d","","","","","","","","","","","","","key","d","16.66446280991755","768","428","d","true","img/C_28.png","朋友","prac_friend","","自我"
"","","","","","html-keyboard-response","261","783884","0.0-16.0-0.0-1.11","null","<span style='color:GreenYellow; font-size: 70px;'>正确! </span>","null","","","","","","","","","","","","","","","","","","","","","","","feedback_test",""
"","","","","","psychophysics","262","785773","0.0-16.0-0.0-0.12","875","","j","","","","","","","","","","","","","key","j","16.660714285714285","768","428","j","true","img/H_28.png","朋友","prac_friend","","朋友"
"","","","","","html-keyboard-response","263","786088","0.0-16.0-0.0-1.12","null","<span style='color:GreenYellow; font-size: 70px;'>正确! </span>","null","","","","","","","","","","","","","","","","","","","","","","","feedback_test",""
"","","","","","psychophysics","264","787984","0.0-16.0-0.0-0.13","875","","f","","","","","","","","","","","","","key","f","16.663928571428446","768","428","f","true","img/C_28.png","自我","prac_friend","","自我"
"","","","","","html-keyboard-response","265","788288","0.0-16.0-0.0-1.13","null","<span style='color:GreenYellow; font-size: 70px;'>正确! </span>","null","","","","","","","","","","","","","","","","","","","","","","","feedback_test",""
"","","","","","psychophysics","266","790075","0.0-16.0-0.0-0.14","767","","d","","","","","","","","","","","","","key","d","16.664339622640806","768","428","d","true","img/S_28.png","朋友","prac_friend","","生人"
"","","","","","html-keyboard-response","267","790388","0.0-16.0-0.0-1.14","null","<span style='color:GreenYellow; font-size: 70px;'>正确! </span>","null","","","","","","","","","","","","","","","","","","","","","","","feedback_test",""
"","","","","","psychophysics","268","792195","0.0-16.0-0.0-0.15","792","","f","","","","","","","","","","","","","key","f","16.662990654205085","768","428","f","true","img/S_28.png","生人","prac_friend","","生人"
"","","","","","html-keyboard-response","269","792502","0.0-16.0-0.0-1.15","null","<span style='color:GreenYellow; font-size: 70px;'>正确! </span>","null","","","","","","","","","","","","","","","","","","","","","","","feedback_test",""
"","","","","","psychophysics","270","794345","0.0-16.0-0.0-0.16","827","","f","","","","","","","","","","","","","key","f","16.664587155963858","768","428","j","false","img/H_28.png","朋友","prac_friend","","朋友"
"","","","","","html-keyboard-response","271","794658","0.0-16.0-0.0-1.16","null","<span style='color:red; font-size: 70px;'>错误! </span>","null","","","","","","","","","","","","","","","","","","","","","","","feedback_test",""
"","","","","","psychophysics","272","797163","0.0-16.0-0.0-0.17","null","","null","","","","","","","","","","","","","key","null","16.6637583892619","768","428","k","false","img/H_28.png","生人","prac_friend","","朋友"
"","","","","","html-keyboard-response","273","797472","0.0-16.0-0.0-1.17","null","<span class='add_' style='color:yellow; font-size: 70px;'> 太慢! </span>","null","","","","","","","","","","","","","","","","","","","","","","","feedback_test",""
"","","","","","psychophysics","274","799990","0.0-16.0-0.0-0.18","null","","null","","","","","","","","","","","","","key","null","16.662533333333364","768","428","k","false","img/H_28.png","自我","prac_friend","","朋友"
"","","","","","html-keyboard-response","275","800308","0.0-16.0-0.0-1.18","null","<span class='add_' style='color:yellow; font-size: 70px;'> 太慢! </span>","null","","","","","","","","","","","","","","","","","","","","","","","feedback_test",""
"","","","","","psychophysics","276","802830","0.0-16.0-0.0-0.19","null","","null","","","","","","","","","","","","","key","null","16.664533333333676","768","428","d","false","img/S_28.png","自我","prac_friend","","生人"
"","","","","","html-keyboard-response","277","803148","0.0-16.0-0.0-1.19","null","<span class='add_' style='color:yellow; font-size: 70px;'> 太慢! </span>","null","","","","","","","","","","","","","","","","","","","","","","","feedback_test",""
"","","","","","psychophysics","278","804895","0.0-16.0-0.0-0.20","726","","f","","","","","","","","","","","","","key","f","16.660194174757283","768","428","f","true","img/S_28.png","生人","prac_friend","","生人"
"","","","","","html-keyboard-response","279","805208","0.0-16.0-0.0-1.20","null","<span style='color:GreenYellow; font-size: 70px;'>正确! </span>","null","","","","","","","","","","","","","","","","","","","","","","","feedback_test",""
"","","","","","psychophysics","280","807022","0.0-16.0-0.0-0.21","809","","f","","","","","","","","","","","","","key","f","16.66444444444453","768","428","f","true","img/C_28.png","自我","prac_friend","","自我"
"","","","","","html-keyboard-response","281","807335","0.0-16.0-0.0-1.21","null","<span style='color:GreenYellow; font-size: 70px;'>正确! </span>","null","","","","","","","","","","","","","","","","","","","","","","","feedback_test",""
"","","","","","psychophysics","282","809073","0.0-16.0-0.0-0.22","729","","f","","","","","","","","","","","","","key","f","16.662912621359496","768","428","d","false","img/C_28.png","朋友","prac_friend","","自我"
"","","","","","html-keyboard-response","283","809378","0.0-16.0-0.0-1.22","null","<span style='color:red; font-size: 70px;'>错误! </span>","null","","","","","","","","","","","","","","","","","","","","","","","feedback_test",""
"","","","","","psychophysics","284","811375","0.0-16.0-0.0-0.23","974","","j","","","","","","","","","","","","","key","j","16.664033613445536","768","428","d","false","img/C_28.png","生人","prac_friend","","自我"
"","","","","","html-keyboard-response","285","811686","0.0-16.0-0.0-1.23","null","<span style='color:red; font-size: 70px;'>错误! </span>","null","","","","","","","","","","","","","","","","","","","","","","","feedback_test",""
"","","","","","html-keyboard-response","286","817779","0.0-16.0-1.0-0.0","6090","<style>.context{color:white; font-size: 35px; line-height:40px}</style>                              <div><p class='context'>您正确回答了54% 的试次。</p><p class='context'>您的平均反应时为903毫秒。</p>"," ","","","","","","","","","","","","","","","","","","","","","","","",""
"","","","","","instructions","287","842145","0.0-16.0-1.0-1.0","24365","","","","","","","","","","","","","","[{""page_index"":0,""viewing_time"":16379},{""page_index"":1,""viewing_time"":6649},{""page_index"":2,""viewing_time"":1337}]","","","","","","","","","","","",""
"","","","","","psychophysics","288","843811","0.0-16.1-0.1-0.24","647","","j","","","","","","","","","","","","","key","j","16.66448979591832","768","428","f","false","img/C_28.png","自我","prac_friend","","自我"
"","","","","","html-keyboard-response","289","844128","0.0-16.1-0.1-1.24","null","<span style='color:red; font-size: 70px;'>错误! </span>","null","","","","","","","","","","","","","","","","","","","","","","","feedback_test",""
"","","","","","psychophysics","290","845754","0.0-16.1-0.1-0.25","622","","j","","","","","","","","","","","","","key","j","16.660625000000437","768","428","d","false","img/S_28.png","自我","prac_friend","","生人"
"","","","","","html-keyboard-response","291","846058","0.0-16.1-0.1-1.25","null","<span style='color:red; font-size: 70px;'>错误! </span>","null","","","","","","","","","","","","","","","","","","","","","","","feedback_test",""
"","","","","","psychophysics","292","847697","0.0-16.1-0.1-0.26","616","","j","","","","","","","","","","","","","key","j","16.66453608247384","768","428","d","false","img/S_28.png","朋友","prac_friend","","生人"
"","","","","","html-keyboard-response","293","848018","0.0-16.1-0.1-1.26","null","<span style='color:red; font-size: 70px;'>错误! </span>","null","","","","","","","","","","","","","","","","","","","","","","","feedback_test",""
"","","","","","psychophysics","294","850235","0.0-16.1-0.1-0.27","1197","","f","","","","","","","","","","","","","key","f","16.662424242424702","768","428","f","true","img/S_28.png","生人","prac_friend","","生人"
"","","","","","html-keyboard-response","295","850539","0.0-16.1-0.1-1.27","null","<span style='color:GreenYellow; font-size: 70px;'>正确! </span>","null","","","","","","","","","","","","","","","","","","","","","","","feedback_test",""
"","","","","","psychophysics","296","852241","0.0-16.1-0.1-0.28","695","","f","","","","","","","","","","","","","key","f","16.663960396039005","768","428","d","false","img/C_28.png","朋友","prac_friend","","自我"
"","","","","","html-keyboard-response","297","852550","0.0-16.1-0.1-1.28","null","<span style='color:red; font-size: 70px;'>错误! </span>","null","","","","","","","","","","","","","","","","","","","","","","","feedback_test",""
"","","","","","psychophysics","298","855062","0.0-16.1-0.1-0.29","null","","null","","","","","","","","","","","","","key","null","16.664533333332898","768","428","k","false","img/H_28.png","自我","prac_friend","","朋友"
"","","","","","html-keyboard-response","299","855378","0.0-16.1-0.1-1.29","null","<span class='add_' style='color:yellow; font-size: 70px;'> 太慢! </span>","null","","","","","","","","","","","","","","","","","","","","","","","feedback_test",""
"","","","","","psychophysics","300","857887","0.0-16.1-0.1-0.30","null","","null","","","","","","","","","","","","","key","null","16.66214765100693","768","428","d","false","img/C_28.png","生人","prac_friend","","自我"
"","","","","","html-keyboard-response","301","858194","0.0-16.1-0.1-1.30","null","<span class='add_' style='color:yellow; font-size: 70px;'> 太慢! </span>","null","","","","","","","","","","","","","","","","","","","","","","","feedback_test",""
"","","","","","psychophysics","302","859582","0.0-16.1-0.1-0.31","374","","f","","","","","","","","","","","","","key","f","16.66146341463403","768","428","k","false","img/H_28.png","生人","prac_friend","","朋友"
"","","","","","html-keyboard-response","303","859889","0.0-16.1-0.1-1.31","null","<span style='color:red; font-size: 70px;'>错误! </span>","null","","","","","","","","","","","","","","","","","","","","","","","feedback_test",""
"","","","","","psychophysics","304","861698","0.0-16.1-0.1-0.32","798","","j","","","","","","","","","","","","","key","j","16.66444444444453","768","428","j","true","img/H_28.png","朋友","prac_friend","","朋友"
"","","","","","html-keyboard-response","305","862018","0.0-16.1-0.1-1.32","null","<span style='color:GreenYellow; font-size: 70px;'>正确! </span>","null","","","","","","","","","","","","","","","","","","","","","","","feedback_test",""
"","","","","","psychophysics","306","863927","0.0-16.1-0.1-0.33","899","","f","","","","","","","","","","","","","key","f","16.661415929203457","768","428","f","true","img/C_28.png","自我","prac_friend","","自我"
"","","","","","html-keyboard-response","307","864248","0.0-16.1-0.1-1.33","null","<span style='color:GreenYellow; font-size: 70px;'>正确! </span>","null","","","","","","","","","","","","","","","","","","","","","","","feedback_test",""
"","","","","","psychophysics","308","866154","0.0-16.1-0.1-0.34","885","","f","","","","","","","","","","","","","key","f","16.663008849557894","768","428","f","true","img/S_28.png","生人","prac_friend","","生人"
"","","","","","html-keyboard-response","309","866464","0.0-16.1-0.1-1.34","null","<span style='color:GreenYellow; font-size: 70px;'>正确! </span>","null","","","","","","","","","","","","","","","","","","","","","","","feedback_test",""
"","","","","","psychophysics","310","868232","0.0-16.1-0.1-0.35","761","","j","","","","","","","","","","","","","key","j","16.66438095238104","768","428","j","true","img/H_28.png","朋友","prac_friend","","朋友"
"","","","","","html-keyboard-response","311","868537","0.0-16.1-0.1-1.35","null","<span style='color:GreenYellow; font-size: 70px;'>正确! </span>","null","","","","","","","","","","","","","","","","","","","","","","","feedback_test",""
"","","","","","psychophysics","312","870264","0.0-16.1-0.1-0.36","715","","j","","","","","","","","","","","","","key","j","16.664466019418064","768","428","j","true","img/H_28.png","朋友","prac_friend","","朋友"
"","","","","","html-keyboard-response","313","870568","0.0-16.1-0.1-1.36","null","<span style='color:GreenYellow; font-size: 70px;'>正确! </span>","null","","","","","","","","","","","","","","","","","","","","","","","feedback_test",""
"","","","","","psychophysics","314","872316","0.0-16.1-0.1-0.37","739","","f","","","","","","","","","","","","","key","f","16.664615384615338","768","428","f","true","img/C_28.png","自我","prac_friend","","自我"
"","","","","","html-keyboard-response","315","872629","0.0-16.1-0.1-1.37","null","<span style='color:GreenYellow; font-size: 70px;'>正确! </span>","null","","","","","","","","","","","","","","","","","","","","","","","feedback_test",""
"","","","","","psychophysics","316","874591","0.0-16.1-0.1-0.38","954","","d","","","","","","","","","","","","","key","d","16.664482758620327","768","428","d","true","img/S_28.png","自我","prac_friend","","生人"
"","","","","","html-keyboard-response","317","874899","0.0-16.1-0.1-1.38","null","<span style='color:GreenYellow; font-size: 70px;'>正确! </span>","null","","","","","","","","","","","","","","","","","","","","","","","feedback_test",""
"","","","","","psychophysics","318","876798","0.0-16.1-0.1-0.39","900","","f","","","","","","","","","","","","","key","f","16.662123893804857","768","428","k","false","img/H_28.png","自我","prac_friend","","朋友"
"","","","","","html-keyboard-response","319","877103","0.0-16.1-0.1-1.39","null","<span style='color:red; font-size: 70px;'>错误! </span>","null","","","","","","","","","","","","","","","","","","","","","","","feedback_test",""
"","","","","","psychophysics","320","879066","0.0-16.1-0.1-0.40","962","","j","","","","","","","","","","","","","key","j","16.66444444444536","768","428","d","false","img/S_28.png","朋友","prac_friend","","生人"
"","","","","","html-keyboard-response","321","879368","0.0-16.1-0.1-1.40","null","<span style='color:red; font-size: 70px;'>错误! </span>","null","","","","","","","","","","","","","","","","","","","","","","","feedback_test",""
"","","","","","psychophysics","322","881613","0.0-16.1-0.1-0.41","1237","","d","","","","","","","","","","","","","key","d","16.664477611940576","768","428","d","true","img/C_28.png","生人","prac_friend","","自我"
"","","","","","html-keyboard-response","323","881921","0.0-16.1-0.1-1.41","null","<span style='color:GreenYellow; font-size: 70px;'>正确! </span>","null","","","","","","","","","","","","","","","","","","","","","","","feedback_test",""
"","","","","","psychophysics","324","883721","0.0-16.1-0.1-0.42","790","","d","","","","","","","","","","","","","key","d","16.662830188679333","768","428","f","false","img/S_28.png","生人","prac_friend","","生人"
"","","","","","html-keyboard-response","325","884028","0.0-16.1-0.1-1.42","null","<span style='color:red; font-size: 70px;'>错误! </span>","null","","","","","","","","","","","","","","","","","","","","","","","feedback_test",""
"","","","","","psychophysics","326","885704","0.0-16.1-0.1-0.43","661","","f","","","","","","","","","","","","","key","f","16.664444444444726","768","428","f","true","img/C_28.png","自我","prac_friend","","自我"
"","","","","","html-keyboard-response","327","886008","0.0-16.1-0.1-1.43","null","<span style='color:GreenYellow; font-size: 70px;'>正确! </span>","null","","","","","","","","","","","","","","","","","","","","","","","feedback_test",""
"","","","","","psychophysics","328","887879","0.0-16.1-0.1-0.44","868","","d","","","","","","","","","","","","","key","d","16.660540540541128","768","428","d","true","img/C_28.png","朋友","prac_friend","","自我"
"","","","","","html-keyboard-response","329","888189","0.0-16.1-0.1-1.44","null","<span style='color:GreenYellow; font-size: 70px;'>正确! </span>","null","","","","","","","","","","","","","","","","","","","","","","","feedback_test",""
"","","","","","psychophysics","330","890038","0.0-16.1-0.1-0.45","835","","f","","","","","","","","","","","","","key","f","16.664220183486453","768","428","f","true","img/S_28.png","生人","prac_friend","","生人"
"","","","","","html-keyboard-response","331","890339","0.0-16.1-0.1-1.45","null","<span style='color:GreenYellow; font-size: 70px;'>正确! </span>","null","","","","","","","","","","","","","","","","","","","","","","","feedback_test",""
"","","","","","psychophysics","332","892468","0.0-16.1-0.1-0.46","1110","","f","","","","","","","","","","","","","key","f","16.66174603174607","768","428","k","false","img/H_28.png","生人","prac_friend","","朋友"
"","","","","","html-keyboard-response","333","892779","0.0-16.1-0.1-1.46","null","<span style='color:red; font-size: 70px;'>错误! </span>","null","","","","","","","","","","","","","","","","","","","","","","","feedback_test",""
"","","","","","psychophysics","334","894741","0.0-16.1-0.1-0.47","949","","j","","","","","","","","","","","","","key","j","16.66034188034196","768","428","j","true","img/H_28.png","朋友","prac_friend","","朋友"
"","","","","","html-keyboard-response","335","895048","0.0-16.1-0.1-1.47","null","<span style='color:GreenYellow; font-size: 70px;'>正确! </span>","null","","","","","","","","","","","","","","","","","","","","","","","feedback_test",""
"","","","","","html-keyboard-response","336","897039","0.0-16.1-1.1-0.1","1989","<style>.context{color:white; font-size: 35px; line-height:40px}</style>                              <div><p class='context'>您正确回答了54% 的试次。</p><p class='context'>您的平均反应时为884毫秒。</p>"," ","","","","","","","","","","","","","","","","","","","","","","","",""
"","","","","","instructions","337","902346","0.0-16.1-1.1-1.1","5306","","","","","","","","","","","","","","[{""page_index"":0,""viewing_time"":1982},{""page_index"":1,""viewing_time"":2249},{""page_index"":2,""viewing_time"":1075}]","","","","","","","","","","","",""
"","","","","","psychophysics","338","904793","0.0-16.2-0.2-0.48","1443","","k","","","","","","","","","","","","","key","k","16.664413793103222","768","428","d","false","img/S_28.png","朋友","prac_friend","","生人"
"","","","","","html-keyboard-response","339","905109","0.0-16.2-0.2-1.48","null","<span style='color:red; font-size: 70px;'>错误! </span>","null","","","","","","","","","","","","","","","","","","","","","","","feedback_test",""
"","","","","","psychophysics","340","906918","0.0-16.2-0.2-0.49","801","","j","","","","","","","","","","","","","key","j","16.66429906542017","768","428","j","true","img/H_28.png","朋友","prac_friend","","朋友"
"","","","","","html-keyboard-response","341","907229","0.0-16.2-0.2-1.49","null","<span style='color:GreenYellow; font-size: 70px;'>正确! </span>","null","","","","","","","","","","","","","","","","","","","","","","","feedback_test",""
"","","","","","psychophysics","342","909010","0.0-16.2-0.2-0.50","770","","f","","","","","","","","","","","","","key","f","16.66301886792479","768","428","f","true","img/S_28.png","生人","prac_friend","","生人"
"","","","","","html-keyboard-response","343","909328","0.0-16.2-0.2-1.50","null","<span style='color:GreenYellow; font-size: 70px;'>正确! </span>","null","","","","","","","","","","","","","","","","","","","","","","","feedback_test",""
"","","","","","psychophysics","344","911027","0.0-16.2-0.2-0.51","686","","f","","","","","","","","","","","","","key","f","16.661386138614322","768","428","d","false","img/C_28.png","生人","prac_friend","","自我"
"","","","","","html-keyboard-response","345","911338","0.0-16.2-0.2-1.51","null","<span style='color:red; font-size: 70px;'>错误! </span>","null","","","","","","","","","","","","","","","","","","","","","","","feedback_test",""
"","","","","","psychophysics","346","913351","0.0-16.2-0.2-0.52","1007","","d","","","","","","","","","","","","","key","d","16.66436974789963","768","428","k","false","img/H_28.png","生人","prac_friend","","朋友"
"","","","","","html-keyboard-response","347","913669","0.0-16.2-0.2-1.52","null","<span style='color:red; font-size: 70px;'>错误! </span>","null","","","","","","","","","","","","","","","","","","","","","","","feedback_test",""
"","","","","","psychophysics","348","915440","0.0-16.2-0.2-0.53","750","","f","","","","","","","","","","","","","key","f","16.658476190476325","768","428","f","true","img/C_28.png","自我","prac_friend","","自我"
"","","","","","html-keyboard-response","349","915749","0.0-16.2-0.2-1.53","null","<span style='color:GreenYellow; font-size: 70px;'>正确! </span>","null","","","","","","","","","","","","","","","","","","","","","","","feedback_test",""
"","","","","","psychophysics","350","917575","0.0-16.2-0.2-0.54","816","","f","","","","","","","","","","","","","key","f","16.66458715596279","768","428","f","true","img/C_28.png","自我","prac_friend","","自我"
"","","","","","html-keyboard-response","351","917891","0.0-16.2-0.2-1.54","null","<span style='color:GreenYellow; font-size: 70px;'>正确! </span>","null","","","","","","","","","","","","","","","","","","","","","","","feedback_test",""
"","","","","","psychophysics","352","919884","0.0-16.2-0.2-0.55","985","","k","","","","","","","","","","","","","key","k","16.664406779661213","768","428","k","true","img/H_28.png","自我","prac_friend","","朋友"
"","","","","","html-keyboard-response","353","920188","0.0-16.2-0.2-1.55","null","<span style='color:GreenYellow; font-size: 70px;'>正确! </span>","null","","","","","","","","","","","","","","","","","","","","","","","feedback_test",""
"","","","","","psychophysics","354","922033","0.0-16.2-0.2-0.56","824","","j","","","","","","","","","","","","","key","j","16.664403669725154","768","428","j","true","img/H_28.png","朋友","prac_friend","","朋友"
"","","","","","html-keyboard-response","355","922348","0.0-16.2-0.2-1.56","null","<span style='color:GreenYellow; font-size: 70px;'>正确! </span>","null","","","","","","","","","","","","","","","","","","","","","","","feedback_test",""
"","","","","","psychophysics","356","924578","0.0-16.2-0.2-0.57","1207","","d","","","","","","","","","","","","","key","d","16.664511278195523","768","428","d","true","img/C_28.png","朋友","prac_friend","","自我"
"","","","","","html-keyboard-response","357","924888","0.0-16.2-0.2-1.57","null","<span style='color:GreenYellow; font-size: 70px;'>正确! </span>","null","","","","","","","","","","","","","","","","","","","","","","","feedback_test",""
"","","","","","psychophysics","358","926995","0.0-16.2-0.2-0.58","1097","","d","","","","","","","","","","","","","key","d","16.66239999999944","768","428","d","true","img/S_28.png","自我","prac_friend","","生人"
"","","","","","html-keyboard-response","359","927308","0.0-16.2-0.2-1.58","null","<span style='color:GreenYellow; font-size: 70px;'>正确! </span>","null","","","","","","","","","","","","","","","","","","","","","","","feedback_test",""
"","","","","","psychophysics","360","929179","0.0-16.2-0.2-0.59","858","","f","","","","","","","","","","","","","key","f","16.66450450450459","768","428","f","true","img/S_28.png","生人","prac_friend","","生人"
"","","","","","html-keyboard-response","361","929488","0.0-16.2-0.2-1.59","null","<span style='color:GreenYellow; font-size: 70px;'>正确! </span>","null","","","","","","","","","","","","","","","","","","","","","","","feedback_test",""
"","","","","","psychophysics","362","931502","0.0-16.2-0.2-0.60","993","","d","","","","","","","","","","","","","key","d","16.66349999999996","768","428","d","true","img/S_28.png","朋友","prac_friend","","生人"
"","","","","","html-keyboard-response","363","931807","0.0-16.2-0.2-1.60","null","<span style='color:GreenYellow; font-size: 70px;'>正确! </span>","null","","","","","","","","","","","","","","","","","","","","","","","feedback_test",""
"","","","","","psychophysics","364","933644","0.0-16.2-0.2-0.61","835","","f","","","","","","","","","","","","","key","f","16.66348623853164","768","428","f","true","img/S_28.png","生人","prac_friend","","生人"
"","","","","","html-keyboard-response","365","933947","0.0-16.2-0.2-1.61","null","<span style='color:GreenYellow; font-size: 70px;'>正确! </span>","null","","","","","","","","","","","","","","","","","","","","","","","feedback_test",""
"","","","","","psychophysics","366","935875","0.0-16.2-0.2-0.62","916","","d","","","","","","","","","","","","","key","d","16.6643859649122","768","428","d","true","img/C_28.png","生人","prac_friend","","自我"
"","","","","","html-keyboard-response","367","936188","0.0-16.2-0.2-1.62","null","<span style='color:GreenYellow; font-size: 70px;'>正确! </span>","null","","","","","","","","","","","","","","","","","","","","","","","feedback_test",""
"","","","","","psychophysics","368","938425","0.0-16.2-0.2-0.63","1220","","d","","","","","","","","","","","","","key","d","16.66120300751925","768","428","d","true","img/C_28.png","朋友","prac_friend","","自我"
"","","","","","html-keyboard-response","369","938736","0.0-16.2-0.2-1.63","null","<span style='color:GreenYellow; font-size: 70px;'>正确! </span>","null","","","","","","","","","","","","","","","","","","","","","","","feedback_test",""
"","","","","","psychophysics","370","940477","0.0-16.2-0.2-0.64","694","","f","","","","","","","","","","","","","key","f","19.567441860465657","768","428","f","true","img/C_28.png","自我","prac_friend","","自我"
"","","","","","html-keyboard-response","371","940790","0.0-16.2-0.2-1.64","null","<span style='color:GreenYellow; font-size: 70px;'>正确! </span>","null","","","","","","","","","","","","","","","","","","","","","","","feedback_test",""
"","","","","","psychophysics","372","942580","0.0-16.2-0.2-0.65","774","","d","","","","","","","","","","","","","key","d","16.661698113207677","768","428","f","false","img/S_28.png","生人","prac_friend","","生人"
"","","","","","html-keyboard-response","373","942889","0.0-16.2-0.2-1.65","null","<span style='color:red; font-size: 70px;'>错误! </span>","null","","","","","","","","","","","","","","","","","","","","","","","feedback_test",""
"","","","","","psychophysics","374","944707","0.0-16.2-0.2-0.66","809","","j","","","","","","","","","","","","","key","j","16.66444444444453","768","428","j","true","img/H_28.png","朋友","prac_friend","","朋友"
"","","","","","html-keyboard-response","375","945028","0.0-16.2-0.2-1.66","null","<span style='color:GreenYellow; font-size: 70px;'>正确! </span>","null","","","","","","","","","","","","","","","","","","","","","","","feedback_test",""
"","","","","","psychophysics","376","946872","0.0-16.2-0.2-0.67","835","","j","","","","","","","","","","","","","key","j","16.661090909090657","768","428","j","true","img/H_28.png","朋友","prac_friend","","朋友"
"","","","","","html-keyboard-response","377","947173","0.0-16.2-0.2-1.67","null","<span style='color:GreenYellow; font-size: 70px;'>正确! </span>","null","","","","","","","","","","","","","","","","","","","","","","","feedback_test",""
"","","","","","psychophysics","378","949366","0.0-16.2-0.2-0.68","1183","","k","","","","","","","","","","","","","key","k","16.6615267175575","768","428","k","true","img/H_28.png","自我","prac_friend","","朋友"
"","","","","","html-keyboard-response","379","949679","0.0-16.2-0.2-1.68","null","<span style='color:GreenYellow; font-size: 70px;'>正确! </span>","null","","","","","","","","","","","","","","","","","","","","","","","feedback_test",""
"","","","","","psychophysics","380","951426","0.0-16.2-0.2-0.69","742","","f","","","","","","","","","","","","","key","f","16.65941747572743","768","428","f","true","img/C_28.png","自我","prac_friend","","自我"
"","","","","","html-keyboard-response","381","951734","0.0-16.2-0.2-1.69","null","<span style='color:GreenYellow; font-size: 70px;'>正确! </span>","null","","","","","","","","","","","","","","","","","","","","","","","feedback_test",""
"","","","","","psychophysics","382","953588","0.0-16.2-0.2-0.70","851","","d","","","","","","","","","","","","","key","d","16.664545454545244","768","428","d","true","img/S_28.png","自我","prac_friend","","生人"
"","","","","","html-keyboard-response","383","953898","0.0-16.2-0.2-1.70","null","<span style='color:GreenYellow; font-size: 70px;'>正确! </span>","null","","","","","","","","","","","","","","","","","","","","","","","feedback_test",""
"","","","","","psychophysics","384","955920","0.0-16.2-0.2-0.71","1020","","k","","","","","","","","","","","","","key","k","16.6643333333331","768","428","k","true","img/H_28.png","生人","prac_friend","","朋友"
"","","","","","html-keyboard-response","385","956233","0.0-16.2-0.2-1.71","null","<span style='color:GreenYellow; font-size: 70px;'>正确! </span>","null","","","","","","","","","","","","","","","","","","","","","","","feedback_test",""
"","","","","","html-keyboard-response","386","965484","0.0-17.0","9247","[""<style>.context{color:white; font-size: 35px; line-height:40px}</style>                  <div><p class='context'>您正确回答了83% 的试次。</p><p class='context'>您的平均反应时为910毫秒。</p><p class='context'>恭喜您完成这一阶段的练习。按任意键进入<span style='color: yellow;'>重点关注图形为“生人”</span>的练习。</p></div><p class='footer' style='font-size:35px; line-height:30px;'>任务要求：\n                  <p class='footer' style='font-size:35px; line-height:35px;'>对与“生人”对应的图形，如果 匹配 ，请按 <span style=\""color: lightgreen;\"">j键</span></p><p class='footer' style='font-size:35px'>如果 不匹配 ，请按<span style=\""color: lightgreen;\"">k键</p></span>\n                  <p class='footer' style='font-size:35px; line-height:35px;'>对非“生人”对应的图形，如果 匹配 ，请按 <span style=\""color: lightgreen;\"">f键</span></p><p class='footer' style='font-size:35px'>如果 不匹配 ，请按<span style=\""color: lightgreen;\"">d键</p></span>\n                  <p class='footer' style='font-size:22px; line-height:25px;'>请在实验过程中将您的<span style=\""color: lightgreen;\"">食指和中指</span>放在电脑键盘的相应键位上进行按键。</p></span>""]"," ","","","","","","","","","","","","","","","","","","","","","","","",""
"","","","","","psychophysics","387","967292","0.0-18.0-0.0-0.0","793","","k","","","","","","","","","","","","","key","k","16.664112149532144","768","428","k","true","img/S_28.png","朋友","prac_stranger","","生人"
"","","","","","html-keyboard-response","388","967608","0.0-18.0-0.0-1.0","null","<span style='color:GreenYellow; font-size: 70px;'>正确! </span>","null","","","","","","","","","","","","","","","","","","","","","","","feedback_test",""
"","","","","","psychophysics","389","969135","0.0-18.0-0.0-0.1","517","","d","","","","","","","","","","","","","key","d","16.66461538461518","768","428","f","false","img/C_28.png","自我","prac_stranger","","自我"
"","","","","","html-keyboard-response","390","969448","0.0-18.0-0.0-1.1","null","<span style='color:red; font-size: 70px;'>错误! </span>","null","","","","","","","","","","","","","","","","","","","","","","","feedback_test",""
"","","","","","psychophysics","391","971440","0.0-18.0-0.0-0.2","972","","k","","","","","","","","","","","","","key","k","16.662711864406386","768","428","d","false","img/H_28.png","生人","prac_stranger","","朋友"
"","","","","","html-keyboard-response","392","971754","0.0-18.0-0.0-1.2","null","<span style='color:red; font-size: 70px;'>错误! </span>","null","","","","","","","","","","","","","","","","","","","","","","","feedback_test",""
"","","","","","psychophysics","393","973845","0.0-18.0-0.0-0.3","1080","","d","","","","","","","","","","","","","key","d","16.664516129031508","768","428","d","true","img/C_28.png","朋友","prac_stranger","","自我"
"","","","","","html-keyboard-response","394","974148","0.0-18.0-0.0-1.3","null","<span style='color:GreenYellow; font-size: 70px;'>正确! </span>","null","","","","","","","","","","","","","","","","","","","","","","","feedback_test",""
"","","","","","psychophysics","395","976665","0.0-18.0-0.0-0.4","null","","null","","","","","","","","","","","","","key","null","16.663733333333706","768","428","k","false","img/S_28.png","自我","prac_stranger","","生人"
"","","","","","html-keyboard-response","396","976971","0.0-18.0-0.0-1.4","null","<span class='add_' style='color:yellow; font-size: 70px;'> 太慢! </span>","null","","","","","","","","","","","","","","","","","","","","","","","feedback_test",""
"","","","","","psychophysics","397","979009","0.0-18.0-0.0-0.5","1028","","d","","","","","","","","","","","","","key","d","16.664132231404842","768","428","d","true","img/C_28.png","生人","prac_stranger","","自我"
"","","","","","html-keyboard-response","398","979318","0.0-18.0-0.0-1.5","null","<span style='color:GreenYellow; font-size: 70px;'>正确! </span>","null","","","","","","","","","","","","","","","","","","","","","","","feedback_test",""
"","","","","","psychophysics","399","981833","0.0-18.0-0.0-0.6","null","","null","","","","","","","","","","","","","key","null","16.664533333333676","768","428","f","false","img/H_28.png","朋友","prac_stranger","","朋友"
"","","","","","html-keyboard-response","400","982139","0.0-18.0-0.0-1.6","null","<span class='add_' style='color:yellow; font-size: 70px;'> 太慢! </span>","null","","","","","","","","","","","","","","","","","","","","","","","feedback_test",""
"","","","","","psychophysics","401","984200","0.0-18.0-0.0-0.7","1050","","j","","","","","","","","","","","","","key","j","16.663902439024657","768","428","j","true","img/S_28.png","生人","prac_stranger","","生人"
"","","","","","html-keyboard-response","402","984519","0.0-18.0-0.0-1.7","null","<span style='color:GreenYellow; font-size: 70px;'>正确! </span>","null","","","","","","","","","","","","","","","","","","","","","","","feedback_test",""
"","","","","","psychophysics","403","986219","0.0-18.0-0.0-0.8","679","","f","","","","","","","","","","","","","key","f","16.66079207920783","768","428","f","true","img/C_28.png","自我","prac_stranger","","自我"
"","","","","","html-keyboard-response","404","986524","0.0-18.0-0.0-1.8","null","<span style='color:GreenYellow; font-size: 70px;'>正确! </span>","null","","","","","","","","","","","","","","","","","","","","","","","feedback_test",""
"","","","","","psychophysics","405","988442","0.0-18.0-0.0-0.9","911","","d","","","","","","","","","","","","","key","d","16.664601769911297","768","428","d","true","img/H_28.png","自我","prac_stranger","","朋友"
"","","","","","html-keyboard-response","406","988749","0.0-18.0-0.0-1.9","null","<span style='color:GreenYellow; font-size: 70px;'>正确! </span>","null","","","","","","","","","","","","","","","","","","","","","","","feedback_test",""
"","","","","","psychophysics","407","990434","0.0-18.0-0.0-0.10","665","","j","","","","","","","","","","","","","key","j","16.663000000000466","768","428","j","true","img/S_28.png","生人","prac_stranger","","生人"
"","","","","","html-keyboard-response","408","990748","0.0-18.0-0.0-1.10","null","<span style='color:GreenYellow; font-size: 70px;'>正确! </span>","null","","","","","","","","","","","","","","","","","","","","","","","feedback_test",""
"","","","","","psychophysics","409","992883","0.0-18.0-0.0-0.11","1128","","f","","","","","","","","","","","","","key","f","16.66377952755942","768","428","f","true","img/H_28.png","朋友","prac_stranger","","朋友"
"","","","","","html-keyboard-response","410","993195","0.0-18.0-0.0-1.11","null","<span style='color:GreenYellow; font-size: 70px;'>正确! </span>","null","","","","","","","","","","","","","","","","","","","","","","","feedback_test",""
"","","","","","psychophysics","411","995016","0.0-18.0-0.0-0.12","818","","f","","","","","","","","","","","","","key","f","16.662037037037038","768","428","d","false","img/H_28.png","生人","prac_stranger","","朋友"
"","","","","","html-keyboard-response","412","995318","0.0-18.0-0.0-1.12","null","<span style='color:red; font-size: 70px;'>错误! </span>","null","","","","","","","","","","","","","","","","","","","","","","","feedback_test",""
"","","","","","psychophysics","413","997355","0.0-18.0-0.0-0.13","1017","","d","","","","","","","","","","","","","key","d","16.66446280991755","768","428","k","false","img/S_28.png","自我","prac_stranger","","生人"
"","","","","","html-keyboard-response","414","997658","0.0-18.0-0.0-1.13","null","<span style='color:red; font-size: 70px;'>错误! </span>","null","","","","","","","","","","","","","","","","","","","","","","","feedback_test",""
"","","","","","psychophysics","415","999984","0.0-18.0-0.0-0.14","1317","","f","","","","","","","","","","","","","key","f","16.664492753623694","768","428","d","false","img/C_28.png","朋友","prac_stranger","","自我"
"","","","","","html-keyboard-response","416","1000288","0.0-18.0-0.0-1.14","null","<span style='color:red; font-size: 70px;'>错误! </span>","null","","","","","","","","","","","","","","","","","","","","","","","feedback_test",""
"","","","","","psychophysics","417","1002066","0.0-18.0-0.0-0.15","772","","j","","","","","","","","","","","","","key","j","16.664528301886264","768","428","j","true","img/S_28.png","生人","prac_stranger","","生人"
"","","","","","html-keyboard-response","418","1002365","0.0-18.0-0.0-1.15","null","<span style='color:GreenYellow; font-size: 70px;'>正确! </span>","null","","","","","","","","","","","","","","","","","","","","","","","feedback_test",""
"","","","","","psychophysics","419","1004188","0.0-18.0-0.0-0.16","821","","f","","","","","","","","","","","","","key","f","16.66259259259203","768","428","f","true","img/H_28.png","朋友","prac_stranger","","朋友"
"","","","","","html-keyboard-response","420","1004498","0.0-18.0-0.0-1.16","null","<span style='color:GreenYellow; font-size: 70px;'>正确! </span>","null","","","","","","","","","","","","","","","","","","","","","","","feedback_test",""
"","","","","","psychophysics","421","1006325","0.0-18.0-0.0-0.17","808","","f","","","","","","","","","","","","","key","f","16.663853211010114","768","428","f","true","img/C_28.png","自我","prac_stranger","","自我"
"","","","","","html-keyboard-response","422","1006632","0.0-18.0-0.0-1.17","null","<span style='color:GreenYellow; font-size: 70px;'>正确! </span>","null","","","","","","","","","","","","","","","","","","","","","","","feedback_test",""
"","","","","","psychophysics","423","1008568","0.0-18.0-0.0-0.18","926","","d","","","","","","","","","","","","","key","d","16.664521739130798","768","428","d","true","img/H_28.png","自我","prac_stranger","","朋友"
"","","","","","html-keyboard-response","424","1008879","0.0-18.0-0.0-1.18","null","<span style='color:GreenYellow; font-size: 70px;'>正确! </span>","null","","","","","","","","","","","","","","","","","","","","","","","feedback_test",""
"","","","","","psychophysics","425","1010631","0.0-18.0-0.0-0.19","743","","j","","","","","","","","","","","","","key","j","16.66346153846154","768","428","j","true","img/S_28.png","生人","prac_stranger","","生人"
