"success","timeout","failed_images","failed_audio","failed_video","trial_type","trial_index","time_elapsed","internal_node_id","rt","stimulus","response","value","item_width_mm","item_height_mm","item_width_px","px2mm","view_dist_mm","item_width_deg","px2deg","scale_factor","win_width_deg","win_height_deg","view_history","response_type","key_press","avg_frame_time","center_x","center_y","correct_response","correct","Image","text","condition","screen_id","label"
"true","false","[]","[]","[]","preload","0","3024","0.0-0.0","","","","","","","","","","","","","","","","","","","","","","","","","","",""
"","","","","","html-keyboard-response","1","72728","0.0-1.0","69703","
  <p>您好，欢迎参加本次实验。</p>
  <p>为充分保障您的权利，请确保您已经知晓并同意《参与实验同意书》以及《数据公开知情同意书》。</p>
  <p>如果您未见过上述内容，请咨询实验员。</p>
  <p>如果您选择继续实验，则表示您已经清楚两份知情同意书的内容并同意。</p>
  <p> <div style = ""color: green""><按任意键至下页></div> </p>
  "," ","","","","","","","","","","","","","","","","","","","","","","","",""
"","","","","","html-keyboard-response","2","75159","0.0-2.0","2430","
  <p>本实验首先需要您填写一些基本个人信息。</p>
  <p> <div style = ""color: green""><按任意键至下页></div></p>
  "," ","","","","","","","","","","","","","","","","","","","","","","","",""
"","","","","","call-function","3","75161","0.0-3.0-0.0","","","","","","","","","","","","","","","","","","","","","","","","","","",""
"","","","","","survey-html-form","4","81869","0.0-3.0-1.0","6707","","{""Q0"":""61""}","","","","","","","","","","","","","","","","","","","","","","","",""
"","","","","","html-button-response","5","82853","0.0-3.0-2.0","982","<p style = 'color : white'>您的性别</p>","1","","","","","","","","","","","","","","","","","","","","","","","",""
"","","","","","survey-html-form","6","86764","0.0-3.0-3.0","3910","","{""Q0"":""2002""}","","","","","","","","","","","","","","","","","","","","","","","",""
"","","","","","survey-html-form","7","89364","0.0-3.0-4.0","2599","","{""Q0"":""5""}","","","","","","","","","","","","","","","","","","","","","","","",""
"","","","","","virtual-chinrest","8","184660","0.0-4.0","95294","","","","85.6","53.98","425.5768686616332","4.977085413161473","575.16","8.511537373232665","50","0.8318121262400132","38.4","19.38","","","","","","","","","","","","",""
"true","","","","","fullscreen","9","187043","0.0-5.0","","","","","","","","","","","","","","","","","","","","","","","","","","",""
"","","","","","instructions","10","301291","0.0-6.0","114247","","","","","","","","","","","","","","[{""page_index"":0,""viewing_time"":6359},{""page_index"":1,""viewing_time"":33840},{""page_index"":2,""viewing_time"":68920},{""page_index"":3,""viewing_time"":2800},{""page_index"":4,""viewing_time"":2328}]","","","","","","","","","","","",""
"","","","","","instructions","11","317764","0.0-7.0","16471","","","","","","","","","","","","","","[{""page_index"":0,""viewing_time"":16471}]","","","","","","","","","","","",""
"","","","","","psychophysics","12","320190","0.0-8.0-0.0-0.0","1415","","j","","","","","","","","","","","","","key","j","16.683131944444337","960","536","j","true","img/S_28.png","生人","freeprac_self","",""
"","","","","","html-keyboard-response","13","320495","0.0-8.0-0.0-1.0","null","<span style='color:GreenYellow; font-size: 70px;'>正确! </span>","null","","","","","","","","","","","","","","","","","","","","","","","feedback_test",""
"","","","","","psychophysics","14","322510","0.0-8.0-0.0-0.1","1014","","k","","","","","","","","","","","","","key","k","16.683252100840587","960","536","k","true","img/S_28.png","朋友","freeprac_self","",""
"","","","","","html-keyboard-response","15","322824","0.0-8.0-0.0-1.1","null","<span style='color:GreenYellow; font-size: 70px;'>正确! </span>","null","","","","","","","","","","","","","","","","","","","","","","","feedback_test",""
"","","","","","psychophysics","16","324590","0.0-8.0-0.0-0.2","758","","j","","","","","","","","","","","","","key","j","16.683409523809818","960","536","j","true","img/H_28.png","朋友","freeprac_self","",""
"","","","","","html-keyboard-response","17","324898","0.0-8.0-0.0-1.2","null","<span style='color:GreenYellow; font-size: 70px;'>正确! </span>","null","","","","","","","","","","","","","","","","","","","","","","","feedback_test",""
"","","","","","psychophysics","18","327022","0.0-8.0-0.0-0.3","1121","","f","","","","","","","","","","","","","key","f","16.683188976378062","960","536","f","true","img/C_28.png","自我","freeprac_self","",""
"","","","","","html-keyboard-response","19","327337","0.0-8.0-0.0-1.3","null","<span style='color:GreenYellow; font-size: 70px;'>正确! </span>","null","","","","","","","","","","","","","","","","","","","","","","","feedback_test",""
"","","","","","psychophysics","20","329046","0.0-8.0-0.0-0.4","701","","j","","","","","","","","","","","","","key","j","16.683871287128675","960","536","j","true","img/H_28.png","朋友","freeprac_self","",""
"","","","","","html-keyboard-response","21","329359","0.0-8.0-0.0-1.4","null","<span style='color:GreenYellow; font-size: 70px;'>正确! </span>","null","","","","","","","","","","","","","","","","","","","","","","","feedback_test",""
"","","","","","psychophysics","22","331294","0.0-8.0-0.0-0.5","922","","k","","","","","","","","","","","","","key","k","16.68340869565221","960","536","d","false","img/C_28.png","生人","freeprac_self","",""
"","","","","","html-keyboard-response","23","331602","0.0-8.0-0.0-1.5","null","<span style='color:red; font-size: 70px;'>错误! </span>","null","","","","","","","","","","","","","","","","","","","","","","","feedback_test",""
"","","","","","psychophysics","24","333606","0.0-8.0-0.0-0.6","999","","k","","","","","","","","","","","","","key","k","16.68326050420184","960","536","k","true","img/H_28.png","生人","freeprac_self","",""
"","","","","","html-keyboard-response","25","333914","0.0-8.0-0.0-1.6","null","<span style='color:GreenYellow; font-size: 70px;'>正确! </span>","null","","","","","","","","","","","","","","","","","","","","","","","feedback_test",""
"","","","","","psychophysics","26","336750","0.0-8.0-0.0-0.7","1824","","d","","","","","","","","","","","","","key","d","16.68321893491146","960","536","d","true","img/C_28.png","朋友","freeprac_self","",""
"","","","","","html-keyboard-response","27","337064","0.0-8.0-0.0-1.7","null","<span style='color:GreenYellow; font-size: 70px;'>正确! </span>","null","","","","","","","","","","","","","","","","","","","","","","","feedback_test",""
"","","","","","psychophysics","28","339854","0.0-8.0-0.0-0.8","1776","","k","","","","","","","","","","","","","key","k","16.68333132530132","960","536","k","true","img/S_28.png","自我","freeprac_self","",""
"","","","","","html-keyboard-response","29","340161","0.0-8.0-0.0-1.8","null","<span style='color:GreenYellow; font-size: 70px;'>正确! </span>","null","","","","","","","","","","","","","","","","","","","","","","","feedback_test",""
"","","","","","psychophysics","30","342726","0.0-8.0-0.0-0.9","1560","","k","","","","","","","","","","","","","key","k","16.683379084967516","960","536","k","true","img/H_28.png","自我","freeprac_self","",""
"","","","","","html-keyboard-response","31","343031","0.0-8.0-0.0-1.9","null","<span style='color:GreenYellow; font-size: 70px;'>正确! </span>","null","","","","","","","","","","","","","","","","","","","","","","","feedback_test",""
"","","","","","psychophysics","32","345550","0.0-8.0-0.0-0.10","1515","","j","","","","","","","","","","","","","key","j","16.683173333333496","960","536","f","false","img/C_28.png","自我","freeprac_self","",""
"","","","","","html-keyboard-response","33","345852","0.0-8.0-0.0-1.10","null","<span style='color:red; font-size: 70px;'>错误! </span>","null","","","","","","","","","","","","","","","","","","","","","","","feedback_test",""
"","","","","","psychophysics","34","348766","0.0-8.0-0.0-0.11","1911","","k","","","","","","","","","","","","","key","k","16.605277456647336","960","536","j","false","img/S_28.png","生人","freeprac_self","",""
"","","","","","html-keyboard-response","35","349081","0.0-8.0-0.0-1.11","null","<span style='color:red; font-size: 70px;'>错误! </span>","null","","","","","","","","","","","","","","","","","","","","","","","feedback_test",""
"","","","","","html-keyboard-response","36","364334","0.0-9.0","15250","[""<style>.context{color:white; font-size: 35px; line-height:40px}</style>           <div><p class='context'>您正确回答了75% 的试次。</p><p class='context'>您的平均反应时为1241毫秒。</p><p class='context'>恭喜您完成这一阶段的练习。按任意键进入<span style='color: yellow;'>重点关注图形为“朋友”</span>的练习。</p></div><p class='footer' style='font-size:35px; line-height:30px;'>任务要求：\n           <p class='footer' style='font-size:35px; line-height:35px;'>对于与“朋友”对应的图形：如果 匹配 ，请按 <span style=\""color: lightgreen;\"">f键</span></p><p class='footer' style='font-size:35px'>如果 不匹配 ，请按<span style=\""color: lightgreen;\"">d键</p></span>\n           <p class='footer' style='font-size:35px; line-height:35px;'>对于非“朋友”对应的图形：如果 匹配 ，请按 <span style=\""color: lightgreen;\"">j键</span></p><p class='footer' style='font-size:35px'>如果 不匹配 ，请按<span style=\""color: lightgreen;\"">k键</p></span>\n           <p class='footer' style='font-size:22px; line-height:25px;'>请在实验过程中将您的<span style=\""color: lightgreen;\"">食指和中指</span>放在电脑键盘的相应键位上进行按键。</p></span>""]"," ","","","","","","","","","","","","","","","","","","","","","","","",""
"","","","","","psychophysics","37","366798","0.0-10.0-0.0-0.0","1460","","j","","","","","","","","","","","","","key","j","16.683394557823345","960","536","j","true","img/C_28.png","自我","freeprac_friend","",""
"","","","","","html-keyboard-response","38","367104","0.0-10.0-0.0-1.0","null","<span style='color:GreenYellow; font-size: 70px;'>正确! </span>","null","","","","","","","","","","","","","","","","","","","","","","","feedback_test",""
"","","","","","psychophysics","39","369990","0.0-10.0-0.0-0.1","1881","","k","","","","","","","","","","","","","key","k","16.683325581395387","960","536","d","false","img/H_28.png","生人","freeprac_friend","",""
"","","","","","html-keyboard-response","40","370302","0.0-10.0-0.0-1.1","null","<span style='color:red; font-size: 70px;'>错误! </span>","null","","","","","","","","","","","","","","","","","","","","","","","feedback_test",""
"","","","","","psychophysics","41","373534","0.0-10.0-0.0-0.2","2224","","j","","","","","","","","","","","","","key","j","16.68346113989635","960","536","k","false","img/C_28.png","生人","freeprac_friend","",""
"","","","","","html-keyboard-response","42","373838","0.0-10.0-0.0-1.2","null","<span style='color:red; font-size: 70px;'>错误! </span>","null","","","","","","","","","","","","","","","","","","","","","","","feedback_test",""
"","","","","","psychophysics","43","376278","0.0-10.0-0.0-0.3","1431","","d","","","","","","","","","","","","","key","d","16.683296551724","960","536","d","true","img/H_28.png","自我","freeprac_friend","",""
"","","","","","html-keyboard-response","44","376593","0.0-10.0-0.0-1.3","null","<span style='color:GreenYellow; font-size: 70px;'>正确! </span>","null","","","","","","","","","","","","","","","","","","","","","","","feedback_test",""
"","","","","","psychophysics","45","378286","0.0-10.0-0.0-0.4","684","","f","","","","","","","","","","","","","key","f","16.683239999999643","960","536","f","true","img/H_28.png","朋友","freeprac_friend","",""
"","","","","","html-keyboard-response","46","378600","0.0-10.0-0.0-1.4","null","<span style='color:GreenYellow; font-size: 70px;'>正确! </span>","null","","","","","","","","","","","","","","","","","","","","","","","feedback_test",""
"","","","","","psychophysics","47","380702","0.0-10.0-0.0-0.5","1098","","k","","","","","","","","","","","","","key","k","16.68334400000004","960","536","k","true","img/C_28.png","朋友","freeprac_friend","",""
"","","","","","html-keyboard-response","48","381009","0.0-10.0-0.0-1.5","null","<span style='color:GreenYellow; font-size: 70px;'>正确! </span>","null","","","","","","","","","","","","","","","","","","","","","","","feedback_test",""
"","","","","","psychophysics","49","383302","0.0-10.0-0.0-0.6","1282","","k","","","","","","","","","","","","","key","k","16.68300735294136","960","536","k","true","img/S_28.png","自我","freeprac_friend","",""
"","","","","","html-keyboard-response","50","383611","0.0-10.0-0.0-1.6","null","<span style='color:GreenYellow; font-size: 70px;'>正确! </span>","null","","","","","","","","","","","","","","","","","","","","","","","feedback_test",""
"","","","","","psychophysics","51","385846","0.0-10.0-0.0-0.7","1221","","f","","","","","","","","","","","","","key","f","16.683210526315996","960","536","j","false","img/C_28.png","自我","freeprac_friend","",""
"","","","","","html-keyboard-response","52","386152","0.0-10.0-0.0-1.7","null","<span style='color:red; font-size: 70px;'>错误! </span>","null","","","","","","","","","","","","","","","","","","","","","","","feedback_test",""
"","","","","","psychophysics","53","387886","0.0-10.0-0.0-0.8","725","","f","","","","","","","","","","","","","key","f","16.68310679611637","960","536","f","true","img/H_28.png","朋友","freeprac_friend","",""
"","","","","","html-keyboard-response","54","388196","0.0-10.0-0.0-1.8","null","<span style='color:GreenYellow; font-size: 70px;'>正确! </span>","null","","","","","","","","","","","","","","","","","","","","","","","feedback_test",""
"","","","","","psychophysics","55","390766","0.0-10.0-0.0-0.9","1569","","k","","","","","","","","","","","","","key","k","16.683281045751738","960","536","k","true","img/S_28.png","朋友","freeprac_friend","",""
"","","","","","html-keyboard-response","56","391068","0.0-10.0-0.0-1.9","null","<span style='color:GreenYellow; font-size: 70px;'>正确! </span>","null","","","","","","","","","","","","","","","","","","","","","","","feedback_test",""
"","","","","","psychophysics","57","393702","0.0-10.0-0.0-0.10","1619","","k","","","","","","","","","","","","","key","k","16.68313375796165","960","536","j","false","img/S_28.png","生人","freeprac_friend","",""
"","","","","","html-keyboard-response","58","394013","0.0-10.0-0.0-1.10","null","<span style='color:red; font-size: 70px;'>错误! </span>","null","","","","","","","","","","","","","","","","","","","","","","","feedback_test",""
"","","","","","psychophysics","59","396654","0.0-10.0-0.0-0.11","1635","","j","","","","","","","","","","","","","key","j","16.683324840764","960","536","j","true","img/S_28.png","生人","freeprac_friend","",""
"","","","","","html-keyboard-response","60","396961","0.0-10.0-0.0-1.11","null","<span style='color:GreenYellow; font-size: 70px;'>正确! </span>","null","","","","","","","","","","","","","","","","","","","","","","","feedback_test",""
"","","","","","html-keyboard-response","61","400262","0.0-10.0-1.0-0.0","3300","<style>.context{color:white; font-size: 35px; line-height:40px}</style>                           <div><p class='context'>您正确回答了67% 的试次。</p><p class='context'>您的平均反应时为1236毫秒。</p>"," ","","","","","","","","","","","","","","","","","","","","","","","",""
"","","","","","instructions","62","409532","0.0-10.0-1.0-1.0","9267","","","","","","","","","","","","","","[{""page_index"":0,""viewing_time"":2892},{""page_index"":1,""viewing_time"":3847},{""page_index"":2,""viewing_time"":2528}]","","","","","","","","","","","",""
"","","","","","psychophysics","63","412078","0.0-10.1-0.1-0.12","1543","","k","","","","","","","","","","","","","key","k","16.683276315789524","960","536","j","false","img/S_28.png","生人","freeprac_friend","",""
"","","","","","html-keyboard-response","64","412390","0.0-10.1-0.1-1.12","null","<span style='color:red; font-size: 70px;'>错误! </span>","null","","","","","","","","","","","","","","","","","","","","","","","feedback_test",""
"","","","","","psychophysics","65","414054","0.0-10.1-0.1-0.13","652","","f","","","","","","","","","","","","","key","f","16.683173469387764","960","536","f","true","img/H_28.png","朋友","freeprac_friend","",""
"","","","","","html-keyboard-response","66","414366","0.0-10.1-0.1-1.13","null","<span style='color:GreenYellow; font-size: 70px;'>正确! </span>","null","","","","","","","","","","","","","","","","","","","","","","","feedback_test",""
"","","","","","psychophysics","67","416918","0.0-10.1-0.1-0.14","1545","","k","","","","","","","","","","","","","key","k","16.683328947368672","960","536","k","true","img/S_28.png","自我","freeprac_friend","",""
"","","","","","html-keyboard-response","68","417222","0.0-10.1-0.1-1.14","null","<span style='color:GreenYellow; font-size: 70px;'>正确! </span>","null","","","","","","","","","","","","","","","","","","","","","","","feedback_test",""
"","","","","","psychophysics","69","419550","0.0-10.1-0.1-0.15","1326","","k","","","","","","","","","","","","","key","k","16.683316546762796","960","536","k","true","img/C_28.png","生人","freeprac_friend","",""
"","","","","","html-keyboard-response","70","419859","0.0-10.1-0.1-1.15","null","<span style='color:GreenYellow; font-size: 70px;'>正确! </span>","null","","","","","","","","","","","","","","","","","","","","","","","feedback_test",""
"","","","","","psychophysics","71","421710","0.0-10.1-0.1-0.16","849","","j","","","","","","","","","","","","","key","j","16.683281818182017","960","536","j","true","img/C_28.png","自我","freeprac_friend","",""
"","","","","","html-keyboard-response","72","422027","0.0-10.1-0.1-1.16","null","<span style='color:GreenYellow; font-size: 70px;'>正确! </span>","null","","","","","","","","","","","","","","","","","","","","","","","feedback_test",""
"","","","","","psychophysics","73","423694","0.0-10.1-0.1-0.17","664","","f","","","","","","","","","","","","","key","f","16.68337373737354","960","536","f","true","img/H_28.png","朋友","freeprac_friend","",""
"","","","","","html-keyboard-response","74","424008","0.0-10.1-0.1-1.17","null","<span style='color:GreenYellow; font-size: 70px;'>正确! </span>","null","","","","","","","","","","","","","","","","","","","","","","","feedback_test",""
"","","","","","psychophysics","75","426221","0.0-10.1-0.1-0.18","1206","","k","","","","","","","","","","","","","key","k","16.683068181818022","960","536","k","true","img/S_28.png","朋友","freeprac_friend","",""
"","","","","","html-keyboard-response","76","426537","0.0-10.1-0.1-1.18","null","<span style='color:GreenYellow; font-size: 70px;'>正确! </span>","null","","","","","","","","","","","","","","","","","","","","","","","feedback_test",""
"","","","","","psychophysics","77","428469","0.0-10.1-0.1-0.19","918","","d","","","","","","","","","","","","","key","d","16.68349565217403","960","536","d","true","img/H_28.png","生人","freeprac_friend","",""
"","","","","","html-keyboard-response","78","428773","0.0-10.1-0.1-1.19","null","<span style='color:GreenYellow; font-size: 70px;'>正确! </span>","null","","","","","","","","","","","","","","","","","","","","","","","feedback_test",""
"","","","","","psychophysics","79","431102","0.0-10.1-0.1-0.20","1315","","d","","","","","","","","","","","","","key","d","16.683123188405855","960","536","d","true","img/H_28.png","自我","freeprac_friend","",""
"","","","","","html-keyboard-response","80","431418","0.0-10.1-0.1-1.20","null","<span style='color:GreenYellow; font-size: 70px;'>正确! </span>","null","","","","","","","","","","","","","","","","","","","","","","","feedback_test",""
"","","","","","psychophysics","81","433325","0.0-10.1-0.1-0.21","903","","j","","","","","","","","","","","","","key","j","16.683429824561596","960","536","j","true","img/C_28.png","自我","freeprac_friend","",""
"","","","","","html-keyboard-response","82","433639","0.0-10.1-0.1-1.21","null","<span style='color:GreenYellow; font-size: 70px;'>正确! </span>","null","","","","","","","","","","","","","","","","","","","","","","","feedback_test",""
"","","","","","psychophysics","83","435910","0.0-10.1-0.1-0.22","1269","","j","","","","","","","","","","","","","key","j","16.5856000000003","960","536","j","true","img/S_28.png","生人","freeprac_friend","",""
"","","","","","html-keyboard-response","84","436224","0.0-10.1-0.1-1.22","null","<span style='color:GreenYellow; font-size: 70px;'>正确! </span>","null","","","","","","","","","","","","","","","","","","","","","","","feedback_test",""
"","","","","","psychophysics","85","438134","0.0-10.1-0.1-0.23","906","","k","","","","","","","","","","","","","key","k","16.683447368421056","960","536","k","true","img/C_28.png","朋友","freeprac_friend","",""
"","","","","","html-keyboard-response","86","438435","0.0-10.1-0.1-1.23","null","<span style='color:GreenYellow; font-size: 70px;'>正确! </span>","null","","","","","","","","","","","","","","","","","","","","","","","feedback_test",""
"","","","","","html-keyboard-response","87","445518","0.0-11.0","7081","[""<style>.context{color:white; font-size: 35px; line-height:40px}</style>               <div><p class='context'>您正确回答了92% 的试次。</p><p class='context'>您的平均反应时为1050毫秒。</p><p class='context'>恭喜您完成这一阶段的练习。按任意键进入<span style='color: yellow;'>重点关注图形为“生人”</span>的练习。</p></div><p class='footer' style='font-size:35px; line-height:30px;'>任务要求：\n               <p class='footer' style='font-size:35px; line-height:35px;'>对与“生人”对应的图形，如果 匹配 ，请按 <span style=\""color: lightgreen;\"">f键</span></p><p class='footer' style='font-size:35px'>如果 不匹配 ，请按<span style=\""color: lightgreen;\"">d键</p></span>\n               <p class='footer' style='font-size:35px; line-height:35px;'>对非“生人”对应的图形，如果 匹配 ，请按 <span style=\""color: lightgreen;\"">j键</span></p><p class='footer' style='font-size:35px'>如果 不匹配 ，请按<span style=\""color: lightgreen;\"">k键</p></span>\n               <p class='footer' style='font-size:22px; line-height:25px;'>请在实验过程中将您的<span style=\""color: lightgreen;\"">食指和中指</span>放在电脑键盘的相应键位上进行按键。</p></span>""]"," ","","","","","","","","","","","","","","","","","","","","","","","",""
"","","","","","psychophysics","88","447989","0.0-12.0-0.0-0.0","1469","","k","","","","","","","","","","","","","key","k","16.683283783784105","960","536","k","true","img/H_28.png","自我","freeprac_stranger","",""
"","","","","","html-keyboard-response","89","448302","0.0-12.0-0.0-1.0","null","<span style='color:GreenYellow; font-size: 70px;'>正确! </span>","null","","","","","","","","","","","","","","","","","","","","","","","feedback_test",""
"","","","","","psychophysics","90","450389","0.0-12.0-0.0-0.1","1083","","j","","","","","","","","","","","","","key","j","16.683338709677393","960","536","j","true","img/H_28.png","朋友","freeprac_stranger","",""
"","","","","","html-keyboard-response","91","450704","0.0-12.0-0.0-1.1","null","<span style='color:GreenYellow; font-size: 70px;'>正确! </span>","null","","","","","","","","","","","","","","","","","","","","","","","feedback_test",""
"","","","","","psychophysics","92","453149","0.0-12.0-0.0-0.2","1441","","k","","","","","","","","","","","","","key","k","16.68336986301368","960","536","k","true","img/H_28.png","生人","freeprac_stranger","",""
"","","","","","html-keyboard-response","93","453464","0.0-12.0-0.0-1.2","null","<span style='color:GreenYellow; font-size: 70px;'>正确! </span>","null","","","","","","","","","","","","","","","","","","","","","","","feedback_test",""
"","","","","","psychophysics","94","455645","0.0-12.0-0.0-0.3","1172","","k","","","","","","","","","","","","","key","k","16.683240310077792","960","536","k","true","img/C_28.png","朋友","freeprac_stranger","",""
"","","","","","html-keyboard-response","95","455960","0.0-12.0-0.0-1.3","null","<span style='color:GreenYellow; font-size: 70px;'>正确! </span>","null","","","","","","","","","","","","","","","","","","","","","","","feedback_test",""
"","","","","","psychophysics","96","458294","0.0-12.0-0.0-0.4","1331","","f","","","","","","","","","","","","","key","f","16.683446043165546","960","536","d","false","img/S_28.png","自我","freeprac_stranger","",""
"","","","","","html-keyboard-response","97","458601","0.0-12.0-0.0-1.4","null","<span style='color:red; font-size: 70px;'>错误! </span>","null","","","","","","","","","","","","","","","","","","","","","","","feedback_test",""
"","","","","","psychophysics","98","460237","0.0-12.0-0.0-0.5","627","","f","","","","","","","","","","","","","key","f","16.683319587628933","960","536","f","true","img/S_28.png","生人","freeprac_stranger","",""
"","","","","","html-keyboard-response","99","460547","0.0-12.0-0.0-1.5","null","<span style='color:GreenYellow; font-size: 70px;'>正确! </span>","null","","","","","","","","","","","","","","","","","","","","","","","feedback_test",""
"","","","","","psychophysics","100","462333","0.0-12.0-0.0-0.6","782","","j","","","","","","","","","","","","","key","j","16.683094339622603","960","536","j","true","img/H_28.png","朋友","freeprac_stranger","",""
"","","","","","html-keyboard-response","101","462649","0.0-12.0-0.0-1.6","null","<span style='color:GreenYellow; font-size: 70px;'>正确! </span>","null","","","","","","","","","","","","","","","","","","","","","","","feedback_test",""
"","","","","","psychophysics","102","464429","0.0-12.0-0.0-0.7","776","","d","","","","","","","","","","","","","key","d","16.683490566037296","960","536","d","true","img/S_28.png","朋友","freeprac_stranger","",""
"","","","","","html-keyboard-response","103","464741","0.0-12.0-0.0-1.7","null","<span style='color:GreenYellow; font-size: 70px;'>正确! </span>","null","","","","","","","","","","","","","","","","","","","","","","","feedback_test",""
"","","","","","psychophysics","104","466693","0.0-12.0-0.0-0.8","938","","f","","","","","","","","","","","","","key","f","16.683086206896657","960","536","f","true","img/S_28.png","生人","freeprac_stranger","",""
"","","","","","html-keyboard-response","105","467008","0.0-12.0-0.0-1.8","null","<span style='color:GreenYellow; font-size: 70px;'>正确! </span>","null","","","","","","","","","","","","","","","","","","","","","","","feedback_test",""
"","","","","","psychophysics","106","469077","0.0-12.0-0.0-0.9","1069","","j","","","","","","","","","","","","","key","j","16.682837398373994","960","536","j","true","img/C_28.png","自我","freeprac_stranger","",""
"","","","","","html-keyboard-response","107","469383","0.0-12.0-0.0-1.9","null","<span style='color:GreenYellow; font-size: 70px;'>正确! </span>","null","","","","","","","","","","","","","","","","","","","","","","","feedback_test",""
"","","","","","psychophysics","108","471262","0.0-12.0-0.0-0.10","868","","j","","","","","","","","","","","","","key","j","16.683321428571485","960","536","j","true","img/C_28.png","自我","freeprac_stranger","",""
"","","","","","html-keyboard-response","109","471563","0.0-12.0-0.0-1.10","null","<span style='color:GreenYellow; font-size: 70px;'>正确! </span>","null","","","","","","","","","","","","","","","","","","","","","","","feedback_test",""
"","","","","","psychophysics","110","474397","0.0-12.0-0.0-0.11","1824","","k","","","","","","","","","","","","","key","k","16.683297619047586","960","536","k","true","img/C_28.png","生人","freeprac_stranger","",""
"","","","","","html-keyboard-response","111","474710","0.0-12.0-0.0-1.11","null","<span style='color:GreenYellow; font-size: 70px;'>正确! </span>","null","","","","","","","","","","","","","","","","","","","","","","","feedback_test",""
"","","","","","instructions","112","490828","0.0-13.0","16117","","","","","","","","","","","","","","[{""page_index"":0,""viewing_time"":16117}]","","","","","","","","","","","",""
"","","","","","psychophysics","113","492965","0.0-14.0-0.0-0.0","1134","","k","","","","","","","","","","","","","key","k","16.683023809523707","960","536","k","true","img/H_28.png","生人","prac_self","","朋友"
"","","","","","html-keyboard-response","114","493278","0.0-14.0-0.0-1.0","null","<span style='color:GreenYellow; font-size: 70px;'>正确! </span>","null","","","","","","","","","","","","","","","","","","","","","","","feedback_test",""
"","","","","","psychophysics","115","495501","0.0-14.0-0.0-0.1","1217","","k","","","","","","","","","","","","","key","k","16.68352272727255","960","536","k","true","img/S_28.png","朋友","prac_self","","生人"
"","","","","","html-keyboard-response","116","495809","0.0-14.0-0.0-1.1","null","<span style='color:GreenYellow; font-size: 70px;'>正确! </span>","null","","","","","","","","","","","","","","","","","","","","","","","feedback_test",""
"","","","","","psychophysics","117","497637","0.0-14.0-0.0-0.2","818","","d","","","","","","","","","","","","","key","d","16.683416666666744","960","536","d","true","img/C_28.png","生人","prac_self","","自我"
"","","","","","html-keyboard-response","118","497941","0.0-14.0-0.0-1.2","null","<span style='color:GreenYellow; font-size: 70px;'>正确! </span>","null","","","","","","","","","","","","","","","","","","","","","","","feedback_test",""
"","","","","","psychophysics","119","499461","0.0-14.0-0.0-0.3","515","","f","","","","","","","","","","","","","key","f","16.683011111111327","960","536","f","true","img/C_28.png","自我","prac_self","","自我"
"","","","","","html-keyboard-response","120","499769","0.0-14.0-0.0-1.3","null","<span style='color:GreenYellow; font-size: 70px;'>正确! </span>","null","","","","","","","","","","","","","","","","","","","","","","","feedback_test",""
"","","","","","psychophysics","121","501869","0.0-14.0-0.0-0.4","1095","","j","","","","","","","","","","","","","key","j","16.683095999999903","960","536","j","true","img/H_28.png","朋友","prac_self","","朋友"
"","","","","","html-keyboard-response","122","502179","0.0-14.0-0.0-1.4","null","<span style='color:GreenYellow; font-size: 70px;'>正确! </span>","null","","","","","","","","","","","","","","","","","","","","","","","feedback_test",""
"","","","","","psychophysics","123","504421","0.0-14.0-0.0-0.5","1228","","j","","","","","","","","","","","","","key","j","16.68313533834644","960","536","j","true","img/S_28.png","生人","prac_self","","生人"
"","","","","","html-keyboard-response","124","504731","0.0-14.0-0.0-1.5","null","<span style='color:GreenYellow; font-size: 70px;'>正确! </span>","null","","","","","","","","","","","","","","","","","","","","","","","feedback_test",""
"","","","","","psychophysics","125","506557","0.0-14.0-0.0-0.6","818","","j","","","","","","","","","","","","","key","j","16.683259259259405","960","536","j","true","img/S_28.png","生人","prac_self","","生人"
"","","","","","html-keyboard-response","126","506873","0.0-14.0-0.0-1.6","null","<span style='color:GreenYellow; font-size: 70px;'>正确! </span>","null","","","","","","","","","","","","","","","","","","","","","","","feedback_test",""
"","","","","","psychophysics","127","509325","0.0-14.0-0.0-0.7","1444","","k","","","","","","","","","","","","","key","k","16.68318493150682","960","536","k","true","img/S_28.png","自我","prac_self","","生人"
"","","","","","html-keyboard-response","128","509641","0.0-14.0-0.0-1.7","null","<span style='color:GreenYellow; font-size: 70px;'>正确! </span>","null","","","","","","","","","","","","","","","","","","","","","","","feedback_test",""
"","","","","","psychophysics","129","511317","0.0-14.0-0.0-0.8","667","","j","","","","","","","","","","","","","key","j","16.683424242424092","960","536","j","true","img/H_28.png","朋友","prac_self","","朋友"
"","","","","","html-keyboard-response","130","511631","0.0-14.0-0.0-1.8","null","<span style='color:GreenYellow; font-size: 70px;'>正确! </span>","null","","","","","","","","","","","","","","","","","","","","","","","feedback_test",""
"","","","","","psychophysics","131","514135","0.0-14.0-0.0-0.9","null","","null","","","","","","","","","","","","","key","null","16.683442953020027","960","536","k","false","img/H_28.png","自我","prac_self","","朋友"
"","","","","","html-keyboard-response","132","514437","0.0-14.0-0.0-1.9","null","<span class='add_' style='color:yellow; font-size: 70px;'> 太慢! </span>","null","","","","","","","","","","","","","","","","","","","","","","","feedback_test",""
"","","","","","psychophysics","133","516901","0.0-14.0-0.0-0.10","1463","","k","","","","","","","","","","","","","key","k","16.683191780822213","960","536","d","false","img/C_28.png","朋友","prac_self","","自我"
"","","","","","html-keyboard-response","134","517207","0.0-14.0-0.0-1.10","null","<span style='color:red; font-size: 70px;'>错误! </span>","null","","","","","","","","","","","","","","","","","","","","","","","feedback_test",""
"","","","","","psychophysics","135","519549","0.0-14.0-0.0-0.11","1341","","f","","","","","","","","","","","","","key","f","16.683064748201414","960","536","f","true","img/C_28.png","自我","prac_self","","自我"
"","","","","","html-keyboard-response","136","519851","0.0-14.0-0.0-1.11","null","<span style='color:GreenYellow; font-size: 70px;'>正确! </span>","null","","","","","","","","","","","","","","","","","","","","","","","feedback_test",""
"","","","","","psychophysics","137","522362","0.0-14.0-0.0-0.12","null","","null","","","","","","","","","","","","","key","null","16.683362416107357","960","536","j","false","img/H_28.png","朋友","prac_self","","朋友"
"","","","","","html-keyboard-response","138","522664","0.0-14.0-0.0-1.12","null","<span class='add_' style='color:yellow; font-size: 70px;'> 太慢! </span>","null","","","","","","","","","","","","","","","","","","","","","","","feedback_test",""
"","","","","","psychophysics","139","524469","0.0-14.0-0.0-0.13","790","","f","","","","","","","","","","","","","key","f","16.683532710280705","960","536","f","true","img/C_28.png","自我","prac_self","","自我"
"","","","","","html-keyboard-response","140","524773","0.0-14.0-0.0-1.13","null","<span style='color:GreenYellow; font-size: 70px;'>正确! </span>","null","","","","","","","","","","","","","","","","","","","","","","","feedback_test",""
"","","","","","psychophysics","141","526965","0.0-14.0-0.0-0.14","1186","","k","","","","","","","","","","","","","key","k","16.683123076923835","960","536","k","true","img/H_28.png","自我","prac_self","","朋友"
"","","","","","html-keyboard-response","142","527268","0.0-14.0-0.0-1.14","null","<span style='color:GreenYellow; font-size: 70px;'>正确! </span>","null","","","","","","","","","","","","","","","","","","","","","","","feedback_test",""
"","","","","","psychophysics","143","529037","0.0-14.0-0.0-0.15","767","","j","","","","","","","","","","","","","key","j","16.68325714285685","960","536","j","true","img/S_28.png","生人","prac_self","","生人"
"","","","","","html-keyboard-response","144","529347","0.0-14.0-0.0-1.15","null","<span style='color:GreenYellow; font-size: 70px;'>正确! </span>","null","","","","","","","","","","","","","","","","","","","","","","","feedback_test",""
"","","","","","psychophysics","145","531741","0.0-14.0-0.0-0.16","1388","","k","","","","","","","","","","","","","key","k","16.683111888111466","960","536","k","true","img/S_28.png","朋友","prac_self","","生人"
"","","","","","html-keyboard-response","146","532052","0.0-14.0-0.0-1.16","null","<span style='color:GreenYellow; font-size: 70px;'>正确! </span>","null","","","","","","","","","","","","","","","","","","","","","","","feedback_test",""
"","","","","","psychophysics","147","533997","0.0-14.0-0.0-0.17","944","","k","","","","","","","","","","","","","key","k","16.683112068965848","960","536","k","true","img/H_28.png","生人","prac_self","","朋友"
"","","","","","html-keyboard-response","148","534303","0.0-14.0-0.0-1.17","null","<span style='color:GreenYellow; font-size: 70px;'>正确! </span>","null","","","","","","","","","","","","","","","","","","","","","","","feedback_test",""
"","","","","","psychophysics","149","536741","0.0-14.0-0.0-0.18","1433","","d","","","","","","","","","","","","","key","d","16.683358620690054","960","536","d","true","img/C_28.png","生人","prac_self","","自我"
"","","","","","html-keyboard-response","150","537057","0.0-14.0-0.0-1.18","null","<span style='color:GreenYellow; font-size: 70px;'>正确! </span>","null","","","","","","","","","","","","","","","","","","","","","","","feedback_test",""
"","","","","","psychophysics","151","539141","0.0-14.0-0.0-0.19","1080","","k","","","","","","","","","","","","","key","k","16.683161290322108","960","536","k","true","img/S_28.png","自我","prac_self","","生人"
"","","","","","html-keyboard-response","152","539452","0.0-14.0-0.0-1.19","null","<span style='color:GreenYellow; font-size: 70px;'>正确! </span>","null","","","","","","","","","","","","","","","","","","","","","","","feedback_test",""
"","","","","","psychophysics","153","541237","0.0-14.0-0.0-0.20","774","","f","","","","","","","","","","","","","key","f","16.682981132076094","960","536","f","true","img/C_28.png","自我","prac_self","","自我"
"","","","","","html-keyboard-response","154","541546","0.0-14.0-0.0-1.20","null","<span style='color:GreenYellow; font-size: 70px;'>正确! </span>","null","","","","","","","","","","","","","","","","","","","","","","","feedback_test",""
"","","","","","psychophysics","155","543469","0.0-14.0-0.0-0.21","921","","d","","","","","","","","","","","","","key","d","16.560122807016963","960","536","d","true","img/C_28.png","朋友","prac_self","","自我"
"","","","","","html-keyboard-response","156","543783","0.0-14.0-0.0-1.21","null","<span style='color:GreenYellow; font-size: 70px;'>正确! </span>","null","","","","","","","","","","","","","","","","","","","","","","","feedback_test",""
"","","","","","psychophysics","157","545573","0.0-14.0-0.0-0.22","789","","j","","","","","","","","","","","","","key","j","16.683481132074583","960","536","j","true","img/H_28.png","朋友","prac_self","","朋友"
"","","","","","html-keyboard-response","158","545889","0.0-14.0-0.0-1.22","null","<span style='color:GreenYellow; font-size: 70px;'>正确! </span>","null","","","","","","","","","","","","","","","","","","","","","","","feedback_test",""
"","","","","","psychophysics","159","547773","0.0-14.0-0.0-0.23","870","","k","","","","","","","","","","","","","key","k","16.683276785714302","960","536","j","false","img/S_28.png","生人","prac_self","","生人"
"","","","","","html-keyboard-response","160","548078","0.0-14.0-0.0-1.23","null","<span style='color:red; font-size: 70px;'>错误! </span>","null","","","","","","","","","","","","","","","","","","","","","","","feedback_test",""
"","","","","","html-keyboard-response","161","559878","0.0-15.0","11797","[""<style>.context{color:white; font-size: 35px; line-height:40px}</style>           <div><p class='context'>您正确回答了83% 的试次。</p><p class='context'>您的平均反应时为1017毫秒。</p><p class='context'>恭喜您完成这一阶段的练习。按任意键进入<span style='color: yellow;'>重点关注图形为“朋友”</span>的练习。</p></div><p class='footer' style='font-size:35px; line-height:30px;'>任务要求：\n           <p class='footer' style='font-size:35px; line-height:35px;'>对于与“朋友”对应的图形：如果 匹配 ，请按 <span style=\""color: lightgreen;\"">f键</span></p><p class='footer' style='font-size:35px'>如果 不匹配 ，请按<span style=\""color: lightgreen;\"">d键</p></span>\n           <p class='footer' style='font-size:35px; line-height:35px;'>对于非“朋友”对应的图形：如果 匹配 ，请按 <span style=\""color: lightgreen;\"">j键</span></p><p class='footer' style='font-size:35px'>如果 不匹配 ，请按<span style=\""color: lightgreen;\"">k键</p></span>\n           <p class='footer' style='font-size:22px; line-height:25px;'>请在实验过程中将您的<span style=\""color: lightgreen;\"">食指和中指</span>放在电脑键盘的相应键位上进行按键。</p></span>""]"," ","","","","","","","","","","","","","","","","","","","","","","","",""
"","","","","","psychophysics","162","562149","0.0-16.0-0.0-0.0","1266","","j","","","","","","","","","","","","","key","j","16.683207407407462","960","536","j","true","img/C_28.png","自我","prac_friend","","自我"
"","","","","","html-keyboard-response","163","562453","0.0-16.0-0.0-1.0","null","<span style='color:GreenYellow; font-size: 70px;'>正确! </span>","null","","","","","","","","","","","","","","","","","","","","","","","feedback_test",""
"","","","","","psychophysics","164","564502","0.0-16.0-0.0-0.1","1034","","k","","","","","","","","","","","","","key","k","16.683512396693867","960","536","d","false","img/H_28.png","自我","prac_friend","","朋友"
"","","","","","html-keyboard-response","165","564816","0.0-16.0-0.0-1.1","null","<span style='color:red; font-size: 70px;'>错误! </span>","null","","","","","","","","","","","","","","","","","","","","","","","feedback_test",""
"","","","","","psychophysics","166","566709","0.0-16.0-0.0-0.2","887","","k","","","","","","","","","","","","","key","k","16.683389380530958","960","536","k","true","img/S_28.png","自我","prac_friend","","生人"
"","","","","","html-keyboard-response","167","567020","0.0-16.0-0.0-1.2","null","<span style='color:GreenYellow; font-size: 70px;'>正确! </span>","null","","","","","","","","","","","","","","","","","","","","","","","feedback_test",""
"","","","","","psychophysics","168","569389","0.0-16.0-0.0-0.3","1365","","k","","","","","","","","","","","","","key","k","16.683460992907094","960","536","d","false","img/H_28.png","生人","prac_friend","","朋友"
"","","","","","html-keyboard-response","169","569696","0.0-16.0-0.0-1.3","null","<span style='color:red; font-size: 70px;'>错误! </span>","null","","","","","","","","","","","","","","","","","","","","","","","feedback_test",""
"","","","","","psychophysics","170","571990","0.0-16.0-0.0-0.4","1280","","j","","","","","","","","","","","","","key","j","16.683242647058623","960","536","j","true","img/S_28.png","生人","prac_friend","","生人"
"","","","","","html-keyboard-response","171","572306","0.0-16.0-0.0-1.4","null","<span style='color:GreenYellow; font-size: 70px;'>正确! </span>","null","","","","","","","","","","","","","","","","","","","","","","","feedback_test",""
"","","","","","psychophysics","172","574037","0.0-16.0-0.0-0.5","725","","f","","","","","","","","","","","","","key","f","16.683077669902524","960","536","f","true","img/H_28.png","朋友","prac_friend","","朋友"
"","","","","","html-keyboard-response","173","574350","0.0-16.0-0.0-1.5","null","<span style='color:GreenYellow; font-size: 70px;'>正确! </span>","null","","","","","","","","","","","","","","","","","","","","","","","feedback_test",""
"","","","","","psychophysics","174","576005","0.0-16.0-0.0-0.6","654","","j","","","","","","","","","","","","","key","j","16.683224489795975","960","536","j","true","img/C_28.png","自我","prac_friend","","自我"
"","","","","","html-keyboard-response","175","576316","0.0-16.0-0.0-1.6","null","<span style='color:GreenYellow; font-size: 70px;'>正确! </span>","null","","","","","","","","","","","","","","","","","","","","","","","feedback_test",""
"","","","","","psychophysics","176","578029","0.0-16.0-0.0-0.7","713","","k","","","","","","","","","","","","","key","k","16.682990099009505","960","536","k","true","img/S_28.png","朋友","prac_friend","","生人"
"","","","","","html-keyboard-response","177","578341","0.0-16.0-0.0-1.7","null","<span style='color:GreenYellow; font-size: 70px;'>正确! </span>","null","","","","","","","","","","","","","","","","","","","","","","","feedback_test",""
"","","","","","psychophysics","178","580133","0.0-16.0-0.0-0.8","782","","j","","","","","","","","","","","","","key","j","16.683179245283167","960","536","j","true","img/S_28.png","生人","prac_friend","","生人"
"","","","","","html-keyboard-response","179","580445","0.0-16.0-0.0-1.8","null","<span style='color:GreenYellow; font-size: 70px;'>正确! </span>","null","","","","","","","","","","","","","","","","","","","","","","","feedback_test",""
"","","","","","psychophysics","180","582334","0.0-16.0-0.0-0.9","879","","k","","","","","","","","","","","","","key","k","16.683125000000082","960","536","k","true","img/C_28.png","朋友","prac_friend","","自我"
"","","","","","html-keyboard-response","181","582641","0.0-16.0-0.0-1.9","null","<span style='color:GreenYellow; font-size: 70px;'>正确! </span>","null","","","","","","","","","","","","","","","","","","","","","","","feedback_test",""
"","","","","","psychophysics","182","585149","0.0-16.0-0.0-0.10","1497","","k","","","","","","","","","","","","","key","k","16.68334899328793","960","536","k","true","img/C_28.png","生人","prac_friend","","自我"
"","","","","","html-keyboard-response","183","585457","0.0-16.0-0.0-1.10","null","<span style='color:GreenYellow; font-size: 70px;'>正确! </span>","null","","","","","","","","","","","","","","","","","","","","","","","feedback_test",""
"","","","","","psychophysics","184","587325","0.0-16.0-0.0-0.11","866","","f","","","","","","","","","","","","","key","f","16.550118181818505","960","536","f","true","img/H_28.png","朋友","prac_friend","","朋友"
"","","","","","html-keyboard-response","185","587632","0.0-16.0-0.0-1.11","null","<span style='color:GreenYellow; font-size: 70px;'>正确! </span>","null","","","","","","","","","","","","","","","","","","","","","","","feedback_test",""
"","","","","","psychophysics","186","589813","0.0-16.0-0.0-0.12","1172","","j","","","","","","","","","","","","","key","j","16.683384615384366","960","536","j","true","img/S_28.png","生人","prac_friend","","生人"
"","","","","","html-keyboard-response","187","590126","0.0-16.0-0.0-1.12","null","<span style='color:GreenYellow; font-size: 70px;'>正确! </span>","null","","","","","","","","","","","","","","","","","","","","","","","feedback_test",""
"","","","","","psychophysics","188","591885","0.0-16.0-0.0-0.13","755","","f","","","","","","","","","","","","","key","f","16.683504761905144","960","536","f","true","img/H_28.png","朋友","prac_friend","","朋友"
"","","","","","html-keyboard-response","189","592201","0.0-16.0-0.0-1.13","null","<span style='color:GreenYellow; font-size: 70px;'>正确! </span>","null","","","","","","","","","","","","","","","","","","","","","","","feedback_test",""
"","","","","","psychophysics","190","594198","0.0-16.0-0.0-0.14","984","","j","","","","","","","","","","","","","key","j","16.683186440677304","960","536","k","false","img/S_28.png","朋友","prac_friend","","生人"
"","","","","","html-keyboard-response","191","594513","0.0-16.0-0.0-1.14","null","<span style='color:red; font-size: 70px;'>错误! </span>","null","","","","","","","","","","","","","","","","","","","","","","","feedback_test",""
"","","","","","psychophysics","192","596421","0.0-16.0-0.0-0.15","903","","d","","","","","","","","","","","","","key","d","16.683333333332516","960","536","d","true","img/H_28.png","自我","prac_friend","","朋友"
"","","","","","html-keyboard-response","193","596731","0.0-16.0-0.0-1.15","null","<span style='color:GreenYellow; font-size: 70px;'>正确! </span>","null","","","","","","","","","","","","","","","","","","","","","","","feedback_test",""
"","","","","","psychophysics","194","598797","0.0-16.0-0.0-0.16","1060","","j","","","","","","","","","","","","","key","j","16.683487804877245","960","536","j","true","img/C_28.png","自我","prac_friend","","自我"
"","","","","","html-keyboard-response","195","599105","0.0-16.0-0.0-1.16","null","<span style='color:GreenYellow; font-size: 70px;'>正确! </span>","null","","","","","","","","","","","","","","","","","","","","","","","feedback_test",""
"","","","","","psychophysics","196","601213","0.0-16.0-0.0-0.17","1107","","k","","","","","","","","","","","","","key","k","16.683087999999522","960","536","j","false","img/S_28.png","生人","prac_friend","","生人"
"","","","","","html-keyboard-response","197","601521","0.0-16.0-0.0-1.17","null","<span style='color:red; font-size: 70px;'>错误! </span>","null","","","","","","","","","","","","","","","","","","","","","","","feedback_test",""
"","","","","","psychophysics","198","603397","0.0-16.0-0.0-0.18","872","","d","","","","","","","","","","","","","key","d","16.683348214284965","960","536","d","true","img/H_28.png","生人","prac_friend","","朋友"
"","","","","","html-keyboard-response","199","603706","0.0-16.0-0.0-1.18","null","<span style='color:GreenYellow; font-size: 70px;'>正确! </span>","null","","","","","","","","","","","","","","","","","","","","","","","feedback_test",""
"","","","","","psychophysics","200","605534","0.0-16.0-0.0-0.19","823","","f","","","","","","","","","","","","","key","f","16.68342201834771","960","536","f","true","img/H_28.png","朋友","prac_friend","","朋友"
"","","","","","html-keyboard-response","201","605843","0.0-16.0-0.0-1.19","null","<span style='color:GreenYellow; font-size: 70px;'>正确! </span>","null","","","","","","","","","","","","","","","","","","","","","","","feedback_test",""
"","","","","","psychophysics","202","607621","0.0-16.0-0.0-0.20","776","","k","","","","","","","","","","","","","key","k","16.683254716980475","960","536","k","true","img/C_28.png","朋友","prac_friend","","自我"
"","","","","","html-keyboard-response","203","607923","0.0-16.0-0.0-1.20","null","<span style='color:GreenYellow; font-size: 70px;'>正确! </span>","null","","","","","","","","","","","","","","","","","","","","","","","feedback_test",""
"","","","","","psychophysics","204","610221","0.0-16.0-0.0-0.21","1290","","j","","","","","","","","","","","","","key","j","16.68343795620391","960","536","k","false","img/S_28.png","自我","prac_friend","","生人"
"","","","","","html-keyboard-response","205","610536","0.0-16.0-0.0-1.21","null","<span style='color:red; font-size: 70px;'>错误! </span>","null","","","","","","","","","","","","","","","","","","","","","","","feedback_test",""
"","","","","","psychophysics","206","612462","0.0-16.0-0.0-0.22","915","","j","","","","","","","","","","","","","key","j","16.683403508772404","960","536","k","false","img/C_28.png","生人","prac_friend","","自我"
"","","","","","html-keyboard-response","207","612770","0.0-16.0-0.0-1.22","null","<span style='color:red; font-size: 70px;'>错误! </span>","null","","","","","","","","","","","","","","","","","","","","","","","feedback_test",""
"","","","","","psychophysics","208","614525","0.0-16.0-0.0-0.23","741","","j","","","","","","","","","","","","","key","j","16.683374999999963","960","536","j","true","img/C_28.png","自我","prac_friend","","自我"
"","","","","","html-keyboard-response","209","614840","0.0-16.0-0.0-1.23","null","<span style='color:GreenYellow; font-size: 70px;'>正确! </span>","null","","","","","","","","","","","","","","","","","","","","","","","feedback_test",""
"","","","","","html-keyboard-response","210","621438","0.0-17.0","6595","[""<style>.context{color:white; font-size: 35px; line-height:40px}</style>               <div><p class='context'>您正确回答了75% 的试次。</p><p class='context'>您的平均反应时为925毫秒。</p><p class='context'>恭喜您完成这一阶段的练习。按任意键进入<span style='color: yellow;'>重点关注图形为“生人”</span>的练习。</p></div><p class='footer' style='font-size:35px; line-height:30px;'>任务要求：\n               <p class='footer' style='font-size:35px; line-height:35px;'>对与“生人”对应的图形，如果 匹配 ，请按 <span style=\""color: lightgreen;\"">f键</span></p><p class='footer' style='font-size:35px'>如果 不匹配 ，请按<span style=\""color: lightgreen;\"">d键</p></span>\n               <p class='footer' style='font-size:35px; line-height:35px;'>对非“生人”对应的图形，如果 匹配 ，请按 <span style=\""color: lightgreen;\"">j键</span></p><p class='footer' style='font-size:35px'>如果 不匹配 ，请按<span style=\""color: lightgreen;\"">k键</p></span>\n               <p class='footer' style='font-size:22px; line-height:25px;'>请在实验过程中将您的<span style=\""color: lightgreen;\"">食指和中指</span>放在电脑键盘的相应键位上进行按键。</p></span>""]"," ","","","","","","","","","","","","","","","","","","","","","","","",""
"","","","","","psychophysics","211","623493","0.0-18.0-0.0-0.0","1048","","d","","","","","","","","","","","","","key","d","16.683016393442454","960","536","d","true","img/S_28.png","朋友","prac_stranger","","生人"
"","","","","","html-keyboard-response","212","623808","0.0-18.0-0.0-1.0","null","<span style='color:GreenYellow; font-size: 70px;'>正确! </span>","null","","","","","","","","","","","","","","","","","","","","","","","feedback_test",""
"","","","","","psychophysics","213","625661","0.0-18.0-0.0-0.1","851","","f","","","","","","","","","","","","","key","f","16.683281818181488","960","536","f","true","img/S_28.png","生人","prac_stranger","","生人"
"","","","","","html-keyboard-response","214","625977","0.0-18.0-0.0-1.1","null","<span style='color:GreenYellow; font-size: 70px;'>正确! </span>","null","","","","","","","","","","","","","","","","","","","","","","","feedback_test",""
"","","","","","psychophysics","215","628484","0.0-18.0-0.0-0.2","null","","null","","","","","","","","","","","","","key","null","16.683288590604402","960","536","k","false","img/C_28.png","朋友","prac_stranger","","自我"
"","","","","","html-keyboard-response","216","628789","0.0-18.0-0.0-1.2","null","<span class='add_' style='color:yellow; font-size: 70px;'> 太慢! </span>","null","","","","","","","","","","","","","","","","","","","","","","","feedback_test",""
"","","","","","psychophysics","217","630557","0.0-18.0-0.0-0.3","763","","f","","","","","","","","","","","","","key","f","16.683438095238635","960","536","f","true","img/S_28.png","生人","prac_stranger","","生人"
"","","","","","html-keyboard-response","218","630870","0.0-18.0-0.0-1.3","null","<span style='color:GreenYellow; font-size: 70px;'>正确! </span>","null","","","","","","","","","","","","","","","","","","","","","","","feedback_test",""
"","","","","","psychophysics","219","632613","0.0-18.0-0.0-0.4","742","","j","","","","","","","","","","","","","key","j","16.683194174756775","960","536","j","true","img/C_28.png","自我","prac_stranger","","自我"
"","","","","","html-keyboard-response","220","632926","0.0-18.0-0.0-1.4","null","<span style='color:GreenYellow; font-size: 70px;'>正确! </span>","null","","","","","","","","","","","","","","","","","","","","","","","feedback_test",""
"","","","","","psychophysics","221","634861","0.0-18.0-0.0-0.5","932","","j","","","","","","","","","","","","","key","j","16.68324347826065","960","536","j","true","img/C_28.png","自我","prac_stranger","","自我"
"","","","","","html-keyboard-response","222","635164","0.0-18.0-0.0-1.5","null","<span style='color:GreenYellow; font-size: 70px;'>正确! </span>","null","","","","","","","","","","","","","","","","","","","","","","","feedback_test",""
"","","","","","psychophysics","223","637013","0.0-18.0-0.0-0.6","839","","f","","","","","","","","","","","","","key","f","16.68299090909052","960","536","d","false","img/S_28.png","自我","prac_stranger","","生人"
"","","","","","html-keyboard-response","224","637328","0.0-18.0-0.0-1.6","null","<span style='color:red; font-size: 70px;'>错误! </span>","null","","","","","","","","","","","","","","","","","","","","","","","feedback_test",""
"","","","","","psychophysics","225","639189","0.0-18.0-0.0-0.7","848","","k","","","","","","","","","","","","","key","k","16.683200000000017","960","536","k","true","img/H_28.png","生人","prac_stranger","","朋友"
"","","","","","html-keyboard-response","226","639496","0.0-18.0-0.0-1.7","null","<span style='color:GreenYellow; font-size: 70px;'>正确! </span>","null","","","","","","","","","","","","","","","","","","","","","","","feedback_test",""
"","","","","","psychophysics","227","641357","0.0-18.0-0.0-0.8","860","","k","","","","","","","","","","","","","key","k","16.683218181818003","960","536","k","true","img/H_28.png","自我","prac_stranger","","朋友"
"","","","","","html-keyboard-response","228","641668","0.0-18.0-0.0-1.8","null","<span style='color:GreenYellow; font-size: 70px;'>正确! </span>","null","","","","","","","","","","","","","","","","","","","","","","","feedback_test",""
"","","","","","psychophysics","229","643373","0.0-18.0-0.0-0.9","698","","f","","","","","","","","","","","","","key","f","16.68333663366329","960","536","j","false","img/H_28.png","朋友","prac_stranger","","朋友"
"","","","","","html-keyboard-response","230","643678","0.0-18.0-0.0-1.9","null","<span style='color:red; font-size: 70px;'>错误! </span>","null","","","","","","","","","","","","","","","","","","","","","","","feedback_test",""
"","","","","","psychophysics","231","645413","0.0-18.0-0.0-0.10","730","","j","","","","","","","","","","","","","key","j","16.68338834951424","960","536","j","true","img/H_28.png","朋友","prac_stranger","","朋友"
"","","","","","html-keyboard-response","232","645719","0.0-18.0-0.0-1.10","null","<span style='color:GreenYellow; font-size: 70px;'>正确! </span>","null","","","","","","","","","","","","","","","","","","","","","","","feedback_test",""
"","","","","","psychophysics","233","647613","0.0-18.0-0.0-0.11","894","","k","","","","","","","","","","","","","key","k","16.683107142857416","960","536","k","true","img/C_28.png","生人","prac_stranger","","自我"
"","","","","","html-keyboard-response","234","647929","0.0-18.0-0.0-1.11","null","<span style='color:GreenYellow; font-size: 70px;'>正确! </span>","null","","","","","","","","","","","","","","","","","","","","","","","feedback_test",""
"","","","","","psychophysics","235","649925","0.0-18.0-0.0-0.12","987","","f","","","","","","","","","","","","","key","f","16.68341176470589","960","536","j","false","img/H_28.png","朋友","prac_stranger","","朋友"
"","","","","","html-keyboard-response","236","650241","0.0-18.0-0.0-1.12","null","<span style='color:red; font-size: 70px;'>错误! </span>","null","","","","","","","","","","","","","","","","","","","","","","","feedback_test",""
"","","","","","psychophysics","237","652093","0.0-18.0-0.0-0.13","840","","j","","","","","","","","","","","","","key","j","16.683245454545514","960","536","j","true","img/C_28.png","自我","prac_stranger","","自我"
"","","","","","html-keyboard-response","238","652405","0.0-18.0-0.0-1.13","null","<span style='color:GreenYellow; font-size: 70px;'>正确! </span>","null","","","","","","","","","","","","","","","","","","","","","","","feedback_test",""
"","","","","","psychophysics","239","654901","0.0-18.0-0.0-0.14","1495","","k","","","","","","","","","","","","","key","k","16.683140939596928","960","536","j","false","img/C_28.png","自我","prac_stranger","","自我"
"","","","","","html-keyboard-response","240","655208","0.0-18.0-0.0-1.14","null","<span style='color:red; font-size: 70px;'>错误! </span>","null","","","","","","","","","","","","","","","","","","","","","","","feedback_test",""
"","","","","","psychophysics","241","657261","0.0-18.0-0.0-0.15","1050","","k","","","","","","","","","","","","","key","k","16.68332786885277","960","536","k","true","img/H_28.png","生人","prac_stranger","","朋友"
"","","","","","html-keyboard-response","242","657564","0.0-18.0-0.0-1.15","null","<span style='color:GreenYellow; font-size: 70px;'>正确! </span>","null","","","","","","","","","","","","","","","","","","","","","","","feedback_test",""
"","","","","","psychophysics","243","659653","0.0-18.0-0.0-0.16","1089","","k","","","","","","","","","","","","","key","k","16.683217741934875","960","536","k","true","img/H_28.png","自我","prac_stranger","","朋友"
"","","","","","html-keyboard-response","244","659957","0.0-18.0-0.0-1.16","null","<span style='color:GreenYellow; font-size: 70px;'>正确! </span>","null","","","","","","","","","","","","","","","","","","","","","","","feedback_test",""
"","","","","","psychophysics","245","662189","0.0-18.0-0.0-0.17","1223","","k","","","","","","","","","","","","","key","k","16.683744360901997","960","536","k","true","img/C_28.png","生人","prac_stranger","","自我"
"","","","","","html-keyboard-response","246","662493","0.0-18.0-0.0-1.17","null","<span style='color:GreenYellow; font-size: 70px;'>正确! </span>","null","","","","","","","","","","","","","","","","","","","","","","","feedback_test",""
"","","","","","psychophysics","247","664365","0.0-18.0-0.0-0.18","863","","k","","","","","","","","","","","","","key","k","16.683405405405473","960","536","k","true","img/C_28.png","朋友","prac_stranger","","自我"
"","","","","","html-keyboard-response","248","664676","0.0-18.0-0.0-1.18","null","<span style='color:GreenYellow; font-size: 70px;'>正确! </span>","null","","","","","","","","","","","","","","","","","","","","","","","feedback_test",""
"","","","","","psychophysics","249","666429","0.0-18.0-0.0-0.19","741","","f","","","","","","","","","","","","","key","f","16.683269230768648","960","536","f","true","img/S_28.png","生人","prac_stranger","","生人"
"","","","","","html-keyboard-response","250","666735","0.0-18.0-0.0-1.19","null","<span style='color:GreenYellow; font-size: 70px;'>正确! </span>","null","","","","","","","","","","","","","","","","","","","","","","","feedback_test",""
"","","","","","psychophysics","251","668501","0.0-18.0-0.0-0.20","761","","d","","","","","","","","","","","","","key","d","16.683190476191452","960","536","d","true","img/S_28.png","自我","prac_stranger","","生人"
"","","","","","html-keyboard-response","252","668806","0.0-18.0-0.0-1.20","null","<span style='color:GreenYellow; font-size: 70px;'>正确! </span>","null","","","","","","","","","","","","","","","","","","","","","","","feedback_test",""
"","","","","","psychophysics","253","670685","0.0-18.0-0.0-0.21","877","","j","","","","","","","","","","","","","key","j","16.683276785714302","960","536","j","true","img/H_28.png","朋友","prac_stranger","","朋友"
"","","","","","html-keyboard-response","254","670989","0.0-18.0-0.0-1.21","null","<span style='color:GreenYellow; font-size: 70px;'>正确! </span>","null","","","","","","","","","","","","","","","","","","","","","","","feedback_test",""
"","","","","","psychophysics","255","673261","0.0-18.0-0.0-0.22","1267","","d","","","","","","","","","","","","","key","d","16.683407407406612","960","536","d","true","img/S_28.png","朋友","prac_stranger","","生人"
"","","","","","html-keyboard-response","256","673564","0.0-18.0-0.0-1.22","null","<span style='color:GreenYellow; font-size: 70px;'>正确! </span>","null","","","","","","","","","","","","","","","","","","","","","","","feedback_test",""
"","","","","","psychophysics","257","675373","0.0-18.0-0.0-0.23","801","","f","","","","","","","","","","","","","key","f","16.68325233644758","960","536","f","true","img/S_28.png","生人","prac_stranger","","生人"
"","","","","","html-keyboard-response","258","675681","0.0-18.0-0.0-1.23","null","<span style='color:GreenYellow; font-size: 70px;'>正确! </span>","null","","","","","","","","","","","","","","","","","","","","","","","feedback_test",""
"","","","","","html-keyboard-response","259","688117","0.0-19.0","12434","[""<style>.context{color:white; font-size: 35px; line-height:40px}</style>                                     <div><p class='context'>您正确回答了79% 的试次。</p><p class='context'>您的平均反应时为904毫秒。</p><p class='context'>恭喜您完成练习。您可以在此时休息一段时间，准备好后按任意键进入正式实验。</p><p class='footer' style='font-size: 35px; line-height:40px;'>请在进入正式实验实验之前将您的<span style='color: lightgreen;'>食指和中指</span>放在电脑键盘的相应键位上，做好按键准备。</p>""]"," ","","","","","","","","","","","","","","","","","","","","","","","",""
"","","","","","html-keyboard-response","260","691445","0.0-20.0-2.0-0.0","3323","
                 <p>请您将食指和中指放在相应按键上，准备进入<span style='color: yellow;'>重点图形为“生人”对应图形</span>的正式匹配任务</p>
                 <p> <div style = ""color: green""><按任意键开始></div></p>
                 "," ","","","","","","","","","","","","","","","","","","","","","","","",""
"","","","","","psychophysics","261","693325","0.0-20.0-2.0-1.0-0.0-0.0","877","","j","","","","","","","","","","","","","key","j","16.68333928571415","960","536","j","true","img/C_28.png","自我","stranger","","自我"
"","","","","","html-keyboard-response","262","693631","0.0-20.0-2.0-1.0-0.0-1.0","null","<span style='color:GreenYellow; font-size: 70px;'>正确! </span>","null","","","","","","","","","","","","","","","","","","","","","","","feedback_test",""
"","","","","","psychophysics","263","695733","0.0-20.0-2.0-1.0-0.0-0.1","1100","","k","","","","","","","","","","","","","key","k","16.683231999999844","960","536","d","false","img/S_28.png","自我","stranger","","生人"
"","","","","","html-keyboard-response","264","696035","0.0-20.0-2.0-1.0-0.0-1.1","null","<span style='color:red; font-size: 70px;'>错误! </span>","null","","","","","","","","","","","","","","","","","","","","","","","feedback_test",""
"","","","","","psychophysics","265","697685","0.0-20.0-2.0-1.0-0.0-0.2","649","","j","","","","","","","","","","","","","key","j","16.683278350514772","960","536","j","true","img/H_28.png","朋友","stranger","","朋友"
"","","","","","html-keyboard-response","266","697994","0.0-20.0-2.0-1.0-0.0-1.2","null","<span style='color:GreenYellow; font-size: 70px;'>正确! </span>","null","","","","","","","","","","","","","","","","","","","","","","","feedback_test",""
"","","","","","psychophysics","267","699693","0.0-20.0-2.0-1.0-0.0-0.3","689","","f","","","","","","","","","","","","","key","f","16.683297029703322","960","536","f","true","img/S_28.png","生人","stranger","","生人"
"","","","","","html-keyboard-response","268","699998","0.0-20.0-2.0-1.0-0.0-1.3","null","<span style='color:GreenYellow; font-size: 70px;'>正确! </span>","null","","","","","","","","","","","","","","","","","","","","","","","feedback_test",""
"","","","","","psychophysics","269","701877","0.0-20.0-2.0-1.0-0.0-0.4","871","","k","","","","","","","","","","","","","key","k","16.683526785714744","960","536","k","true","img/C_28.png","朋友","stranger","","自我"
"","","","","","html-keyboard-response","270","702184","0.0-20.0-2.0-1.0-0.0-1.4","null","<span style='color:GreenYellow; font-size: 70px;'>正确! </span>","null","","","","","","","","","","","","","","","","","","","","","","","feedback_test",""
"","","","","","psychophysics","271","704165","0.0-20.0-2.0-1.0-0.0-0.5","973","","d","","","","","","","","","","","","","key","d","16.68328813559344","960","536","d","true","img/S_28.png","朋友","stranger","","生人"
"","","","","","html-keyboard-response","272","704479","0.0-20.0-2.0-1.0-0.0-1.5","null","<span style='color:GreenYellow; font-size: 70px;'>正确! </span>","null","","","","","","","","","","","","","","","","","","","","","","","feedback_test",""
"","","","","","psychophysics","273","706389","0.0-20.0-2.0-1.0-0.0-0.6","902","","k","","","","","","","","","","","","","key","k","16.683203539823438","960","536","k","true","img/H_28.png","自我","stranger","","朋友"
"","","","","","html-keyboard-response","274","706692","0.0-20.0-2.0-1.0-0.0-1.6","null","<span style='color:GreenYellow; font-size: 70px;'>正确! </span>","null","","","","","","","","","","","","","","","","","","","","","","","feedback_test",""
"","","","","","psychophysics","275","708717","0.0-20.0-2.0-1.0-0.0-0.7","1021","","k","","","","","","","","","","","","","key","k","16.683421487603454","960","536","k","true","img/C_28.png","生人","stranger","","自我"
"","","","","","html-keyboard-response","276","709033","0.0-20.0-2.0-1.0-0.0-1.7","null","<span style='color:GreenYellow; font-size: 70px;'>正确! </span>","null","","","","","","","","","","","","","","","","","","","","","","","feedback_test",""
"","","","","","psychophysics","277","711085","0.0-20.0-2.0-1.0-0.0-0.8","1047","","f","","","","","","","","","","","","","key","f","16.683385245901814","960","536","f","true","img/S_28.png","生人","stranger","","生人"
"","","","","","html-keyboard-response","278","711397","0.0-20.0-2.0-1.0-0.0-1.8","null","<span style='color:GreenYellow; font-size: 70px;'>正确! </span>","null","","","","","","","","","","","","","","","","","","","","","","","feedback_test",""
"","","","","","psychophysics","279","713061","0.0-20.0-2.0-1.0-0.0-0.9","660","","j","","","","","","","","","","","","","key","j","16.68322222222306","960","536","j","true","img/H_28.png","朋友","stranger","","朋友"
"","","","","","html-keyboard-response","280","713374","0.0-20.0-2.0-1.0-0.0-1.9","null","<span style='color:GreenYellow; font-size: 70px;'>正确! </span>","null","","","","","","","","","","","","","","","","","","","","","","","feedback_test",""
"","","","","","psychophysics","281","715493","0.0-20.0-2.0-1.0-0.0-0.10","1109","","j","","","","","","","","","","","","","key","j","16.683317460317447","960","536","j","true","img/C_28.png","自我","stranger","","自我"
"","","","","","html-keyboard-response","282","715806","0.0-20.0-2.0-1.0-0.0-1.10","null","<span style='color:GreenYellow; font-size: 70px;'>正确! </span>","null","","","","","","","","","","","","","","","","","","","","","","","feedback_test",""
"","","","","","psychophysics","283","717773","0.0-20.0-2.0-1.0-0.0-0.11","959","","k","","","","","","","","","","","","","key","k","16.68317094017079","960","536","k","true","img/H_28.png","生人","stranger","","朋友"
"","","","","","html-keyboard-response","284","718083","0.0-20.0-2.0-1.0-0.0-1.11","null","<span style='color:GreenYellow; font-size: 70px;'>正确! </span>","null","","","","","","","","","","","","","","","","","","","","","","","feedback_test",""
"","","","","","psychophysics","285","720101","0.0-20.0-2.0-1.0-0.0-0.12","1010","","k","","","","","","","","","","","","","key","k","16.68354999999962","960","536","k","true","img/C_28.png","朋友","stranger","","自我"
"","","","","","html-keyboard-response","286","720403","0.0-20.0-2.0-1.0-0.0-1.12","null","<span style='color:GreenYellow; font-size: 70px;'>正确! </span>","null","","","","","","","","","","","","","","","","","","","","","","","feedback_test",""
"","","","","","psychophysics","287","722589","0.0-20.0-2.0-1.0-0.0-0.13","1180","","j","","","","","","","","","","","","","key","j","16.683369230769145","960","536","j","true","img/H_28.png","朋友","stranger","","朋友"
"","","","","","html-keyboard-response","288","722905","0.0-20.0-2.0-1.0-0.0-1.13","null","<span style='color:GreenYellow; font-size: 70px;'>正确! </span>","null","","","","","","","","","","","","","","","","","","","","","","","feedback_test",""
"","","","","","psychophysics","289","724581","0.0-20.0-2.0-1.0-0.0-0.14","669","","f","","","","","","","","","","","","","key","f","16.683410000000148","960","536","f","true","img/S_28.png","生人","stranger","","生人"
"","","","","","html-keyboard-response","290","724887","0.0-20.0-2.0-1.0-0.0-1.14","null","<span style='color:GreenYellow; font-size: 70px;'>正确! </span>","null","","","","","","","","","","","","","","","","","","","","","","","feedback_test",""
"","","","","","psychophysics","291","726661","0.0-20.0-2.0-1.0-0.0-0.15","764","","k","","","","","","","","","","","","","key","k","16.68342857142866","960","536","k","true","img/H_28.png","生人","stranger","","朋友"
"","","","","","html-keyboard-response","292","726977","0.0-20.0-2.0-1.0-0.0-1.15","null","<span style='color:GreenYellow; font-size: 70px;'>正确! </span>","null","","","","","","","","","","","","","","","","","","","","","","","feedback_test",""
"","","","","","psychophysics","293","728605","0.0-20.0-2.0-1.0-0.0-0.16","622","","f","","","","","","","","","","","","","key","f","16.68318556701121","960","536","f","true","img/S_28.png","生人","stranger","","生人"
"","","","","","html-keyboard-response","294","728907","0.0-20.0-2.0-1.0-0.0-1.16","null","<span style='color:GreenYellow; font-size: 70px;'>正确! </span>","null","","","","","","","","","","","","","","","","","","","","","","","feedback_test",""
"","","","","","psychophysics","295","730805","0.0-20.0-2.0-1.0-0.0-0.17","887","","k","","","","","","","","","","","","","key","k","16.68340707964581","960","536","d","false","img/S_28.png","自我","stranger","","生人"
"","","","","","html-keyboard-response","296","731120","0.0-20.0-2.0-1.0-0.0-1.17","null","<span style='color:red; font-size: 70px;'>错误! </span>","null","","","","","","","","","","","","","","","","","","","","","","","feedback_test",""
"","","","","","psychophysics","297","732845","0.0-20.0-2.0-1.0-0.0-0.18","725","","j","","","","","","","","","","","","","key","j","16.682049019608016","960","536","j","true","img/H_28.png","朋友","stranger","","朋友"
"","","","","","html-keyboard-response","298","733152","0.0-20.0-2.0-1.0-0.0-1.18","null","<span style='color:GreenYellow; font-size: 70px;'>正确! </span>","null","","","","","","","","","","","","","","","","","","","","","","","feedback_test",""
"","","","","","psychophysics","299","735461","0.0-20.0-2.0-1.0-0.0-0.19","1305","","d","","","","","","","","","","","","","key","d","16.683260869565487","960","536","d","true","img/S_28.png","朋友","stranger","","生人"
"","","","","","html-keyboard-response","300","735772","0.0-20.0-2.0-1.0-0.0-1.19","null","<span style='color:GreenYellow; font-size: 70px;'>正确! </span>","null","","","","","","","","","","","","","","","","","","","","","","","feedback_test",""
"","","","","","psychophysics","301","737645","0.0-20.0-2.0-1.0-0.0-0.20","870","","j","","","","","","","","","","","","","key","j","16.683312499999634","960","536","k","false","img/C_28.png","生人","stranger","","自我"
"","","","","","html-keyboard-response","302","737950","0.0-20.0-2.0-1.0-0.0-1.20","null","<span style='color:red; font-size: 70px;'>错误! </span>","null","","","","","","","","","","","","","","","","","","","","","","","feedback_test",""
"","","","","","psychophysics","303","739741","0.0-20.0-2.0-1.0-0.0-0.21","781","","j","","","","","","","","","","","","","key","j","16.683254716981573","960","536","j","true","img/C_28.png","自我","stranger","","自我"
"","","","","","html-keyboard-response","304","740049","0.0-20.0-2.0-1.0-0.0-1.21","null","<span style='color:GreenYellow; font-size: 70px;'>正确! </span>","null","","","","","","","","","","","","","","","","","","","","","","","feedback_test",""
"","","","","","psychophysics","305","741781","0.0-20.0-2.0-1.0-0.0-0.22","720","","j","","","","","","","","","","","","","key","j","16.683233009708946","960","536","j","true","img/C_28.png","自我","stranger","","自我"
"","","","","","html-keyboard-response","306","742093","0.0-20.0-2.0-1.0-0.0-1.22","null","<span style='color:GreenYellow; font-size: 70px;'>正确! </span>","null","","","","","","","","","","","","","","","","","","","","","","","feedback_test",""
"","","","","","psychophysics","307","744157","0.0-20.0-2.0-1.0-0.0-0.23","1059","","k","","","","","","","","","","","","","key","k","16.68321138211314","960","536","k","true","img/H_28.png","自我","stranger","","朋友"
"","","","","","html-keyboard-response","308","744466","0.0-20.0-2.0-1.0-0.0-1.23","null","<span style='color:GreenYellow; font-size: 70px;'>正确! </span>","null","","","","","","","","","","","","","","","","","","","","","","","feedback_test",""
"","","","","","psychophysics","309","746565","0.0-20.0-2.0-1.0-0.0-0.24","1098","","k","","","","","","","","","","","","","key","k","16.683209677419303","960","536","k","true","img/C_28.png","生人","stranger","","自我"
"","","","","","html-keyboard-response","310","746879","0.0-20.0-2.0-1.0-0.0-1.24","null","<span style='color:GreenYellow; font-size: 70px;'>正确! </span>","null","","","","","","","","","","","","","","","","","","","","","","","feedback_test",""
"","","","","","psychophysics","311","748605","0.0-20.0-2.0-1.0-0.0-0.25","719","","j","","","","","","","","","","","","","key","j","16.68338834951424","960","536","j","true","img/C_28.png","自我","stranger","","自我"
"","","","","","html-keyboard-response","312","748919","0.0-20.0-2.0-1.0-0.0-1.25","null","<span style='color:GreenYellow; font-size: 70px;'>正确! </span>","null","","","","","","","","","","","","","","","","","","","","","","","feedback_test",""
"","","","","","psychophysics","313","750757","0.0-20.0-2.0-1.0-0.0-0.26","836","","j","","","","","","","","","","","","","key","j","16.557422018348273","960","536","j","true","img/H_28.png","朋友","stranger","","朋友"
"","","","","","html-keyboard-response","314","751062","0.0-20.0-2.0-1.0-0.0-1.26","null","<span style='color:GreenYellow; font-size: 70px;'>正确! </span>","null","","","","","","","","","","","","","","","","","","","","","","","feedback_test",""
"","","","","","psychophysics","315","752845","0.0-20.0-2.0-1.0-0.0-0.27","771","","k","","","","","","","","","","","","","key","k","16.683207547170205","960","536","k","true","img/H_28.png","生人","stranger","","朋友"
"","","","","","html-keyboard-response","316","753150","0.0-20.0-2.0-1.0-0.0-1.27","null","<span style='color:GreenYellow; font-size: 70px;'>正确! </span>","null","","","","","","","","","","","","","","","","","","","","","","","feedback_test",""
"","","","","","psychophysics","317","754869","0.0-20.0-2.0-1.0-0.0-0.28","710","","j","","","","","","","","","","","","","key","j","16.683450980392724","960","536","j","true","img/H_28.png","朋友","stranger","","朋友"
"","","","","","html-keyboard-response","318","755179","0.0-20.0-2.0-1.0-0.0-1.28","null","<span style='color:GreenYellow; font-size: 70px;'>正确! </span>","null","","","","","","","","","","","","","","","","","","","","","","","feedback_test",""
"","","","","","psychophysics","319","756997","0.0-20.0-2.0-1.0-0.0-0.29","811","","j","","","","","","","","","","","","","key","j","16.683175925925347","960","536","j","true","img/C_28.png","自我","stranger","","自我"
"","","","","","html-keyboard-response","320","757313","0.0-20.0-2.0-1.0-0.0-1.29","null","<span style='color:GreenYellow; font-size: 70px;'>正确! </span>","null","","","","","","","","","","","","","","","","","","","","","","","feedback_test",""
"","","","","","psychophysics","321","759173","0.0-20.0-2.0-1.0-0.0-0.30","860","","k","","","","","","","","","","","","","key","k","16.683309090909","960","536","d","false","img/S_28.png","自我","stranger","","生人"
"","","","","","html-keyboard-response","322","759478","0.0-20.0-2.0-1.0-0.0-1.30","null","<span style='color:red; font-size: 70px;'>错误! </span>","null","","","","","","","","","","","","","","","","","","","","","","","feedback_test",""
"","","","","","psychophysics","323","761309","0.0-20.0-2.0-1.0-0.0-0.31","827","","f","","","","","","","","","","","","","key","f","16.683128440367067","960","536","f","true","img/S_28.png","生人","stranger","","生人"
"","","","","","html-keyboard-response","324","761625","0.0-20.0-2.0-1.0-0.0-1.31","null","<span style='color:GreenYellow; font-size: 70px;'>正确! </span>","null","","","","","","","","","","","","","","","","","","","","","","","feedback_test",""
"","","","","","psychophysics","325","763317","0.0-20.0-2.0-1.0-0.0-0.32","683","","f","","","","","","","","","","","","","key","f","16.683270000000483","960","536","f","true","img/S_28.png","生人","stranger","","生人"
"","","","","","html-keyboard-response","326","763631","0.0-20.0-2.0-1.0-0.0-1.32","null","<span style='color:GreenYellow; font-size: 70px;'>正确! </span>","null","","","","","","","","","","","","","","","","","","","","","","","feedback_test",""
"","","","","","psychophysics","327","765445","0.0-20.0-2.0-1.0-0.0-0.33","812","","k","","","","","","","","","","","","","key","k","16.683203703703366","960","536","k","true","img/H_28.png","自我","stranger","","朋友"
"","","","","","html-keyboard-response","328","765756","0.0-20.0-2.0-1.0-0.0-1.33","null","<span style='color:GreenYellow; font-size: 70px;'>正确! </span>","null","","","","","","","","","","","","","","","","","","","","","","","feedback_test",""
"","","","","","psychophysics","329","767989","0.0-20.0-2.0-1.0-0.0-0.34","1231","","d","","","","","","","","","","","","","key","d","16.683227272727173","960","536","d","true","img/S_28.png","朋友","stranger","","生人"
"","","","","","html-keyboard-response","330","768294","0.0-20.0-2.0-1.0-0.0-1.34","null","<span style='color:GreenYellow; font-size: 70px;'>正确! </span>","null","","","","","","","","","","","","","","","","","","","","","","","feedback_test",""
"","","","","","psychophysics","331","770069","0.0-20.0-2.0-1.0-0.0-0.35","764","","k","","","","","","","","","","","","","key","k","16.683152380951547","960","536","k","true","img/C_28.png","朋友","stranger","","自我"
"","","","","","html-keyboard-response","332","770385","0.0-20.0-2.0-1.0-0.0-1.35","null","<span style='color:GreenYellow; font-size: 70px;'>正确! </span>","null","","","","","","","","","","","","","","","","","","","","","","","feedback_test",""
"","","","","","psychophysics","333","772245","0.0-20.0-2.0-1.0-0.0-0.36","852","","k","","","","","","","","","","","","","key","k","16.683261261260775","960","536","k","true","img/H_28.png","生人","stranger","","朋友"
"","","","","","html-keyboard-response","334","772556","0.0-20.0-2.0-1.0-0.0-1.36","null","<span style='color:GreenYellow; font-size: 70px;'>正确! </span>","null","","","","","","","","","","","","","","","","","","","","","","","feedback_test",""
"","","","","","psychophysics","335","774221","0.0-20.0-2.0-1.0-0.0-0.37","659","","f","","","","","","","","","","","","","key","f","16.68329292929242","960","536","f","true","img/S_28.png","生人","stranger","","生人"
"","","","","","html-keyboard-response","336","774537","0.0-20.0-2.0-1.0-0.0-1.37","null","<span style='color:GreenYellow; font-size: 70px;'>正确! </span>","null","","","","","","","","","","","","","","","","","","","","","","","feedback_test",""
"","","","","","psychophysics","337","776149","0.0-20.0-2.0-1.0-0.0-0.38","602","","d","","","","","","","","","","","","","key","d","16.683249999999436","960","536","d","true","img/S_28.png","朋友","stranger","","生人"
"","","","","","html-keyboard-response","338","776465","0.0-20.0-2.0-1.0-0.0-1.38","null","<span style='color:GreenYellow; font-size: 70px;'>正确! </span>","null","","","","","","","","","","","","","","","","","","","","","","","feedback_test",""
"","","","","","psychophysics","339","778181","0.0-20.0-2.0-1.0-0.0-0.39","715","","k","","","","","","","","","","","","","key","k","16.682990099009505","960","536","k","true","img/C_28.png","朋友","stranger","","自我"
"","","","","","html-keyboard-response","340","778490","0.0-20.0-2.0-1.0-0.0-1.39","null","<span style='color:GreenYellow; font-size: 70px;'>正确! </span>","null","","","","","","","","","","","","","","","","","","","","","","","feedback_test",""
"","","","","","psychophysics","341","780501","0.0-20.0-2.0-1.0-0.0-0.40","1000","","k","","","","","","","","","","","","","key","k","16.683260504201353","960","536","k","true","img/C_28.png","生人","stranger","","自我"
"","","","","","html-keyboard-response","342","780804","0.0-20.0-2.0-1.0-0.0-1.40","null","<span style='color:GreenYellow; font-size: 70px;'>正确! </span>","null","","","","","","","","","","","","","","","","","","","","","","","feedback_test",""
"","","","","","psychophysics","343","782805","0.0-20.0-2.0-1.0-0.0-0.41","992","","k","","","","","","","","","","","","","key","k","16.68335294117662","960","536","d","false","img/S_28.png","自我","stranger","","生人"
"","","","","","html-keyboard-response","344","783110","0.0-20.0-2.0-1.0-0.0-1.41","null","<span style='color:red; font-size: 70px;'>错误! </span>","null","","","","","","","","","","","","","","","","","","","","","","","feedback_test",""
"","","","","","psychophysics","345","785069","0.0-20.0-2.0-1.0-0.0-0.42","952","","k","","","","","","","","","","","","","key","k","16.68310344827578","960","536","k","true","img/H_28.png","自我","stranger","","朋友"
"","","","","","html-keyboard-response","346","785371","0.0-20.0-2.0-1.0-0.0-1.42","null","<span style='color:GreenYellow; font-size: 70px;'>正确! </span>","null","","","","","","","","","","","","","","","","","","","","","","","feedback_test",""
"","","","","","psychophysics","347","787141","0.0-20.0-2.0-1.0-0.0-0.43","767","","j","","","","","","","","","","","","","key","j","16.683247619047982","960","536","j","true","img/C_28.png","自我","stranger","","自我"
"","","","","","html-keyboard-response","348","787447","0.0-20.0-2.0-1.0-0.0-1.43","null","<span style='color:GreenYellow; font-size: 70px;'>正确! </span>","null","","","","","","","","","","","","","","","","","","","","","","","feedback_test",""
"","","","","","psychophysics","349","789749","0.0-20.0-2.0-1.0-0.0-0.44","1289","","j","","","","","","","","","","","","","key","j","16.683270072992755","960","536","j","true","img/H_28.png","朋友","stranger","","朋友"
"","","","","","html-keyboard-response","350","790057","0.0-20.0-2.0-1.0-0.0-1.44","null","<span style='color:GreenYellow; font-size: 70px;'>正确! </span>","null","","","","","","","","","","","","","","","","","","","","","","","feedback_test",""
"","","","","","psychophysics","351","792285","0.0-20.0-2.0-1.0-0.0-0.45","1223","","j","","","","","","","","","","","","","key","j","16.68339097744407","960","536","j","true","img/C_28.png","自我","stranger","","自我"
"","","","","","html-keyboard-response","352","792590","0.0-20.0-2.0-1.0-0.0-1.45","null","<span style='color:GreenYellow; font-size: 70px;'>正确! </span>","null","","","","","","","","","","","","","","","","","","","","","","","feedback_test",""
"","","","","","psychophysics","353","794293","0.0-20.0-2.0-1.0-0.0-0.46","695","","j","","","","","","","","","","","","","key","j","16.683465346533776","960","536","j","true","img/H_28.png","朋友","stranger","","朋友"
"","","","","","html-keyboard-response","354","794597","0.0-20.0-2.0-1.0-0.0-1.46","null","<span style='color:GreenYellow; font-size: 70px;'>正确! </span>","null","","","","","","","","","","","","","","","","","","","","","","","feedback_test",""
"","","","","","psychophysics","355","796453","0.0-20.0-2.0-1.0-0.0-0.47","854","","f","","","","","","","","","","","","","key","f","16.683252252252387","960","536","f","true","img/S_28.png","生人","stranger","","生人"
"","","","","","html-keyboard-response","356","796755","0.0-20.0-2.0-1.0-0.0-1.47","null","<span style='color:GreenYellow; font-size: 70px;'>正确! </span>","null","","","","","","","","","","","","","","","","","","","","","","","feedback_test",""
"","","","","","psychophysics","357","798501","0.0-20.0-2.0-1.0-0.0-0.48","736","","k","","","","","","","","","","","","","key","k","16.683310679612156","960","536","k","true","img/H_28.png","自我","stranger","","朋友"
"","","","","","html-keyboard-response","358","798812","0.0-20.0-2.0-1.0-0.0-1.48","null","<span style='color:GreenYellow; font-size: 70px;'>正确! </span>","null","","","","","","","","","","","","","","","","","","","","","","","feedback_test",""
"","","","","","psychophysics","359","800693","0.0-20.0-2.0-1.0-0.0-0.49","873","","j","","","","","","","","","","","","","key","j","16.68305357142838","960","536","j","true","img/C_28.png","自我","stranger","","自我"
"","","","","","html-keyboard-response","360","801008","0.0-20.0-2.0-1.0-0.0-1.49","null","<span style='color:GreenYellow; font-size: 70px;'>正确! </span>","null","","","","","","","","","","","","","","","","","","","","","","","feedback_test",""
"","","","","","psychophysics","361","802613","0.0-20.0-2.0-1.0-0.0-0.50","592","","j","","","","","","","","","","","","","key","j","16.683336842104204","960","536","j","true","img/H_28.png","朋友","stranger","","朋友"
"","","","","","html-keyboard-response","362","802920","0.0-20.0-2.0-1.0-0.0-1.50","null","<span style='color:GreenYellow; font-size: 70px;'>正确! </span>","null","","","","","","","","","","","","","","","","","","","","","","","feedback_test",""
"","","","","","psychophysics","363","804741","0.0-20.0-2.0-1.0-0.0-0.51","816","","f","","","","","","","","","","","","","key","f","16.683222222222767","960","536","f","true","img/S_28.png","生人","stranger","","生人"
"","","","","","html-keyboard-response","364","805055","0.0-20.0-2.0-1.0-0.0-1.51","null","<span style='color:GreenYellow; font-size: 70px;'>正确! </span>","null","","","","","","","","","","","","","","","","","","","","","","","feedback_test",""
"","","","","","psychophysics","365","807029","0.0-20.0-2.0-1.0-0.0-0.52","968","","k","","","","","","","","","","","","","key","k","16.68303389830507","960","536","k","true","img/C_28.png","生人","stranger","","自我"
"","","","","","html-keyboard-response","366","807337","0.0-20.0-2.0-1.0-0.0-1.52","null","<span style='color:GreenYellow; font-size: 70px;'>正确! </span>","null","","","","","","","","","","","","","","","","","","","","","","","feedback_test",""
"","","","","","psychophysics","367","809237","0.0-20.0-2.0-1.0-0.0-0.53","892","","k","","","","","","","","","","","","","key","k","16.68302654867283","960","536","k","true","img/C_28.png","朋友","stranger","","自我"
"","","","","","html-keyboard-response","368","809549","0.0-20.0-2.0-1.0-0.0-1.53","null","<span style='color:GreenYellow; font-size: 70px;'>正确! </span>","null","","","","","","","","","","","","","","","","","","","","","","","feedback_test",""
"","","","","","psychophysics","369","811517","0.0-20.0-2.0-1.0-0.0-0.54","955","","k","","","","","","","","","","","","","key","k","16.682264957265556","960","536","k","true","img/H_28.png","生人","stranger","","朋友"
"","","","","","html-keyboard-response","370","811831","0.0-20.0-2.0-1.0-0.0-1.54","null","<span style='color:GreenYellow; font-size: 70px;'>正确! </span>","null","","","","","","","","","","","","","","","","","","","","","","","feedback_test",""
"","","","","","psychophysics","371","813517","0.0-20.0-2.0-1.0-0.0-0.55","683","","d","","","","","","","","","","","","","key","d","16.683429999999934","960","536","d","true","img/S_28.png","朋友","stranger","","生人"
"","","","","","html-keyboard-response","372","813826","0.0-20.0-2.0-1.0-0.0-1.55","null","<span style='color:GreenYellow; font-size: 70px;'>正确! </span>","null","","","","","","","","","","","","","","","","","","","","","","","feedback_test",""
"","","","","","psychophysics","373","815709","0.0-20.0-2.0-1.0-0.0-0.56","873","","j","","","","","","","","","","","","","key","j","16.68317857142912","960","536","j","true","img/C_28.png","自我","stranger","","自我"
"","","","","","html-keyboard-response","374","816024","0.0-20.0-2.0-1.0-0.0-1.56","null","<span style='color:GreenYellow; font-size: 70px;'>正确! </span>","null","","","","","","","","","","","","","","","","","","","","","","","feedback_test",""
"","","","","","psychophysics","375","818189","0.0-20.0-2.0-1.0-0.0-0.57","1153","","j","","","","","","","","","","","","","key","j","16.683265624999876","960","536","j","true","img/H_28.png","朋友","stranger","","朋友"
"","","","","","html-keyboard-response","376","818493","0.0-20.0-2.0-1.0-0.0-1.57","null","<span style='color:GreenYellow; font-size: 70px;'>正确! </span>","null","","","","","","","","","","","","","","","","","","","","","","","feedback_test",""
"","","","","","psychophysics","377","820557","0.0-20.0-2.0-1.0-0.0-0.58","1059","","d","","","","","","","","","","","","","key","d","16.683196721311283","960","536","d","true","img/S_28.png","自我","stranger","","生人"
"","","","","","html-keyboard-response","378","820858","0.0-20.0-2.0-1.0-0.0-1.58","null","<span style='color:GreenYellow; font-size: 70px;'>正确! </span>","null","","","","","","","","","","","","","","","","","","","","","","","feedback_test",""
"","","","","","psychophysics","379","822525","0.0-20.0-2.0-1.0-0.0-0.59","665","","f","","","","","","","","","","","","","key","f","16.53307142857063","960","536","f","true","img/S_28.png","生人","stranger","","生人"
"","","","","","html-keyboard-response","380","822840","0.0-20.0-2.0-1.0-0.0-1.59","null","<span style='color:GreenYellow; font-size: 70px;'>正确! </span>","null","","","","","","","","","","","","","","","","","","","","","","","feedback_test",""
"","","","","","psychophysics","381","824517","0.0-20.0-2.0-1.0-0.0-0.60","672","","j","","","","","","","","","","","","","key","j","16.683349999999628","960","536","j","true","img/H_28.png","朋友","stranger","","朋友"
"","","","","","html-keyboard-response","382","824829","0.0-20.0-2.0-1.0-0.0-1.60","null","<span style='color:GreenYellow; font-size: 70px;'>正确! </span>","null","","","","","","","","","","","","","","","","","","","","","","","feedback_test",""
"","","","","","psychophysics","383","827005","0.0-20.0-2.0-1.0-0.0-0.61","1175","","d","","","","","","","","","","","","","key","d","16.575124031007686","960","536","d","true","img/S_28.png","自我","stranger","","生人"
"","","","","","html-keyboard-response","384","827316","0.0-20.0-2.0-1.0-0.0-1.61","null","<span style='color:GreenYellow; font-size: 70px;'>正确! </span>","null","","","","","","","","","","","","","","","","","","","","","","","feedback_test",""
"","","","","","psychophysics","385","829093","0.0-20.0-2.0-1.0-0.0-0.62","776","","k","","","","","","","","","","","","","key","k","16.68325714285685","960","536","k","true","img/H_28.png","自我","stranger","","朋友"
"","","","","","html-keyboard-response","386","829405","0.0-20.0-2.0-1.0-0.0-1.62","null","<span style='color:GreenYellow; font-size: 70px;'>正确! </span>","null","","","","","","","","","","","","","","","","","","","","","","","feedback_test",""
"","","","","","psychophysics","387","831277","0.0-20.0-2.0-1.0-0.0-0.63","859","","k","","","","","","","","","","","","","key","k","16.683306306305862","960","536","k","true","img/C_28.png","生人","stranger","","自我"
"","","","","","html-keyboard-response","388","831588","0.0-20.0-2.0-1.0-0.0-1.63","null","<span style='color:GreenYellow; font-size: 70px;'>正确! </span>","null","","","","","","","","","","","","","","","","","","","","","","","feedback_test",""
"","","","","","psychophysics","389","833245","0.0-20.0-2.0-1.0-0.0-0.64","645","","j","","","","","","","","","","","","","key","j","16.683265306123257","960","536","j","true","img/C_28.png","自我","stranger","","自我"
"","","","","","html-keyboard-response","390","833550","0.0-20.0-2.0-1.0-0.0-1.64","null","<span style='color:GreenYellow; font-size: 70px;'>正确! </span>","null","","","","","","","","","","","","","","","","","","","","","","","feedback_test",""
"","","","","","psychophysics","391","835549","0.0-20.0-2.0-1.0-0.0-0.65","993","","k","","","","","","","","","","","","","key","k","16.68333613445411","960","536","k","true","img/H_28.png","生人","stranger","","朋友"
"","","","","","html-keyboard-response","392","835856","0.0-20.0-2.0-1.0-0.0-1.65","null","<span style='color:GreenYellow; font-size: 70px;'>正确! </span>","null","","","","","","","","","","","","","","","","","","","","","","","feedback_test",""
"","","","","","psychophysics","393","837693","0.0-20.0-2.0-1.0-0.0-0.66","835","","k","","","","","","","","","","","","","key","k","16.55098165137642","960","536","k","true","img/C_28.png","朋友","stranger","","自我"
"","","","","","html-keyboard-response","394","837995","0.0-20.0-2.0-1.0-0.0-1.66","null","<span style='color:GreenYellow; font-size: 70px;'>正确! </span>","null","","","","","","","","","","","","","","","","","","","","","","","feedback_test",""
"","","","","","psychophysics","395","839981","0.0-20.0-2.0-1.0-0.0-0.67","971","","d","","","","","","","","","","","","","key","d","16.68328813559344","960","536","f","false","img/S_28.png","生人","stranger","","生人"
"","","","","","html-keyboard-response","396","840294","0.0-20.0-2.0-1.0-0.0-1.67","null","<span style='color:red; font-size: 70px;'>错误! </span>","null","","","","","","","","","","","","","","","","","","","","","","","feedback_test",""
"","","","","","psychophysics","397","842053","0.0-20.0-2.0-1.0-0.0-0.68","757","","d","","","","","","","","","","","","","key","d","16.544769230768836","960","536","d","true","img/S_28.png","朋友","stranger","","生人"
"","","","","","html-keyboard-response","398","842365","0.0-20.0-2.0-1.0-0.0-1.68","null","<span style='color:GreenYellow; font-size: 70px;'>正确! </span>","null","","","","","","","","","","","","","","","","","","","","","","","feedback_test",""
"","","","","","psychophysics","399","844205","0.0-20.0-2.0-1.0-0.0-0.69","828","","j","","","","","","","","","","","","","key","j","16.683110091742343","960","536","j","true","img/H_28.png","朋友","stranger","","朋友"
"","","","","","html-keyboard-response","400","844518","0.0-20.0-2.0-1.0-0.0-1.69","null","<span style='color:GreenYellow; font-size: 70px;'>正确! </span>","null","","","","","","","","","","","","","","","","","","","","","","","feedback_test",""
"","","","","","psychophysics","401","846237","0.0-20.0-2.0-1.0-0.0-0.70","706","","j","","","","","","","","","","","","","key","j","16.683303921569056","960","536","j","true","img/C_28.png","自我","stranger","","自我"
"","","","","","html-keyboard-response","402","846547","0.0-20.0-2.0-1.0-0.0-1.70","null","<span style='color:GreenYellow; font-size: 70px;'>正确! </span>","null","","","","","","","","","","","","","","","","","","","","","","","feedback_test",""
"","","","","","psychophysics","403","848413","0.0-20.0-2.0-1.0-0.0-0.71","861","","f","","","","","","","","","","","","","key","f","16.683432432432735","960","536","f","true","img/S_28.png","生人","stranger","","生人"
"","","","","","html-keyboard-response","404","848718","0.0-20.0-2.0-1.0-0.0-1.71","null","<span style='color:GreenYellow; font-size: 70px;'>正确! </span>","null","","","","","","","","","","","","","","","","","","","","","","","feedback_test",""
"","","","","","html-keyboard-response","405","851085","0.0-20.0-2.0-1.0-1.0","2366","<style>.context{color:white; font-size: 35px; line-height:40px}</style>                                     <div><p class='context'>您正确回答了92% 的试次。</p><p class='context'>您的平均反应时为861毫秒。</p><p class='context'>请按任意键进入休息</p></div>"," ","","","","","","","","","","","","","","","","","","","","","","","",""
"","","","","","html-button-response","406","912051","0.0-20.0-2.0-1.0-2.0","60963","
                             <p>在 优先关注""生人""图形 的要求下，您还剩余4组实验</p>
                             <p>现在是休息时间，当您结束休息后，您可以点击 结束休息 按钮 继续</p>
                             <p>建议休息时间还剩余<span id=""iii"">60</span>秒</p>","0","","","","","","","","","","","","","","","","","","","","","","","",""
"","","","","","psychophysics","407","913877","0.0-20.0-2.0-1.0-0.1-0.72","810","","k","","","","","","","","","","","","","key","k","16.683296296296046","960","536","k","true","img/C_28.png","生人","stranger","","自我"
"","","","","","html-keyboard-response","408","914180","0.0-20.0-2.0-1.0-0.1-1.72","null","<span style='color:GreenYellow; font-size: 70px;'>正确! </span>","null","","","","","","","","","","","","","","","","","","","","","","","feedback_test",""
"","","","","","psychophysics","409","916101","0.0-20.0-2.0-1.0-0.1-0.73","919","","k","","","","","","","","","","","","","key","k","16.683175438596344","960","536","k","true","img/H_28.png","自我","stranger","","朋友"
"","","","","","html-keyboard-response","410","916403","0.0-20.0-2.0-1.0-0.1-1.73","null","<span style='color:GreenYellow; font-size: 70px;'>正确! </span>","null","","","","","","","","","","","","","","","","","","","","","","","feedback_test",""
"","","","","","psychophysics","411","918141","0.0-20.0-2.0-1.0-0.1-0.74","736","","f","","","","","","","","","","","","","key","f","16.54352427184473","960","536","f","true","img/S_28.png","生人","stranger","","生人"
"","","","","","html-keyboard-response","412","918457","0.0-20.0-2.0-1.0-0.1-1.74","null","<span style='color:GreenYellow; font-size: 70px;'>正确! </span>","null","","","","","","","","","","","","","","","","","","","","","","","feedback_test",""
"","","","","","psychophysics","413","920133","0.0-20.0-2.0-1.0-0.1-0.75","675","","j","","","","","","","","","","","","","key","j","16.68295959595972","960","536","j","true","img/C_28.png","自我","stranger","","自我"
"","","","","","html-keyboard-response","414","920438","0.0-20.0-2.0-1.0-0.1-1.75","null","<span style='color:GreenYellow; font-size: 70px;'>正确! </span>","null","","","","","","","","","","","","","","","","","","","","","","","feedback_test",""
"","","","","","psychophysics","415","922109","0.0-20.0-2.0-1.0-0.1-0.76","667","","j","","","","","","","","","","","","","key","j","16.683202020201897","960","536","j","true","img/H_28.png","朋友","stranger","","朋友"
"","","","","","html-keyboard-response","416","922418","0.0-20.0-2.0-1.0-0.1-1.76","null","<span style='color:GreenYellow; font-size: 70px;'>正确! </span>","null","","","","","","","","","","","","","","","","","","","","","","","feedback_test",""
"","","","","","psychophysics","417","924213","0.0-20.0-2.0-1.0-0.1-0.77","786","","j","","","","","","","","","","","","","key","j","16.68314953270982","960","536","j","true","img/H_28.png","朋友","stranger","","朋友"
"","","","","","html-keyboard-response","418","924525","0.0-20.0-2.0-1.0-0.1-1.77","null","<span style='color:GreenYellow; font-size: 70px;'>正确! </span>","null","","","","","","","","","","","","","","","","","","","","","","","feedback_test",""
"","","","","","psychophysics","419","926325","0.0-20.0-2.0-1.0-0.1-0.78","795","","k","","","","","","","","","","","","","key","k","16.683233644858994","960","536","d","false","img/S_28.png","朋友","stranger","","生人"
