"success","timeout","failed_images","failed_audio","failed_video","trial_type","trial_index","time_elapsed","internal_node_id","rt","stimulus","response","value","item_width_mm","item_height_mm","item_width_px","px2mm","view_dist_mm","item_width_deg","px2deg","scale_factor","win_width_deg","win_height_deg","view_history","response_type","key_press","avg_frame_time","center_x","center_y","correct_response","correct","Image","text","condition","screen_id","label"
"true","false","[]","[]","[]","preload","0","532","0.0-0.0","","","","","","","","","","","","","","","","","","","","","","","","","","",""
"","","","","","html-keyboard-response","1","53160","0.0-1.0","52627","
  <p>您好，欢迎参加本次实验。</p>
  <p>为充分保障您的权利，请确保您已经知晓并同意《参与实验同意书》以及《数据公开知情同意书》。</p>
  <p>如果您未见过上述内容，请咨询实验员。</p>
  <p>如果您选择继续实验，则表示您已经清楚两份知情同意书的内容并同意。</p>
  <p> <div style = ""color: green""><按任意键至下页></div> </p>
  ","arrowdown","","","","","","","","","","","","","","","","","","","","","","","",""
"","","","","","html-keyboard-response","2","54632","0.0-2.0","1471","
  <p>本实验首先需要您填写一些基本个人信息。</p>
  <p> <div style = ""color: green""><按任意键至下页></div></p>
  ","arrowdown","","","","","","","","","","","","","","","","","","","","","","","",""
"","","","","","call-function","3","54634","0.0-3.0-0.0","","","","","","","","","","","","","","","","","","","","","","","","","","",""
"","","","","","survey-html-form","4","58353","0.0-3.0-1.0","3711","","{""Q0"":""3""}","","","","","","","","","","","","","","","","","","","","","","","",""
"","","","","","html-button-response","5","59505","0.0-3.0-2.0","1151","<p style = 'color : white'>您的性别</p>","0","","","","","","","","","","","","","","","","","","","","","","","",""
"","","","","","survey-html-form","6","63945","0.0-3.0-3.0","4439","","{""Q0"":""2000""}","","","","","","","","","","","","","","","","","","","","","","","",""
"","","","","","survey-html-form","7","67673","0.0-3.0-4.0","3726","","{""Q0"":""5""}","","","","","","","","","","","","","","","","","","","","","","","",""
"","","","","","virtual-chinrest","8","338354","0.0-4.0","270678","","","","85.6","53.98","352.43850768925597","4.11707445919281","694.92","7.048770153785119","50","0.9448456758692361","23.68","11.8","","","","","","","","","","","","",""
"true","","","","","fullscreen","9","341421","0.0-5.0","","","","","","","","","","","","","","","","","","","","","","","","","","",""
"","","","","","instructions","10","408345","0.0-6.0","66922","","","","","","","","","","","","","","[{""page_index"":0,""viewing_time"":5169},{""page_index"":1,""viewing_time"":11321},{""page_index"":2,""viewing_time"":40880},{""page_index"":3,""viewing_time"":7440},{""page_index"":4,""viewing_time"":2112}]","","","","","","","","","","","",""
"","","","","","instructions","11","483465","0.0-7.0","75119","","","","","","","","","","","","","","[{""page_index"":0,""viewing_time"":75118}]","","","","","","","","","","","",""
"","","","","","psychophysics","12","495513","0.0-8.0-0.0-0.0","11036","","f","","","","","","","","","","","","","key","f","16.66260610263523","619.356858401975","344.19467078901425","k","false","img/C_28.png","自我","freeprac_self","",""
"","","","","","html-keyboard-response","13","495818","0.0-8.0-0.0-1.0","null","<span style='color:red; font-size: 70px;'>错误! </span>","null","","","","","","","","","","","","","","","","","","","","","","","feedback_test",""
"","","","","","psychophysics","14","504622","0.0-8.0-0.0-0.1","7792","","f","","","","","","","","","","","","","key","f","16.662442125237227","619.356858401975","344.19467078901425","j","false","img/C_28.png","生人","freeprac_self","",""
"","","","","","html-keyboard-response","15","504936","0.0-8.0-0.0-1.1","null","<span style='color:red; font-size: 70px;'>错误! </span>","null","","","","","","","","","","","","","","","","","","","","","","","feedback_test",""
"","","","","","psychophysics","16","510613","0.0-8.0-0.0-0.2","4670","","j","","","","","","","","","","","","","key","j","16.662823529411895","619.356858401975","344.19467078901425","j","true","img/H_28.png","朋友","freeprac_self","",""
"","","","","","html-keyboard-response","17","510930","0.0-8.0-0.0-1.2","null","<span style='color:GreenYellow; font-size: 70px;'>正确! </span>","null","","","","","","","","","","","","","","","","","","","","","","","feedback_test",""
"","","","","","psychophysics","18","518624","0.0-8.0-0.0-0.3","6682","","f","","","","","","","","","","","","","key","f","16.662598698481652","619.356858401975","344.19467078901425","k","false","img/H_28.png","自我","freeprac_self","",""
"","","","","","html-keyboard-response","19","518934","0.0-8.0-0.0-1.3","null","<span style='color:red; font-size: 70px;'>错误! </span>","null","","","","","","","","","","","","","","","","","","","","","","","feedback_test",""
"","","","","","psychophysics","20","520483","0.0-8.0-0.0-0.4","543","","f","","","","","","","","","","","","","key","f","16.66289130434819","619.356858401975","344.19467078901425","f","true","img/S_28.png","自我","freeprac_self","",""
"","","","","","html-keyboard-response","21","520791","0.0-8.0-0.0-1.4","null","<span style='color:GreenYellow; font-size: 70px;'>正确! </span>","null","","","","","","","","","","","","","","","","","","","","","","","feedback_test",""
"","","","","","psychophysics","22","522070","0.0-8.0-0.0-0.5","265","","f","","","","","","","","","","","","","key","f","16.66637333333337","619.356858401975","344.19467078901425","j","false","img/H_28.png","朋友","freeprac_self","",""
"","","","","","html-keyboard-response","23","522385","0.0-8.0-0.0-1.5","null","<span style='color:red; font-size: 70px;'>错误! </span>","null","","","","","","","","","","","","","","","","","","","","","","","feedback_test",""
"","","","","","psychophysics","24","523908","0.0-8.0-0.0-0.6","521","","j","","","","","","","","","","","","","key","j","16.663780219781284","619.356858401975","344.19467078901425","k","false","img/H_28.png","生人","freeprac_self","",""
"","","","","","html-keyboard-response","25","524212","0.0-8.0-0.0-1.6","null","<span style='color:red; font-size: 70px;'>错误! </span>","null","","","","","","","","","","","","","","","","","","","","","","","feedback_test",""
"","","","","","psychophysics","26","526097","0.0-8.0-0.0-0.7","875","","f","","","","","","","","","","","","","key","f","16.662339285714552","619.356858401975","344.19467078901425","d","false","img/S_28.png","生人","freeprac_self","",""
"","","","","","html-keyboard-response","27","526398","0.0-8.0-0.0-1.7","null","<span style='color:red; font-size: 70px;'>错误! </span>","null","","","","","","","","","","","","","","","","","","","","","","","feedback_test",""
"","","","","","psychophysics","28","527532","0.0-8.0-0.0-0.8","133","","f","","","","","","","","","","","","","key","f","16.668791044776246","619.356858401975","344.19467078901425","f","true","img/S_28.png","自我","freeprac_self","",""
"","","","","","html-keyboard-response","29","527841","0.0-8.0-0.0-1.8","null","<span style='color:GreenYellow; font-size: 70px;'>正确! </span>","null","","","","","","","","","","","","","","","","","","","","","","","feedback_test",""
"","","","","","psychophysics","30","529086","0.0-8.0-0.0-0.9","240","","f","","","","","","","","","","","","","key","f","16.66226027397222","619.356858401975","344.19467078901425","d","false","img/S_28.png","朋友","freeprac_self","",""
"","","","","","html-keyboard-response","31","529390","0.0-8.0-0.0-1.9","null","<span style='color:red; font-size: 70px;'>错误! </span>","null","","","","","","","","","","","","","","","","","","","","","","","feedback_test",""
"","","","","","psychophysics","32","531729","0.0-8.0-0.0-0.10","1336","","f","","","","","","","","","","","","","key","f","16.66311510791332","619.356858401975","344.19467078901425","k","false","img/C_28.png","朋友","freeprac_self","",""
"","","","","","html-keyboard-response","33","532040","0.0-8.0-0.0-1.10","null","<span style='color:red; font-size: 70px;'>错误! </span>","null","","","","","","","","","","","","","","","","","","","","","","","feedback_test",""
"","","","","","psychophysics","34","533373","0.0-8.0-0.0-0.11","323","","f","","","","","","","","","","","","","key","f","16.66732911392457","619.356858401975","344.19467078901425","j","false","img/C_28.png","生人","freeprac_self","",""
"","","","","","html-keyboard-response","35","533690","0.0-8.0-0.0-1.11","null","<span style='color:red; font-size: 70px;'>错误! </span>","null","","","","","","","","","","","","","","","","","","","","","","","feedback_test",""
"","","","","","html-keyboard-response","36","535745","0.0-8.0-1.0-0.0","2052","<style>.context{color:white; font-size: 35px; line-height:40px}</style>                           <div><p class='context'>您正确回答了25% 的试次。</p><p class='context'>您的平均反应时为1782毫秒。</p>","f","","","","","","","","","","","","","","","","","","","","","","","",""
"","","","","","instructions","37","619081","0.0-8.0-1.0-1.0","83331","","","","","","","","","","","","","","[{""page_index"":0,""viewing_time"":4219},{""page_index"":1,""viewing_time"":77504},{""page_index"":2,""viewing_time"":1608}]","","","","","","","","","","","",""
"","","","","","psychophysics","38","623663","0.0-8.1-0.1-0.12","3568","","k","","","","","","","","","","","","","key","k","16.66244322344304","619.356858401975","344.19467078901425","j","false","img/C_28.png","生人","freeprac_self","",""
"","","","","","html-keyboard-response","39","623975","0.0-8.1-0.1-1.12","null","<span style='color:red; font-size: 70px;'>错误! </span>","null","","","","","","","","","","","","","","","","","","","","","","","feedback_test",""
"","","","","","psychophysics","40","631777","0.0-8.1-0.1-0.13","6800","","k","","","","","","","","","","","","","key","k","16.662792291220505","619.356858401975","344.19467078901425","f","false","img/S_28.png","自我","freeprac_self","",""
"","","","","","html-keyboard-response","41","632080","0.0-8.1-0.1-1.13","null","<span style='color:red; font-size: 70px;'>错误! </span>","null","","","","","","","","","","","","","","","","","","","","","","","feedback_test",""
"","","","","","psychophysics","42","640479","0.0-8.1-0.1-0.14","7384","","k","","","","","","","","","","","","","key","k","16.662723658051643","619.356858401975","344.19467078901425","d","false","img/S_28.png","生人","freeprac_self","",""
"","","","","","html-keyboard-response","43","640781","0.0-8.1-0.1-1.14","null","<span style='color:red; font-size: 70px;'>错误! </span>","null","","","","","","","","","","","","","","","","","","","","","","","feedback_test",""
"","","","","","psychophysics","44","644639","0.0-8.1-0.1-0.15","2847","","j","","","","","","","","","","","","","key","j","16.66356086956499","619.356858401975","344.19467078901425","k","false","img/H_28.png","生人","freeprac_self","",""
"","","","","","html-keyboard-response","45","644949","0.0-8.1-0.1-1.15","null","<span style='color:red; font-size: 70px;'>错误! </span>","null","","","","","","","","","","","","","","","","","","","","","","","feedback_test",""
"","","","","","psychophysics","46","650301","0.0-8.1-0.1-0.16","4343","","f","","","","","","","","","","","","","key","f","16.662571874999777","619.356858401975","344.19467078901425","f","true","img/S_28.png","自我","freeprac_self","",""
"","","","","","html-keyboard-response","47","650609","0.0-8.1-0.1-1.16","null","<span style='color:GreenYellow; font-size: 70px;'>正确! </span>","null","","","","","","","","","","","","","","","","","","","","","","","feedback_test",""
"","","","","","psychophysics","48","653749","0.0-8.1-0.1-0.17","2137","","k","","","","","","","","","","","","","key","k","16.662433155080215","619.356858401975","344.19467078901425","d","false","img/S_28.png","朋友","freeprac_self","",""
"","","","","","html-keyboard-response","49","654051","0.0-8.1-0.1-1.17","null","<span style='color:red; font-size: 70px;'>错误! </span>","null","","","","","","","","","","","","","","","","","","","","","","","feedback_test",""
"","","","","","psychophysics","50","660647","0.0-8.1-0.1-0.18","5591","","k","","","","","","","","","","","","","key","k","16.662751898734207","619.356858401975","344.19467078901425","j","false","img/C_28.png","生人","freeprac_self","",""
"","","","","","html-keyboard-response","51","660948","0.0-8.1-0.1-1.18","null","<span style='color:red; font-size: 70px;'>错误! </span>","null","","","","","","","","","","","","","","","","","","","","","","","feedback_test",""
"","","","","","psychophysics","52","665347","0.0-8.1-0.1-0.19","3393","","j","","","","","","","","","","","","","key","j","16.66273003802263","619.356858401975","344.19467078901425","j","true","img/H_28.png","朋友","freeprac_self","",""
"","","","","","html-keyboard-response","53","665657","0.0-8.1-0.1-1.19","null","<span style='color:GreenYellow; font-size: 70px;'>正确! </span>","null","","","","","","","","","","","","","","","","","","","","","","","feedback_test",""
"","","","","","psychophysics","54","667792","0.0-8.1-0.1-0.20","1123","","j","","","","","","","","","","","","","key","j","16.661000000000346","619.356858401975","344.19467078901425","j","true","img/H_28.png","朋友","freeprac_self","",""
"","","","","","html-keyboard-response","55","668109","0.0-8.1-0.1-1.20","null","<span style='color:GreenYellow; font-size: 70px;'>正确! </span>","null","","","","","","","","","","","","","","","","","","","","","","","feedback_test",""
"","","","","","psychophysics","56","670918","0.0-8.1-0.1-0.21","1798","","k","","","","","","","","","","","","","key","k","16.662377245508797","619.356858401975","344.19467078901425","k","true","img/H_28.png","自我","freeprac_self","",""
"","","","","","html-keyboard-response","57","671225","0.0-8.1-0.1-1.21","null","<span style='color:GreenYellow; font-size: 70px;'>正确! </span>","null","","","","","","","","","","","","","","","","","","","","","","","feedback_test",""
"","","","","","psychophysics","58","675225","0.0-8.1-0.1-0.22","2998","","k","","","","","","","","","","","","","key","k","16.662778242677742","619.356858401975","344.19467078901425","k","true","img/C_28.png","朋友","freeprac_self","",""
"","","","","","html-keyboard-response","59","675533","0.0-8.1-0.1-1.22","null","<span style='color:GreenYellow; font-size: 70px;'>正确! </span>","null","","","","","","","","","","","","","","","","","","","","","","","feedback_test",""
"","","","","","psychophysics","60","679652","0.0-8.1-0.1-0.23","3117","","f","","","","","","","","","","","","","key","f","16.66194308943085","619.356858401975","344.19467078901425","k","false","img/C_28.png","自我","freeprac_self","",""
"","","","","","html-keyboard-response","61","679959","0.0-8.1-0.1-1.23","null","<span style='color:red; font-size: 70px;'>错误! </span>","null","","","","","","","","","","","","","","","","","","","","","","","feedback_test",""
"","","","","","html-keyboard-response","62","692984","0.0-8.1-1.1-0.1","13022","<style>.context{color:white; font-size: 35px; line-height:40px}</style>                           <div><p class='context'>您正确回答了42% 的试次。</p><p class='context'>您的平均反应时为2731毫秒。</p>","f","","","","","","","","","","","","","","","","","","","","","","","",""
"","","","","","instructions","63","713441","0.0-8.1-1.1-1.1","20445","","","","","","","","","","","","","","[{""page_index"":0,""viewing_time"":1604},{""page_index"":1,""viewing_time"":18016},{""page_index"":2,""viewing_time"":824}]","","","","","","","","","","","",""
"","","","","","psychophysics","64","716766","0.0-8.2-0.2-0.24","2323","","k","","","","","","","","","","","","","key","k","16.622181818181428","619.356858401975","344.19467078901425","k","true","img/H_28.png","自我","freeprac_self","",""
"","","","","","html-keyboard-response","65","717072","0.0-8.2-0.2-1.24","null","<span style='color:GreenYellow; font-size: 70px;'>正确! </span>","null","","","","","","","","","","","","","","","","","","","","","","","feedback_test",""
"","","","","","psychophysics","66","720967","0.0-8.2-0.2-0.25","2893","","k","","","","","","","","","","","","","key","k","16.663703862661116","619.356858401975","344.19467078901425","j","false","img/C_28.png","生人","freeprac_self","",""
"","","","","","html-keyboard-response","67","721268","0.0-8.2-0.2-1.25","null","<span style='color:red; font-size: 70px;'>错误! </span>","null","","","","","","","","","","","","","","","","","","","","","","","feedback_test",""
"","","","","","psychophysics","68","724804","0.0-8.2-0.2-0.26","2531","","f","","","","","","","","","","","","","key","f","16.66385781990532","619.356858401975","344.19467078901425","f","true","img/S_28.png","自我","freeprac_self","",""
"","","","","","html-keyboard-response","69","725112","0.0-8.2-0.2-1.26","null","<span style='color:GreenYellow; font-size: 70px;'>正确! </span>","null","","","","","","","","","","","","","","","","","","","","","","","feedback_test",""
"","","","","","psychophysics","70","727804","0.0-8.2-0.2-0.27","1682","","d","","","","","","","","","","","","","key","d","16.663962499999617","619.356858401975","344.19467078901425","d","true","img/S_28.png","朋友","freeprac_self","",""
"","","","","","html-keyboard-response","71","728112","0.0-8.2-0.2-1.27","null","<span style='color:GreenYellow; font-size: 70px;'>正确! </span>","null","","","","","","","","","","","","","","","","","","","","","","","feedback_test",""
"","","","","","psychophysics","72","735002","0.0-8.2-0.2-0.28","5880","","k","","","","","","","","","","","","","key","k","16.66225728155334","619.356858401975","344.19467078901425","k","true","img/H_28.png","生人","freeprac_self","",""
"","","","","","html-keyboard-response","73","735313","0.0-8.2-0.2-1.28","null","<span style='color:GreenYellow; font-size: 70px;'>正确! </span>","null","","","","","","","","","","","","","","","","","","","","","","","feedback_test",""
"","","","","","psychophysics","74","737772","0.0-8.2-0.2-0.29","1452","","f","","","","","","","","","","","","","key","f","16.6630136054421","619.356858401975","344.19467078901425","f","true","img/S_28.png","自我","freeprac_self","",""
"","","","","","html-keyboard-response","75","738085","0.0-8.2-0.2-1.29","null","<span style='color:GreenYellow; font-size: 70px;'>正确! </span>","null","","","","","","","","","","","","","","","","","","","","","","","feedback_test",""
"","","","","","psychophysics","76","742303","0.0-8.2-0.2-0.30","3217","","j","","","","","","","","","","","","","key","j","16.663865079365056","619.356858401975","344.19467078901425","j","true","img/H_28.png","朋友","freeprac_self","",""
"","","","","","html-keyboard-response","77","742613","0.0-8.2-0.2-1.30","null","<span style='color:GreenYellow; font-size: 70px;'>正确! </span>","null","","","","","","","","","","","","","","","","","","","","","","","feedback_test",""
"","","","","","psychophysics","78","746074","0.0-8.2-0.2-0.31","2459","","d","","","","","","","","","","","","","key","d","16.66277777777753","619.356858401975","344.19467078901425","d","true","img/S_28.png","生人","freeprac_self","",""
"","","","","","html-keyboard-response","79","746386","0.0-8.2-0.2-1.31","null","<span style='color:GreenYellow; font-size: 70px;'>正确! </span>","null","","","","","","","","","","","","","","","","","","","","","","","feedback_test",""
"","","","","","psychophysics","80","751263","0.0-8.2-0.2-0.32","3875","","k","","","","","","","","","","","","","key","k","16.661312714776766","619.356858401975","344.19467078901425","k","true","img/C_28.png","自我","freeprac_self","",""
"","","","","","html-keyboard-response","81","751567","0.0-8.2-0.2-1.32","null","<span style='color:GreenYellow; font-size: 70px;'>正确! </span>","null","","","","","","","","","","","","","","","","","","","","","","","feedback_test",""
"","","","","","psychophysics","82","754509","0.0-8.2-0.2-0.33","1927","","j","","","","","","","","","","","","","key","j","16.66307999999994","619.356858401975","344.19467078901425","j","true","img/C_28.png","生人","freeprac_self","",""
"","","","","","html-keyboard-response","83","754819","0.0-8.2-0.2-1.33","null","<span style='color:GreenYellow; font-size: 70px;'>正确! </span>","null","","","","","","","","","","","","","","","","","","","","","","","feedback_test",""
"","","","","","psychophysics","84","759983","0.0-8.2-0.2-0.34","4161","","j","","","","","","","","","","","","","key","j","16.663440129449924","619.356858401975","344.19467078901425","j","true","img/H_28.png","朋友","freeprac_self","",""
"","","","","","html-keyboard-response","85","760297","0.0-8.2-0.2-1.34","null","<span style='color:GreenYellow; font-size: 70px;'>正确! </span>","null","","","","","","","","","","","","","","","","","","","","","","","feedback_test",""
"","","","","","psychophysics","86","762377","0.0-8.2-0.2-0.35","1079","","k","","","","","","","","","","","","","key","k","16.662739837398313","619.356858401975","344.19467078901425","k","true","img/C_28.png","朋友","freeprac_self","",""
"","","","","","html-keyboard-response","87","762678","0.0-8.2-0.2-1.35","null","<span style='color:GreenYellow; font-size: 70px;'>正确! </span>","null","","","","","","","","","","","","","","","","","","","","","","","feedback_test",""
"","","","","","html-keyboard-response","88","774991","0.0-9.0","12312","[""<style>.context{color:white; font-size: 35px; line-height:40px}</style>           <div><p class='context'>您正确回答了92% 的试次。</p><p class='context'>您的平均反应时为2781毫秒。</p><p class='context'>恭喜您完成这一阶段的练习。按任意键进入<span style='color: yellow;'>重点关注图形为“朋友”</span>的练习。</p></div><p class='footer' style='font-size:35px; line-height:30px;'>任务要求：\n           <p class='footer' style='font-size:35px; line-height:35px;'>对于与“朋友”对应的图形：如果 匹配 ，请按 <span style=\""color: lightgreen;\"">f键</span></p><p class='footer' style='font-size:35px'>如果 不匹配 ，请按<span style=\""color: lightgreen;\"">d键</p></span>\n           <p class='footer' style='font-size:35px; line-height:35px;'>对于非“朋友”对应的图形：如果 匹配 ，请按 <span style=\""color: lightgreen;\"">j键</span></p><p class='footer' style='font-size:35px'>如果 不匹配 ，请按<span style=\""color: lightgreen;\"">k键</p></span>\n           <p class='footer' style='font-size:22px; line-height:25px;'>请在实验过程中将您的<span style=\""color: lightgreen;\"">食指和中指</span>放在电脑键盘的相应键位上进行按键。</p></span>""]","j","","","","","","","","","","","","","","","","","","","","","","","",""
"","","","","","psychophysics","89","780560","0.0-10.0-0.0-0.0","4557","","k","","","","","","","","","","","","","key","k","16.641789789789833","619.356858401975","344.19467078901425","k","true","img/C_28.png","自我","freeprac_friend","",""
"","","","","","html-keyboard-response","90","780870","0.0-10.0-0.0-1.0","null","<span style='color:GreenYellow; font-size: 70px;'>正确! </span>","null","","","","","","","","","","","","","","","","","","","","","","","feedback_test",""
"","","","","","psychophysics","91","786286","0.0-10.0-0.0-0.1","4411","","j","","","","","","","","","","","","","key","j","16.66255864197529","619.356858401975","344.19467078901425","j","true","img/S_28.png","自我","freeprac_friend","",""
"","","","","","html-keyboard-response","92","786603","0.0-10.0-0.0-1.1","null","<span style='color:GreenYellow; font-size: 70px;'>正确! </span>","null","","","","","","","","","","","","","","","","","","","","","","","feedback_test",""
"","","","","","psychophysics","93","789548","0.0-10.0-0.0-0.2","1941","","f","","","","","","","","","","","","","key","f","16.662744318181385","619.356858401975","344.19467078901425","f","true","img/H_28.png","朋友","freeprac_friend","",""
"","","","","","html-keyboard-response","94","789863","0.0-10.0-0.0-1.2","null","<span style='color:GreenYellow; font-size: 70px;'>正确! </span>","null","","","","","","","","","","","","","","","","","","","","","","","feedback_test",""
"","","","","","psychophysics","95","791736","0.0-10.0-0.0-0.3","863","","d","","","","","","","","","","","","","key","d","16.663054054054466","619.356858401975","344.19467078901425","d","true","img/H_28.png","生人","freeprac_friend","",""
"","","","","","html-keyboard-response","96","792045","0.0-10.0-0.0-1.3","null","<span style='color:GreenYellow; font-size: 70px;'>正确! </span>","null","","","","","","","","","","","","","","","","","","","","","","","feedback_test",""
"","","","","","psychophysics","97","794059","0.0-10.0-0.0-0.4","1002","","d","","","","","","","","","","","","","key","d","16.662283333333715","619.356858401975","344.19467078901425","d","true","img/H_28.png","自我","freeprac_friend","",""
"","","","","","html-keyboard-response","98","794372","0.0-10.0-0.0-1.4","null","<span style='color:GreenYellow; font-size: 70px;'>正确! </span>","null","","","","","","","","","","","","","","","","","","","","","","","feedback_test",""
"","","","","","psychophysics","99","797488","0.0-10.0-0.0-0.5","2114","","k","","","","","","","","","","","","","key","k","16.662349462365828","619.356858401975","344.19467078901425","k","true","img/S_28.png","朋友","freeprac_friend","",""
"","","","","","html-keyboard-response","100","797795","0.0-10.0-0.0-1.5","null","<span style='color:GreenYellow; font-size: 70px;'>正确! </span>","null","","","","","","","","","","","","","","","","","","","","","","","feedback_test",""
"","","","","","psychophysics","101","799680","0.0-10.0-0.0-0.6","876","","f","","","","","","","","","","","","","key","f","16.66255357142862","619.356858401975","344.19467078901425","f","true","img/H_28.png","朋友","freeprac_friend","",""
"","","","","","html-keyboard-response","102","799995","0.0-10.0-0.0-1.6","null","<span style='color:GreenYellow; font-size: 70px;'>正确! </span>","null","","","","","","","","","","","","","","","","","","","","","","","feedback_test",""
"","","","","","psychophysics","103","802499","0.0-10.0-0.0-0.7","1499","","k","","","","","","","","","","","","","key","k","16.66300671140979","619.356858401975","344.19467078901425","j","false","img/C_28.png","生人","freeprac_friend","",""
"","","","","","html-keyboard-response","104","802815","0.0-10.0-0.0-1.7","null","<span style='color:red; font-size: 70px;'>错误! </span>","null","","","","","","","","","","","","","","","","","","","","","","","feedback_test",""
"","","","","","psychophysics","105","805229","0.0-10.0-0.0-0.8","1412","","j","","","","","","","","","","","","","key","j","16.66327083333292","619.356858401975","344.19467078901425","k","false","img/C_28.png","朋友","freeprac_friend","",""
"","","","","","html-keyboard-response","106","805539","0.0-10.0-0.0-1.8","null","<span style='color:red; font-size: 70px;'>错误! </span>","null","","","","","","","","","","","","","","","","","","","","","","","feedback_test",""
"","","","","","psychophysics","107","809786","0.0-10.0-0.0-0.9","3234","","k","","","","","","","","","","","","","key","k","16.66270866141724","619.356858401975","344.19467078901425","k","true","img/S_28.png","生人","freeprac_friend","",""
"","","","","","html-keyboard-response","108","810098","0.0-10.0-0.0-1.9","null","<span style='color:GreenYellow; font-size: 70px;'>正确! </span>","null","","","","","","","","","","","","","","","","","","","","","","","feedback_test",""
"","","","","","psychophysics","109","815572","0.0-10.0-0.0-0.10","4471","","j","","","","","","","","","","","","","key","j","16.662354740061062","619.356858401975","344.19467078901425","j","true","img/C_28.png","生人","freeprac_friend","",""
"","","","","","html-keyboard-response","110","815876","0.0-10.0-0.0-1.10","null","<span style='color:GreenYellow; font-size: 70px;'>正确! </span>","null","","","","","","","","","","","","","","","","","","","","","","","feedback_test",""
"","","","","","psychophysics","111","817873","0.0-10.0-0.0-0.11","992","","f","","","","","","","","","","","","","key","f","16.663436974790105","619.356858401975","344.19467078901425","j","false","img/S_28.png","自我","freeprac_friend","",""
"","","","","","html-keyboard-response","112","818177","0.0-10.0-0.0-1.11","null","<span style='color:red; font-size: 70px;'>错误! </span>","null","","","","","","","","","","","","","","","","","","","","","","","feedback_test",""
"","","","","","html-keyboard-response","113","827560","0.0-11.0","9382","[""<style>.context{color:white; font-size: 35px; line-height:40px}</style>               <div><p class='context'>您正确回答了75% 的试次。</p><p class='context'>您的平均反应时为2608毫秒。</p><p class='context'>恭喜您完成这一阶段的练习。按任意键进入<span style='color: yellow;'>重点关注图形为“生人”</span>的练习。</p></div><p class='footer' style='font-size:35px; line-height:30px;'>任务要求：\n               <p class='footer' style='font-size:35px; line-height:35px;'>对与“生人”对应的图形，如果 匹配 ，请按 <span style=\""color: lightgreen;\"">f键</span></p><p class='footer' style='font-size:35px'>如果 不匹配 ，请按<span style=\""color: lightgreen;\"">d键</p></span>\n               <p class='footer' style='font-size:35px; line-height:35px;'>对非“生人”对应的图形，如果 匹配 ，请按 <span style=\""color: lightgreen;\"">j键</span></p><p class='footer' style='font-size:35px'>如果 不匹配 ，请按<span style=\""color: lightgreen;\"">k键</p></span>\n               <p class='footer' style='font-size:22px; line-height:25px;'>请在实验过程中将您的<span style=\""color: lightgreen;\"">食指和中指</span>放在电脑键盘的相应键位上进行按键。</p></span>""]","j","","","","","","","","","","","","","","","","","","","","","","","",""
"","","","","","psychophysics","114","830633","0.0-12.0-0.0-0.0","2054","","j","","","","","","","","","","","","","key","j","16.664201086957092","619.356858401975","344.19467078901425","j","true","img/S_28.png","自我","freeprac_stranger","",""
"","","","","","html-keyboard-response","115","830938","0.0-12.0-0.0-1.0","null","<span style='color:GreenYellow; font-size: 70px;'>正确! </span>","null","","","","","","","","","","","","","","","","","","","","","","","feedback_test",""
"","","","","","psychophysics","116","835348","0.0-12.0-0.0-0.1","3402","","j","","","","","","","","","","","","","key","j","16.66243939393925","619.356858401975","344.19467078901425","j","true","img/H_28.png","朋友","freeprac_stranger","",""
"","","","","","html-keyboard-response","117","835660","0.0-12.0-0.0-1.1","null","<span style='color:GreenYellow; font-size: 70px;'>正确! </span>","null","","","","","","","","","","","","","","","","","","","","","","","feedback_test",""
"","","","","","psychophysics","118","838073","0.0-12.0-0.0-0.2","1410","","k","","","","","","","","","","","","","key","k","16.664041958041846","619.356858401975","344.19467078901425","k","true","img/H_28.png","生人","freeprac_stranger","",""
"","","","","","html-keyboard-response","119","838379","0.0-12.0-0.0-1.2","null","<span style='color:GreenYellow; font-size: 70px;'>正确! </span>","null","","","","","","","","","","","","","","","","","","","","","","","feedback_test",""
"","","","","","psychophysics","120","841226","0.0-12.0-0.0-0.3","1832","","k","","","","","","","","","","","","","key","k","16.662272189349107","619.356858401975","344.19467078901425","k","true","img/S_28.png","生人","freeprac_stranger","",""
"","","","","","html-keyboard-response","121","841535","0.0-12.0-0.0-1.3","null","<span style='color:GreenYellow; font-size: 70px;'>正确! </span>","null","","","","","","","","","","","","","","","","","","","","","","","feedback_test",""
"","","","","","psychophysics","122","844083","0.0-12.0-0.0-0.4","1540","","k","","","","","","","","","","","","","key","k","16.662927631579038","619.356858401975","344.19467078901425","k","true","img/S_28.png","朋友","freeprac_stranger","",""
"","","","","","html-keyboard-response","123","844395","0.0-12.0-0.0-1.4","null","<span style='color:GreenYellow; font-size: 70px;'>正确! </span>","null","","","","","","","","","","","","","","","","","","","","","","","feedback_test",""
"","","","","","psychophysics","124","847430","0.0-12.0-0.0-0.5","2021","","j","","","","","","","","","","","","","key","j","16.66255248618796","619.356858401975","344.19467078901425","j","true","img/H_28.png","朋友","freeprac_stranger","",""
"","","","","","html-keyboard-response","125","847741","0.0-12.0-0.0-1.5","null","<span style='color:GreenYellow; font-size: 70px;'>正确! </span>","null","","","","","","","","","","","","","","","","","","","","","","","feedback_test",""
"","","","","","psychophysics","126","850188","0.0-12.0-0.0-0.6","1434","","f","","","","","","","","","","","","","key","f","16.663248275862685","619.356858401975","344.19467078901425","f","true","img/C_28.png","生人","freeprac_stranger","",""
"","","","","","html-keyboard-response","127","850502","0.0-12.0-0.0-1.6","null","<span style='color:GreenYellow; font-size: 70px;'>正确! </span>","null","","","","","","","","","","","","","","","","","","","","","","","feedback_test",""
"","","","","","psychophysics","128","855246","0.0-12.0-0.0-0.7","3739","","j","","","","","","","","","","","","","key","j","16.663897887324016","619.356858401975","344.19467078901425","k","false","img/H_28.png","自我","freeprac_stranger","",""
"","","","","","html-keyboard-response","129","855549","0.0-12.0-0.0-1.7","null","<span style='color:red; font-size: 70px;'>错误! </span>","null","","","","","","","","","","","","","","","","","","","","","","","feedback_test",""
"","","","","","psychophysics","130","858103","0.0-12.0-0.0-0.8","1546","","j","","","","","","","","","","","","","key","j","16.664052631578862","619.356858401975","344.19467078901425","j","true","img/S_28.png","自我","freeprac_stranger","",""
"","","","","","html-keyboard-response","131","858410","0.0-12.0-0.0-1.8","null","<span style='color:GreenYellow; font-size: 70px;'>正确! </span>","null","","","","","","","","","","","","","","","","","","","","","","","feedback_test",""
"","","","","","psychophysics","132","860834","0.0-12.0-0.0-0.9","1411","","f","","","","","","","","","","","","","key","f","16.662673611110627","619.356858401975","344.19467078901425","f","true","img/C_28.png","生人","freeprac_stranger","",""
"","","","","","html-keyboard-response","133","861144","0.0-12.0-0.0-1.9","null","<span style='color:GreenYellow; font-size: 70px;'>正确! </span>","null","","","","","","","","","","","","","","","","","","","","","","","feedback_test",""
"","","","","","psychophysics","134","863030","0.0-12.0-0.0-0.10","884","","d","","","","","","","","","","","","","key","d","16.665294642857457","619.356858401975","344.19467078901425","d","true","img/C_28.png","朋友","freeprac_stranger","",""
"","","","","","html-keyboard-response","135","863344","0.0-12.0-0.0-1.10","null","<span style='color:GreenYellow; font-size: 70px;'>正确! </span>","null","","","","","","","","","","","","","","","","","","","","","","","feedback_test",""
"","","","","","psychophysics","136","870347","0.0-12.0-0.0-0.11","5992","","d","","","","","","","","","","","","","key","d","16.662904534606167","619.356858401975","344.19467078901425","d","true","img/C_28.png","自我","freeprac_stranger","",""
"","","","","","html-keyboard-response","137","870660","0.0-12.0-0.0-1.11","null","<span style='color:GreenYellow; font-size: 70px;'>正确! </span>","null","","","","","","","","","","","","","","","","","","","","","","","feedback_test",""
"","","","","","instructions","138","892576","0.0-13.0","21916","","","","","","","","","","","","","","[{""page_index"":0,""viewing_time"":21916}]","","","","","","","","","","","",""
"","","","","","psychophysics","139","895080","0.0-14.0-0.0-0.0","null","","null","","","","","","","","","","","","","key","null","16.663335570470185","619.356858401975","344.19467078901425","j","false","img/H_28.png","朋友","prac_self","","朋友"
"","","","","","html-keyboard-response","140","895392","0.0-14.0-0.0-1.0","null","<span class='add_' style='color:yellow; font-size: 70px;'> 太慢! </span>","null","","","","","","","","","","","","","","","","","","","","","","","feedback_test",""
"","","","","","psychophysics","141","897905","0.0-14.0-0.0-0.1","null","","null","","","","","","","","","","","","","key","null","16.663000000000466","619.356858401975","344.19467078901425","f","false","img/S_28.png","自我","prac_self","","自我"
"","","","","","html-keyboard-response","142","898219","0.0-14.0-0.0-1.1","null","<span class='add_' style='color:yellow; font-size: 70px;'> 太慢! </span>","null","","","","","","","","","","","","","","","","","","","","","","","feedback_test",""
"","","","","","psychophysics","143","900288","0.0-14.0-0.0-0.2","1061","","d","","","","","","","","","","","","","key","d","16.66102439024376","619.356858401975","344.19467078901425","d","true","img/S_28.png","朋友","prac_self","","自我"
"","","","","","html-keyboard-response","144","900601","0.0-14.0-0.0-1.2","null","<span style='color:GreenYellow; font-size: 70px;'>正确! </span>","null","","","","","","","","","","","","","","","","","","","","","","","feedback_test",""
"","","","","","psychophysics","145","902822","0.0-14.0-0.0-0.3","1211","","j","","","","","","","","","","","","","key","j","16.662401515151775","619.356858401975","344.19467078901425","k","false","img/C_28.png","朋友","prac_self","","生人"
"","","","","","html-keyboard-response","146","903128","0.0-14.0-0.0-1.3","null","<span style='color:red; font-size: 70px;'>错误! </span>","null","","","","","","","","","","","","","","","","","","","","","","","feedback_test",""
"","","","","","psychophysics","147","905630","0.0-14.0-0.0-0.4","null","","null","","","","","","","","","","","","","key","null","16.663093959732176","619.356858401975","344.19467078901425","k","false","img/C_28.png","自我","prac_self","","生人"
"","","","","","html-keyboard-response","148","905938","0.0-14.0-0.0-1.4","null","<span class='add_' style='color:yellow; font-size: 70px;'> 太慢! </span>","null","","","","","","","","","","","","","","","","","","","","","","","feedback_test",""
"","","","","","psychophysics","149","908004","0.0-14.0-0.0-0.5","1063","","f","","","","","","","","","","","","","key","f","16.663406504064465","619.356858401975","344.19467078901425","f","true","img/S_28.png","自我","prac_self","","自我"
"","","","","","html-keyboard-response","150","908306","0.0-14.0-0.0-1.5","null","<span style='color:GreenYellow; font-size: 70px;'>正确! </span>","null","","","","","","","","","","","","","","","","","","","","","","","feedback_test",""
"","","","","","psychophysics","151","910410","0.0-14.0-0.0-0.6","1099","","k","","","","","","","","","","","","","key","k","16.662793650793553","619.356858401975","344.19467078901425","k","true","img/H_28.png","生人","prac_self","","朋友"
"","","","","","html-keyboard-response","152","910717","0.0-14.0-0.0-1.6","null","<span style='color:GreenYellow; font-size: 70px;'>正确! </span>","null","","","","","","","","","","","","","","","","","","","","","","","feedback_test",""
"","","","","","psychophysics","153","912761","0.0-14.0-0.0-0.7","1034","","j","","","","","","","","","","","","","key","j","16.664786885246315","619.356858401975","344.19467078901425","k","false","img/H_28.png","自我","prac_self","","朋友"
"","","","","","html-keyboard-response","154","913062","0.0-14.0-0.0-1.7","null","<span style='color:red; font-size: 70px;'>错误! </span>","null","","","","","","","","","","","","","","","","","","","","","","","feedback_test",""
"","","","","","psychophysics","155","915332","0.0-14.0-0.0-0.8","1266","","j","","","","","","","","","","","","","key","j","16.66357777777766","619.356858401975","344.19467078901425","j","true","img/C_28.png","生人","prac_self","","生人"
"","","","","","html-keyboard-response","156","915638","0.0-14.0-0.0-1.8","null","<span style='color:GreenYellow; font-size: 70px;'>正确! </span>","null","","","","","","","","","","","","","","","","","","","","","","","feedback_test",""
"","","","","","psychophysics","157","917759","0.0-14.0-0.0-0.9","1119","","k","","","","","","","","","","","","","key","k","16.664913385825994","619.356858401975","344.19467078901425","j","false","img/H_28.png","朋友","prac_self","","朋友"
"","","","","","html-keyboard-response","158","918066","0.0-14.0-0.0-1.9","null","<span style='color:red; font-size: 70px;'>错误! </span>","null","","","","","","","","","","","","","","","","","","","","","","","feedback_test",""
"","","","","","psychophysics","159","920032","0.0-14.0-0.0-0.10","961","","d","","","","","","","","","","","","","key","d","16.662666666666723","619.356858401975","344.19467078901425","d","true","img/S_28.png","生人","prac_self","","自我"
"","","","","","html-keyboard-response","160","920335","0.0-14.0-0.0-1.10","null","<span style='color:GreenYellow; font-size: 70px;'>正确! </span>","null","","","","","","","","","","","","","","","","","","","","","","","feedback_test",""
"","","","","","psychophysics","161","922703","0.0-14.0-0.0-0.11","1362","","j","","","","","","","","","","","","","key","j","16.66280851063834","619.356858401975","344.19467078901425","j","true","img/C_28.png","生人","prac_self","","生人"
"","","","","","html-keyboard-response","162","923014","0.0-14.0-0.0-1.11","null","<span style='color:GreenYellow; font-size: 70px;'>正确! </span>","null","","","","","","","","","","","","","","","","","","","","","","","feedback_test",""
"","","","","","psychophysics","163","925492","0.0-14.0-0.0-0.12","1470","","f","","","","","","","","","","","","","key","f","16.664918918919284","619.356858401975","344.19467078901425","f","true","img/S_28.png","自我","prac_self","","自我"
"","","","","","html-keyboard-response","164","925805","0.0-14.0-0.0-1.12","null","<span style='color:GreenYellow; font-size: 70px;'>正确! </span>","null","","","","","","","","","","","","","","","","","","","","","","","feedback_test",""
"","","","","","psychophysics","165","928082","0.0-14.0-0.0-0.13","1276","","k","","","","","","","","","","","","","key","k","16.662837037037093","619.356858401975","344.19467078901425","k","true","img/C_28.png","朋友","prac_self","","生人"
"","","","","","html-keyboard-response","166","928393","0.0-14.0-0.0-1.13","null","<span style='color:GreenYellow; font-size: 70px;'>正确! </span>","null","","","","","","","","","","","","","","","","","","","","","","","feedback_test",""
"","","","","","psychophysics","167","930866","0.0-14.0-0.0-0.14","1461","","f","","","","","","","","","","","","","key","f","16.66463945578185","619.356858401975","344.19467078901425","k","false","img/H_28.png","自我","prac_self","","朋友"
"","","","","","html-keyboard-response","168","931167","0.0-14.0-0.0-1.14","null","<span style='color:red; font-size: 70px;'>错误! </span>","null","","","","","","","","","","","","","","","","","","","","","","","feedback_test",""
"","","","","","psychophysics","169","933292","0.0-14.0-0.0-0.15","1121","","d","","","","","","","","","","","","","key","d","16.665110236220794","619.356858401975","344.19467078901425","d","true","img/S_28.png","生人","prac_self","","自我"
"","","","","","html-keyboard-response","170","933608","0.0-14.0-0.0-1.15","null","<span style='color:GreenYellow; font-size: 70px;'>正确! </span>","null","","","","","","","","","","","","","","","","","","","","","","","feedback_test",""
"","","","","","psychophysics","171","935975","0.0-14.0-0.0-0.16","1354","","j","","","","","","","","","","","","","key","j","16.662007092198536","619.356858401975","344.19467078901425","j","true","img/C_28.png","生人","prac_self","","生人"
"","","","","","html-keyboard-response","172","936291","0.0-14.0-0.0-1.16","null","<span style='color:GreenYellow; font-size: 70px;'>正确! </span>","null","","","","","","","","","","","","","","","","","","","","","","","feedback_test",""
"","","","","","psychophysics","173","938804","0.0-14.0-0.0-0.17","null","","null","","","","","","","","","","","","","key","null","16.664503355704298","619.356858401975","344.19467078901425","k","false","img/C_28.png","自我","prac_self","","生人"
"","","","","","html-keyboard-response","174","939113","0.0-14.0-0.0-1.17","null","<span class='add_' style='color:yellow; font-size: 70px;'> 太慢! </span>","null","","","","","","","","","","","","","","","","","","","","","","","feedback_test",""
"","","","","","psychophysics","175","941619","0.0-14.0-0.0-0.18","null","","null","","","","","","","","","","","","","key","null","16.662476510066547","619.356858401975","344.19467078901425","d","false","img/S_28.png","朋友","prac_self","","自我"
"","","","","","html-keyboard-response","176","941923","0.0-14.0-0.0-1.18","null","<span class='add_' style='color:yellow; font-size: 70px;'> 太慢! </span>","null","","","","","","","","","","","","","","","","","","","","","","","feedback_test",""
"","","","","","psychophysics","177","944114","0.0-14.0-0.0-0.19","1188","","k","","","","","","","","","","","","","key","k","16.664269230769087","619.356858401975","344.19467078901425","j","false","img/C_28.png","生人","prac_self","","生人"
"","","","","","html-keyboard-response","178","944421","0.0-14.0-0.0-1.19","null","<span style='color:red; font-size: 70px;'>错误! </span>","null","","","","","","","","","","","","","","","","","","","","","","","feedback_test",""
"","","","","","psychophysics","179","946878","0.0-14.0-0.0-0.20","1444","","k","","","","","","","","","","","","","key","k","16.6633561643842","619.356858401975","344.19467078901425","k","true","img/H_28.png","生人","prac_self","","朋友"
"","","","","","html-keyboard-response","180","947195","0.0-14.0-0.0-1.20","null","<span style='color:GreenYellow; font-size: 70px;'>正确! </span>","null","","","","","","","","","","","","","","","","","","","","","","","feedback_test",""
"","","","","","psychophysics","181","949220","0.0-14.0-0.0-0.21","1019","","f","","","","","","","","","","","","","key","f","16.66308264462816","619.356858401975","344.19467078901425","f","true","img/S_28.png","自我","prac_self","","自我"
"","","","","","html-keyboard-response","182","949527","0.0-14.0-0.0-1.21","null","<span style='color:GreenYellow; font-size: 70px;'>正确! </span>","null","","","","","","","","","","","","","","","","","","","","","","","feedback_test",""
"","","","","","psychophysics","183","951682","0.0-14.0-0.0-0.22","1148","","f","","","","","","","","","","","","","key","f","16.663585937500102","619.356858401975","344.19467078901425","j","false","img/H_28.png","朋友","prac_self","","朋友"
"","","","","","html-keyboard-response","184","951991","0.0-14.0-0.0-1.22","null","<span style='color:red; font-size: 70px;'>错误! </span>","null","","","","","","","","","","","","","","","","","","","","","","","feedback_test",""
"","","","","","psychophysics","185","954230","0.0-14.0-0.0-0.23","1230","","j","","","","","","","","","","","","","key","j","16.660759398495756","619.356858401975","344.19467078901425","j","true","img/H_28.png","朋友","prac_self","","朋友"
"","","","","","html-keyboard-response","186","954532","0.0-14.0-0.0-1.23","null","<span style='color:GreenYellow; font-size: 70px;'>正确! </span>","null","","","","","","","","","","","","","","","","","","","","","","","feedback_test",""
"","","","","","html-keyboard-response","187","964294","0.0-14.0-1.0-0.0","9760","<style>.context{color:white; font-size: 35px; line-height:40px}</style>                           <div><p class='context'>您正确回答了54% 的试次。</p><p class='context'>您的平均反应时为1210毫秒。</p>","j","","","","","","","","","","","","","","","","","","","","","","","",""
"","","","","","instructions","188","971233","0.0-14.0-1.0-1.0","6935","","","","","","","","","","","","","","[{""page_index"":0,""viewing_time"":1399},{""page_index"":1,""viewing_time"":4456},{""page_index"":2,""viewing_time"":1080}]","","","","","","","","","","","",""
"","","","","","psychophysics","189","973739","0.0-14.1-0.1-0.24","null","","null","","","","","","","","","","","","","key","null","16.66235570469871","619.356858401975","344.19467078901425","j","false","img/H_28.png","朋友","prac_self","","朋友"
"","","","","","html-keyboard-response","190","974054","0.0-14.1-0.1-1.24","null","<span class='add_' style='color:yellow; font-size: 70px;'> 太慢! </span>","null","","","","","","","","","","","","","","","","","","","","","","","feedback_test",""
"","","","","","psychophysics","191","976248","0.0-14.1-0.1-0.25","1187","","d","","","","","","","","","","","","","key","d","16.662732824428144","619.356858401975","344.19467078901425","d","true","img/S_28.png","生人","prac_self","","自我"
"","","","","","html-keyboard-response","192","976554","0.0-14.1-0.1-1.25","null","<span style='color:GreenYellow; font-size: 70px;'>正确! </span>","null","","","","","","","","","","","","","","","","","","","","","","","feedback_test",""
"","","","","","psychophysics","193","979059","0.0-14.1-0.1-0.26","null","","null","","","","","","","","","","","","","key","null","16.662939597314985","619.356858401975","344.19467078901425","k","false","img/H_28.png","自我","prac_self","","朋友"
"","","","","","html-keyboard-response","194","979373","0.0-14.1-0.1-1.26","null","<span class='add_' style='color:yellow; font-size: 70px;'> 太慢! </span>","null","","","","","","","","","","","","","","","","","","","","","","","feedback_test",""
"","","","","","psychophysics","195","981876","0.0-14.1-0.1-0.27","null","","null","","","","","","","","","","","","","key","null","16.662798657718007","619.356858401975","344.19467078901425","k","false","img/C_28.png","朋友","prac_self","","生人"
"","","","","","html-keyboard-response","196","982182","0.0-14.1-0.1-1.27","null","<span class='add_' style='color:yellow; font-size: 70px;'> 太慢! </span>","null","","","","","","","","","","","","","","","","","","","","","","","feedback_test",""
"","","","","","psychophysics","197","984361","0.0-14.1-0.1-0.28","1169","","j","","","","","","","","","","","","","key","j","16.66506923076858","619.356858401975","344.19467078901425","j","true","img/C_28.png","生人","prac_self","","生人"
"","","","","","html-keyboard-response","198","984674","0.0-14.1-0.1-1.28","null","<span style='color:GreenYellow; font-size: 70px;'>正确! </span>","null","","","","","","","","","","","","","","","","","","","","","","","feedback_test",""
"","","","","","psychophysics","199","986938","0.0-14.1-0.1-0.29","1263","","k","","","","","","","","","","","","","key","k","16.662432835821352","619.356858401975","344.19467078901425","k","true","img/H_28.png","生人","prac_self","","朋友"
"","","","","","html-keyboard-response","200","987244","0.0-14.1-0.1-1.29","null","<span style='color:GreenYellow; font-size: 70px;'>正确! </span>","null","","","","","","","","","","","","","","","","","","","","","","","feedback_test",""
"","","","","","psychophysics","201","989499","0.0-14.1-0.1-0.30","1241","","d","","","","","","","","","","","","","key","d","16.662932835820776","619.356858401975","344.19467078901425","d","true","img/S_28.png","朋友","prac_self","","自我"
"","","","","","html-keyboard-response","202","989801","0.0-14.1-0.1-1.30","null","<span style='color:GreenYellow; font-size: 70px;'>正确! </span>","null","","","","","","","","","","","","","","","","","","","","","","","feedback_test",""
"","","","","","psychophysics","203","992305","0.0-14.1-0.1-0.31","null","","null","","","","","","","","","","","","","key","null","16.66359731543656","619.356858401975","344.19467078901425","k","false","img/C_28.png","自我","prac_self","","生人"
"","","","","","html-keyboard-response","204","992619","0.0-14.1-0.1-1.31","null","<span class='add_' style='color:yellow; font-size: 70px;'> 太慢! </span>","null","","","","","","","","","","","","","","","","","","","","","","","feedback_test",""
"","","","","","psychophysics","205","995131","0.0-14.1-0.1-0.32","null","","null","","","","","","","","","","","","","key","null","16.66302666666607","619.356858401975","344.19467078901425","j","false","img/H_28.png","朋友","prac_self","","朋友"
"","","","","","html-keyboard-response","206","995443","0.0-14.1-0.1-1.32","null","<span class='add_' style='color:yellow; font-size: 70px;'> 太慢! </span>","null","","","","","","","","","","","","","","","","","","","","","","","feedback_test",""
"","","","","","psychophysics","207","997251","0.0-14.1-0.1-0.33","805","","f","","","","","","","","","","","","","key","f","16.6605981308412","619.356858401975","344.19467078901425","f","true","img/S_28.png","自我","prac_self","","自我"
"","","","","","html-keyboard-response","208","997554","0.0-14.1-0.1-1.33","null","<span style='color:GreenYellow; font-size: 70px;'>正确! </span>","null","","","","","","","","","","","","","","","","","","","","","","","feedback_test",""
"","","","","","psychophysics","209","999835","0.0-14.1-0.1-0.34","1279","","k","","","","","","","","","","","","","key","k","16.66454074074066","619.356858401975","344.19467078901425","j","false","img/C_28.png","生人","prac_self","","生人"
"","","","","","html-keyboard-response","210","1000142","0.0-14.1-0.1-1.34","null","<span style='color:red; font-size: 70px;'>错误! </span>","null","","","","","","","","","","","","","","","","","","","","","","","feedback_test",""
"","","","","","psychophysics","211","1001935","0.0-14.1-0.1-0.35","781","","f","","","","","","","","","","","","","key","f","16.66333018867892","619.356858401975","344.19467078901425","f","true","img/S_28.png","自我","prac_self","","自我"
"","","","","","html-keyboard-response","212","1002236","0.0-14.1-0.1-1.35","null","<span style='color:GreenYellow; font-size: 70px;'>正确! </span>","null","","","","","","","","","","","","","","","","","","","","","","","feedback_test",""
"","","","","","psychophysics","213","1004468","0.0-14.1-0.1-0.36","1230","","j","","","","","","","","","","","","","key","j","16.662242424242184","619.356858401975","344.19467078901425","k","false","img/C_28.png","自我","prac_self","","生人"
"","","","","","html-keyboard-response","214","1004772","0.0-14.1-0.1-1.36","null","<span style='color:red; font-size: 70px;'>错误! </span>","null","","","","","","","","","","","","","","","","","","","","","","","feedback_test",""
"","","","","","psychophysics","215","1007106","0.0-14.1-0.1-0.37","1323","","d","","","","","","","","","","","","","key","d","16.659388489208833","619.356858401975","344.19467078901425","d","true","img/S_28.png","生人","prac_self","","自我"
"","","","","","html-keyboard-response","216","1007418","0.0-14.1-0.1-1.37","null","<span style='color:GreenYellow; font-size: 70px;'>正确! </span>","null","","","","","","","","","","","","","","","","","","","","","","","feedback_test",""
"","","","","","psychophysics","217","1009924","0.0-14.1-0.1-0.38","null","","null","","","","","","","","","","","","","key","null","16.571946308724645","619.356858401975","344.19467078901425","j","false","img/H_28.png","朋友","prac_self","","朋友"
"","","","","","html-keyboard-response","218","1010238","0.0-14.1-0.1-1.38","null","<span class='add_' style='color:yellow; font-size: 70px;'> 太慢! </span>","null","","","","","","","","","","","","","","","","","","","","","","","feedback_test",""
"","","","","","psychophysics","219","1012666","0.0-14.1-0.1-0.39","1420","","j","","","","","","","","","","","","","key","j","16.663083333332906","619.356858401975","344.19467078901425","k","false","img/C_28.png","朋友","prac_self","","生人"
"","","","","","html-keyboard-response","220","1012975","0.0-14.1-0.1-1.39","null","<span style='color:red; font-size: 70px;'>错误! </span>","null","","","","","","","","","","","","","","","","","","","","","","","feedback_test",""
"","","","","","psychophysics","221","1014974","0.0-14.1-0.1-0.40","989","","j","","","","","","","","","","","","","key","j","16.66277310924366","619.356858401975","344.19467078901425","j","true","img/C_28.png","生人","prac_self","","生人"
"","","","","","html-keyboard-response","222","1015289","0.0-14.1-0.1-1.40","null","<span style='color:GreenYellow; font-size: 70px;'>正确! </span>","null","","","","","","","","","","","","","","","","","","","","","","","feedback_test",""
"","","","","","psychophysics","223","1017580","0.0-14.1-0.1-0.41","1279","","f","","","","","","","","","","","","","key","f","16.662757352941245","619.356858401975","344.19467078901425","d","false","img/S_28.png","朋友","prac_self","","自我"
"","","","","","html-keyboard-response","224","1017895","0.0-14.1-0.1-1.41","null","<span style='color:red; font-size: 70px;'>错误! </span>","null","","","","","","","","","","","","","","","","","","","","","","","feedback_test",""
"","","","","","psychophysics","225","1020031","0.0-14.1-0.1-0.42","1134","","f","","","","","","","","","","","","","key","f","16.66251968503948","619.356858401975","344.19467078901425","f","true","img/S_28.png","自我","prac_self","","自我"
"","","","","","html-keyboard-response","226","1020333","0.0-14.1-0.1-1.42","null","<span style='color:GreenYellow; font-size: 70px;'>正确! </span>","null","","","","","","","","","","","","","","","","","","","","","","","feedback_test",""
"","","","","","psychophysics","227","1022089","0.0-14.1-0.1-0.43","754","","f","","","","","","","","","","","","","key","f","16.661105769230815","619.356858401975","344.19467078901425","f","true","img/S_28.png","自我","prac_self","","自我"
"","","","","","html-keyboard-response","228","1022394","0.0-14.1-0.1-1.43","null","<span style='color:GreenYellow; font-size: 70px;'>正确! </span>","null","","","","","","","","","","","","","","","","","","","","","","","feedback_test",""
"","","","","","psychophysics","229","1024899","0.0-14.1-0.1-0.44","null","","null","","","","","","","","","","","","","key","null","16.66416000000046","619.356858401975","344.19467078901425","j","false","img/C_28.png","生人","prac_self","","生人"
"","","","","","html-keyboard-response","230","1025208","0.0-14.1-0.1-1.44","null","<span class='add_' style='color:yellow; font-size: 70px;'> 太慢! </span>","null","","","","","","","","","","","","","","","","","","","","","","","feedback_test",""
"","","","","","psychophysics","231","1027583","0.0-14.1-0.1-0.45","1368","","k","","","","","","","","","","","","","key","k","16.663492957746584","619.356858401975","344.19467078901425","j","false","img/H_28.png","朋友","prac_self","","朋友"
"","","","","","html-keyboard-response","232","1027895","0.0-14.1-0.1-1.45","null","<span style='color:red; font-size: 70px;'>错误! </span>","null","","","","","","","","","","","","","","","","","","","","","","","feedback_test",""
"","","","","","psychophysics","233","1030397","0.0-14.1-0.1-0.46","null","","null","","","","","","","","","","","","","key","null","16.663127516778406","619.356858401975","344.19467078901425","k","false","img/H_28.png","自我","prac_self","","朋友"
"","","","","","html-keyboard-response","234","1030703","0.0-14.1-0.1-1.46","null","<span class='add_' style='color:yellow; font-size: 70px;'> 太慢! </span>","null","","","","","","","","","","","","","","","","","","","","","","","feedback_test",""
"","","","","","psychophysics","235","1033172","0.0-14.1-0.1-0.47","1467","","d","","","","","","","","","","","","","key","d","16.66281632653067","619.356858401975","344.19467078901425","k","false","img/H_28.png","生人","prac_self","","朋友"
"","","","","","html-keyboard-response","236","1033482","0.0-14.1-0.1-1.47","null","<span style='color:red; font-size: 70px;'>错误! </span>","null","","","","","","","","","","","","","","","","","","","","","","","feedback_test",""
"","","","","","html-keyboard-response","237","1036788","0.0-14.1-1.1-0.1","3304","<style>.context{color:white; font-size: 35px; line-height:40px}</style>                           <div><p class='context'>您正确回答了42% 的试次。</p><p class='context'>您的平均反应时为1065毫秒。</p>","j","","","","","","","","","","","","","","","","","","","","","","","",""
"","","","","","instructions","238","1044616","0.0-14.1-1.1-1.1","7824","","","","","","","","","","","","","","[{""page_index"":0,""viewing_time"":1784},{""page_index"":1,""viewing_time"":5360},{""page_index"":2,""viewing_time"":680}]","","","","","","","","","","","",""
"","","","","","psychophysics","239","1046612","0.0-14.2-0.2-0.48","992","","k","","","","","","","","","","","","","key","k","16.660142857143107","619.356858401975","344.19467078901425","k","true","img/C_28.png","朋友","prac_self","","生人"
"","","","","","html-keyboard-response","240","1046920","0.0-14.2-0.2-1.48","null","<span style='color:GreenYellow; font-size: 70px;'>正确! </span>","null","","","","","","","","","","","","","","","","","","","","","","","feedback_test",""
"","","","","","psychophysics","241","1048691","0.0-14.2-0.2-0.49","765","","f","","","","","","","","","","","","","key","f","16.66268571428511","619.356858401975","344.19467078901425","f","true","img/S_28.png","自我","prac_self","","自我"
"","","","","","html-keyboard-response","242","1048998","0.0-14.2-0.2-1.49","null","<span style='color:GreenYellow; font-size: 70px;'>正确! </span>","null","","","","","","","","","","","","","","","","","","","","","","","feedback_test",""
"","","","","","psychophysics","243","1051393","0.0-14.2-0.2-0.50","1384","","k","","","","","","","","","","","","","key","k","16.663265734266204","619.356858401975","344.19467078901425","j","false","img/C_28.png","生人","prac_self","","生人"
"","","","","","html-keyboard-response","244","1051698","0.0-14.2-0.2-1.50","null","<span style='color:red; font-size: 70px;'>错误! </span>","null","","","","","","","","","","","","","","","","","","","","","","","feedback_test",""
"","","","","","psychophysics","245","1054208","0.0-14.2-0.2-0.51","null","","null","","","","","","","","","","","","","key","null","16.663348993289617","619.356858401975","344.19467078901425","k","false","img/C_28.png","自我","prac_self","","生人"
"","","","","","html-keyboard-response","246","1054511","0.0-14.2-0.2-1.51","null","<span class='add_' style='color:yellow; font-size: 70px;'> 太慢! </span>","null","","","","","","","","","","","","","","","","","","","","","","","feedback_test",""
"","","","","","psychophysics","247","1056346","0.0-14.2-0.2-0.52","831","","j","","","","","","","","","","","","","key","j","16.663844036696684","619.356858401975","344.19467078901425","j","true","img/H_28.png","朋友","prac_self","","朋友"
"","","","","","html-keyboard-response","248","1056654","0.0-14.2-0.2-1.52","null","<span style='color:GreenYellow; font-size: 70px;'>正确! </span>","null","","","","","","","","","","","","","","","","","","","","","","","feedback_test",""
"","","","","","psychophysics","249","1058712","0.0-14.2-0.2-0.53","1055","","k","","","","","","","","","","","","","key","k","16.662747967479053","619.356858401975","344.19467078901425","j","false","img/C_28.png","生人","prac_self","","生人"
"","","","","","html-keyboard-response","250","1059016","0.0-14.2-0.2-1.53","null","<span style='color:red; font-size: 70px;'>错误! </span>","null","","","","","","","","","","","","","","","","","","","","","","","feedback_test",""
"","","","","","psychophysics","251","1061522","0.0-14.2-0.2-0.54","null","","null","","","","","","","","","","","","","key","null","16.662771812080713","619.356858401975","344.19467078901425","j","false","img/H_28.png","朋友","prac_self","","朋友"
"","","","","","html-keyboard-response","252","1061830","0.0-14.2-0.2-1.54","null","<span class='add_' style='color:yellow; font-size: 70px;'> 太慢! </span>","null","","","","","","","","","","","","","","","","","","","","","","","feedback_test",""
"","","","","","psychophysics","253","1063967","0.0-14.2-0.2-0.55","1127","","f","","","","","","","","","","","","","key","f","16.662047244095074","619.356858401975","344.19467078901425","k","false","img/H_28.png","自我","prac_self","","朋友"
"","","","","","html-keyboard-response","254","1064281","0.0-14.2-0.2-1.55","null","<span style='color:red; font-size: 70px;'>错误! </span>","null","","","","","","","","","","","","","","","","","","","","","","","feedback_test",""
"","","","","","psychophysics","255","1066270","0.0-14.2-0.2-0.56","982","","d","","","","","","","","","","","","","key","d","16.661974576270303","619.356858401975","344.19467078901425","d","true","img/S_28.png","朋友","prac_self","","自我"
"","","","","","html-keyboard-response","256","1066577","0.0-14.2-0.2-1.56","null","<span style='color:GreenYellow; font-size: 70px;'>正确! </span>","null","","","","","","","","","","","","","","","","","","","","","","","feedback_test",""
"","","","","","psychophysics","257","1068675","0.0-14.2-0.2-0.57","1096","","k","","","","","","","","","","","","","key","k","16.661207999998705","619.356858401975","344.19467078901425","k","true","img/H_28.png","生人","prac_self","","朋友"
"","","","","","html-keyboard-response","258","1068991","0.0-14.2-0.2-1.57","null","<span style='color:GreenYellow; font-size: 70px;'>正确! </span>","null","","","","","","","","","","","","","","","","","","","","","","","feedback_test",""
"","","","","","psychophysics","259","1071186","0.0-14.2-0.2-0.58","1183","","k","","","","","","","","","","","","","key","k","16.663192307691162","619.356858401975","344.19467078901425","d","false","img/S_28.png","生人","prac_self","","自我"
"","","","","","html-keyboard-response","260","1071489","0.0-14.2-0.2-1.58","null","<span style='color:red; font-size: 70px;'>错误! </span>","null","","","","","","","","","","","","","","","","","","","","","","","feedback_test",""
"","","","","","psychophysics","261","1073339","0.0-14.2-0.2-0.59","848","","f","","","","","","","","","","","","","key","f","16.6636818181808","619.356858401975","344.19467078901425","f","true","img/S_28.png","自我","prac_self","","自我"
"","","","","","html-keyboard-response","262","1073648","0.0-14.2-0.2-1.59","null","<span style='color:GreenYellow; font-size: 70px;'>正确! </span>","null","","","","","","","","","","","","","","","","","","","","","","","feedback_test",""
"","","","","","psychophysics","263","1075739","0.0-14.2-0.2-0.60","1087","","k","","","","","","","","","","","","","key","k","16.662615999998525","619.356858401975","344.19467078901425","k","true","img/H_28.png","生人","prac_self","","朋友"
"","","","","","html-keyboard-response","264","1076041","0.0-14.2-0.2-1.60","null","<span style='color:GreenYellow; font-size: 70px;'>正确! </span>","null","","","","","","","","","","","","","","","","","","","","","","","feedback_test",""
"","","","","","psychophysics","265","1078323","0.0-14.2-0.2-0.61","1273","","j","","","","","","","","","","","","","key","j","16.663963235293256","619.356858401975","344.19467078901425","k","false","img/H_28.png","自我","prac_self","","朋友"
"","","","","","html-keyboard-response","266","1078638","0.0-14.2-0.2-1.61","null","<span style='color:red; font-size: 70px;'>错误! </span>","null","","","","","","","","","","","","","","","","","","","","","","","feedback_test",""
"","","","","","psychophysics","267","1081147","0.0-14.2-0.2-0.62","1497","","d","","","","","","","","","","","","","key","d","16.66262416107324","619.356858401975","344.19467078901425","j","false","img/C_28.png","生人","prac_self","","生人"
"","","","","","html-keyboard-response","268","1081461","0.0-14.2-0.2-1.62","null","<span style='color:red; font-size: 70px;'>错误! </span>","null","","","","","","","","","","","","","","","","","","","","","","","feedback_test",""
"","","","","","psychophysics","269","1083536","0.0-14.2-0.2-0.63","1067","","j","","","","","","","","","","","","","key","j","16.662895161290503","619.356858401975","344.19467078901425","j","true","img/C_28.png","生人","prac_self","","生人"
"","","","","","html-keyboard-response","270","1083851","0.0-14.2-0.2-1.63","null","<span style='color:GreenYellow; font-size: 70px;'>正确! </span>","null","","","","","","","","","","","","","","","","","","","","","","","feedback_test",""
"","","","","","psychophysics","271","1085919","0.0-14.2-0.2-0.64","1067","","k","","","","","","","","","","","","","key","k","16.66338211382035","619.356858401975","344.19467078901425","j","false","img/H_28.png","朋友","prac_self","","朋友"
"","","","","","html-keyboard-response","272","1086227","0.0-14.2-0.2-1.64","null","<span style='color:red; font-size: 70px;'>错误! </span>","null","","","","","","","","","","","","","","","","","","","","","","","feedback_test",""
"","","","","","psychophysics","273","1088057","0.0-14.2-0.2-0.65","823","","k","","","","","","","","","","","","","key","k","16.66290825688058","619.356858401975","344.19467078901425","k","true","img/C_28.png","朋友","prac_self","","生人"
"","","","","","html-keyboard-response","274","1088371","0.0-14.2-0.2-1.65","null","<span style='color:GreenYellow; font-size: 70px;'>正确! </span>","null","","","","","","","","","","","","","","","","","","","","","","","feedback_test",""
"","","","","","psychophysics","275","1090076","0.0-14.2-0.2-0.66","695","","j","","","","","","","","","","","","","key","j","16.663613861385215","619.356858401975","344.19467078901425","j","true","img/H_28.png","朋友","prac_self","","朋友"
"","","","","","html-keyboard-response","276","1090382","0.0-14.2-0.2-1.66","null","<span style='color:GreenYellow; font-size: 70px;'>正确! </span>","null","","","","","","","","","","","","","","","","","","","","","","","feedback_test",""
"","","","","","psychophysics","277","1091956","0.0-14.2-0.2-0.67","572","","j","","","","","","","","","","","","","key","j","16.66755913978603","619.356858401975","344.19467078901425","d","false","img/S_28.png","朋友","prac_self","","自我"
"","","","","","html-keyboard-response","278","1092270","0.0-14.2-0.2-1.67","null","<span style='color:red; font-size: 70px;'>错误! </span>","null","","","","","","","","","","","","","","","","","","","","","","","feedback_test",""
"","","","","","psychophysics","279","1094488","0.0-14.2-0.2-0.68","1216","","k","","","","","","","","","","","","","key","k","16.663083333333347","619.356858401975","344.19467078901425","k","true","img/C_28.png","自我","prac_self","","生人"
"","","","","","html-keyboard-response","280","1094799","0.0-14.2-0.2-1.68","null","<span style='color:GreenYellow; font-size: 70px;'>正确! </span>","null","","","","","","","","","","","","","","","","","","","","","","","feedback_test",""
"","","","","","psychophysics","281","1096692","0.0-14.2-0.2-0.69","880","","d","","","","","","","","","","","","","key","d","16.66258035714106","619.356858401975","344.19467078901425","d","true","img/S_28.png","生人","prac_self","","自我"
"","","","","","html-keyboard-response","282","1097003","0.0-14.2-0.2-1.69","null","<span style='color:GreenYellow; font-size: 70px;'>正确! </span>","null","","","","","","","","","","","","","","","","","","","","","","","feedback_test",""
"","","","","","psychophysics","283","1098706","0.0-14.2-0.2-0.70","691","","f","","","","","","","","","","","","","key","f","16.665930693067775","619.356858401975","344.19467078901425","f","true","img/S_28.png","自我","prac_self","","自我"
"","","","","","html-keyboard-response","284","1099018","0.0-14.2-0.2-1.70","null","<span style='color:GreenYellow; font-size: 70px;'>正确! </span>","null","","","","","","","","","","","","","","","","","","","","","","","feedback_test",""
"","","","","","psychophysics","285","1100522","0.0-14.2-0.2-0.71","492","","f","","","","","","","","","","","","","key","f","16.662696629213272","619.356858401975","344.19467078901425","f","true","img/S_28.png","自我","prac_self","","自我"
"","","","","","html-keyboard-response","286","1100825","0.0-14.2-0.2-1.71","null","<span style='color:GreenYellow; font-size: 70px;'>正确! </span>","null","","","","","","","","","","","","","","","","","","","","","","","feedback_test",""
"","","","","","html-keyboard-response","287","1104085","0.0-14.2-1.2-0.2","3257","<style>.context{color:white; font-size: 35px; line-height:40px}</style>                           <div><p class='context'>您正确回答了58% 的试次。</p><p class='context'>您的平均反应时为890毫秒。</p>","f","","","","","","","","","","","","","","","","","","","","","","","",""
"","","","","","instructions","288","1108720","0.0-14.2-1.2-1.2","4630","","","","","","","","","","","","","","[{""page_index"":0,""viewing_time"":814},{""page_index"":1,""viewing_time"":2392},{""page_index"":2,""viewing_time"":1424}]","","","","","","","","","","","",""
"","","","","","psychophysics","289","1111229","0.0-14.3-0.3-0.72","null","","null","","","","","","","","","","","","","key","null","16.664746666667053","619.356858401975","344.19467078901425","d","false","img/S_28.png","朋友","prac_self","","自我"
"","","","","","html-keyboard-response","290","1111537","0.0-14.3-0.3-1.72","null","<span class='add_' style='color:yellow; font-size: 70px;'> 太慢! </span>","null","","","","","","","","","","","","","","","","","","","","","","","feedback_test",""
"","","","","","psychophysics","291","1113809","0.0-14.3-0.3-0.73","1265","","j","","","","","","","","","","","","","key","j","16.662481481481894","619.356858401975","344.19467078901425","j","true","img/C_28.png","生人","prac_self","","生人"
"","","","","","html-keyboard-response","292","1114116","0.0-14.3-0.3-1.73","null","<span style='color:GreenYellow; font-size: 70px;'>正确! </span>","null","","","","","","","","","","","","","","","","","","","","","","","feedback_test",""
"","","","","","psychophysics","293","1116356","0.0-14.3-0.3-0.74","1231","","k","","","","","","","","","","","","","key","k","16.661601503759524","619.356858401975","344.19467078901425","k","true","img/H_28.png","生人","prac_self","","朋友"
"","","","","","html-keyboard-response","294","1116672","0.0-14.3-0.3-1.74","null","<span style='color:GreenYellow; font-size: 70px;'>正确! </span>","null","","","","","","","","","","","","","","","","","","","","","","","feedback_test",""
"","","","","","psychophysics","295","1118785","0.0-14.3-0.3-0.75","1110","","j","","","","","","","","","","","","","key","j","16.662761904763073","619.356858401975","344.19467078901425","j","true","img/H_28.png","朋友","prac_self","","朋友"
"","","","","","html-keyboard-response","296","1119101","0.0-14.3-0.3-1.75","null","<span style='color:GreenYellow; font-size: 70px;'>正确! </span>","null","","","","","","","","","","","","","","","","","","","","","","","feedback_test",""
"","","","","","psychophysics","297","1121609","0.0-14.3-0.3-0.76","null","","null","","","","","","","","","","","","","key","null","16.66283999999985","619.356858401975","344.19467078901425","d","false","img/S_28.png","生人","prac_self","","自我"
"","","","","","html-keyboard-response","298","1121923","0.0-14.3-0.3-1.76","null","<span class='add_' style='color:yellow; font-size: 70px;'> 太慢! </span>","null","","","","","","","","","","","","","","","","","","","","","","","feedback_test",""
"","","","","","psychophysics","299","1123636","0.0-14.3-0.3-0.77","711","","f","","","","","","","","","","","","","key","f","16.661960396039678","619.356858401975","344.19467078901425","f","true","img/S_28.png","自我","prac_self","","自我"
"","","","","","html-keyboard-response","300","1123939","0.0-14.3-0.3-1.77","null","<span style='color:GreenYellow; font-size: 70px;'>正确! </span>","null","","","","","","","","","","","","","","","","","","","","","","","feedback_test",""
"","","","","","psychophysics","301","1125865","0.0-14.3-0.3-0.78","924","","j","","","","","","","","","","","","","key","j","16.664860869565494","619.356858401975","344.19467078901425","j","true","img/H_28.png","朋友","prac_self","","朋友"
"","","","","","html-keyboard-response","302","1126176","0.0-14.3-0.3-1.78","null","<span style='color:GreenYellow; font-size: 70px;'>正确! </span>","null","","","","","","","","","","","","","","","","","","","","","","","feedback_test",""
"","","","","","psychophysics","303","1128435","0.0-14.3-0.3-0.79","1246","","d","","","","","","","","","","","","","key","d","16.66097761194027","619.356858401975","344.19467078901425","k","false","img/C_28.png","自我","prac_self","","生人"
"","","","","","html-keyboard-response","304","1128749","0.0-14.3-0.3-1.79","null","<span style='color:red; font-size: 70px;'>错误! </span>","null","","","","","","","","","","","","","","","","","","","","","","","feedback_test",""
"","","","","","psychophysics","305","1131167","0.0-14.3-0.3-0.80","1411","","k","","","","","","","","","","","","","key","k","16.664493055554985","619.356858401975","344.19467078901425","k","true","img/H_28.png","自我","prac_self","","朋友"
"","","","","","html-keyboard-response","306","1131483","0.0-14.3-0.3-1.80","null","<span style='color:GreenYellow; font-size: 70px;'>正确! </span>","null","","","","","","","","","","","","","","","","","","","","","","","feedback_test",""
"","","","","","psychophysics","307","1133247","0.0-14.3-0.3-0.81","759","","f","","","","","","","","","","","","","key","f","16.663380952381218","619.356858401975","344.19467078901425","f","true","img/S_28.png","自我","prac_self","","自我"
"","","","","","html-keyboard-response","308","1133558","0.0-14.3-0.3-1.81","null","<span style='color:GreenYellow; font-size: 70px;'>正确! </span>","null","","","","","","","","","","","","","","","","","","","","","","","feedback_test",""
"","","","","","psychophysics","309","1135464","0.0-14.3-0.3-0.82","893","","j","","","","","","","","","","","","","key","j","16.662371681415912","619.356858401975","344.19467078901425","j","true","img/C_28.png","生人","prac_self","","生人"
"","","","","","html-keyboard-response","310","1135776","0.0-14.3-0.3-1.82","null","<span style='color:GreenYellow; font-size: 70px;'>正确! </span>","null","","","","","","","","","","","","","","","","","","","","","","","feedback_test",""
"","","","","","psychophysics","311","1137843","0.0-14.3-0.3-0.83","1054","","k","","","","","","","","","","","","","key","k","16.664073170730617","619.356858401975","344.19467078901425","k","true","img/C_28.png","朋友","prac_self","","生人"
"","","","","","html-keyboard-response","312","1138159","0.0-14.3-0.3-1.83","null","<span style='color:GreenYellow; font-size: 70px;'>正确! </span>","null","","","","","","","","","","","","","","","","","","","","","","","feedback_test",""
"","","","","","psychophysics","313","1140160","0.0-14.3-0.3-0.84","989","","j","","","","","","","","","","","","","key","j","16.662344537814295","619.356858401975","344.19467078901425","j","true","img/C_28.png","生人","prac_self","","生人"
"","","","","","html-keyboard-response","314","1140463","0.0-14.3-0.3-1.84","null","<span style='color:GreenYellow; font-size: 70px;'>正确! </span>","null","","","","","","","","","","","","","","","","","","","","","","","feedback_test",""
"","","","","","psychophysics","315","1142181","0.0-14.3-0.3-0.85","710","","f","","","","","","","","","","","","","key","f","16.664960784312594","619.356858401975","344.19467078901425","f","true","img/S_28.png","自我","prac_self","","自我"
"","","","","","html-keyboard-response","316","1142490","0.0-14.3-0.3-1.85","null","<span style='color:GreenYellow; font-size: 70px;'>正确! </span>","null","","","","","","","","","","","","","","","","","","","","","","","feedback_test",""
"","","","","","psychophysics","317","1144178","0.0-14.3-0.3-0.86","686","","f","","","","","","","","","","","","","key","f","16.66216999999946","619.356858401975","344.19467078901425","f","true","img/S_28.png","自我","prac_self","","自我"
"","","","","","html-keyboard-response","318","1144479","0.0-14.3-0.3-1.86","null","<span style='color:GreenYellow; font-size: 70px;'>正确! </span>","null","","","","","","","","","","","","","","","","","","","","","","","feedback_test",""
"","","","","","psychophysics","319","1146652","0.0-14.3-0.3-0.87","1167","","j","","","","","","","","","","","","","key","j","16.662147286820925","619.356858401975","344.19467078901425","j","true","img/C_28.png","生人","prac_self","","生人"
"","","","","","html-keyboard-response","320","1146962","0.0-14.3-0.3-1.87","null","<span style='color:GreenYellow; font-size: 70px;'>正确! </span>","null","","","","","","","","","","","","","","","","","","","","","","","feedback_test",""
"","","","","","psychophysics","321","1148814","0.0-14.3-0.3-0.88","846","","k","","","","","","","","","","","","","key","k","16.66212727272756","619.356858401975","344.19467078901425","k","true","img/C_28.png","朋友","prac_self","","生人"
"","","","","","html-keyboard-response","322","1149127","0.0-14.3-0.3-1.88","null","<span style='color:GreenYellow; font-size: 70px;'>正确! </span>","null","","","","","","","","","","","","","","","","","","","","","","","feedback_test",""
"","","","","","psychophysics","323","1150903","0.0-14.3-0.3-0.89","770","","j","","","","","","","","","","","","","key","j","16.666839622642037","619.356858401975","344.19467078901425","k","false","img/H_28.png","生人","prac_self","","朋友"
"","","","","","html-keyboard-response","324","1151213","0.0-14.3-0.3-1.89","null","<span style='color:red; font-size: 70px;'>错误! </span>","null","","","","","","","","","","","","","","","","","","","","","","","feedback_test",""
"","","","","","psychophysics","325","1153205","0.0-14.3-0.3-0.90","987","","f","","","","","","","","","","","","","key","f","16.662781512605402","619.356858401975","344.19467078901425","d","false","img/S_28.png","朋友","prac_self","","自我"
"","","","","","html-keyboard-response","326","1153521","0.0-14.3-0.3-1.90","null","<span style='color:red; font-size: 70px;'>错误! </span>","null","","","","","","","","","","","","","","","","","","","","","","","feedback_test",""
"","","","","","psychophysics","327","1155555","0.0-14.3-0.3-0.91","1032","","k","","","","","","","","","","","","","key","k","16.6646198347107","619.356858401975","344.19467078901425","k","true","img/H_28.png","自我","prac_self","","朋友"
"","","","","","html-keyboard-response","328","1155862","0.0-14.3-0.3-1.91","null","<span style='color:GreenYellow; font-size: 70px;'>正确! </span>","null","","","","","","","","","","","","","","","","","","","","","","","feedback_test",""
"","","","","","psychophysics","329","1157646","0.0-14.3-0.3-0.92","780","","d","","","","","","","","","","","","","key","d","16.66243396226299","619.356858401975","344.19467078901425","d","true","img/S_28.png","生人","prac_self","","自我"
"","","","","","html-keyboard-response","330","1157951","0.0-14.3-0.3-1.92","null","<span style='color:GreenYellow; font-size: 70px;'>正确! </span>","null","","","","","","","","","","","","","","","","","","","","","","","feedback_test",""
"","","","","","psychophysics","331","1159741","0.0-14.3-0.3-0.93","780","","j","","","","","","","","","","","","","key","j","16.661877358490425","619.356858401975","344.19467078901425","j","true","img/H_28.png","朋友","prac_self","","朋友"
"","","","","","html-keyboard-response","332","1160052","0.0-14.3-0.3-1.93","null","<span style='color:GreenYellow; font-size: 70px;'>正确! </span>","null","","","","","","","","","","","","","","","","","","","","","","","feedback_test",""
"","","","","","psychophysics","333","1162126","0.0-14.3-0.3-0.94","1061","","f","","","","","","","","","","","","","key","f","16.66278861788654","619.356858401975","344.19467078901425","k","false","img/C_28.png","自我","prac_self","","生人"
"","","","","","html-keyboard-response","334","1162442","0.0-14.3-0.3-1.94","null","<span style='color:red; font-size: 70px;'>错误! </span>","null","","","","","","","","","","","","","","","","","","","","","","","feedback_test",""
"","","","","","psychophysics","335","1164544","0.0-14.3-0.3-0.95","1096","","j","","","","","","","","","","","","","key","j","16.66260000000149","619.356858401975","344.19467078901425","j","true","img/H_28.png","朋友","prac_self","","朋友"
"","","","","","html-keyboard-response","336","1164861","0.0-14.3-0.3-1.95","null","<span style='color:GreenYellow; font-size: 70px;'>正确! </span>","null","","","","","","","","","","","","","","","","","","","","","","","feedback_test",""
"","","","","","html-keyboard-response","337","1178626","0.0-15.0","13762","[""<style>.context{color:white; font-size: 35px; line-height:40px}</style>           <div><p class='context'>您正确回答了75% 的试次。</p><p class='context'>您的平均反应时为969毫秒。</p><p class='context'>恭喜您完成这一阶段的练习。按任意键进入<span style='color: yellow;'>重点关注图形为“朋友”</span>的练习。</p></div><p class='footer' style='font-size:35px; line-height:30px;'>任务要求：\n           <p class='footer' style='font-size:35px; line-height:35px;'>对于与“朋友”对应的图形：如果 匹配 ，请按 <span style=\""color: lightgreen;\"">f键</span></p><p class='footer' style='font-size:35px'>如果 不匹配 ，请按<span style=\""color: lightgreen;\"">d键</p></span>\n           <p class='footer' style='font-size:35px; line-height:35px;'>对于非“朋友”对应的图形：如果 匹配 ，请按 <span style=\""color: lightgreen;\"">j键</span></p><p class='footer' style='font-size:35px'>如果 不匹配 ，请按<span style=\""color: lightgreen;\"">k键</p></span>\n           <p class='footer' style='font-size:22px; line-height:25px;'>请在实验过程中将您的<span style=\""color: lightgreen;\"">食指和中指</span>放在电脑键盘的相应键位上进行按键。</p></span>""]","j","","","","","","","","","","","","","","","","","","","","","","","",""
"","","","","","psychophysics","338","1180677","0.0-16.0-0.0-0.0","1033","","f","","","","","","","","","","","","","key","f","16.645975206611094","619.356858401975","344.19467078901425","f","true","img/H_28.png","朋友","prac_friend","","朋友"
"","","","","","html-keyboard-response","339","1180987","0.0-16.0-0.0-1.0","null","<span style='color:GreenYellow; font-size: 70px;'>正确! </span>","null","","","","","","","","","","","","","","","","","","","","","","","feedback_test",""
"","","","","","psychophysics","340","1183077","0.0-16.0-0.0-0.1","1083","","j","","","","","","","","","","","","","key","j","16.662319999998434","619.356858401975","344.19467078901425","k","false","img/C_28.png","自我","prac_friend","","生人"
"","","","","","html-keyboard-response","341","1183385","0.0-16.0-0.0-1.1","null","<span style='color:red; font-size: 70px;'>错误! </span>","null","","","","","","","","","","","","","","","","","","","","","","","feedback_test",""
"","","","","","psychophysics","342","1185770","0.0-16.0-0.0-0.2","1376","","j","","","","","","","","","","","","","key","j","16.663161971830945","619.356858401975","344.19467078901425","k","false","img/S_28.png","生人","prac_friend","","自我"
"","","","","","html-keyboard-response","343","1186077","0.0-16.0-0.0-1.2","null","<span style='color:red; font-size: 70px;'>错误! </span>","null","","","","","","","","","","","","","","","","","","","","","","","feedback_test",""
"","","","","","psychophysics","344","1188518","0.0-16.0-0.0-0.3","1429","","k","","","","","","","","","","","","","key","k","16.66394482758699","619.356858401975","344.19467078901425","j","false","img/S_28.png","自我","prac_friend","","自我"
"","","","","","html-keyboard-response","345","1188824","0.0-16.0-0.0-1.3","null","<span style='color:red; font-size: 70px;'>错误! </span>","null","","","","","","","","","","","","","","","","","","","","","","","feedback_test",""
"","","","","","psychophysics","346","1190920","0.0-16.0-0.0-0.4","1094","","f","","","","","","","","","","","","","key","f","16.664540322580105","619.356858401975","344.19467078901425","d","false","img/H_28.png","自我","prac_friend","","朋友"
"","","","","","html-keyboard-response","347","1191230","0.0-16.0-0.0-1.4","null","<span style='color:red; font-size: 70px;'>错误! </span>","null","","","","","","","","","","","","","","","","","","","","","","","feedback_test",""
"","","","","","psychophysics","348","1193159","0.0-16.0-0.0-0.5","919","","f","","","","","","","","","","","","","key","f","16.664260869566352","619.356858401975","344.19467078901425","d","false","img/H_28.png","生人","prac_friend","","朋友"
"","","","","","html-keyboard-response","349","1193472","0.0-16.0-0.0-1.5","null","<span style='color:red; font-size: 70px;'>错误! </span>","null","","","","","","","","","","","","","","","","","","","","","","","feedback_test",""
"","","","","","psychophysics","350","1195260","0.0-16.0-0.0-0.6","782","","f","","","","","","","","","","","","","key","f","16.54427358490538","619.356858401975","344.19467078901425","f","true","img/H_28.png","朋友","prac_friend","","朋友"
"","","","","","html-keyboard-response","351","1195563","0.0-16.0-0.0-1.6","null","<span style='color:GreenYellow; font-size: 70px;'>正确! </span>","null","","","","","","","","","","","","","","","","","","","","","","","feedback_test",""
"","","","","","psychophysics","352","1197381","0.0-16.0-0.0-0.7","807","","d","","","","","","","","","","","","","key","d","16.662231481481015","619.356858401975","344.19467078901425","k","false","img/C_28.png","朋友","prac_friend","","生人"
"","","","","","html-keyboard-response","353","1197689","0.0-16.0-0.0-1.7","null","<span style='color:red; font-size: 70px;'>错误! </span>","null","","","","","","","","","","","","","","","","","","","","","","","feedback_test",""
"","","","","","psychophysics","354","1199681","0.0-16.0-0.0-0.8","992","","j","","","","","","","","","","","","","key","j","16.543194915254805","619.356858401975","344.19467078901425","k","false","img/S_28.png","朋友","prac_friend","","自我"
"","","","","","html-keyboard-response","355","1199996","0.0-16.0-0.0-1.8","null","<span style='color:red; font-size: 70px;'>错误! </span>","null","","","","","","","","","","","","","","","","","","","","","","","feedback_test",""
"","","","","","psychophysics","356","1202507","0.0-16.0-0.0-0.9","null","","null","","","","","","","","","","","","","key","null","16.66265333333363","619.356858401975","344.19467078901425","j","false","img/S_28.png","自我","prac_friend","","自我"
"","","","","","html-keyboard-response","357","1202817","0.0-16.0-0.0-1.9","null","<span class='add_' style='color:yellow; font-size: 70px;'> 太慢! </span>","null","","","","","","","","","","","","","","","","","","","","","","","feedback_test",""
"","","","","","psychophysics","358","1204870","0.0-16.0-0.0-0.10","1049","","j","","","","","","","","","","","","","key","j","16.662696721310894","619.356858401975","344.19467078901425","j","true","img/C_28.png","生人","prac_friend","","生人"
"","","","","","html-keyboard-response","359","1205177","0.0-16.0-0.0-1.10","null","<span style='color:GreenYellow; font-size: 70px;'>正确! </span>","null","","","","","","","","","","","","","","","","","","","","","","","feedback_test",""
"","","","","","psychophysics","360","1207112","0.0-16.0-0.0-0.11","923","","j","","","","","","","","","","","","","key","j","16.662591304346595","619.356858401975","344.19467078901425","j","true","img/C_28.png","生人","prac_friend","","生人"
"","","","","","html-keyboard-response","361","1207419","0.0-16.0-0.0-1.11","null","<span style='color:GreenYellow; font-size: 70px;'>正确! </span>","null","","","","","","","","","","","","","","","","","","","","","","","feedback_test",""
"","","","","","psychophysics","362","1209100","0.0-16.0-0.0-0.12","678","","k","","","","","","","","","","","","","key","k","16.5211919191919","619.356858401975","344.19467078901425","k","true","img/C_28.png","朋友","prac_friend","","生人"
"","","","","","html-keyboard-response","363","1209403","0.0-16.0-0.0-1.12","null","<span style='color:GreenYellow; font-size: 70px;'>正确! </span>","null","","","","","","","","","","","","","","","","","","","","","","","feedback_test",""
"","","","","","psychophysics","364","1210936","0.0-16.0-0.0-0.13","531","","j","","","","","","","","","","","","","key","j","16.662766666666396","619.356858401975","344.19467078901425","j","true","img/C_28.png","生人","prac_friend","","生人"
"","","","","","html-keyboard-response","365","1211250","0.0-16.0-0.0-1.13","null","<span style='color:GreenYellow; font-size: 70px;'>正确! </span>","null","","","","","","","","","","","","","","","","","","","","","","","feedback_test",""
"","","","","","psychophysics","366","1213364","0.0-16.0-0.0-0.14","1110","","k","","","","","","","","","","","","","key","k","16.663476190476175","619.356858401975","344.19467078901425","j","false","img/S_28.png","自我","prac_friend","","自我"
"","","","","","html-keyboard-response","367","1213680","0.0-16.0-0.0-1.14","null","<span style='color:red; font-size: 70px;'>错误! </span>","null","","","","","","","","","","","","","","","","","","","","","","","feedback_test",""
"","","","","","psychophysics","368","1215673","0.0-16.0-0.0-0.15","988","","k","","","","","","","","","","","","","key","k","16.663092436975244","619.356858401975","344.19467078901425","k","true","img/C_28.png","自我","prac_friend","","生人"
"","","","","","html-keyboard-response","369","1215988","0.0-16.0-0.0-1.15","null","<span style='color:GreenYellow; font-size: 70px;'>正确! </span>","null","","","","","","","","","","","","","","","","","","","","","","","feedback_test",""
"","","","","","psychophysics","370","1217860","0.0-16.0-0.0-0.16","866","","j","","","","","","","","","","","","","key","j","16.66275675675773","619.356858401975","344.19467078901425","d","false","img/H_28.png","生人","prac_friend","","朋友"
"","","","","","html-keyboard-response","371","1218164","0.0-16.0-0.0-1.16","null","<span style='color:red; font-size: 70px;'>错误! </span>","null","","","","","","","","","","","","","","","","","","","","","","","feedback_test",""
"","","","","","psychophysics","372","1219880","0.0-16.0-0.0-0.17","712","","d","","","","","","","","","","","","","key","d","16.663039215687462","619.356858401975","344.19467078901425","d","true","img/H_28.png","自我","prac_friend","","朋友"
"","","","","","html-keyboard-response","373","1220195","0.0-16.0-0.0-1.17","null","<span style='color:GreenYellow; font-size: 70px;'>正确! </span>","null","","","","","","","","","","","","","","","","","","","","","","","feedback_test",""
"","","","","","psychophysics","374","1221744","0.0-16.0-0.0-0.18","542","","f","","","","","","","","","","","","","key","f","16.663010869564935","619.356858401975","344.19467078901425","f","true","img/H_28.png","朋友","prac_friend","","朋友"
"","","","","","html-keyboard-response","375","1222051","0.0-16.0-0.0-1.18","null","<span style='color:GreenYellow; font-size: 70px;'>正确! </span>","null","","","","","","","","","","","","","","","","","","","","","","","feedback_test",""
"","","","","","psychophysics","376","1224124","0.0-16.0-0.0-0.19","1072","","k","","","","","","","","","","","","","key","k","16.662170731706727","619.356858401975","344.19467078901425","j","false","img/S_28.png","自我","prac_friend","","自我"
"","","","","","html-keyboard-response","377","1224427","0.0-16.0-0.0-1.19","null","<span style='color:red; font-size: 70px;'>错误! </span>","null","","","","","","","","","","","","","","","","","","","","","","","feedback_test",""
"","","","","","psychophysics","378","1226019","0.0-16.0-0.0-0.20","586","","d","","","","","","","","","","","","","key","d","16.6626842105271","619.356858401975","344.19467078901425","k","false","img/S_28.png","生人","prac_friend","","自我"
"","","","","","html-keyboard-response","379","1226329","0.0-16.0-0.0-1.20","null","<span style='color:red; font-size: 70px;'>错误! </span>","null","","","","","","","","","","","","","","","","","","","","","","","feedback_test",""
"","","","","","psychophysics","380","1228831","0.0-16.0-0.0-0.21","null","","null","","","","","","","","","","","","","key","null","16.66259060402701","619.356858401975","344.19467078901425","k","false","img/S_28.png","朋友","prac_friend","","自我"
"","","","","","html-keyboard-response","381","1229137","0.0-16.0-0.0-1.21","null","<span class='add_' style='color:yellow; font-size: 70px;'> 太慢! </span>","null","","","","","","","","","","","","","","","","","","","","","","","feedback_test",""
"","","","","","psychophysics","382","1230934","0.0-16.0-0.0-0.22","787","","k","","","","","","","","","","","","","key","k","16.662813084112987","619.356858401975","344.19467078901425","j","false","img/C_28.png","生人","prac_friend","","生人"
"","","","","","html-keyboard-response","383","1231239","0.0-16.0-0.0-1.22","null","<span style='color:red; font-size: 70px;'>错误! </span>","null","","","","","","","","","","","","","","","","","","","","","","","feedback_test",""
"","","","","","psychophysics","384","1232938","0.0-16.0-0.0-0.23","698","","f","","","","","","","","","","","","","key","f","16.663425742574773","619.356858401975","344.19467078901425","f","true","img/H_28.png","朋友","prac_friend","","朋友"
"","","","","","html-keyboard-response","385","1233252","0.0-16.0-0.0-1.23","null","<span style='color:GreenYellow; font-size: 70px;'>正确! </span>","null","","","","","","","","","","","","","","","","","","","","","","","feedback_test",""
"","","","","","html-keyboard-response","386","1235279","0.0-16.0-1.0-0.0","2025","<style>.context{color:white; font-size: 35px; line-height:40px}</style>                           <div><p class='context'>您正确回答了42% 的试次。</p><p class='context'>您的平均反应时为794毫秒。</p>"," ","","","","","","","","","","","","","","","","","","","","","","","",""
"","","","","","instructions","387","1240473","0.0-16.0-1.0-1.0","5185","","","","","","","","","","","","","","[{""page_index"":0,""viewing_time"":1393},{""page_index"":1,""viewing_time"":2808},{""page_index"":2,""viewing_time"":984}]","","","","","","","","","","","",""
"","","","","","psychophysics","388","1242555","0.0-16.1-0.1-0.24","1075","","k","","","","","","","","","","","","","key","k","16.66314516129017","619.356858401975","344.19467078901425","k","true","img/C_28.png","朋友","prac_friend","","生人"
"","","","","","html-keyboard-response","389","1242861","0.0-16.1-0.1-1.24","null","<span style='color:GreenYellow; font-size: 70px;'>正确! </span>","null","","","","","","","","","","","","","","","","","","","","","","","feedback_test",""
"","","","","","psychophysics","390","1244772","0.0-16.1-0.1-0.25","910","","j","","","","","","","","","","","","","key","j","16.663238938053066","619.356858401975","344.19467078901425","j","true","img/S_28.png","自我","prac_friend","","自我"
"","","","","","html-keyboard-response","391","1245078","0.0-16.1-0.1-1.25","null","<span style='color:GreenYellow; font-size: 70px;'>正确! </span>","null","","","","","","","","","","","","","","","","","","","","","","","feedback_test",""
"","","","","","psychophysics","392","1247203","0.0-16.1-0.1-0.26","1125","","k","","","","","","","","","","","","","key","k","16.662849206348053","619.356858401975","344.19467078901425","j","false","img/C_28.png","生人","prac_friend","","生人"
"","","","","","html-keyboard-response","393","1247513","0.0-16.1-0.1-1.26","null","<span style='color:red; font-size: 70px;'>错误! </span>","null","","","","","","","","","","","","","","","","","","","","","","","feedback_test",""
"","","","","","psychophysics","394","1249251","0.0-16.1-0.1-0.27","736","","f","","","","","","","","","","","","","key","f","16.66206796116476","619.356858401975","344.19467078901425","f","true","img/H_28.png","朋友","prac_friend","","朋友"
"","","","","","html-keyboard-response","395","1249562","0.0-16.1-0.1-1.27","null","<span style='color:GreenYellow; font-size: 70px;'>正确! </span>","null","","","","","","","","","","","","","","","","","","","","","","","feedback_test",""
"","","","","","psychophysics","396","1251822","0.0-16.1-0.1-0.28","1256","","k","","","","","","","","","","","","","key","k","16.66158208955225","619.356858401975","344.19467078901425","k","true","img/S_28.png","朋友","prac_friend","","自我"
"","","","","","html-keyboard-response","397","1252138","0.0-16.1-0.1-1.28","null","<span style='color:GreenYellow; font-size: 70px;'>正确! </span>","null","","","","","","","","","","","","","","","","","","","","","","","feedback_test",""
"","","","","","psychophysics","398","1254144","0.0-16.1-0.1-0.29","1001","","f","","","","","","","","","","","","","key","f","16.663083333333876","619.356858401975","344.19467078901425","d","false","img/H_28.png","自我","prac_friend","","朋友"
"","","","","","html-keyboard-response","399","1254447","0.0-16.1-0.1-1.29","null","<span style='color:red; font-size: 70px;'>错误! </span>","null","","","","","","","","","","","","","","","","","","","","","","","feedback_test",""
"","","","","","psychophysics","400","1256590","0.0-16.1-0.1-0.30","1130","","k","","","","","","","","","","","","","key","k","16.664929133858237","619.356858401975","344.19467078901425","k","true","img/C_28.png","自我","prac_friend","","生人"
"","","","","","html-keyboard-response","401","1256902","0.0-16.1-0.1-1.30","null","<span style='color:GreenYellow; font-size: 70px;'>正确! </span>","null","","","","","","","","","","","","","","","","","","","","","","","feedback_test",""
"","","","","","psychophysics","402","1259276","0.0-16.1-0.1-0.31","1368","","d","","","","","","","","","","","","","key","d","16.661894366197604","619.356858401975","344.19467078901425","d","true","img/H_28.png","生人","prac_friend","","朋友"
"","","","","","html-keyboard-response","403","1259587","0.0-16.1-0.1-1.31","null","<span style='color:GreenYellow; font-size: 70px;'>正确! </span>","null","","","","","","","","","","","","","","","","","","","","","","","feedback_test",""
"","","","","","psychophysics","404","1261710","0.0-16.1-0.1-0.32","1119","","j","","","","","","","","","","","","","key","j","16.66298425196868","619.356858401975","344.19467078901425","j","true","img/S_28.png","自我","prac_friend","","自我"
