"success","timeout","failed_images","failed_audio","failed_video","trial_type","trial_index","time_elapsed","internal_node_id","rt","stimulus","response","value","item_width_mm","item_height_mm","item_width_px","px2mm","view_dist_mm","item_width_deg","px2deg","scale_factor","win_width_deg","win_height_deg","view_history","response_type","key_press","avg_frame_time","center_x","center_y","correct_response","correct","Image","text","condition","screen_id","label"
"true","false","[]","[]","[]","preload","0","2334","0.0-0.0","","","","","","","","","","","","","","","","","","","","","","","","","","",""
"","","","","","html-keyboard-response","1","19096","0.0-1.0","16758","
     <p>您好，欢迎参加本次实验。</p>
     <p>为充分保障您的权利，请确保您已经知晓并同意《参与实验同意书》以及《数据公开知情同意书》。</p>
     <p>如果您未见过上述内容，请咨询实验员。</p>
     <p>如果您选择继续实验，则表示您已经清楚两份知情同意书的内容并同意。</p>
     <p> <div style = ""color: green""><按任意键至下页></div> </p>
     ","audiovolumeup","","","","","","","","","","","","","","","","","","","","","","","",""
"","","","","","html-keyboard-response","2","50066","0.0-2.0","30970","
     <p>本实验首先需要您填写一些基本个人信息。</p>
     <p> <div style = ""color: green""><按任意键至下页></div></p>
     ","arrowdown","","","","","","","","","","","","","","","","","","","","","","","",""
"","","","","","call-function","3","50068","0.0-3.0-0.0","","","","","","","","","","","","","","","","","","","","","","","","","","",""
"","","","","","survey-html-form","4","56296","0.0-3.0-1.0","6224","","{""Q0"":""67""}","","","","","","","","","","","","","","","","","","","","","","","",""
"","","","","","html-button-response","5","57567","0.0-3.0-2.0","1267","<p style = 'color : white'>您的性别</p>","1","","","","","","","","","","","","","","","","","","","","","","","",""
"","","","","","survey-html-form","6","62895","0.0-3.0-3.0","5326","","{""Q0"":""2002""}","","","","","","","","","","","","","","","","","","","","","","","",""
"","","","","","survey-html-form","7","66263","0.0-3.0-4.0","3365","","{""Q0"":""5""}","","","","","","","","","","","","","","","","","","","","","","","",""
"","","","","","virtual-chinrest","8","207456","0.0-4.0","141191","","","","85.6","53.98","523.367599371735","6.119584690570547","467.25","10.467351987434698","50","0.7337099210210267","29.64","14.92","","","","","","","","","","","","",""
"true","","","","","fullscreen","9","210891","0.0-5.0","","","","","","","","","","","","","","","","","","","","","","","","","","",""
"","","","","","instructions","10","296439","0.0-6.0","85546","","","","","","","","","","","","","","[{""page_index"":0,""viewing_time"":9268},{""page_index"":1,""viewing_time"":6606},{""page_index"":2,""viewing_time"":54784},{""page_index"":3,""viewing_time"":10305},{""page_index"":4,""viewing_time"":4583}]","","","","","","","","","","","",""
"","","","","","instructions","11","347751","0.0-7.0","51311","","","","","","","","","","","","","","[{""page_index"":0,""viewing_time"":51311}]","","","","","","","","","","","",""
"","","","","","psychophysics","12","356598","0.0-8.0-0.0-0.0","7835","","d","","","","","","","","","","","","","key","d","16.684799621928093","768","428","d","true","img/S_28.png","自我","freeprac_self","",""
"","","","","","html-keyboard-response","13","356911","0.0-8.0-0.0-1.0","null","<span style='color:GreenYellow; font-size: 70px;'>正确! </span>","null","","","","","","","","","","","","","","","","","","","","","","","feedback_test",""
"","","","","","psychophysics","14","369809","0.0-8.0-0.0-0.1","11886","","f","","","","","","","","","","","","","key","f","16.685090673575072","768","428","f","true","img/S_28.png","生人","freeprac_self","",""
"","","","","","html-keyboard-response","15","370111","0.0-8.0-0.0-1.1","null","<span style='color:GreenYellow; font-size: 70px;'>正确! </span>","null","","","","","","","","","","","","","","","","","","","","","","","feedback_test",""
"","","","","","psychophysics","16","378749","0.0-8.0-0.0-0.2","7624","","k","","","","","","","","","","","","","key","k","16.684405038759675","768","428","k","true","img/C_28.png","朋友","freeprac_self","",""
"","","","","","html-keyboard-response","17","379061","0.0-8.0-0.0-1.2","null","<span style='color:GreenYellow; font-size: 70px;'>正确! </span>","null","","","","","","","","","","","","","","","","","","","","","","","feedback_test",""
"","","","","","psychophysics","18","384586","0.0-8.0-0.0-0.3","4523","","d","","","","","","","","","","","","","key","d","16.685596969696892","768","428","d","true","img/H_28.png","生人","freeprac_self","",""
"","","","","","html-keyboard-response","19","384890","0.0-8.0-0.0-1.3","null","<span style='color:GreenYellow; font-size: 70px;'>正确! </span>","null","","","","","","","","","","","","","","","","","","","","","","","feedback_test",""
"","","","","","psychophysics","20","387680","0.0-8.0-0.0-0.4","1787","","j","","","","","","","","","","","","","key","j","16.685259036144735","768","428","j","true","img/C_28.png","自我","freeprac_self","",""
"","","","","","html-keyboard-response","21","387992","0.0-8.0-0.0-1.4","null","<span style='color:GreenYellow; font-size: 70px;'>正确! </span>","null","","","","","","","","","","","","","","","","","","","","","","","feedback_test",""
"","","","","","psychophysics","22","393812","0.0-8.0-0.0-0.5","4818","","d","","","","","","","","","","","","","key","d","16.685902017291156","768","428","d","true","img/S_28.png","朋友","freeprac_self","",""
"","","","","","html-keyboard-response","23","394118","0.0-8.0-0.0-1.5","null","<span style='color:GreenYellow; font-size: 70px;'>正确! </span>","null","","","","","","","","","","","","","","","","","","","","","","","feedback_test",""
"","","","","","psychophysics","24","396366","0.0-8.0-0.0-0.6","1244","","j","","","","","","","","","","","","","key","j","16.684195488721528","768","428","j","true","img/C_28.png","自我","freeprac_self","",""
"","","","","","html-keyboard-response","25","396680","0.0-8.0-0.0-1.6","null","<span style='color:GreenYellow; font-size: 70px;'>正确! </span>","null","","","","","","","","","","","","","","","","","","","","","","","feedback_test",""
"","","","","","psychophysics","26","399265","0.0-8.0-0.0-0.7","1577","","k","","","","","","","","","","","","","key","k","16.683961038961144","768","428","d","false","img/H_28.png","自我","freeprac_self","",""
"","","","","","html-keyboard-response","27","399575","0.0-8.0-0.0-1.7","null","<span style='color:red; font-size: 70px;'>错误! </span>","null","","","","","","","","","","","","","","","","","","","","","","","feedback_test",""
"","","","","","psychophysics","28","406622","0.0-8.0-0.0-0.8","6046","","f","","","","","","","","","","","","","key","f","16.68483372921616","768","428","f","true","img/H_28.png","朋友","freeprac_self","",""
"","","","","","html-keyboard-response","29","406939","0.0-8.0-0.0-1.8","null","<span style='color:GreenYellow; font-size: 70px;'>正确! </span>","null","","","","","","","","","","","","","","","","","","","","","","","feedback_test",""
"","","","","","psychophysics","30","410076","0.0-8.0-0.0-0.9","2128","","f","","","","","","","","","","","","","key","f","16.685973262032096","768","428","f","true","img/H_28.png","朋友","freeprac_self","",""
"","","","","","html-keyboard-response","31","410384","0.0-8.0-0.0-1.9","null","<span style='color:GreenYellow; font-size: 70px;'>正确! </span>","null","","","","","","","","","","","","","","","","","","","","","","","feedback_test",""
"","","","","","psychophysics","32","414029","0.0-8.0-0.0-0.10","2643","","d","","","","","","","","","","","","","key","d","16.684884792626974","768","428","f","false","img/S_28.png","生人","freeprac_self","",""
"","","","","","html-keyboard-response","33","414344","0.0-8.0-0.0-1.10","null","<span style='color:red; font-size: 70px;'>错误! </span>","null","","","","","","","","","","","","","","","","","","","","","","","feedback_test",""
"","","","","","psychophysics","34","418328","0.0-8.0-0.0-0.11","2971","","d","","","","","","","","","","","","","key","d","16.685046218487507","768","428","k","false","img/C_28.png","生人","freeprac_self","",""
"","","","","","html-keyboard-response","35","418644","0.0-8.0-0.0-1.11","null","<span style='color:red; font-size: 70px;'>错误! </span>","null","","","","","","","","","","","","","","","","","","","","","","","feedback_test",""
"","","","","","html-keyboard-response","36","450010","0.0-9.0","31362","[""<style>.context{color:white; font-size: 35px; line-height:40px}</style>              <div><p class='context'>您正确回答了75% 的试次。</p><p class='context'>您的平均反应时为5321毫秒。</p><p class='context'>恭喜您完成这一阶段的练习。按任意键进入<span style='color: yellow;'>重点关注图形为“朋友”</span>的练习。</p></div><p class='footer' style='font-size:35px; line-height:30px;'>任务要求：\n              <p class='footer' style='font-size:35px; line-height:35px;'>对于与“朋友”对应的图形：如果 匹配 ，请按 <span style=\""color: lightgreen;\"">j键</span></p><p class='footer' style='font-size:35px'>如果 不匹配 ，请按<span style=\""color: lightgreen;\"">k键</p></span>\n              <p class='footer' style='font-size:35px; line-height:35px;'>对于非“朋友”对应的图形：如果 匹配 ，请按 <span style=\""color: lightgreen;\"">f键</span></p><p class='footer' style='font-size:35px'>如果 不匹配 ，请按<span style=\""color: lightgreen;\"">d键</p></span>\n              <p class='footer' style='font-size:22px; line-height:25px;'>请在实验过程中将您的<span style=\""color: lightgreen;\"">食指和中指</span>放在电脑键盘的相应键位上进行按键。</p></span>""]"," ","","","","","","","","","","","","","","","","","","","","","","","",""
"","","","","","psychophysics","37","462374","0.0-10.0-0.0-0.0","11347","","f","","","","","","","","","","","","","key","f","16.684608930987793","768","428","d","false","img/S_28.png","自我","freeprac_friend","",""
"","","","","","html-keyboard-response","38","462689","0.0-10.0-0.0-1.0","null","<span style='color:red; font-size: 70px;'>错误! </span>","null","","","","","","","","","","","","","","","","","","","","","","","feedback_test",""
"","","","","","psychophysics","39","464887","0.0-10.0-0.0-0.1","1194","","f","","","","","","","","","","","","","key","f","16.6860152671757","768","428","f","true","img/S_28.png","生人","freeprac_friend","",""
"","","","","","html-keyboard-response","40","465202","0.0-10.0-0.0-1.1","null","<span style='color:GreenYellow; font-size: 70px;'>正确! </span>","null","","","","","","","","","","","","","","","","","","","","","","","feedback_test",""
"","","","","","psychophysics","41","471159","0.0-10.0-0.0-0.2","4946","","d","","","","","","","","","","","","","key","d","16.685592696629204","768","428","d","true","img/C_28.png","生人","freeprac_friend","",""
"","","","","","html-keyboard-response","42","471463","0.0-10.0-0.0-1.2","null","<span style='color:GreenYellow; font-size: 70px;'>正确! </span>","null","","","","","","","","","","","","","","","","","","","","","","","feedback_test",""
"","","","","","psychophysics","43","473930","0.0-10.0-0.0-0.3","1463","","j","","","","","","","","","","","","","key","j","16.686054421768944","768","428","j","true","img/H_28.png","朋友","freeprac_friend","",""
"","","","","","html-keyboard-response","44","474234","0.0-10.0-0.0-1.3","null","<span style='color:GreenYellow; font-size: 70px;'>正确! </span>","null","","","","","","","","","","","","","","","","","","","","","","","feedback_test",""
"","","","","","psychophysics","45","476827","0.0-10.0-0.0-0.4","1587","","k","","","","","","","","","","","","","key","k","16.68548387096774","768","428","k","true","img/H_28.png","自我","freeprac_friend","",""
"","","","","","html-keyboard-response","46","477141","0.0-10.0-0.0-1.4","null","<span style='color:GreenYellow; font-size: 70px;'>正确! </span>","null","","","","","","","","","","","","","","","","","","","","","","","feedback_test",""
"","","","","","psychophysics","47","480881","0.0-10.0-0.0-0.5","2737","","f","","","","","","","","","","","","","key","f","16.68456950672639","768","428","f","true","img/C_28.png","自我","freeprac_friend","",""
"","","","","","html-keyboard-response","48","481184","0.0-10.0-0.0-1.5","null","<span style='color:GreenYellow; font-size: 70px;'>正确! </span>","null","","","","","","","","","","","","","","","","","","","","","","","feedback_test",""
"","","","","","psychophysics","49","485625","0.0-10.0-0.0-0.6","3423","","k","","","","","","","","","","","","","key","k","16.685030188679228","768","428","k","true","img/H_28.png","生人","freeprac_friend","",""
"","","","","","html-keyboard-response","50","485932","0.0-10.0-0.0-1.6","null","<span style='color:GreenYellow; font-size: 70px;'>正确! </span>","null","","","","","","","","","","","","","","","","","","","","","","","feedback_test",""
"","","","","","psychophysics","51","489363","0.0-10.0-0.0-0.7","2427","","f","","","","","","","","","","","","","key","f","16.684990243902487","768","428","f","true","img/C_28.png","自我","freeprac_friend","",""
"","","","","","html-keyboard-response","52","489673","0.0-10.0-0.0-1.7","null","<span style='color:GreenYellow; font-size: 70px;'>正确! </span>","null","","","","","","","","","","","","","","","","","","","","","","","feedback_test",""
"","","","","","psychophysics","53","491801","0.0-10.0-0.0-0.8","1111","","j","","","","","","","","","","","","","key","j","16.685738095238026","768","428","j","true","img/H_28.png","朋友","freeprac_friend","",""
"","","","","","html-keyboard-response","54","492115","0.0-10.0-0.0-1.8","null","<span style='color:GreenYellow; font-size: 70px;'>正确! </span>","null","","","","","","","","","","","","","","","","","","","","","","","feedback_test",""
"","","","","","psychophysics","55","498869","0.0-10.0-0.0-0.9","5751","","d","","","","","","","","","","","","","key","d","16.684977722772203","768","428","d","true","img/S_28.png","朋友","freeprac_friend","",""
"","","","","","html-keyboard-response","56","499174","0.0-10.0-0.0-1.9","null","<span style='color:GreenYellow; font-size: 70px;'>正确! </span>","null","","","","","","","","","","","","","","","","","","","","","","","feedback_test",""
"","","","","","psychophysics","57","509485","0.0-10.0-0.0-0.10","9308","","f","","","","","","","","","","","","","key","f","16.685977309562432","768","428","f","true","img/S_28.png","生人","freeprac_friend","",""
"","","","","","html-keyboard-response","58","509792","0.0-10.0-0.0-1.10","null","<span style='color:GreenYellow; font-size: 70px;'>正确! </span>","null","","","","","","","","","","","","","","","","","","","","","","","feedback_test",""
"","","","","","psychophysics","59","517725","0.0-10.0-0.0-0.11","6930","","d","","","","","","","","","","","","","key","d","16.685092827004336","768","428","d","true","img/C_28.png","朋友","freeprac_friend","",""
"","","","","","html-keyboard-response","60","518040","0.0-10.0-0.0-1.11","null","<span style='color:GreenYellow; font-size: 70px;'>正确! </span>","null","","","","","","","","","","","","","","","","","","","","","","","feedback_test",""
"","","","","","html-keyboard-response","61","523283","0.0-11.0","5241","[""<style>.context{color:white; font-size: 35px; line-height:40px}</style>                  <div><p class='context'>您正确回答了92% 的试次。</p><p class='context'>您的平均反应时为3716毫秒。</p><p class='context'>恭喜您完成这一阶段的练习。按任意键进入<span style='color: yellow;'>重点关注图形为“生人”</span>的练习。</p></div><p class='footer' style='font-size:35px; line-height:30px;'>任务要求：\n                  <p class='footer' style='font-size:35px; line-height:35px;'>对与“生人”对应的图形，如果 匹配 ，请按 <span style=\""color: lightgreen;\"">j键</span></p><p class='footer' style='font-size:35px'>如果 不匹配 ，请按<span style=\""color: lightgreen;\"">k键</p></span>\n                  <p class='footer' style='font-size:35px; line-height:35px;'>对非“生人”对应的图形，如果 匹配 ，请按 <span style=\""color: lightgreen;\"">f键</span></p><p class='footer' style='font-size:35px'>如果 不匹配 ，请按<span style=\""color: lightgreen;\"">d键</p></span>\n                  <p class='footer' style='font-size:22px; line-height:25px;'>请在实验过程中将您的<span style=\""color: lightgreen;\"">食指和中指</span>放在电脑键盘的相应键位上进行按键。</p></span>""]"," ","","","","","","","","","","","","","","","","","","","","","","","",""
"","","","","","psychophysics","62","537919","0.0-12.0-0.0-0.0","13629","","k","","","","","","","","","","","","","key","k","16.685220319634734","768","428","k","true","img/S_28.png","自我","freeprac_stranger","",""
"","","","","","html-keyboard-response","63","538230","0.0-12.0-0.0-1.0","null","<span style='color:GreenYellow; font-size: 70px;'>正确! </span>","null","","","","","","","","","","","","","","","","","","","","","","","feedback_test",""
"","","","","","psychophysics","64","542336","0.0-12.0-0.0-0.1","3102","","f","","","","","","","","","","","","","key","f","16.685273469387724","768","428","f","true","img/C_28.png","自我","freeprac_stranger","",""
"","","","","","html-keyboard-response","65","542649","0.0-12.0-0.0-1.1","null","<span style='color:GreenYellow; font-size: 70px;'>正确! </span>","null","","","","","","","","","","","","","","","","","","","","","","","feedback_test",""
"","","","","","psychophysics","66","546730","0.0-12.0-0.0-0.2","3049","","d","","","","","","","","","","","","","key","d","16.683971193415466","768","428","d","true","img/H_28.png","自我","freeprac_stranger","",""
"","","","","","html-keyboard-response","67","547037","0.0-12.0-0.0-1.2","null","<span style='color:GreenYellow; font-size: 70px;'>正确! </span>","null","","","","","","","","","","","","","","","","","","","","","","","feedback_test",""
"","","","","","psychophysics","68","549855","0.0-12.0-0.0-0.3","1817","","k","","","","","","","","","","","","","key","k","16.68394011976044","768","428","k","true","img/S_28.png","朋友","freeprac_stranger","",""
"","","","","","html-keyboard-response","69","550163","0.0-12.0-0.0-1.3","null","<span style='color:GreenYellow; font-size: 70px;'>正确! </span>","null","","","","","","","","","","","","","","","","","","","","","","","feedback_test",""
"","","","","","psychophysics","70","558561","0.0-12.0-0.0-0.4","7387","","d","","","","","","","","","","","","","key","d","16.68542031872511","768","428","d","true","img/C_28.png","朋友","freeprac_stranger","",""
"","","","","","html-keyboard-response","71","558874","0.0-12.0-0.0-1.4","null","<span style='color:GreenYellow; font-size: 70px;'>正确! </span>","null","","","","","","","","","","","","","","","","","","","","","","","feedback_test",""
"","","","","","psychophysics","72","561361","0.0-12.0-0.0-0.5","1484","","k","","","","","","","","","","","","","key","k","16.686506756756774","768","428","j","false","img/S_28.png","生人","freeprac_stranger","",""
"","","","","","html-keyboard-response","73","561675","0.0-12.0-0.0-1.5","null","<span style='color:red; font-size: 70px;'>错误! </span>","null","","","","","","","","","","","","","","","","","","","","","","","feedback_test",""
"","","","","","psychophysics","74","569748","0.0-12.0-0.0-0.6","7062","","d","","","","","","","","","","","","","key","d","16.685180124223443","768","428","f","false","img/C_28.png","自我","freeprac_stranger","",""
"","","","","","html-keyboard-response","75","570060","0.0-12.0-0.0-1.6","null","<span style='color:red; font-size: 70px;'>错误! </span>","null","","","","","","","","","","","","","","","","","","","","","","","feedback_test",""
"","","","","","psychophysics","76","584814","0.0-12.0-0.0-0.7","13753","","d","","","","","","","","","","","","","key","d","16.685067950169785","768","428","d","true","img/C_28.png","生人","freeprac_stranger","",""
"","","","","","html-keyboard-response","77","585118","0.0-12.0-0.0-1.7","null","<span style='color:GreenYellow; font-size: 70px;'>正确! </span>","null","","","","","","","","","","","","","","","","","","","","","","","feedback_test",""
"","","","","","psychophysics","78","596350","0.0-12.0-0.0-0.8","10222","","k","","","","","","","","","","","","","key","k","16.685105654761824","768","428","j","false","img/S_28.png","生人","freeprac_stranger","",""
"","","","","","html-keyboard-response","79","596653","0.0-12.0-0.0-1.8","null","<span style='color:red; font-size: 70px;'>错误! </span>","null","","","","","","","","","","","","","","","","","","","","","","","feedback_test",""
"","","","","","psychophysics","80","606640","0.0-12.0-0.0-0.9","8982","","f","","","","","","","","","","","","","key","f","16.68559531772581","768","428","f","true","img/H_28.png","朋友","freeprac_stranger","",""
"","","","","","html-keyboard-response","81","606947","0.0-12.0-0.0-1.9","null","<span style='color:GreenYellow; font-size: 70px;'>正确! </span>","null","","","","","","","","","","","","","","","","","","","","","","","feedback_test",""
"","","","","","psychophysics","82","611185","0.0-12.0-0.0-0.10","3232","","f","","","","","","","","","","","","","key","f","16.680936507936586","768","428","f","true","img/H_28.png","朋友","freeprac_stranger","",""
"","","","","","html-keyboard-response","83","611497","0.0-12.0-0.0-1.10","null","<span style='color:GreenYellow; font-size: 70px;'>正确! </span>","null","","","","","","","","","","","","","","","","","","","","","","","feedback_test",""
"","","","","","psychophysics","84","614673","0.0-12.0-0.0-0.11","2149","","d","","","","","","","","","","","","","key","d","16.68513756613715","768","428","d","true","img/H_28.png","生人","freeprac_stranger","",""
"","","","","","html-keyboard-response","85","614986","0.0-12.0-0.0-1.11","null","<span style='color:GreenYellow; font-size: 70px;'>正确! </span>","null","","","","","","","","","","","","","","","","","","","","","","","feedback_test",""
"","","","","","instructions","86","649001","0.0-13.0","34012","","","","","","","","","","","","","","[{""page_index"":0,""viewing_time"":34011}]","","","","","","","","","","","",""
"","","","","","psychophysics","87","651506","0.0-14.0-0.0-0.0","null","","null","","","","","","","","","","","","","key","null","16.685489932886142","768","428","f","false","img/S_28.png","生人","prac_self","","生人"
"","","","","","html-keyboard-response","88","651812","0.0-14.0-0.0-1.0","null","<span class='add_' style='color:yellow; font-size: 70px;'> 太慢! </span>","null","","","","","","","","","","","","","","","","","","","","","","","feedback_test",""
"","","","","","psychophysics","89","654353","0.0-14.0-0.0-0.1","null","","null","","","","","","","","","","","","","key","null","16.685311258278652","768","428","f","false","img/H_28.png","朋友","prac_self","","朋友"
"","","","","","html-keyboard-response","90","654680","0.0-14.0-0.0-1.1","null","<span class='add_' style='color:yellow; font-size: 70px;'> 太慢! </span>","null","","","","","","","","","","","","","","","","","","","","","","","feedback_test",""
"","","","","","psychophysics","91","656944","0.0-14.0-0.0-0.2","1254","","j","","","","","","","","","","","","","key","j","16.685718518518843","768","428","j","true","img/C_28.png","自我","prac_self","","自我"
"","","","","","html-keyboard-response","92","657251","0.0-14.0-0.0-1.2","null","<span style='color:GreenYellow; font-size: 70px;'>正确! </span>","null","","","","","","","","","","","","","","","","","","","","","","","feedback_test",""
"","","","","","psychophysics","93","658972","0.0-14.0-0.0-0.3","714","","j","","","","","","","","","","","","","key","j","16.687470588235037","768","428","j","true","img/C_28.png","自我","prac_self","","自我"
"","","","","","html-keyboard-response","94","659278","0.0-14.0-0.0-1.3","null","<span style='color:GreenYellow; font-size: 70px;'>正确! </span>","null","","","","","","","","","","","","","","","","","","","","","","","feedback_test",""
"","","","","","psychophysics","95","661626","0.0-14.0-0.0-0.4","1346","","f","","","","","","","","","","","","","key","f","16.687323741007617","768","428","d","false","img/S_28.png","朋友","prac_self","","生人"
"","","","","","html-keyboard-response","96","661933","0.0-14.0-0.0-1.4","null","<span style='color:red; font-size: 70px;'>错误! </span>","null","","","","","","","","","","","","","","","","","","","","","","","feedback_test",""
"","","","","","psychophysics","97","663891","0.0-14.0-0.0-0.5","941","","f","","","","","","","","","","","","","key","f","16.684551724138398","768","428","f","true","img/S_28.png","生人","prac_self","","生人"
"","","","","","html-keyboard-response","98","664195","0.0-14.0-0.0-1.5","null","<span style='color:GreenYellow; font-size: 70px;'>正确! </span>","null","","","","","","","","","","","","","","","","","","","","","","","feedback_test",""
"","","","","","psychophysics","99","666490","0.0-14.0-0.0-0.6","1290","","d","","","","","","","","","","","","","key","d","16.684613138686245","768","428","k","false","img/C_28.png","朋友","prac_self","","自我"
"","","","","","html-keyboard-response","100","666790","0.0-14.0-0.0-1.6","null","<span style='color:red; font-size: 70px;'>错误! </span>","null","","","","","","","","","","","","","","","","","","","","","","","feedback_test",""
"","","","","","psychophysics","101","668919","0.0-14.0-0.0-0.7","1124","","f","","","","","","","","","","","","","key","f","16.686412698412795","768","428","d","false","img/S_28.png","自我","prac_self","","生人"
"","","","","","html-keyboard-response","102","669234","0.0-14.0-0.0-1.7","null","<span style='color:red; font-size: 70px;'>错误! </span>","null","","","","","","","","","","","","","","","","","","","","","","","feedback_test",""
"","","","","","psychophysics","103","671740","0.0-14.0-0.0-0.8","null","","null","","","","","","","","","","","","","key","null","16.675391891891785","768","428","d","false","img/H_28.png","自我","prac_self","","朋友"
"","","","","","html-keyboard-response","104","672042","0.0-14.0-0.0-1.8","null","<span class='add_' style='color:yellow; font-size: 70px;'> 太慢! </span>","null","","","","","","","","","","","","","","","","","","","","","","","feedback_test",""
"","","","","","psychophysics","105","674561","0.0-14.0-0.0-0.9","null","","null","","","","","","","","","","","","","key","null","16.68593333333265","768","428","d","false","img/H_28.png","生人","prac_self","","朋友"
"","","","","","html-keyboard-response","106","674899","0.0-14.0-0.0-1.9","null","<span class='add_' style='color:yellow; font-size: 70px;'> 太慢! </span>","null","","","","","","","","","","","","","","","","","","","","","","","feedback_test",""
"","","","","","psychophysics","107","677192","0.0-14.0-0.0-0.10","1281","","k","","","","","","","","","","","","","key","k","16.68466176470632","768","428","k","true","img/C_28.png","生人","prac_self","","自我"
"","","","","","html-keyboard-response","108","677505","0.0-14.0-0.0-1.10","null","<span style='color:GreenYellow; font-size: 70px;'>正确! </span>","null","","","","","","","","","","","","","","","","","","","","","","","feedback_test",""
"","","","","","psychophysics","109","679906","0.0-14.0-0.0-0.11","1392","","f","","","","","","","","","","","","","key","f","16.68452447552439","768","428","f","true","img/H_28.png","朋友","prac_self","","朋友"
"","","","","","html-keyboard-response","110","680222","0.0-14.0-0.0-1.11","null","<span style='color:GreenYellow; font-size: 70px;'>正确! </span>","null","","","","","","","","","","","","","","","","","","","","","","","feedback_test",""
"","","","","","psychophysics","111","682599","0.0-14.0-0.0-0.12","1365","","f","","","","","","","","","","","","","key","f","16.685397163121003","768","428","f","true","img/S_28.png","生人","prac_self","","生人"
"","","","","","html-keyboard-response","112","682912","0.0-14.0-0.0-1.12","null","<span style='color:GreenYellow; font-size: 70px;'>正确! </span>","null","","","","","","","","","","","","","","","","","","","","","","","feedback_test",""
"","","","","","psychophysics","113","684924","0.0-14.0-0.0-0.13","1005","","j","","","","","","","","","","","","","key","j","16.68830000000016","768","428","j","true","img/C_28.png","自我","prac_self","","自我"
"","","","","","html-keyboard-response","114","685239","0.0-14.0-0.0-1.13","null","<span style='color:GreenYellow; font-size: 70px;'>正确! </span>","null","","","","","","","","","","","","","","","","","","","","","","","feedback_test",""
"","","","","","psychophysics","115","687238","0.0-14.0-0.0-0.14","998","","j","","","","","","","","","","","","","key","j","16.688254237288444","768","428","j","true","img/C_28.png","自我","prac_self","","自我"
"","","","","","html-keyboard-response","116","687543","0.0-14.0-0.0-1.14","null","<span style='color:GreenYellow; font-size: 70px;'>正确! </span>","null","","","","","","","","","","","","","","","","","","","","","","","feedback_test",""
"","","","","","psychophysics","117","689413","0.0-14.0-0.0-0.15","838","","k","","","","","","","","","","","","","key","k","16.686513513514377","768","428","d","false","img/S_28.png","自我","prac_self","","生人"
"","","","","","html-keyboard-response","118","689719","0.0-14.0-0.0-1.15","null","<span style='color:red; font-size: 70px;'>错误! </span>","null","","","","","","","","","","","","","","","","","","","","","","","feedback_test",""
"","","","","","psychophysics","119","692222","0.0-14.0-0.0-0.16","null","","null","","","","","","","","","","","","","key","null","16.686342281879288","768","428","d","false","img/H_28.png","自我","prac_self","","朋友"
"","","","","","html-keyboard-response","120","692533","0.0-14.0-0.0-1.16","null","<span class='add_' style='color:yellow; font-size: 70px;'> 太慢! </span>","null","","","","","","","","","","","","","","","","","","","","","","","feedback_test",""
"","","","","","psychophysics","121","694801","0.0-14.0-0.0-0.17","1265","","d","","","","","","","","","","","","","key","d","16.684748148148085","768","428","d","true","img/H_28.png","生人","prac_self","","朋友"
"","","","","","html-keyboard-response","122","695107","0.0-14.0-0.0-1.17","null","<span style='color:GreenYellow; font-size: 70px;'>正确! </span>","null","","","","","","","","","","","","","","","","","","","","","","","feedback_test",""
"","","","","","psychophysics","123","697619","0.0-14.0-0.0-0.18","null","","null","","","","","","","","","","","","","key","null","16.686671140939684","768","428","d","false","img/S_28.png","朋友","prac_self","","生人"
"","","","","","html-keyboard-response","124","697935","0.0-14.0-0.0-1.18","null","<span class='add_' style='color:yellow; font-size: 70px;'> 太慢! </span>","null","","","","","","","","","","","","","","","","","","","","","","","feedback_test",""
"","","","","","psychophysics","125","699931","0.0-14.0-0.0-0.19","993","","f","","","","","","","","","","","","","key","f","16.685330508474134","768","428","f","true","img/H_28.png","朋友","prac_self","","朋友"
"","","","","","html-keyboard-response","126","700234","0.0-14.0-0.0-1.19","null","<span style='color:GreenYellow; font-size: 70px;'>正确! </span>","null","","","","","","","","","","","","","","","","","","","","","","","feedback_test",""
"","","","","","psychophysics","127","702228","0.0-14.0-0.0-0.20","992","","d","","","","","","","","","","","","","key","d","16.686722689075395","768","428","f","false","img/S_28.png","生人","prac_self","","生人"
"","","","","","html-keyboard-response","128","702538","0.0-14.0-0.0-1.20","null","<span style='color:red; font-size: 70px;'>错误! </span>","null","","","","","","","","","","","","","","","","","","","","","","","feedback_test",""
"","","","","","psychophysics","129","704853","0.0-14.0-0.0-0.21","1312","","d","","","","","","","","","","","","","key","d","16.682963503649574","768","428","k","false","img/C_28.png","生人","prac_self","","自我"
"","","","","","html-keyboard-response","130","705168","0.0-14.0-0.0-1.21","null","<span style='color:red; font-size: 70px;'>错误! </span>","null","","","","","","","","","","","","","","","","","","","","","","","feedback_test",""
"","","","","","psychophysics","131","707679","0.0-14.0-0.0-0.22","null","","null","","","","","","","","","","","","","key","null","16.685315436241375","768","428","f","false","img/H_28.png","朋友","prac_self","","朋友"
"","","","","","html-keyboard-response","132","707992","0.0-14.0-0.0-1.22","null","<span class='add_' style='color:yellow; font-size: 70px;'> 太慢! </span>","null","","","","","","","","","","","","","","","","","","","","","","","feedback_test",""
"","","","","","psychophysics","133","709906","0.0-14.0-0.0-0.23","908","","j","","","","","","","","","","","","","key","j","16.686140350876947","768","428","k","false","img/C_28.png","朋友","prac_self","","自我"
"","","","","","html-keyboard-response","134","710236","0.0-14.0-0.0-1.23","null","<span style='color:red; font-size: 70px;'>错误! </span>","null","","","","","","","","","","","","","","","","","","","","","","","feedback_test",""
"","","","","","html-keyboard-response","135","718329","0.0-14.0-1.0-0.0","8091","<style>.context{color:white; font-size: 35px; line-height:40px}</style>                              <div><p class='context'>您正确回答了42% 的试次。</p><p class='context'>您的平均反应时为1121毫秒。</p>"," ","","","","","","","","","","","","","","","","","","","","","","","",""
"","","","","","instructions","136","771199","0.0-14.0-1.0-1.0","52867","","","","","","","","","","","","","","[{""page_index"":0,""viewing_time"":3930},{""page_index"":1,""viewing_time"":46376},{""page_index"":2,""viewing_time"":2560}]","","","","","","","","","","","",""
"","","","","","psychophysics","137","773718","0.0-14.1-0.1-0.24","null","","null","","","","","","","","","","","","","key","null","16.68411409396025","768","428","k","false","img/C_28.png","朋友","prac_self","","自我"
"","","","","","html-keyboard-response","138","774045","0.0-14.1-0.1-1.24","null","<span class='add_' style='color:yellow; font-size: 70px;'> 太慢! </span>","null","","","","","","","","","","","","","","","","","","","","","","","feedback_test",""
"","","","","","psychophysics","139","776516","0.0-14.1-0.1-0.25","1444","","f","","","","","","","","","","","","","key","f","16.686156462585764","768","428","d","false","img/S_28.png","自我","prac_self","","生人"
"","","","","","html-keyboard-response","140","776830","0.0-14.1-0.1-1.25","null","<span style='color:red; font-size: 70px;'>错误! </span>","null","","","","","","","","","","","","","","","","","","","","","","","feedback_test",""
"","","","","","psychophysics","141","779275","0.0-14.1-0.1-0.26","1435","","d","","","","","","","","","","","","","key","d","16.685986206896505","768","428","k","false","img/C_28.png","生人","prac_self","","自我"
"","","","","","html-keyboard-response","142","779590","0.0-14.1-0.1-1.26","null","<span style='color:red; font-size: 70px;'>错误! </span>","null","","","","","","","","","","","","","","","","","","","","","","","feedback_test",""
"","","","","","psychophysics","143","781813","0.0-14.1-0.1-0.27","1221","","f","","","","","","","","","","","","","key","f","16.685469696969392","768","428","f","true","img/H_28.png","朋友","prac_self","","朋友"
"","","","","","html-keyboard-response","144","782123","0.0-14.1-0.1-1.27","null","<span style='color:GreenYellow; font-size: 70px;'>正确! </span>","null","","","","","","","","","","","","","","","","","","","","","","","feedback_test",""
"","","","","","psychophysics","145","783894","0.0-14.1-0.1-0.28","764","","j","","","","","","","","","","","","","key","j","16.687380952381396","768","428","j","true","img/C_28.png","自我","prac_self","","自我"
"","","","","","html-keyboard-response","146","784199","0.0-14.1-0.1-1.28","null","<span style='color:GreenYellow; font-size: 70px;'>正确! </span>","null","","","","","","","","","","","","","","","","","","","","","","","feedback_test",""
"","","","","","psychophysics","147","786701","0.0-14.1-0.1-0.29","null","","null","","","","","","","","","","","","","key","null","16.68523648648595","768","428","f","false","img/S_28.png","生人","prac_self","","生人"
"","","","","","html-keyboard-response","148","787042","0.0-14.1-0.1-1.29","null","<span class='add_' style='color:yellow; font-size: 70px;'> 太慢! </span>","null","","","","","","","","","","","","","","","","","","","","","","","feedback_test",""
"","","","","","psychophysics","149","789216","0.0-14.1-0.1-0.30","1164","","f","","","","","","","","","","","","","key","f","16.686279069767657","768","428","f","true","img/H_28.png","朋友","prac_self","","朋友"
"","","","","","html-keyboard-response","150","789526","0.0-14.1-0.1-1.30","null","<span style='color:GreenYellow; font-size: 70px;'>正确! </span>","null","","","","","","","","","","","","","","","","","","","","","","","feedback_test",""
"","","","","","psychophysics","151","792035","0.0-14.1-0.1-0.31","null","","null","","","","","","","","","","","","","key","null","16.686684563758334","768","428","d","false","img/H_28.png","自我","prac_self","","朋友"
"","","","","","html-keyboard-response","152","792348","0.0-14.1-0.1-1.31","null","<span class='add_' style='color:yellow; font-size: 70px;'> 太慢! </span>","null","","","","","","","","","","","","","","","","","","","","","","","feedback_test",""
"","","","","","psychophysics","153","794481","0.0-14.1-0.1-0.32","1122","","f","","","","","","","","","","","","","key","f","16.686149606299697","768","428","d","false","img/H_28.png","生人","prac_self","","朋友"
"","","","","","html-keyboard-response","154","794791","0.0-14.1-0.1-1.32","null","<span style='color:red; font-size: 70px;'>错误! </span>","null","","","","","","","","","","","","","","","","","","","","","","","feedback_test",""
"","","","","","psychophysics","155","796504","0.0-14.1-0.1-0.33","710","","j","","","","","","","","","","","","","key","j","16.686435643565094","768","428","j","true","img/C_28.png","自我","prac_self","","自我"
"","","","","","html-keyboard-response","156","796818","0.0-14.1-0.1-1.33","null","<span style='color:GreenYellow; font-size: 70px;'>正确! </span>","null","","","","","","","","","","","","","","","","","","","","","","","feedback_test",""
"","","","","","psychophysics","157","798978","0.0-14.1-0.1-0.34","1149","","d","","","","","","","","","","","","","key","d","16.685632812500444","768","428","d","true","img/S_28.png","朋友","prac_self","","生人"
"","","","","","html-keyboard-response","158","799280","0.0-14.1-0.1-1.34","null","<span style='color:GreenYellow; font-size: 70px;'>正确! </span>","null","","","","","","","","","","","","","","","","","","","","","","","feedback_test",""
"","","","","","psychophysics","159","801377","0.0-14.1-0.1-0.35","1079","","d","","","","","","","","","","","","","key","d","16.682991935483802","768","428","f","false","img/S_28.png","生人","prac_self","","生人"
"","","","","","html-keyboard-response","160","801694","0.0-14.1-0.1-1.35","null","<span style='color:red; font-size: 70px;'>错误! </span>","null","","","","","","","","","","","","","","","","","","","","","","","feedback_test",""
"","","","","","psychophysics","161","804117","0.0-14.1-0.1-0.36","1416","","k","","","","","","","","","","","","","key","k","16.687576388888473","768","428","d","false","img/H_28.png","自我","prac_self","","朋友"
"","","","","","html-keyboard-response","162","804419","0.0-14.1-0.1-1.36","null","<span style='color:red; font-size: 70px;'>错误! </span>","null","","","","","","","","","","","","","","","","","","","","","","","feedback_test",""
"","","","","","psychophysics","163","806130","0.0-14.1-0.1-0.37","710","","j","","","","","","","","","","","","","key","j","16.686237623761777","768","428","j","true","img/C_28.png","自我","prac_self","","自我"
"","","","","","html-keyboard-response","164","806450","0.0-14.1-0.1-1.37","null","<span style='color:GreenYellow; font-size: 70px;'>正确! </span>","null","","","","","","","","","","","","","","","","","","","","","","","feedback_test",""
"","","","","","psychophysics","165","808595","0.0-14.1-0.1-0.38","1130","","f","","","","","","","","","","","","","key","f","16.68555468750037","768","428","f","true","img/S_28.png","生人","prac_self","","生人"
"","","","","","html-keyboard-response","166","808899","0.0-14.1-0.1-1.38","null","<span style='color:GreenYellow; font-size: 70px;'>正确! </span>","null","","","","","","","","","","","","","","","","","","","","","","","feedback_test",""
"","","","","","psychophysics","167","811410","0.0-14.1-0.1-0.39","null","","null","","","","","","","","","","","","","key","null","16.685697986577143","768","428","d","false","img/S_28.png","自我","prac_self","","生人"
"","","","","","html-keyboard-response","168","811713","0.0-14.1-0.1-1.39","null","<span class='add_' style='color:yellow; font-size: 70px;'> 太慢! </span>","null","","","","","","","","","","","","","","","","","","","","","","","feedback_test",""
"","","","","","psychophysics","169","814243","0.0-14.1-0.1-0.40","null","","null","","","","","","","","","","","","","key","null","16.68587333333368","768","428","k","false","img/C_28.png","朋友","prac_self","","自我"
"","","","","","html-keyboard-response","170","814556","0.0-14.1-0.1-1.40","null","<span class='add_' style='color:yellow; font-size: 70px;'> 太慢! </span>","null","","","","","","","","","","","","","","","","","","","","","","","feedback_test",""
"","","","","","psychophysics","171","817067","0.0-14.1-0.1-0.41","null","","null","","","","","","","","","","","","","key","null","16.684573333333248","768","428","k","false","img/C_28.png","生人","prac_self","","自我"
"","","","","","html-keyboard-response","172","817383","0.0-14.1-0.1-1.41","null","<span class='add_' style='color:yellow; font-size: 70px;'> 太慢! </span>","null","","","","","","","","","","","","","","","","","","","","","","","feedback_test",""
"","","","","","psychophysics","173","819910","0.0-14.1-0.1-0.42","null","","null","","","","","","","","","","","","","key","null","16.685493333333483","768","428","f","false","img/H_28.png","朋友","prac_self","","朋友"
"","","","","","html-keyboard-response","174","820255","0.0-14.1-0.1-1.42","null","<span class='add_' style='color:yellow; font-size: 70px;'> 太慢! </span>","null","","","","","","","","","","","","","","","","","","","","","","","feedback_test",""
"","","","","","psychophysics","175","822265","0.0-14.1-0.1-0.43","995","","f","","","","","","","","","","","","","key","f","16.684672268906787","768","428","d","false","img/H_28.png","生人","prac_self","","朋友"
"","","","","","html-keyboard-response","176","822568","0.0-14.1-0.1-1.43","null","<span style='color:red; font-size: 70px;'>错误! </span>","null","","","","","","","","","","","","","","","","","","","","","","","feedback_test",""
"","","","","","psychophysics","177","824998","0.0-14.1-0.1-0.44","1423","","f","","","","","","","","","","","","","key","f","16.686489655173","768","428","d","false","img/S_28.png","朋友","prac_self","","生人"
"","","","","","html-keyboard-response","178","825311","0.0-14.1-0.1-1.44","null","<span style='color:red; font-size: 70px;'>错误! </span>","null","","","","","","","","","","","","","","","","","","","","","","","feedback_test",""
"","","","","","psychophysics","179","827830","0.0-14.1-0.1-0.45","null","","null","","","","","","","","","","","","","key","null","16.683746666666895","768","428","f","false","img/H_28.png","朋友","prac_self","","朋友"
"","","","","","html-keyboard-response","180","828160","0.0-14.1-0.1-1.45","null","<span class='add_' style='color:yellow; font-size: 70px;'> 太慢! </span>","null","","","","","","","","","","","","","","","","","","","","","","","feedback_test",""
"","","","","","psychophysics","181","829918","0.0-14.1-0.1-0.46","737","","j","","","","","","","","","","","","","key","j","16.68581730769186","768","428","j","true","img/C_28.png","自我","prac_self","","自我"
"","","","","","html-keyboard-response","182","830222","0.0-14.1-0.1-1.46","null","<span style='color:GreenYellow; font-size: 70px;'>正确! </span>","null","","","","","","","","","","","","","","","","","","","","","","","feedback_test",""
"","","","","","psychophysics","183","832368","0.0-14.1-0.1-0.47","1135","","d","","","","","","","","","","","","","key","d","16.68689763779554","768","428","f","false","img/S_28.png","生人","prac_self","","生人"
"","","","","","html-keyboard-response","184","832674","0.0-14.1-0.1-1.47","null","<span style='color:red; font-size: 70px;'>错误! </span>","null","","","","","","","","","","","","","","","","","","","","","","","feedback_test",""
"","","","","","html-keyboard-response","185","836431","0.0-14.1-1.1-0.1","3754","<style>.context{color:white; font-size: 35px; line-height:40px}</style>                              <div><p class='context'>您正确回答了33% 的试次。</p><p class='context'>您的平均反应时为948毫秒。</p>"," ","","","","","","","","","","","","","","","","","","","","","","","",""
"","","","","","instructions","186","898968","0.0-14.1-1.1-1.1","62532","","","","","","","","","","","","","","[{""page_index"":0,""viewing_time"":3509},{""page_index"":1,""viewing_time"":50495},{""page_index"":2,""viewing_time"":8528}]","","","","","","","","","","","",""
"","","","","","psychophysics","187","901006","0.0-14.2-0.2-0.48","1032","","f","","","","","","","","","","","","","key","f","16.6860083333333","768","428","f","true","img/H_28.png","朋友","prac_self","","朋友"
"","","","","","html-keyboard-response","188","901314","0.0-14.2-0.2-1.48","null","<span style='color:GreenYellow; font-size: 70px;'>正确! </span>","null","","","","","","","","","","","","","","","","","","","","","","","feedback_test",""
"","","","","","psychophysics","189","903256","0.0-14.2-0.2-0.49","927","","d","","","","","","","","","","","","","key","d","16.68598260869596","768","428","d","true","img/H_28.png","生人","prac_self","","朋友"
"","","","","","html-keyboard-response","190","903565","0.0-14.2-0.2-1.49","null","<span style='color:GreenYellow; font-size: 70px;'>正确! </span>","null","","","","","","","","","","","","","","","","","","","","","","","feedback_test",""
"","","","","","psychophysics","191","905389","0.0-14.2-0.2-0.50","810","","f","","","","","","","","","","","","","key","f","16.688018518518355","768","428","f","true","img/H_28.png","朋友","prac_self","","朋友"
"","","","","","html-keyboard-response","192","905701","0.0-14.2-0.2-1.50","null","<span style='color:GreenYellow; font-size: 70px;'>正确! </span>","null","","","","","","","","","","","","","","","","","","","","","","","feedback_test",""
"","","","","","psychophysics","193","907283","0.0-14.2-0.2-0.51","581","","j","","","","","","","","","","","","","key","j","16.68662365591429","768","428","j","true","img/C_28.png","自我","prac_self","","自我"
"","","","","","html-keyboard-response","194","907587","0.0-14.2-0.2-1.51","null","<span style='color:GreenYellow; font-size: 70px;'>正确! </span>","null","","","","","","","","","","","","","","","","","","","","","","","feedback_test",""
"","","","","","psychophysics","195","909194","0.0-14.2-0.2-0.52","591","","k","","","","","","","","","","","","","key","k","16.68659999999953","768","428","k","true","img/C_28.png","生人","prac_self","","自我"
"","","","","","html-keyboard-response","196","909507","0.0-14.2-0.2-1.52","null","<span style='color:GreenYellow; font-size: 70px;'>正确! </span>","null","","","","","","","","","","","","","","","","","","","","","","","feedback_test",""
"","","","","","psychophysics","197","911296","0.0-14.2-0.2-0.53","776","","f","","","","","","","","","","","","","key","f","16.686132075471523","768","428","d","false","img/H_28.png","自我","prac_self","","朋友"
"","","","","","html-keyboard-response","198","911601","0.0-14.2-0.2-1.53","null","<span style='color:red; font-size: 70px;'>错误! </span>","null","","","","","","","","","","","","","","","","","","","","","","","feedback_test",""
"","","","","","psychophysics","199","913836","0.0-14.2-0.2-0.54","1230","","f","","","","","","","","","","","","","key","f","16.685451127819828","768","428","f","true","img/S_28.png","生人","prac_self","","生人"
"","","","","","html-keyboard-response","200","914151","0.0-14.2-0.2-1.54","null","<span style='color:GreenYellow; font-size: 70px;'>正确! </span>","null","","","","","","","","","","","","","","","","","","","","","","","feedback_test",""
"","","","","","psychophysics","201","916229","0.0-14.2-0.2-0.55","1070","","f","","","","","","","","","","","","","key","f","16.68398387096691","768","428","f","true","img/S_28.png","生人","prac_self","","生人"
"","","","","","html-keyboard-response","202","916535","0.0-14.2-0.2-1.55","null","<span style='color:GreenYellow; font-size: 70px;'>正确! </span>","null","","","","","","","","","","","","","","","","","","","","","","","feedback_test",""
"","","","","","psychophysics","203","919046","0.0-14.2-0.2-0.56","null","","null","","","","","","","","","","","","","key","null","16.685255033557066","768","428","d","false","img/S_28.png","自我","prac_self","","生人"
"","","","","","html-keyboard-response","204","919361","0.0-14.2-0.2-1.56","null","<span class='add_' style='color:yellow; font-size: 70px;'> 太慢! </span>","null","","","","","","","","","","","","","","","","","","","","","","","feedback_test",""
"","","","","","psychophysics","205","921027","0.0-14.2-0.2-0.57","664","","j","","","","","","","","","","","","","key","j","16.676959183674107","768","428","j","true","img/C_28.png","自我","prac_self","","自我"
"","","","","","html-keyboard-response","206","921328","0.0-14.2-0.2-1.57","null","<span style='color:GreenYellow; font-size: 70px;'>正确! </span>","null","","","","","","","","","","","","","","","","","","","","","","","feedback_test",""
"","","","","","psychophysics","207","923870","0.0-14.2-0.2-0.58","null","","null","","","","","","","","","","","","","key","null","16.687473684210808","768","428","k","false","img/C_28.png","朋友","prac_self","","自我"
"","","","","","html-keyboard-response","208","924199","0.0-14.2-0.2-1.58","null","<span class='add_' style='color:yellow; font-size: 70px;'> 太慢! </span>","null","","","","","","","","","","","","","","","","","","","","","","","feedback_test",""
"","","","","","psychophysics","209","926419","0.0-14.2-0.2-0.59","1205","","d","","","","","","","","","","","","","key","d","16.685916666666426","768","428","d","true","img/S_28.png","朋友","prac_self","","生人"
"","","","","","html-keyboard-response","210","926736","0.0-14.2-0.2-1.59","null","<span style='color:GreenYellow; font-size: 70px;'>正确! </span>","null","","","","","","","","","","","","","","","","","","","","","","","feedback_test",""
"","","","","","psychophysics","211","928789","0.0-14.2-0.2-0.60","1049","","f","","","","","","","","","","","","","key","f","16.67922314049576","768","428","f","true","img/S_28.png","生人","prac_self","","生人"
"","","","","","html-keyboard-response","212","929105","0.0-14.2-0.2-1.60","null","<span style='color:GreenYellow; font-size: 70px;'>正确! </span>","null","","","","","","","","","","","","","","","","","","","","","","","feedback_test",""
"","","","","","psychophysics","213","931348","0.0-14.2-0.2-0.61","1242","","d","","","","","","","","","","","","","key","d","16.680142857143096","768","428","d","true","img/S_28.png","朋友","prac_self","","生人"
"","","","","","html-keyboard-response","214","931665","0.0-14.2-0.2-1.61","null","<span style='color:GreenYellow; font-size: 70px;'>正确! </span>","null","","","","","","","","","","","","","","","","","","","","","","","feedback_test",""
"","","","","","psychophysics","215","933267","0.0-14.2-0.2-0.62","598","","j","","","","","","","","","","","","","key","j","16.68474736842082","768","428","j","true","img/C_28.png","自我","prac_self","","自我"
"","","","","","html-keyboard-response","216","933570","0.0-14.2-0.2-1.62","null","<span style='color:GreenYellow; font-size: 70px;'>正确! </span>","null","","","","","","","","","","","","","","","","","","","","","","","feedback_test",""
"","","","","","psychophysics","217","935761","0.0-14.2-0.2-0.63","1181","","f","","","","","","","","","","","","","key","f","16.68573076923091","768","428","f","true","img/H_28.png","朋友","prac_self","","朋友"
"","","","","","html-keyboard-response","218","936066","0.0-14.2-0.2-1.63","null","<span style='color:GreenYellow; font-size: 70px;'>正确! </span>","null","","","","","","","","","","","","","","","","","","","","","","","feedback_test",""
"","","","","","psychophysics","219","938579","0.0-14.2-0.2-0.64","1480","","k","","","","","","","","","","","","","key","k","16.684154362416194","768","428","k","true","img/C_28.png","生人","prac_self","","自我"
"","","","","","html-keyboard-response","220","938894","0.0-14.2-0.2-1.64","null","<span style='color:GreenYellow; font-size: 70px;'>正确! </span>","null","","","","","","","","","","","","","","","","","","","","","","","feedback_test",""
"","","","","","psychophysics","221","940913","0.0-14.2-0.2-0.65","1011","","f","","","","","","","","","","","","","key","f","16.687741666666504","768","428","f","true","img/S_28.png","生人","prac_self","","生人"
"","","","","","html-keyboard-response","222","941227","0.0-14.2-0.2-1.65","null","<span style='color:GreenYellow; font-size: 70px;'>正确! </span>","null","","","","","","","","","","","","","","","","","","","","","","","feedback_test",""
"","","","","","psychophysics","223","942898","0.0-14.2-0.2-0.66","660","","j","","","","","","","","","","","","","key","j","16.686909090908657","768","428","j","true","img/C_28.png","自我","prac_self","","自我"
"","","","","","html-keyboard-response","224","943212","0.0-14.2-0.2-1.66","null","<span style='color:GreenYellow; font-size: 70px;'>正确! </span>","null","","","","","","","","","","","","","","","","","","","","","","","feedback_test",""
"","","","","","psychophysics","225","945251","0.0-14.2-0.2-0.67","1010","","f","","","","","","","","","","","","","key","f","16.686429752066754","768","428","d","false","img/H_28.png","生人","prac_self","","朋友"
"","","","","","html-keyboard-response","226","945560","0.0-14.2-0.2-1.67","null","<span style='color:red; font-size: 70px;'>错误! </span>","null","","","","","","","","","","","","","","","","","","","","","","","feedback_test",""
"","","","","","psychophysics","227","947625","0.0-14.2-0.2-0.68","1064","","k","","","","","","","","","","","","","key","k","16.684286885245964","768","428","d","false","img/H_28.png","自我","prac_self","","朋友"
"","","","","","html-keyboard-response","228","947931","0.0-14.2-0.2-1.68","null","<span style='color:red; font-size: 70px;'>错误! </span>","null","","","","","","","","","","","","","","","","","","","","","","","feedback_test",""
"","","","","","psychophysics","229","950255","0.0-14.2-0.2-0.69","1314","","d","","","","","","","","","","","","","key","d","16.68552898550727","768","428","d","true","img/S_28.png","自我","prac_self","","生人"
"","","","","","html-keyboard-response","230","950563","0.0-14.2-0.2-1.69","null","<span style='color:GreenYellow; font-size: 70px;'>正确! </span>","null","","","","","","","","","","","","","","","","","","","","","","","feedback_test",""
"","","","","","psychophysics","231","952504","0.0-14.2-0.2-0.70","937","","k","","","","","","","","","","","","","key","k","16.685295652173988","768","428","k","true","img/C_28.png","朋友","prac_self","","自我"
"","","","","","html-keyboard-response","232","952808","0.0-14.2-0.2-1.70","null","<span style='color:GreenYellow; font-size: 70px;'>正确! </span>","null","","","","","","","","","","","","","","","","","","","","","","","feedback_test",""
"","","","","","psychophysics","233","954991","0.0-14.2-0.2-0.71","1173","","f","","","","","","","","","","","","","key","f","16.68327692307693","768","428","f","true","img/H_28.png","朋友","prac_self","","朋友"
"","","","","","html-keyboard-response","234","955312","0.0-14.2-0.2-1.71","null","<span style='color:GreenYellow; font-size: 70px;'>正确! </span>","null","","","","","","","","","","","","","","","","","","","","","","","feedback_test",""
"","","","","","html-keyboard-response","235","973406","0.0-15.0","18090","[""<style>.context{color:white; font-size: 35px; line-height:40px}</style>              <div><p class='context'>您正确回答了79% 的试次。</p><p class='context'>您的平均反应时为987毫秒。</p><p class='context'>恭喜您完成这一阶段的练习。按任意键进入<span style='color: yellow;'>重点关注图形为“朋友”</span>的练习。</p></div><p class='footer' style='font-size:35px; line-height:30px;'>任务要求：\n              <p class='footer' style='font-size:35px; line-height:35px;'>对于与“朋友”对应的图形：如果 匹配 ，请按 <span style=\""color: lightgreen;\"">j键</span></p><p class='footer' style='font-size:35px'>如果 不匹配 ，请按<span style=\""color: lightgreen;\"">k键</p></span>\n              <p class='footer' style='font-size:35px; line-height:35px;'>对于非“朋友”对应的图形：如果 匹配 ，请按 <span style=\""color: lightgreen;\"">f键</span></p><p class='footer' style='font-size:35px'>如果 不匹配 ，请按<span style=\""color: lightgreen;\"">d键</p></span>\n              <p class='footer' style='font-size:22px; line-height:25px;'>请在实验过程中将您的<span style=\""color: lightgreen;\"">食指和中指</span>放在电脑键盘的相应键位上进行按键。</p></span>""]"," ","","","","","","","","","","","","","","","","","","","","","","","",""
"","","","","","psychophysics","236","975419","0.0-16.0-0.0-0.0","1001","","f","","","","","","","","","","","","","key","f","16.68487394957983","768","428","d","false","img/C_28.png","朋友","prac_friend","","自我"
"","","","","","html-keyboard-response","237","975723","0.0-16.0-0.0-1.0","null","<span style='color:red; font-size: 70px;'>错误! </span>","null","","","","","","","","","","","","","","","","","","","","","","","feedback_test",""
"","","","","","psychophysics","238","978008","0.0-16.0-0.0-0.1","1282","","d","","","","","","","","","","","","","key","d","16.68623703703698","768","428","f","false","img/C_28.png","自我","prac_friend","","自我"
"","","","","","html-keyboard-response","239","978314","0.0-16.0-0.0-1.1","null","<span style='color:red; font-size: 70px;'>错误! </span>","null","","","","","","","","","","","","","","","","","","","","","","","feedback_test",""
"","","","","","psychophysics","240","980687","0.0-16.0-0.0-0.2","1357","","k","","","","","","","","","","","","","key","k","16.68386524822728","768","428","d","false","img/S_28.png","自我","prac_friend","","生人"
"","","","","","html-keyboard-response","241","980993","0.0-16.0-0.0-1.2","null","<span style='color:red; font-size: 70px;'>错误! </span>","null","","","","","","","","","","","","","","","","","","","","","","","feedback_test",""
"","","","","","psychophysics","242","982913","0.0-16.0-0.0-0.3","914","","j","","","","","","","","","","","","","key","j","16.68471052631605","768","428","j","true","img/H_28.png","朋友","prac_friend","","朋友"
"","","","","","html-keyboard-response","243","983223","0.0-16.0-0.0-1.3","null","<span style='color:GreenYellow; font-size: 70px;'>正确! </span>","null","","","","","","","","","","","","","","","","","","","","","","","feedback_test",""
"","","","","","psychophysics","244","984981","0.0-16.0-0.0-0.4","745","","f","","","","","","","","","","","","","key","f","16.68472115384625","768","428","f","true","img/C_28.png","自我","prac_friend","","自我"
"","","","","","html-keyboard-response","245","985287","0.0-16.0-0.0-1.4","null","<span style='color:GreenYellow; font-size: 70px;'>正确! </span>","null","","","","","","","","","","","","","","","","","","","","","","","feedback_test",""
"","","","","","psychophysics","246","987050","0.0-16.0-0.0-0.5","761","","k","","","","","","","","","","","","","key","k","16.685009615383862","768","428","k","true","img/H_28.png","生人","prac_friend","","朋友"
"","","","","","html-keyboard-response","247","987353","0.0-16.0-0.0-1.5","null","<span style='color:GreenYellow; font-size: 70px;'>正确! </span>","null","","","","","","","","","","","","","","","","","","","","","","","feedback_test",""
"","","","","","psychophysics","248","989209","0.0-16.0-0.0-0.6","841","","d","","","","","","","","","","","","","key","d","16.688090909090402","768","428","d","true","img/C_28.png","生人","prac_friend","","自我"
"","","","","","html-keyboard-response","249","989512","0.0-16.0-0.0-1.6","null","<span style='color:GreenYellow; font-size: 70px;'>正确! </span>","null","","","","","","","","","","","","","","","","","","","","","","","feedback_test",""
"","","","","","psychophysics","250","992024","0.0-16.0-0.0-0.7","null","","null","","","","","","","","","","","","","key","null","16.683959731543062","768","428","k","false","img/H_28.png","自我","prac_friend","","朋友"
"","","","","","html-keyboard-response","251","992325","0.0-16.0-0.0-1.7","null","<span class='add_' style='color:yellow; font-size: 70px;'> 太慢! </span>","null","","","","","","","","","","","","","","","","","","","","","","","feedback_test",""
"","","","","","psychophysics","252","994114","0.0-16.0-0.0-0.8","784","","j","","","","","","","","","","","","","key","j","16.683292452830223","768","428","j","true","img/H_28.png","朋友","prac_friend","","朋友"
"","","","","","html-keyboard-response","253","994419","0.0-16.0-0.0-1.8","null","<span style='color:GreenYellow; font-size: 70px;'>正确! </span>","null","","","","","","","","","","","","","","","","","","","","","","","feedback_test",""
"","","","","","psychophysics","254","996316","0.0-16.0-0.0-0.9","895","","f","","","","","","","","","","","","","key","f","16.68565486725605","768","428","f","true","img/S_28.png","生人","prac_friend","","生人"
"","","","","","html-keyboard-response","255","996625","0.0-16.0-0.0-1.9","null","<span style='color:GreenYellow; font-size: 70px;'>正确! </span>","null","","","","","","","","","","","","","","","","","","","","","","","feedback_test",""
"","","","","","psychophysics","256","998376","0.0-16.0-0.0-0.10","742","","f","","","","","","","","","","","","","key","f","16.68770192307644","768","428","f","true","img/S_28.png","生人","prac_friend","","生人"
"","","","","","html-keyboard-response","257","998688","0.0-16.0-0.0-1.10","null","<span style='color:GreenYellow; font-size: 70px;'>正确! </span>","null","","","","","","","","","","","","","","","","","","","","","","","feedback_test",""
"","","","","","psychophysics","258","1000434","0.0-16.0-0.0-0.11","733","","d","","","","","","","","","","","","","key","d","16.685067961164254","768","428","d","true","img/S_28.png","朋友","prac_friend","","生人"
"","","","","","html-keyboard-response","259","1000745","0.0-16.0-0.0-1.11","null","<span style='color:GreenYellow; font-size: 70px;'>正确! </span>","null","","","","","","","","","","","","","","","","","","","","","","","feedback_test",""
"","","","","","psychophysics","260","1002785","0.0-16.0-0.0-0.12","1030","","j","","","","","","","","","","","","","key","j","16.687528925619766","768","428","j","true","img/H_28.png","朋友","prac_friend","","朋友"
"","","","","","html-keyboard-response","261","1003092","0.0-16.0-0.0-1.12","null","<span style='color:GreenYellow; font-size: 70px;'>正确! </span>","null","","","","","","","","","","","","","","","","","","","","","","","feedback_test",""
"","","","","","psychophysics","262","1004883","0.0-16.0-0.0-0.13","781","","d","","","","","","","","","","","","","key","d","16.68772641509521","768","428","f","false","img/S_28.png","生人","prac_friend","","生人"
"","","","","","html-keyboard-response","263","1005198","0.0-16.0-0.0-1.13","null","<span style='color:red; font-size: 70px;'>错误! </span>","null","","","","","","","","","","","","","","","","","","","","","","","feedback_test",""
"","","","","","psychophysics","264","1007497","0.0-16.0-0.0-0.14","1286","","d","","","","","","","","","","","","","key","d","16.685715328467786","768","428","d","true","img/S_28.png","自我","prac_friend","","生人"
"","","","","","html-keyboard-response","265","1007803","0.0-16.0-0.0-1.14","null","<span style='color:GreenYellow; font-size: 70px;'>正确! </span>","null","","","","","","","","","","","","","","","","","","","","","","","feedback_test",""
"","","","","","psychophysics","266","1010225","0.0-16.0-0.0-0.15","1413","","k","","","","","","","","","","","","","key","k","16.686124999999365","768","428","d","false","img/S_28.png","朋友","prac_friend","","生人"
"","","","","","html-keyboard-response","267","1010528","0.0-16.0-0.0-1.15","null","<span style='color:red; font-size: 70px;'>错误! </span>","null","","","","","","","","","","","","","","","","","","","","","","","feedback_test",""
"","","","","","psychophysics","268","1012425","0.0-16.0-0.0-0.16","891","","k","","","","","","","","","","","","","key","k","16.684566371681672","768","428","k","true","img/H_28.png","自我","prac_friend","","朋友"
"","","","","","html-keyboard-response","269","1012725","0.0-16.0-0.0-1.16","null","<span style='color:GreenYellow; font-size: 70px;'>正确! </span>","null","","","","","","","","","","","","","","","","","","","","","","","feedback_test",""
"","","","","","psychophysics","270","1014815","0.0-16.0-0.0-0.17","1083","","f","","","","","","","","","","","","","key","f","16.67788709677388","768","428","d","false","img/C_28.png","朋友","prac_friend","","自我"
"","","","","","html-keyboard-response","271","1015128","0.0-16.0-0.0-1.17","null","<span style='color:red; font-size: 70px;'>错误! </span>","null","","","","","","","","","","","","","","","","","","","","","","","feedback_test",""
"","","","","","psychophysics","272","1017320","0.0-16.0-0.0-0.18","1183","","f","","","","","","","","","","","","","key","f","16.688061538461344","768","428","f","true","img/S_28.png","生人","prac_friend","","生人"
"","","","","","html-keyboard-response","273","1017654","0.0-16.0-0.0-1.18","null","<span style='color:GreenYellow; font-size: 70px;'>正确! </span>","null","","","","","","","","","","","","","","","","","","","","","","","feedback_test",""
"","","","","","psychophysics","274","1019597","0.0-16.0-0.0-0.19","929","","f","","","","","","","","","","","","","key","f","16.687026086955775","768","428","f","true","img/C_28.png","自我","prac_friend","","自我"
"","","","","","html-keyboard-response","275","1019903","0.0-16.0-0.0-1.19","null","<span style='color:GreenYellow; font-size: 70px;'>正确! </span>","null","","","","","","","","","","","","","","","","","","","","","","","feedback_test",""
"","","","","","psychophysics","276","1022411","0.0-16.0-0.0-0.20","null","","null","","","","","","","","","","","","","key","null","16.68661073825538","768","428","k","false","img/H_28.png","生人","prac_friend","","朋友"
"","","","","","html-keyboard-response","277","1022713","0.0-16.0-0.0-1.20","null","<span class='add_' style='color:yellow; font-size: 70px;'> 太慢! </span>","null","","","","","","","","","","","","","","","","","","","","","","","feedback_test",""
"","","","","","psychophysics","278","1024591","0.0-16.0-0.0-0.21","869","","j","","","","","","","","","","","","","key","j","16.684126126126863","768","428","j","true","img/H_28.png","朋友","prac_friend","","朋友"
"","","","","","html-keyboard-response","279","1024903","0.0-16.0-0.0-1.21","null","<span style='color:GreenYellow; font-size: 70px;'>正确! </span>","null","","","","","","","","","","","","","","","","","","","","","","","feedback_test",""
"","","","","","psychophysics","280","1027085","0.0-16.0-0.0-0.22","1179","","d","","","","","","","","","","","","","key","d","16.684453846152444","768","428","d","true","img/C_28.png","生人","prac_friend","","自我"
"","","","","","html-keyboard-response","281","1027388","0.0-16.0-0.0-1.22","null","<span style='color:GreenYellow; font-size: 70px;'>正确! </span>","null","","","","","","","","","","","","","","","","","","","","","","","feedback_test",""
"","","","","","psychophysics","282","1029225","0.0-16.0-0.0-0.23","833","","d","","","","","","","","","","","","","key","d","16.686779816515333","768","428","f","false","img/C_28.png","自我","prac_friend","","自我"
"","","","","","html-keyboard-response","283","1029531","0.0-16.0-0.0-1.23","null","<span style='color:red; font-size: 70px;'>错误! </span>","null","","","","","","","","","","","","","","","","","","","","","","","feedback_test",""
"","","","","","html-keyboard-response","284","1031648","0.0-16.0-1.0-0.0","2114","<style>.context{color:white; font-size: 35px; line-height:40px}</style>                              <div><p class='context'>您正确回答了63% 的试次。</p><p class='context'>您的平均反应时为919毫秒。</p>"," ","","","","","","","","","","","","","","","","","","","","","","","",""
"","","","","","instructions","285","1066184","0.0-16.0-1.0-1.0","34531","","","","","","","","","","","","","","[{""page_index"":0,""viewing_time"":5860},{""page_index"":1,""viewing_time"":24222},{""page_index"":2,""viewing_time"":4448}]","","","","","","","","","","","",""
"","","","","","psychophysics","286","1067856","0.0-16.1-0.1-0.24","667","","k","","","","","","","","","","","","","key","k","16.689909090908866","768","428","k","true","img/H_28.png","自我","prac_friend","","朋友"
"","","","","","html-keyboard-response","287","1068167","0.0-16.1-0.1-1.24","null","<span style='color:GreenYellow; font-size: 70px;'>正确! </span>","null","","","","","","","","","","","","","","","","","","","","","","","feedback_test",""
"","","","","","psychophysics","288","1070144","0.0-16.1-0.1-0.25","966","","d","","","","","","","","","","","","","key","d","16.68529914530058","768","428","d","true","img/C_28.png","生人","prac_friend","","自我"
"","","","","","html-keyboard-response","289","1070456","0.0-16.1-0.1-1.25","null","<span style='color:GreenYellow; font-size: 70px;'>正确! </span>","null","","","","","","","","","","","","","","","","","","","","","","","feedback_test",""
"","","","","","psychophysics","290","1072304","0.0-16.1-0.1-0.26","840","","d","","","","","","","","","","","","","key","d","16.68583636363672","768","428","d","true","img/S_28.png","自我","prac_friend","","生人"
"","","","","","html-keyboard-response","291","1072607","0.0-16.1-0.1-1.26","null","<span style='color:GreenYellow; font-size: 70px;'>正确! </span>","null","","","","","","","","","","","","","","","","","","","","","","","feedback_test",""
"","","","","","psychophysics","292","1074619","0.0-16.1-0.1-0.27","1003","","d","","","","","","","","","","","","","key","d","16.686000000000544","768","428","f","false","img/S_28.png","生人","prac_friend","","生人"
"","","","","","html-keyboard-response","293","1074932","0.0-16.1-0.1-1.27","null","<span style='color:red; font-size: 70px;'>错误! </span>","null","","","","","","","","","","","","","","","","","","","","","","","feedback_test",""
"","","","","","psychophysics","294","1076799","0.0-16.1-0.1-0.28","862","","j","","","","","","","","","","","","","key","j","16.67163063063043","768","428","j","true","img/H_28.png","朋友","prac_friend","","朋友"
"","","","","","html-keyboard-response","295","1077107","0.0-16.1-0.1-1.28","null","<span style='color:GreenYellow; font-size: 70px;'>正确! </span>","null","","","","","","","","","","","","","","","","","","","","","","","feedback_test",""
"","","","","","psychophysics","296","1079209","0.0-16.1-0.1-0.29","1087","","d","","","","","","","","","","","","","key","d","16.685543999999762","768","428","f","false","img/S_28.png","生人","prac_friend","","生人"
"","","","","","html-keyboard-response","297","1079518","0.0-16.1-0.1-1.29","null","<span style='color:red; font-size: 70px;'>错误! </span>","null","","","","","","","","","","","","","","","","","","","","","","","feedback_test",""
"","","","","","psychophysics","298","1081617","0.0-16.1-0.1-0.30","1097","","j","","","","","","","","","","","","","key","j","16.68572800000012","768","428","j","true","img/H_28.png","朋友","prac_friend","","朋友"
"","","","","","html-keyboard-response","299","1081923","0.0-16.1-0.1-1.30","null","<span style='color:GreenYellow; font-size: 70px;'>正确! </span>","null","","","","","","","","","","","","","","","","","","","","","","","feedback_test",""
"","","","","","psychophysics","300","1084199","0.0-16.1-0.1-0.31","1273","","f","","","","","","","","","","","","","key","f","16.686507352941106","768","428","f","true","img/C_28.png","自我","prac_friend","","自我"
"","","","","","html-keyboard-response","301","1084503","0.0-16.1-0.1-1.31","null","<span style='color:GreenYellow; font-size: 70px;'>正确! </span>","null","","","","","","","","","","","","","","","","","","","","","","","feedback_test",""
"","","","","","psychophysics","302","1086839","0.0-16.1-0.1-0.32","1326","","f","","","","","","","","","","","","","key","f","16.686115107914475","768","428","k","false","img/H_28.png","生人","prac_friend","","朋友"
"","","","","","html-keyboard-response","303","1087141","0.0-16.1-0.1-1.32","null","<span style='color:red; font-size: 70px;'>错误! </span>","null","","","","","","","","","","","","","","","","","","","","","","","feedback_test",""
"","","","","","psychophysics","304","1089670","0.0-16.1-0.1-0.33","null","","null","","","","","","","","","","","","","key","null","16.687132450331013","768","428","d","false","img/S_28.png","朋友","prac_friend","","生人"
"","","","","","html-keyboard-response","305","1090016","0.0-16.1-0.1-1.33","null","<span class='add_' style='color:yellow; font-size: 70px;'> 太慢! </span>","null","","","","","","","","","","","","","","","","","","","","","","","feedback_test",""
"","","","","","psychophysics","306","1092251","0.0-16.1-0.1-0.34","1230","","d","","","","","","","","","","","","","key","d","16.683628787877474","768","428","d","true","img/C_28.png","朋友","prac_friend","","自我"
"","","","","","html-keyboard-response","307","1092555","0.0-16.1-0.1-1.34","null","<span style='color:GreenYellow; font-size: 70px;'>正确! </span>","null","","","","","","","","","","","","","","","","","","","","","","","feedback_test",""
"","","","","","psychophysics","308","1094446","0.0-16.1-0.1-0.35","886","","d","","","","","","","","","","","","","key","d","16.68099107142812","768","428","f","false","img/C_28.png","自我","prac_friend","","自我"
"","","","","","html-keyboard-response","309","1094759","0.0-16.1-0.1-1.35","null","<span style='color:red; font-size: 70px;'>错误! </span>","null","","","","","","","","","","","","","","","","","","","","","","","feedback_test",""
"","","","","","psychophysics","310","1096389","0.0-16.1-0.1-0.36","620","","f","","","","","","","","","","","","","key","f","16.685020833331993","768","428","f","true","img/C_28.png","自我","prac_friend","","自我"
"","","","","","html-keyboard-response","311","1096699","0.0-16.1-0.1-1.36","null","<span style='color:GreenYellow; font-size: 70px;'>正确! </span>","null","","","","","","","","","","","","","","","","","","","","","","","feedback_test",""
"","","","","","psychophysics","312","1098703","0.0-16.1-0.1-0.37","993","","d","","","","","","","","","","","","","key","d","16.68583193277361","768","428","k","false","img/H_28.png","自我","prac_friend","","朋友"
"","","","","","html-keyboard-response","313","1099011","0.0-16.1-0.1-1.37","null","<span style='color:red; font-size: 70px;'>错误! </span>","null","","","","","","","","","","","","","","","","","","","","","","","feedback_test",""
"","","","","","psychophysics","314","1101039","0.0-16.1-0.1-0.38","1026","","f","","","","","","","","","","","","","key","f","16.685616666666466","768","428","f","true","img/C_28.png","自我","prac_friend","","自我"
"","","","","","html-keyboard-response","315","1101349","0.0-16.1-0.1-1.38","null","<span style='color:GreenYellow; font-size: 70px;'>正确! </span>","null","","","","","","","","","","","","","","","","","","","","","","","feedback_test",""
"","","","","","psychophysics","316","1103853","0.0-16.1-0.1-0.39","1503","","d","","","","","","","","","","","","","key","d","16.68283221476411","768","428","d","true","img/S_28.png","自我","prac_friend","","生人"
"","","","","","html-keyboard-response","317","1104158","0.0-16.1-0.1-1.39","null","<span class='add_' style='color:yellow; font-size: 70px;'> 太慢! </span>","null","","","","","","","","","","","","","","","","","","","","","","","feedback_test",""
"","","","","","psychophysics","318","1105742","0.0-16.1-0.1-0.40","580","","j","","","","","","","","","","","","","key","j","16.685893617023","768","428","j","true","img/H_28.png","朋友","prac_friend","","朋友"
"","","","","","html-keyboard-response","319","1106056","0.0-16.1-0.1-1.40","null","<span style='color:GreenYellow; font-size: 70px;'>正确! </span>","null","","","","","","","","","","","","","","","","","","","","","","","feedback_test",""
"","","","","","psychophysics","320","1108100","0.0-16.1-0.1-0.41","1041","","f","","","","","","","","","","","","","key","f","16.686644628099437","768","428","f","true","img/S_28.png","生人","prac_friend","","生人"
"","","","","","html-keyboard-response","321","1108403","0.0-16.1-0.1-1.41","null","<span style='color:GreenYellow; font-size: 70px;'>正确! </span>","null","","","","","","","","","","","","","","","","","","","","","","","feedback_test",""
"","","","","","psychophysics","322","1110031","0.0-16.1-0.1-0.42","611","","j","","","","","","","","","","","","","key","j","16.69064583333481","768","428","j","true","img/H_28.png","朋友","prac_friend","","朋友"
"","","","","","html-keyboard-response","323","1110348","0.0-16.1-0.1-1.42","null","<span style='color:GreenYellow; font-size: 70px;'>正确! </span>","null","","","","","","","","","","","","","","","","","","","","","","","feedback_test",""
"","","","","","psychophysics","324","1112149","0.0-16.1-0.1-0.43","790","","k","","","","","","","","","","","","","key","k","16.68624299065271","768","428","k","true","img/H_28.png","生人","prac_friend","","朋友"
"","","","","","html-keyboard-response","325","1112452","0.0-16.1-0.1-1.43","null","<span style='color:GreenYellow; font-size: 70px;'>正确! </span>","null","","","","","","","","","","","","","","","","","","","","","","","feedback_test",""
"","","","","","psychophysics","326","1114958","0.0-16.1-0.1-0.44","1496","","d","","","","","","","","","","","","","key","d","16.68651677852484","768","428","d","true","img/S_28.png","朋友","prac_friend","","生人"
"","","","","","html-keyboard-response","327","1115261","0.0-16.1-0.1-1.44","null","<span style='color:GreenYellow; font-size: 70px;'>正确! </span>","null","","","","","","","","","","","","","","","","","","","","","","","feedback_test",""
"","","","","","psychophysics","328","1117719","0.0-16.1-0.1-0.45","1454","","d","","","","","","","","","","","","","key","d","16.684828767122394","768","428","d","true","img/C_28.png","朋友","prac_friend","","自我"
"","","","","","html-keyboard-response","329","1118024","0.0-16.1-0.1-1.45","null","<span style='color:GreenYellow; font-size: 70px;'>正确! </span>","null","","","","","","","","","","","","","","","","","","","","","","","feedback_test",""
"","","","","","psychophysics","330","1120384","0.0-16.1-0.1-0.46","1349","","f","","","","","","","","","","","","","key","f","16.68649285714242","768","428","f","true","img/S_28.png","生人","prac_friend","","生人"
"","","","","","html-keyboard-response","331","1120695","0.0-16.1-0.1-1.46","null","<span style='color:GreenYellow; font-size: 70px;'>正确! </span>","null","","","","","","","","","","","","","","","","","","","","","","","feedback_test",""
"","","","","","psychophysics","332","1122590","0.0-16.1-0.1-0.47","887","","d","","","","","","","","","","","","","key","d","16.68571681415753","768","428","d","true","img/C_28.png","生人","prac_friend","","自我"
"","","","","","html-keyboard-response","333","1122895","0.0-16.1-0.1-1.47","null","<span style='color:GreenYellow; font-size: 70px;'>正确! </span>","null","","","","","","","","","","","","","","","","","","","","","","","feedback_test",""
"","","","","","html-keyboard-response","334","1134656","0.0-17.0","11757","[""<style>.context{color:white; font-size: 35px; line-height:40px}</style>                  <div><p class='context'>您正确回答了75% 的试次。</p><p class='context'>您的平均反应时为1016毫秒。</p><p class='context'>恭喜您完成这一阶段的练习。按任意键进入<span style='color: yellow;'>重点关注图形为“生人”</span>的练习。</p></div><p class='footer' style='font-size:35px; line-height:30px;'>任务要求：\n                  <p class='footer' style='font-size:35px; line-height:35px;'>对与“生人”对应的图形，如果 匹配 ，请按 <span style=\""color: lightgreen;\"">j键</span></p><p class='footer' style='font-size:35px'>如果 不匹配 ，请按<span style=\""color: lightgreen;\"">k键</p></span>\n                  <p class='footer' style='font-size:35px; line-height:35px;'>对非“生人”对应的图形，如果 匹配 ，请按 <span style=\""color: lightgreen;\"">f键</span></p><p class='footer' style='font-size:35px'>如果 不匹配 ，请按<span style=\""color: lightgreen;\"">d键</p></span>\n                  <p class='footer' style='font-size:22px; line-height:25px;'>请在实验过程中将您的<span style=\""color: lightgreen;\"">食指和中指</span>放在电脑键盘的相应键位上进行按键。</p></span>""]"," ","","","","","","","","","","","","","","","","","","","","","","","",""
"","","","","","psychophysics","335","1136761","0.0-18.0-0.0-0.0","1097","","f","","","","","","","","","","","","","key","f","16.689560000000522","768","428","f","true","img/H_28.png","朋友","prac_stranger","","朋友"
"","","","","","html-keyboard-response","336","1137065","0.0-18.0-0.0-1.0","null","<span style='color:GreenYellow; font-size: 70px;'>正确! </span>","null","","","","","","","","","","","","","","","","","","","","","","","feedback_test",""
"","","","","","psychophysics","337","1138745","0.0-18.0-0.0-0.1","673","","j","","","","","","","","","","","","","key","j","16.68868999999948","768","428","j","true","img/S_28.png","生人","prac_stranger","","生人"
"","","","","","html-keyboard-response","338","1139049","0.0-18.0-0.0-1.1","null","<span style='color:GreenYellow; font-size: 70px;'>正确! </span>","null","","","","","","","","","","","","","","","","","","","","","","","feedback_test",""
"","","","","","psychophysics","339","1140846","0.0-18.0-0.0-0.2","772","","d","","","","","","","","","","","","","key","d","16.68473831775694","768","428","d","true","img/C_28.png","生人","prac_stranger","","自我"
"","","","","","html-keyboard-response","340","1141154","0.0-18.0-0.0-1.2","null","<span style='color:GreenYellow; font-size: 70px;'>正确! </span>","null","","","","","","","","","","","","","","","","","","","","","","","feedback_test",""
"","","","","","psychophysics","341","1143087","0.0-18.0-0.0-0.3","928","","k","","","","","","","","","","","","","key","k","16.685139130436532","768","428","k","true","img/S_28.png","自我","prac_stranger","","生人"
"","","","","","html-keyboard-response","342","1143391","0.0-18.0-0.0-1.3","null","<span style='color:GreenYellow; font-size: 70px;'>正确! </span>","null","","","","","","","","","","","","","","","","","","","","","","","feedback_test",""
"","","","","","psychophysics","343","1145564","0.0-18.0-0.0-0.4","1169","","d","","","","","","","","","","","","","key","d","16.68174418604521","768","428","d","true","img/C_28.png","朋友","prac_stranger","","自我"
"","","","","","html-keyboard-response","344","1145900","0.0-18.0-0.0-1.4","null","<span style='color:GreenYellow; font-size: 70px;'>正确! </span>","null","","","","","","","","","","","","","","","","","","","","","","","feedback_test",""
"","","","","","psychophysics","345","1147666","0.0-18.0-0.0-0.5","754","","f","","","","","","","","","","","","","key","f","16.68138095238246","768","428","f","true","img/C_28.png","自我","prac_stranger","","自我"
"","","","","","html-keyboard-response","346","1147975","0.0-18.0-0.0-1.5","null","<span style='color:GreenYellow; font-size: 70px;'>正确! </span>","null","","","","","","","","","","","","","","","","","","","","","","","feedback_test",""
"","","","","","psychophysics","347","1149770","0.0-18.0-0.0-0.6","790","","j","","","","","","","","","","","","","key","j","16.68523364486042","768","428","j","true","img/S_28.png","生人","prac_stranger","","生人"
"","","","","","html-keyboard-response","348","1150079","0.0-18.0-0.0-1.6","null","<span style='color:GreenYellow; font-size: 70px;'>正确! </span>","null","","","","","","","","","","","","","","","","","","","","","","","feedback_test",""
"","","","","","psychophysics","349","1152224","0.0-18.0-0.0-0.7","1138","","d","","","","","","","","","","","","","key","d","16.68560156249987","768","428","d","true","img/H_28.png","自我","prac_stranger","","朋友"
"","","","","","html-keyboard-response","350","1152532","0.0-18.0-0.0-1.7","null","<span style='color:GreenYellow; font-size: 70px;'>正确! </span>","null","","","","","","","","","","","","","","","","","","","","","","","feedback_test",""
"","","","","","psychophysics","351","1154376","0.0-18.0-0.0-0.8","836","","f","","","","","","","","","","","","","key","f","16.687609090907923","768","428","f","true","img/C_28.png","自我","prac_stranger","","自我"
"","","","","","html-keyboard-response","352","1154681","0.0-18.0-0.0-1.8","null","<span style='color:GreenYellow; font-size: 70px;'>正确! </span>","null","","","","","","","","","","","","","","","","","","","","","","","feedback_test",""
"","","","","","psychophysics","353","1156553","0.0-18.0-0.0-0.9","862","","d","","","","","","","","","","","","","key","d","16.68594594594712","768","428","k","false","img/S_28.png","朋友","prac_stranger","","生人"
"","","","","","html-keyboard-response","354","1156863","0.0-18.0-0.0-1.9","null","<span style='color:red; font-size: 70px;'>错误! </span>","null","","","","","","","","","","","","","","","","","","","","","","","feedback_test",""
"","","","","","psychophysics","355","1158748","0.0-18.0-0.0-0.10","871","","f","","","","","","","","","","","","","key","f","16.684464285715617","768","428","f","true","img/H_28.png","朋友","prac_stranger","","朋友"
"","","","","","html-keyboard-response","356","1159054","0.0-18.0-0.0-1.10","null","<span style='color:GreenYellow; font-size: 70px;'>正确! </span>","null","","","","","","","","","","","","","","","","","","","","","","","feedback_test",""
"","","","","","psychophysics","357","1161145","0.0-18.0-0.0-0.11","1064","","j","","","","","","","","","","","","","key","j","16.68713709677292","768","428","d","false","img/H_28.png","生人","prac_stranger","","朋友"
"","","","","","html-keyboard-response","358","1161451","0.0-18.0-0.0-1.11","null","<span style='color:red; font-size: 70px;'>错误! </span>","null","","","","","","","","","","","","","","","","","","","","","","","feedback_test",""
"","","","","","psychophysics","359","1163964","0.0-18.0-0.0-0.12","null","","null","","","","","","","","","","","","","key","null","16.685382550336957","768","428","d","false","img/C_28.png","朋友","prac_stranger","","自我"
"","","","","","html-keyboard-response","360","1164276","0.0-18.0-0.0-1.12","null","<span class='add_' style='color:yellow; font-size: 70px;'> 太慢! </span>","null","","","","","","","","","","","","","","","","","","","","","","","feedback_test",""
"","","","","","psychophysics","361","1166153","0.0-18.0-0.0-0.13","876","","k","","","","","","","","","","","","","key","k","16.686785714285048","768","428","k","true","img/S_28.png","自我","prac_stranger","","生人"
"","","","","","html-keyboard-response","362","1166456","0.0-18.0-0.0-1.13","null","<span style='color:GreenYellow; font-size: 70px;'>正确! </span>","null","","","","","","","","","","","","","","","","","","","","","","","feedback_test",""
"","","","","","psychophysics","363","1168090","0.0-18.0-0.0-0.14","631","","j","","","","","","","","","","","","","key","j","16.685422680410316","768","428","j","true","img/S_28.png","生人","prac_stranger","","生人"
"","","","","","html-keyboard-response","364","1168405","0.0-18.0-0.0-1.14","null","<span style='color:GreenYellow; font-size: 70px;'>正确! </span>","null","","","","","","","","","","","","","","","","","","","","","","","feedback_test",""
"","","","","","psychophysics","365","1169993","0.0-18.0-0.0-0.15","585","","j","","","","","","","","","","","","","key","j","16.68315957446751","768","428","j","true","img/S_28.png","生人","prac_stranger","","生人"
"","","","","","html-keyboard-response","366","1170301","0.0-18.0-0.0-1.15","null","<span style='color:GreenYellow; font-size: 70px;'>正确! </span>","null","","","","","","","","","","","","","","","","","","","","","","","feedback_test",""
"","","","","","psychophysics","367","1172836","0.0-18.0-0.0-0.16","null","","null","","","","","","","","","","","","","key","null","16.68547682119194","768","428","d","false","img/H_28.png","自我","prac_stranger","","朋友"
"","","","","","html-keyboard-response","368","1173149","0.0-18.0-0.0-1.16","null","<span class='add_' style='color:yellow; font-size: 70px;'> 太慢! </span>","null","","","","","","","","","","","","","","","","","","","","","","","feedback_test",""
"","","","","","psychophysics","369","1175663","0.0-18.0-0.0-0.17","null","","null","","","","","","","","","","","","","key","null","16.686161073826366","768","428","f","false","img/H_28.png","朋友","prac_stranger","","朋友"
"","","","","","html-keyboard-response","370","1175976","0.0-18.0-0.0-1.17","null","<span class='add_' style='color:yellow; font-size: 70px;'> 太慢! </span>","null","","","","","","","","","","","","","","","","","","","","","","","feedback_test",""
"","","","","","psychophysics","371","1177885","0.0-18.0-0.0-0.18","907","","k","","","","","","","","","","","","","key","k","16.683991228070994","768","428","d","false","img/H_28.png","生人","prac_stranger","","朋友"
"","","","","","html-keyboard-response","372","1178196","0.0-18.0-0.0-1.18","null","<span style='color:red; font-size: 70px;'>错误! </span>","null","","","","","","","","","","","","","","","","","","","","","","","feedback_test",""
"","","","","","psychophysics","373","1180014","0.0-18.0-0.0-0.19","814","","k","","","","","","","","","","","","","key","k","16.67527102803698","768","428","k","true","img/S_28.png","朋友","prac_stranger","","生人"
"","","","","","html-keyboard-response","374","1180324","0.0-18.0-0.0-1.19","null","<span style='color:GreenYellow; font-size: 70px;'>正确! </span>","null","","","","","","","","","","","","","","","","","","","","","","","feedback_test",""
"","","","","","psychophysics","375","1182173","0.0-18.0-0.0-0.20","837","","d","","","","","","","","","","","","","key","d","16.68499999999873","768","428","d","true","img/C_28.png","生人","prac_stranger","","自我"
"","","","","","html-keyboard-response","376","1182479","0.0-18.0-0.0-1.20","null","<span style='color:GreenYellow; font-size: 70px;'>正确! </span>","null","","","","","","","","","","","","","","","","","","","","","","","feedback_test",""
"","","","","","psychophysics","377","1184322","0.0-18.0-0.0-0.21","840","","f","","","","","","","","","","","","","key","f","16.688825688072814","768","428","f","true","img/C_28.png","自我","prac_stranger","","自我"
"","","","","","html-keyboard-response","378","1184632","0.0-18.0-0.0-1.21","null","<span style='color:GreenYellow; font-size: 70px;'>正确! </span>","null","","","","","","","","","","","","","","","","","","","","","","","feedback_test",""
"","","","","","psychophysics","379","1187142","0.0-18.0-0.0-0.22","null","","null","","","","","","","","","","","","","key","null","16.685395973153263","768","428","f","false","img/H_28.png","朋友","prac_stranger","","朋友"
"","","","","","html-keyboard-response","380","1187447","0.0-18.0-0.0-1.22","null","<span class='add_' style='color:yellow; font-size: 70px;'> 太慢! </span>","null","","","","","","","","","","","","","","","","","","","","","","","feedback_test",""
"","","","","","psychophysics","381","1189246","0.0-18.0-0.0-0.23","795","","f","","","","","","","","","","","","","key","f","16.68671028037277","768","428","f","true","img/C_28.png","自我","prac_stranger","","自我"
"","","","","","html-keyboard-response","382","1189557","0.0-18.0-0.0-1.23","null","<span style='color:GreenYellow; font-size: 70px;'>正确! </span>","null","","","","","","","","","","","","","","","","","","","","","","","feedback_test",""
"","","","","","html-keyboard-response","383","1197192","0.0-19.0","7631","[""<style>.context{color:white; font-size: 35px; line-height:40px}</style>                                        <div><p class='context'>您正确回答了71% 的试次。</p><p class='context'>您的平均反应时为847毫秒。</p><p class='context'>恭喜您完成练习。您可以在此时休息一段时间，准备好后按任意键进入正式实验。</p><p class='footer' style='font-size: 35px; line-height:40px;'>请在进入正式实验实验之前将您的<span style='color: lightgreen;'>食指和中指</span>放在电脑键盘的相应键位上，做好按键准备。</p>""]"," ","","","","","","","","","","","","","","","","","","","","","","","",""
"","","","","","html-keyboard-response","384","1218027","0.0-20.0-2.0-0.0","20830","
                    <p>请您将食指和中指放在相应按键上，准备进入<span style='color: yellow;'>重点图形为“生人”对应图形</span>的正式匹配任务</p>
                    <p> <div style = ""color: green""><按任意键开始></div></p>
                    ","j","","","","","","","","","","","","","","","","","","","","","","","",""
"","","","","","psychophysics","385","1220059","0.0-20.0-2.0-1.0-0.0-0.0","1015","","d","","","","","","","","","","","","","key","d","16.68574166666755","768","428","d","true","img/C_28.png","朋友","stranger","","自我"
"","","","","","html-keyboard-response","386","1220371","0.0-20.0-2.0-1.0-0.0-1.0","null","<span style='color:GreenYellow; font-size: 70px;'>正确! </span>","null","","","","","","","","","","","","","","","","","","","","","","","feedback_test",""
"","","","","","psychophysics","387","1222505","0.0-20.0-2.0-1.0-0.0-0.1","1124","","k","","","","","","","","","","","","","key","k","16.686456692914707","768","428","d","false","img/C_28.png","生人","stranger","","自我"
"","","","","","html-keyboard-response","388","1222810","0.0-20.0-2.0-1.0-0.0-1.1","null","<span style='color:red; font-size: 70px;'>错误! </span>","null","","","","","","","","","","","","","","","","","","","","","","","feedback_test",""
"","","","","","psychophysics","389","1224664","0.0-20.0-2.0-1.0-0.0-0.2","831","","j","","","","","","","","","","","","","key","j","16.68587272727269","768","428","d","false","img/H_28.png","生人","stranger","","朋友"
"","","","","","html-keyboard-response","390","1224975","0.0-20.0-2.0-1.0-0.0-1.2","null","<span style='color:red; font-size: 70px;'>错误! </span>","null","","","","","","","","","","","","","","","","","","","","","","","feedback_test",""
"","","","","","psychophysics","391","1227486","0.0-20.0-2.0-1.0-0.0-0.3","null","","null","","","","","","","","","","","","","key","null","16.686302013423344","768","428","k","false","img/S_28.png","自我","stranger","","生人"
"","","","","","html-keyboard-response","392","1227804","0.0-20.0-2.0-1.0-0.0-1.3","null","<span class='add_' style='color:yellow; font-size: 70px;'> 太慢! </span>","null","","","","","","","","","","","","","","","","","","","","","","","feedback_test",""
"","","","","","psychophysics","393","1230061","0.0-20.0-2.0-1.0-0.0-0.4","1255","","k","","","","","","","","","","","","","key","k","16.684768656715264","768","428","j","false","img/S_28.png","生人","stranger","","生人"
"","","","","","html-keyboard-response","394","1230362","0.0-20.0-2.0-1.0-0.0-1.4","null","<span style='color:red; font-size: 70px;'>错误! </span>","null","","","","","","","","","","","","","","","","","","","","","","","feedback_test",""
"","","","","","psychophysics","395","1232305","0.0-20.0-2.0-1.0-0.0-0.5","931","","f","","","","","","","","","","","","","key","f","16.68365217391199","768","428","f","true","img/H_28.png","朋友","stranger","","朋友"
"","","","","","html-keyboard-response","396","1232609","0.0-20.0-2.0-1.0-0.0-1.5","null","<span style='color:GreenYellow; font-size: 70px;'>正确! </span>","null","","","","","","","","","","","","","","","","","","","","","","","feedback_test",""
"","","","","","psychophysics","397","1234440","0.0-20.0-2.0-1.0-0.0-0.6","829","","k","","","","","","","","","","","","","key","k","16.68222222222162","768","428","k","true","img/S_28.png","朋友","stranger","","生人"
"","","","","","html-keyboard-response","398","1234755","0.0-20.0-2.0-1.0-0.0-1.6","null","<span style='color:GreenYellow; font-size: 70px;'>正确! </span>","null","","","","","","","","","","","","","","","","","","","","","","","feedback_test",""
"","","","","","psychophysics","399","1236583","0.0-20.0-2.0-1.0-0.0-0.7","812","","f","","","","","","","","","","","","","key","f","16.686376146790614","768","428","f","true","img/C_28.png","自我","stranger","","自我"
"","","","","","html-keyboard-response","400","1236891","0.0-20.0-2.0-1.0-0.0-1.7","null","<span style='color:GreenYellow; font-size: 70px;'>正确! </span>","null","","","","","","","","","","","","","","","","","","","","","","","feedback_test",""
"","","","","","psychophysics","401","1238553","0.0-20.0-2.0-1.0-0.0-0.8","655","","f","","","","","","","","","","","","","key","f","16.687161616162594","768","428","f","true","img/C_28.png","自我","stranger","","自我"
"","","","","","html-keyboard-response","402","1238859","0.0-20.0-2.0-1.0-0.0-1.8","null","<span style='color:GreenYellow; font-size: 70px;'>正确! </span>","null","","","","","","","","","","","","","","","","","","","","","","","feedback_test",""
"","","","","","psychophysics","403","1241047","0.0-20.0-2.0-1.0-0.0-0.9","1180","","j","","","","","","","","","","","","","key","j","16.686130769232","768","428","f","false","img/H_28.png","朋友","stranger","","朋友"
"","","","","","html-keyboard-response","404","1241355","0.0-20.0-2.0-1.0-0.0-1.9","null","<span style='color:red; font-size: 70px;'>错误! </span>","null","","","","","","","","","","","","","","","","","","","","","","","feedback_test",""
"","","","","","psychophysics","405","1243871","0.0-20.0-2.0-1.0-0.0-0.10","null","","null","","","","","","","","","","","","","key","null","16.683651006710246","768","428","d","false","img/H_28.png","自我","stranger","","朋友"
"","","","","","html-keyboard-response","406","1244187","0.0-20.0-2.0-1.0-0.0-1.10","null","<span class='add_' style='color:yellow; font-size: 70px;'> 太慢! </span>","null","","","","","","","","","","","","","","","","","","","","","","","feedback_test",""
"","","","","","psychophysics","407","1246061","0.0-20.0-2.0-1.0-0.0-0.11","872","","j","","","","","","","","","","","","","key","j","16.68442342342255","768","428","j","true","img/S_28.png","生人","stranger","","生人"
"","","","","","html-keyboard-response","408","1246368","0.0-20.0-2.0-1.0-0.0-1.11","null","<span style='color:GreenYellow; font-size: 70px;'>正确! </span>","null","","","","","","","","","","","","","","","","","","","","","","","feedback_test",""
"","","","","","psychophysics","409","1248229","0.0-20.0-2.0-1.0-0.0-0.12","853","","k","","","","","","","","","","","","","key","k","16.685558558559162","768","428","d","false","img/H_28.png","生人","stranger","","朋友"
"","","","","","html-keyboard-response","410","1248537","0.0-20.0-2.0-1.0-0.0-1.12","null","<span style='color:red; font-size: 70px;'>错误! </span>","null","","","","","","","","","","","","","","","","","","","","","","","feedback_test",""
"","","","","","psychophysics","411","1250414","0.0-20.0-2.0-1.0-0.0-0.13","870","","k","","","","","","","","","","","","","key","k","16.686517857144022","768","428","k","true","img/S_28.png","自我","stranger","","生人"
"","","","","","html-keyboard-response","412","1250720","0.0-20.0-2.0-1.0-0.0-1.13","null","<span style='color:GreenYellow; font-size: 70px;'>正确! </span>","null","","","","","","","","","","","","","","","","","","","","","","","feedback_test",""
"","","","","","psychophysics","413","1252700","0.0-20.0-2.0-1.0-0.0-0.14","971","","f","","","","","","","","","","","","","key","f","16.685237288135657","768","428","f","true","img/H_28.png","朋友","stranger","","朋友"
"","","","","","html-keyboard-response","414","1253010","0.0-20.0-2.0-1.0-0.0-1.14","null","<span style='color:GreenYellow; font-size: 70px;'>正确! </span>","null","","","","","","","","","","","","","","","","","","","","","","","feedback_test",""
"","","","","","psychophysics","415","1254912","0.0-20.0-2.0-1.0-0.0-0.15","897","","f","","","","","","","","","","","","","key","f","16.68707964601679","768","428","f","true","img/C_28.png","自我","stranger","","自我"
"","","","","","html-keyboard-response","416","1255223","0.0-20.0-2.0-1.0-0.0-1.15","null","<span style='color:GreenYellow; font-size: 70px;'>正确! </span>","null","","","","","","","","","","","","","","","","","","","","","","","feedback_test",""
"","","","","","psychophysics","417","1257157","0.0-20.0-2.0-1.0-0.0-0.16","923","","d","","","","","","","","","","","","","key","d","16.685782608695572","768","428","d","true","img/C_28.png","生人","stranger","","自我"
"","","","","","html-keyboard-response","418","1257466","0.0-20.0-2.0-1.0-0.0-1.16","null","<span style='color:GreenYellow; font-size: 70px;'>正确! </span>","null","","","","","","","","","","","","","","","","","","","","","","","feedback_test",""
"","","","","","psychophysics","419","1259511","0.0-20.0-2.0-1.0-0.0-0.17","1041","","f","","","","","","","","","","","","","key","f","16.687614754098085","768","428","f","true","img/H_28.png","朋友","stranger","","朋友"
"","","","","","html-keyboard-response","420","1259823","0.0-20.0-2.0-1.0-0.0-1.17","null","<span style='color:GreenYellow; font-size: 70px;'>正确! </span>","null","","","","","","","","","","","","","","","","","","","","","","","feedback_test",""
"","","","","","psychophysics","421","1261559","0.0-20.0-2.0-1.0-0.0-0.18","734","","f","","","","","","","","","","","","","key","f","16.68545631067918","768","428","f","true","img/C_28.png","自我","stranger","","自我"
