"success","timeout","failed_images","failed_audio","failed_video","trial_type","trial_index","time_elapsed","internal_node_id","rt","stimulus","response","value","item_width_mm","item_height_mm","item_width_px","px2mm","view_dist_mm","item_width_deg","px2deg","scale_factor","win_width_deg","win_height_deg","view_history","response_type","key_press","avg_frame_time","center_x","center_y","correct_response","correct","Image","text","condition","screen_id","label"
"true","false","[]","[]","[]","preload","0","5","0.0-0.0","","","","","","","","","","","","","","","","","","","","","","","","","","",""
"","","","","","html-keyboard-response","1","10669","0.0-1.0","10664","
  <p>您好，欢迎参加本次实验。</p>
  <p>为充分保障您的权利，请确保您已经知晓并同意《参与实验同意书》以及《数据公开知情同意书》。</p>
  <p>如果您未见过上述内容，请咨询实验员。</p>
  <p>如果您选择继续实验，则表示您已经清楚两份知情同意书的内容并同意。</p>
  <p> <div style = ""color: green""><按任意键至下页></div> </p>
  ","enter","","","","","","","","","","","","","","","","","","","","","","","",""
"","","","","","html-keyboard-response","2","12057","0.0-2.0","1387","
  <p>本实验首先需要您填写一些基本个人信息。</p>
  <p> <div style = ""color: green""><按任意键至下页></div></p>
  ","enter","","","","","","","","","","","","","","","","","","","","","","","",""
"","","","","","call-function","3","12057","0.0-3.0-0.0","","","","","","","","","","","","","","","","","","","","","","","","","","",""
"","","","","","survey-html-form","4","20474","0.0-3.0-1.0","8409","","{""Q0"":""64""}","","","","","","","","","","","","","","","","","","","","","","","",""
"","","","","","html-button-response","5","21538","0.0-3.0-2.0","1063","<p style = 'color : white'>您的性别</p>","0","","","","","","","","","","","","","","","","","","","","","","","",""
"","","","","","survey-html-form","6","25522","0.0-3.0-3.0","3984","","{""Q0"":""2001""}","","","","","","","","","","","","","","","","","","","","","","","",""
"","","","","","survey-html-form","7","28594","0.0-3.0-4.0","3071","","{""Q0"":""5""}","","","","","","","","","","","","","","","","","","","","","","","",""
"","","","","","virtual-chinrest","8","575419","0.0-4.0","546823","","","","85.6","53.98","461.65388706824206","5.394061206797355","530.04","9.233077741364841","50","0.8231274784952218","29.64","14.92","","","","","","","","","","","","",""
"true","","","","","fullscreen","9","578914","0.0-5.0","","","","","","","","","","","","","","","","","","","","","","","","","","",""
"","","","","","instructions","10","650426","0.0-6.0","71511","","","","","","","","","","","","","","[{""page_index"":0,""viewing_time"":5615},{""page_index"":1,""viewing_time"":13847},{""page_index"":2,""viewing_time"":44080},{""page_index"":3,""viewing_time"":5513},{""page_index"":4,""viewing_time"":2456}]","","","","","","","","","","","",""
"","","","","","instructions","11","672650","0.0-7.0","22224","","","","","","","","","","","","","","[{""page_index"":0,""viewing_time"":22223}]","","","","","","","","","","","",""
"","","","","","psychophysics","12","680228","0.0-8.0-0.0-0.0","6559","","d","","","","","","","","","","","","","key","d","16.664823399558323","768","428","j","false","img/S_28.png","朋友","freeprac_self","",""
"","","","","","html-keyboard-response","13","680544","0.0-8.0-0.0-1.0","null","<span style='color:red; font-size: 70px;'>错误! </span>","null","","","","","","","","","","","","","","","","","","","","","","","feedback_test",""
"","","","","","psychophysics","14","684806","0.0-8.0-0.0-0.1","3251","","j","","","","","","","","","","","","","key","j","16.667223529411736","768","428","d","false","img/H_28.png","自我","freeprac_self","",""
"","","","","","html-keyboard-response","15","685114","0.0-8.0-0.0-1.1","null","<span style='color:red; font-size: 70px;'>错误! </span>","null","","","","","","","","","","","","","","","","","","","","","","","feedback_test",""
"","","","","","psychophysics","16","688365","0.0-8.0-0.0-0.2","2247","","k","","","","","","","","","","","","","key","k","16.668500000000066","768","428","k","true","img/S_28.png","生人","freeprac_self","",""
"","","","","","html-keyboard-response","17","688675","0.0-8.0-0.0-1.2","null","<span style='color:GreenYellow; font-size: 70px;'>正确! </span>","null","","","","","","","","","","","","","","","","","","","","","","","feedback_test",""
"","","","","","psychophysics","18","691410","0.0-8.0-0.0-0.3","1725","","j","","","","","","","","","","","","","key","j","16.66746625766884","768","428","j","true","img/C_28.png","生人","freeprac_self","",""
"","","","","","html-keyboard-response","19","691724","0.0-8.0-0.0-1.3","null","<span style='color:GreenYellow; font-size: 70px;'>正确! </span>","null","","","","","","","","","","","","","","","","","","","","","","","feedback_test",""
"","","","","","psychophysics","20","696313","0.0-8.0-0.0-0.4","3578","","j","","","","","","","","","","","","","key","j","16.666569343065746","768","428","j","true","img/S_28.png","自我","freeprac_self","",""
"","","","","","html-keyboard-response","21","696617","0.0-8.0-0.0-1.4","null","<span style='color:GreenYellow; font-size: 70px;'>正确! </span>","null","","","","","","","","","","","","","","","","","","","","","","","feedback_test",""
"","","","","","psychophysics","22","701604","0.0-8.0-0.0-0.5","3986","","k","","","","","","","","","","","","","key","k","16.66751342281877","768","428","k","true","img/S_28.png","生人","freeprac_self","",""
"","","","","","html-keyboard-response","23","701924","0.0-8.0-0.0-1.5","null","<span style='color:GreenYellow; font-size: 70px;'>正确! </span>","null","","","","","","","","","","","","","","","","","","","","","","","feedback_test",""
"","","","","","psychophysics","24","705584","0.0-8.0-0.0-0.6","2649","","j","","","","","","","","","","","","","key","j","16.667165137614326","768","428","f","false","img/H_28.png","朋友","freeprac_self","",""
"","","","","","html-keyboard-response","25","705905","0.0-8.0-0.0-1.6","null","<span style='color:red; font-size: 70px;'>错误! </span>","null","","","","","","","","","","","","","","","","","","","","","","","feedback_test",""
"","","","","","psychophysics","26","709386","0.0-8.0-0.0-0.7","2467","","k","","","","","","","","","","","","","key","k","16.666701923076918","768","428","f","false","img/H_28.png","生人","freeprac_self","",""
"","","","","","html-keyboard-response","27","709700","0.0-8.0-0.0-1.7","null","<span style='color:red; font-size: 70px;'>错误! </span>","null","","","","","","","","","","","","","","","","","","","","","","","feedback_test",""
"","","","","","psychophysics","28","712813","0.0-8.0-0.0-0.8","2111","","d","","","","","","","","","","","","","key","d","16.66659459459432","768","428","j","false","img/C_28.png","自我","freeprac_self","",""
"","","","","","html-keyboard-response","29","713124","0.0-8.0-0.0-1.8","null","<span style='color:red; font-size: 70px;'>错误! </span>","null","","","","","","","","","","","","","","","","","","","","","","","feedback_test",""
"","","","","","psychophysics","30","719849","0.0-8.0-0.0-0.9","5713","","k","","","","","","","","","","","","","key","k","16.666741293532407","768","428","k","true","img/C_28.png","朋友","freeprac_self","",""
"","","","","","html-keyboard-response","31","720155","0.0-8.0-0.0-1.9","null","<span style='color:GreenYellow; font-size: 70px;'>正确! </span>","null","","","","","","","","","","","","","","","","","","","","","","","feedback_test",""
"","","","","","psychophysics","32","722895","0.0-8.0-0.0-0.10","1726","","k","","","","","","","","","","","","","key","k","16.666926829267872","768","428","k","true","img/C_28.png","朋友","freeprac_self","",""
"","","","","","html-keyboard-response","33","723215","0.0-8.0-0.0-1.10","null","<span style='color:GreenYellow; font-size: 70px;'>正确! </span>","null","","","","","","","","","","","","","","","","","","","","","","","feedback_test",""
"","","","","","psychophysics","34","726708","0.0-8.0-0.0-0.11","2489","","d","","","","","","","","","","","","","key","d","16.6678325358854","768","428","d","true","img/H_28.png","自我","freeprac_self","",""
"","","","","","html-keyboard-response","35","727025","0.0-8.0-0.0-1.11","null","<span style='color:GreenYellow; font-size: 70px;'>正确! </span>","null","","","","","","","","","","","","","","","","","","","","","","","feedback_test",""
"","","","","","html-keyboard-response","36","769636","0.0-8.0-1.0-0.0","42610","<style>.context{color:white; font-size: 35px; line-height:40px}</style>                           <div><p class='context'>您正确回答了58% 的试次。</p><p class='context'>您的平均反应时为3066毫秒。</p>"," ","","","","","","","","","","","","","","","","","","","","","","","",""
"","","","","","instructions","37","791251","0.0-8.0-1.0-1.0","21612","","","","","","","","","","","","","","[{""page_index"":0,""viewing_time"":6580},{""page_index"":1,""viewing_time"":13648},{""page_index"":2,""viewing_time"":1384}]","","","","","","","","","","","",""
"","","","","","psychophysics","38","793877","0.0-8.1-0.1-0.12","1620","","j","","","","","","","","","","","","","key","j","16.666551282051024","768","428","f","false","img/H_28.png","生人","freeprac_self","",""
"","","","","","html-keyboard-response","39","794190","0.0-8.1-0.1-1.12","null","<span style='color:red; font-size: 70px;'>错误! </span>","null","","","","","","","","","","","","","","","","","","","","","","","feedback_test",""
"","","","","","psychophysics","40","796467","0.0-8.1-0.1-0.13","1264","","j","","","","","","","","","","","","","key","j","16.66665185185201","768","428","j","true","img/C_28.png","自我","freeprac_self","",""
"","","","","","html-keyboard-response","41","796785","0.0-8.1-0.1-1.13","null","<span style='color:GreenYellow; font-size: 70px;'>正确! </span>","null","","","","","","","","","","","","","","","","","","","","","","","feedback_test",""
"","","","","","psychophysics","42","799172","0.0-8.1-0.1-0.14","1385","","j","","","","","","","","","","","","","key","j","16.666542253520955","768","428","k","false","img/C_28.png","朋友","freeprac_self","",""
"","","","","","html-keyboard-response","43","799484","0.0-8.1-0.1-1.14","null","<span style='color:red; font-size: 70px;'>错误! </span>","null","","","","","","","","","","","","","","","","","","","","","","","feedback_test",""
"","","","","","psychophysics","44","802380","0.0-8.1-0.1-0.15","1894","","k","","","","","","","","","","","","","key","k","16.664622093023606","768","428","k","true","img/S_28.png","生人","freeprac_self","",""
"","","","","","html-keyboard-response","45","802695","0.0-8.1-0.1-1.15","null","<span style='color:GreenYellow; font-size: 70px;'>正确! </span>","null","","","","","","","","","","","","","","","","","","","","","","","feedback_test",""
"","","","","","psychophysics","46","805187","0.0-8.1-0.1-0.16","1484","","j","","","","","","","","","","","","","key","j","16.666187919463006","768","428","j","true","img/S_28.png","自我","freeprac_self","",""
"","","","","","html-keyboard-response","47","805492","0.0-8.1-0.1-1.16","null","<span style='color:GreenYellow; font-size: 70px;'>正确! </span>","null","","","","","","","","","","","","","","","","","","","","","","","feedback_test",""
"","","","","","psychophysics","48","807765","0.0-8.1-0.1-0.17","1263","","k","","","","","","","","","","","","","key","k","16.664918518519134","768","428","k","true","img/C_28.png","朋友","freeprac_self","",""
"","","","","","html-keyboard-response","49","808074","0.0-8.1-0.1-1.17","null","<span style='color:GreenYellow; font-size: 70px;'>正确! </span>","null","","","","","","","","","","","","","","","","","","","","","","","feedback_test",""
"","","","","","psychophysics","50","810728","0.0-8.1-0.1-0.18","1643","","j","","","","","","","","","","","","","key","j","16.668531645569786","768","428","f","false","img/H_28.png","朋友","freeprac_self","",""
"","","","","","html-keyboard-response","51","811035","0.0-8.1-0.1-1.18","null","<span style='color:red; font-size: 70px;'>错误! </span>","null","","","","","","","","","","","","","","","","","","","","","","","feedback_test",""
"","","","","","psychophysics","52","813325","0.0-8.1-0.1-0.19","1287","","k","","","","","","","","","","","","","key","k","16.66713235294104","768","428","k","true","img/S_28.png","生人","freeprac_self","",""
"","","","","","html-keyboard-response","53","813644","0.0-8.1-0.1-1.19","null","<span style='color:GreenYellow; font-size: 70px;'>正确! </span>","null","","","","","","","","","","","","","","","","","","","","","","","feedback_test",""
"","","","","","psychophysics","54","815722","0.0-8.1-0.1-0.20","1069","","k","","","","","","","","","","","","","key","k","16.668685483871094","768","428","j","false","img/S_28.png","朋友","freeprac_self","",""
"","","","","","html-keyboard-response","55","816025","0.0-8.1-0.1-1.20","null","<span style='color:red; font-size: 70px;'>错误! </span>","null","","","","","","","","","","","","","","","","","","","","","","","feedback_test",""
"","","","","","psychophysics","56","817928","0.0-8.1-0.1-0.21","892","","f","","","","","","","","","","","","","key","f","16.664601769912327","768","428","d","false","img/H_28.png","自我","freeprac_self","",""
"","","","","","html-keyboard-response","57","818235","0.0-8.1-0.1-1.21","null","<span style='color:red; font-size: 70px;'>错误! </span>","null","","","","","","","","","","","","","","","","","","","","","","","feedback_test",""
"","","","","","psychophysics","58","820316","0.0-8.1-0.1-0.22","1081","","d","","","","","","","","","","","","","key","d","16.666837398373573","768","428","d","true","img/H_28.png","自我","freeprac_self","",""
"","","","","","html-keyboard-response","59","820626","0.0-8.1-0.1-1.22","null","<span style='color:GreenYellow; font-size: 70px;'>正确! </span>","null","","","","","","","","","","","","","","","","","","","","","","","feedback_test",""
"","","","","","psychophysics","60","822818","0.0-8.1-0.1-0.23","1182","","k","","","","","","","","","","","","","key","k","16.666699999999793","768","428","j","false","img/C_28.png","生人","freeprac_self","",""
"","","","","","html-keyboard-response","61","823125","0.0-8.1-0.1-1.23","null","<span style='color:red; font-size: 70px;'>错误! </span>","null","","","","","","","","","","","","","","","","","","","","","","","feedback_test",""
"","","","","","html-keyboard-response","62","827143","0.0-8.1-1.1-0.1","4017","<style>.context{color:white; font-size: 35px; line-height:40px}</style>                           <div><p class='context'>您正确回答了50% 的试次。</p><p class='context'>您的平均反应时为1379毫秒。</p>"," ","","","","","","","","","","","","","","","","","","","","","","","",""
"","","","","","instructions","63","833266","0.0-8.1-1.1-1.1","6121","","","","","","","","","","","","","","[{""page_index"":0,""viewing_time"":1081},{""page_index"":1,""viewing_time"":3504},{""page_index"":2,""viewing_time"":1536}]","","","","","","","","","","","",""
"","","","","","psychophysics","64","835371","0.0-8.2-0.2-0.24","1101","","f","","","","","","","","","","","","","key","f","16.666626984126946","768","428","f","true","img/H_28.png","生人","freeprac_self","",""
"","","","","","html-keyboard-response","65","835684","0.0-8.2-0.2-1.24","null","<span style='color:GreenYellow; font-size: 70px;'>正确! </span>","null","","","","","","","","","","","","","","","","","","","","","","","feedback_test",""
"","","","","","psychophysics","66","838026","0.0-8.2-0.2-0.25","1341","","j","","","","","","","","","","","","","key","j","16.668050359712627","768","428","j","true","img/S_28.png","朋友","freeprac_self","",""
"","","","","","html-keyboard-response","67","838339","0.0-8.2-0.2-1.25","null","<span style='color:GreenYellow; font-size: 70px;'>正确! </span>","null","","","","","","","","","","","","","","","","","","","","","","","feedback_test",""
"","","","","","psychophysics","68","840472","0.0-8.2-0.2-0.26","1120","","k","","","","","","","","","","","","","key","k","16.669393700786763","768","428","j","false","img/C_28.png","自我","freeprac_self","",""
"","","","","","html-keyboard-response","69","840774","0.0-8.2-0.2-1.26","null","<span style='color:red; font-size: 70px;'>错误! </span>","null","","","","","","","","","","","","","","","","","","","","","","","feedback_test",""
"","","","","","psychophysics","70","843429","0.0-8.2-0.2-0.27","1645","","f","","","","","","","","","","","","","key","f","16.667272151898757","768","428","f","true","img/H_28.png","朋友","freeprac_self","",""
"","","","","","html-keyboard-response","71","843745","0.0-8.2-0.2-1.27","null","<span style='color:GreenYellow; font-size: 70px;'>正确! </span>","null","","","","","","","","","","","","","","","","","","","","","","","feedback_test",""
"","","","","","psychophysics","72","846832","0.0-8.2-0.2-0.28","2076","","k","","","","","","","","","","","","","key","k","16.668375000000157","768","428","j","false","img/C_28.png","生人","freeprac_self","",""
"","","","","","html-keyboard-response","73","847140","0.0-8.2-0.2-1.28","null","<span style='color:red; font-size: 70px;'>错误! </span>","null","","","","","","","","","","","","","","","","","","","","","","","feedback_test",""
"","","","","","psychophysics","74","849633","0.0-8.2-0.2-0.29","1480","","k","","","","","","","","","","","","","key","k","16.669094594594288","768","428","k","true","img/S_28.png","生人","freeprac_self","",""
"","","","","","html-keyboard-response","75","849944","0.0-8.2-0.2-1.29","null","<span style='color:GreenYellow; font-size: 70px;'>正确! </span>","null","","","","","","","","","","","","","","","","","","","","","","","feedback_test",""
"","","","","","psychophysics","76","852274","0.0-8.2-0.2-0.30","1321","","f","","","","","","","","","","","","","key","f","16.669050359712383","768","428","j","false","img/S_28.png","自我","freeprac_self","",""
"","","","","","html-keyboard-response","77","852594","0.0-8.2-0.2-1.30","null","<span style='color:red; font-size: 70px;'>错误! </span>","null","","","","","","","","","","","","","","","","","","","","","","","feedback_test",""
"","","","","","psychophysics","78","856248","0.0-8.2-0.2-0.31","2646","","k","","","","","","","","","","","","","key","k","16.665880733945006","768","428","k","true","img/S_28.png","生人","freeprac_self","",""
"","","","","","html-keyboard-response","79","856564","0.0-8.2-0.2-1.31","null","<span style='color:GreenYellow; font-size: 70px;'>正确! </span>","null","","","","","","","","","","","","","","","","","","","","","","","feedback_test",""
"","","","","","psychophysics","80","858555","0.0-8.2-0.2-0.32","987","","d","","","","","","","","","","","","","key","d","16.665647058823037","768","428","d","true","img/H_28.png","自我","freeprac_self","",""
"","","","","","html-keyboard-response","81","858864","0.0-8.2-0.2-1.32","null","<span style='color:GreenYellow; font-size: 70px;'>正确! </span>","null","","","","","","","","","","","","","","","","","","","","","","","feedback_test",""
"","","","","","psychophysics","82","861731","0.0-8.2-0.2-0.33","1862","","k","","","","","","","","","","","","","key","k","16.666547058823326","768","428","k","true","img/C_28.png","朋友","freeprac_self","",""
"","","","","","html-keyboard-response","83","862044","0.0-8.2-0.2-1.33","null","<span style='color:GreenYellow; font-size: 70px;'>正确! </span>","null","","","","","","","","","","","","","","","","","","","","","","","feedback_test",""
"","","","","","psychophysics","84","864356","0.0-8.2-0.2-0.34","1302","","d","","","","","","","","","","","","","key","d","16.66644927536296","768","428","d","true","img/H_28.png","自我","freeprac_self","",""
"","","","","","html-keyboard-response","85","864674","0.0-8.2-0.2-1.34","null","<span style='color:GreenYellow; font-size: 70px;'>正确! </span>","null","","","","","","","","","","","","","","","","","","","","","","","feedback_test",""
"","","","","","psychophysics","86","868514","0.0-8.2-0.2-0.35","2828","","k","","","","","","","","","","","","","key","k","16.665834061135477","768","428","k","true","img/C_28.png","朋友","freeprac_self","",""
"","","","","","html-keyboard-response","87","868824","0.0-8.2-0.2-1.35","null","<span style='color:GreenYellow; font-size: 70px;'>正确! </span>","null","","","","","","","","","","","","","","","","","","","","","","","feedback_test",""
"","","","","","html-keyboard-response","88","884814","0.0-9.0","15988","[""<style>.context{color:white; font-size: 35px; line-height:40px}</style>           <div><p class='context'>您正确回答了75% 的试次。</p><p class='context'>您的平均反应时为1688毫秒。</p><p class='context'>恭喜您完成这一阶段的练习。按任意键进入<span style='color: yellow;'>重点关注图形为“朋友”</span>的练习。</p></div><p class='footer' style='font-size:35px; line-height:30px;'>任务要求：\n           <p class='footer' style='font-size:35px; line-height:35px;'>对于与“朋友”对应的图形：如果 匹配 ，请按 <span style=\""color: lightgreen;\"">d键</span></p><p class='footer' style='font-size:35px'>如果 不匹配 ，请按<span style=\""color: lightgreen;\"">f键</p></span>\n           <p class='footer' style='font-size:35px; line-height:35px;'>对于非“朋友”对应的图形：如果 匹配 ，请按 <span style=\""color: lightgreen;\"">k键</span></p><p class='footer' style='font-size:35px'>如果 不匹配 ，请按<span style=\""color: lightgreen;\"">j键</p></span>\n           <p class='footer' style='font-size:22px; line-height:25px;'>请在实验过程中将您的<span style=\""color: lightgreen;\"">食指和中指</span>放在电脑键盘的相应键位上进行按键。</p></span>""]"," ","","","","","","","","","","","","","","","","","","","","","","","",""
"","","","","","psychophysics","89","888129","0.0-10.0-0.0-0.0","2310","","j","","","","","","","","","","","","","key","j","16.667904040404018","768","428","k","false","img/S_28.png","生人","freeprac_friend","",""
"","","","","","html-keyboard-response","90","888434","0.0-10.0-0.0-1.0","null","<span style='color:red; font-size: 70px;'>错误! </span>","null","","","","","","","","","","","","","","","","","","","","","","","feedback_test",""
"","","","","","psychophysics","91","891290","0.0-10.0-0.0-0.1","1855","","k","","","","","","","","","","","","","key","k","16.661682352941373","768","428","j","false","img/H_28.png","生人","freeprac_friend","",""
"","","","","","html-keyboard-response","92","891594","0.0-10.0-0.0-1.1","null","<span style='color:red; font-size: 70px;'>错误! </span>","null","","","","","","","","","","","","","","","","","","","","","","","feedback_test",""
"","","","","","psychophysics","93","894371","0.0-10.0-0.0-0.2","1767","","d","","","","","","","","","","","","","key","d","16.666487951807156","768","428","j","false","img/S_28.png","自我","freeprac_friend","",""
"","","","","","html-keyboard-response","94","894674","0.0-10.0-0.0-1.2","null","<span style='color:red; font-size: 70px;'>错误! </span>","null","","","","","","","","","","","","","","","","","","","","","","","feedback_test",""
"","","","","","psychophysics","95","898030","0.0-10.0-0.0-0.3","2344","","k","","","","","","","","","","","","","key","k","16.66633499999996","768","428","d","false","img/C_28.png","朋友","freeprac_friend","",""
"","","","","","html-keyboard-response","96","898344","0.0-10.0-0.0-1.3","null","<span style='color:red; font-size: 70px;'>错误! </span>","null","","","","","","","","","","","","","","","","","","","","","","","feedback_test",""
"","","","","","psychophysics","97","900935","0.0-10.0-0.0-0.4","1582","","f","","","","","","","","","","","","","key","f","16.66854545454549","768","428","j","false","img/H_28.png","朋友","freeprac_friend","",""
"","","","","","html-keyboard-response","98","901254","0.0-10.0-0.0-1.4","null","<span style='color:red; font-size: 70px;'>错误! </span>","null","","","","","","","","","","","","","","","","","","","","","","","feedback_test",""
"","","","","","psychophysics","99","904205","0.0-10.0-0.0-0.5","1935","","k","","","","","","","","","","","","","key","k","16.66592045454507","768","428","k","true","img/S_28.png","生人","freeprac_friend","",""
"","","","","","html-keyboard-response","100","904507","0.0-10.0-0.0-1.5","null","<span style='color:GreenYellow; font-size: 70px;'>正确! </span>","null","","","","","","","","","","","","","","","","","","","","","","","feedback_test",""
"","","","","","psychophysics","101","906930","0.0-10.0-0.0-0.6","1411","","d","","","","","","","","","","","","","key","d","16.66478472222257","768","428","k","false","img/H_28.png","自我","freeprac_friend","",""
"","","","","","html-keyboard-response","102","907245","0.0-10.0-0.0-1.6","null","<span style='color:red; font-size: 70px;'>错误! </span>","null","","","","","","","","","","","","","","","","","","","","","","","feedback_test",""
"","","","","","psychophysics","103","909585","0.0-10.0-0.0-0.7","1333","","d","","","","","","","","","","","","","key","d","16.666546762590094","768","428","f","false","img/C_28.png","自我","freeprac_friend","",""
"","","","","","html-keyboard-response","104","909899","0.0-10.0-0.0-1.7","null","<span style='color:red; font-size: 70px;'>错误! </span>","null","","","","","","","","","","","","","","","","","","","","","","","feedback_test",""
"","","","","","psychophysics","105","912507","0.0-10.0-0.0-0.8","1603","","j","","","","","","","","","","","","","key","j","16.667923076923053","768","428","k","false","img/H_28.png","自我","freeprac_friend","",""
"","","","","","html-keyboard-response","106","912824","0.0-10.0-0.0-1.8","null","<span style='color:red; font-size: 70px;'>错误! </span>","null","","","","","","","","","","","","","","","","","","","","","","","feedback_test",""
"","","","","","psychophysics","107","915879","0.0-10.0-0.0-0.9","2043","","d","","","","","","","","","","","","","key","d","16.668917582417674","768","428","f","false","img/C_28.png","生人","freeprac_friend","",""
"","","","","","html-keyboard-response","108","916194","0.0-10.0-0.0-1.9","null","<span style='color:red; font-size: 70px;'>错误! </span>","null","","","","","","","","","","","","","","","","","","","","","","","feedback_test",""
"","","","","","psychophysics","109","918630","0.0-10.0-0.0-0.10","1427","","d","","","","","","","","","","","","","key","d","16.667220689654993","768","428","j","false","img/S_28.png","朋友","freeprac_friend","",""
"","","","","","html-keyboard-response","110","918934","0.0-10.0-0.0-1.10","null","<span style='color:red; font-size: 70px;'>错误! </span>","null","","","","","","","","","","","","","","","","","","","","","","","feedback_test",""
"","","","","","psychophysics","111","921468","0.0-10.0-0.0-0.11","1532","","d","","","","","","","","","","","","","key","d","16.656959999999962","768","428","d","true","img/C_28.png","朋友","freeprac_friend","",""
"","","","","","html-keyboard-response","112","921784","0.0-10.0-0.0-1.11","null","<span style='color:GreenYellow; font-size: 70px;'>正确! </span>","null","","","","","","","","","","","","","","","","","","","","","","","feedback_test",""
"","","","","","html-keyboard-response","113","923277","0.0-10.0-1.0-0.0","1491","<style>.context{color:white; font-size: 35px; line-height:40px}</style>                           <div><p class='context'>您正确回答了17% 的试次。</p><p class='context'>您的平均反应时为1734毫秒。</p>"," ","","","","","","","","","","","","","","","","","","","","","","","",""
"","","","","","instructions","114","950409","0.0-10.0-1.0-1.0","27128","","","","","","","","","","","","","","[{""page_index"":0,""viewing_time"":1928},{""page_index"":1,""viewing_time"":23200},{""page_index"":2,""viewing_time"":2000}]","","","","","","","","","","","",""
"","","","","","psychophysics","115","954211","0.0-10.1-0.1-0.12","2791","","j","","","","","","","","","","","","","key","j","16.666969162995603","768","428","k","false","img/H_28.png","自我","freeprac_friend","",""
"","","","","","html-keyboard-response","116","954524","0.0-10.1-0.1-1.12","null","<span style='color:red; font-size: 70px;'>错误! </span>","null","","","","","","","","","","","","","","","","","","","","","","","feedback_test",""
"","","","","","psychophysics","117","958232","0.0-10.1-0.1-0.13","2696","","j","","","","","","","","","","","","","key","j","16.667995475113024","768","428","j","true","img/S_28.png","朋友","freeprac_friend","",""
"","","","","","html-keyboard-response","118","958545","0.0-10.1-0.1-1.13","null","<span style='color:GreenYellow; font-size: 70px;'>正确! </span>","null","","","","","","","","","","","","","","","","","","","","","","","feedback_test",""
"","","","","","psychophysics","119","961072","0.0-10.1-0.1-0.14","1519","","d","","","","","","","","","","","","","key","d","16.668788079469966","768","428","d","true","img/C_28.png","朋友","freeprac_friend","",""
"","","","","","html-keyboard-response","120","961374","0.0-10.1-0.1-1.14","null","<span style='color:GreenYellow; font-size: 70px;'>正确! </span>","null","","","","","","","","","","","","","","","","","","","","","","","feedback_test",""
"","","","","","psychophysics","121","963636","0.0-10.1-0.1-0.15","1249","","f","","","","","","","","","","","","","key","f","16.668999999999624","768","428","f","true","img/C_28.png","自我","freeprac_friend","",""
"","","","","","html-keyboard-response","122","963944","0.0-10.1-0.1-1.15","null","<span style='color:GreenYellow; font-size: 70px;'>正确! </span>","null","","","","","","","","","","","","","","","","","","","","","","","feedback_test",""
"","","","","","psychophysics","123","966757","0.0-10.1-0.1-0.16","1811","","k","","","","","","","","","","","","","key","k","16.666773809523356","768","428","k","true","img/S_28.png","生人","freeprac_friend","",""
"","","","","","html-keyboard-response","124","967074","0.0-10.1-0.1-1.16","null","<span style='color:GreenYellow; font-size: 70px;'>正确! </span>","null","","","","","","","","","","","","","","","","","","","","","","","feedback_test",""
"","","","","","psychophysics","125","969330","0.0-10.1-0.1-0.17","1243","","k","","","","","","","","","","","","","key","k","16.669201492536953","768","428","k","true","img/S_28.png","生人","freeprac_friend","",""
"","","","","","html-keyboard-response","126","969644","0.0-10.1-0.1-1.17","null","<span style='color:GreenYellow; font-size: 70px;'>正确! </span>","null","","","","","","","","","","","","","","","","","","","","","","","feedback_test",""
"","","","","","psychophysics","127","971839","0.0-10.1-0.1-0.18","1185","","j","","","","","","","","","","","","","key","j","16.666778625954183","768","428","j","true","img/S_28.png","自我","freeprac_friend","",""
"","","","","","html-keyboard-response","128","972144","0.0-10.1-0.1-1.18","null","<span style='color:GreenYellow; font-size: 70px;'>正确! </span>","null","","","","","","","","","","","","","","","","","","","","","","","feedback_test",""
"","","","","","psychophysics","129","974743","0.0-10.1-0.1-0.19","1590","","k","","","","","","","","","","","","","key","k","16.666741935483692","768","428","k","true","img/H_28.png","自我","freeprac_friend","",""
"","","","","","html-keyboard-response","130","975044","0.0-10.1-0.1-1.19","null","<span style='color:GreenYellow; font-size: 70px;'>正确! </span>","null","","","","","","","","","","","","","","","","","","","","","","","feedback_test",""
"","","","","","psychophysics","131","977273","0.0-10.1-0.1-0.20","1219","","j","","","","","","","","","","","","","key","j","16.667639097744157","768","428","j","true","img/H_28.png","生人","freeprac_friend","",""
"","","","","","html-keyboard-response","132","977585","0.0-10.1-0.1-1.20","null","<span style='color:GreenYellow; font-size: 70px;'>正确! </span>","null","","","","","","","","","","","","","","","","","","","","","","","feedback_test",""
"","","","","","psychophysics","133","979609","0.0-10.1-0.1-0.21","1022","","d","","","","","","","","","","","","","key","d","16.646925000000433","768","428","d","true","img/C_28.png","朋友","freeprac_friend","",""
"","","","","","html-keyboard-response","134","979925","0.0-10.1-0.1-1.21","null","<span style='color:GreenYellow; font-size: 70px;'>正确! </span>","null","","","","","","","","","","","","","","","","","","","","","","","feedback_test",""
"","","","","","psychophysics","135","982001","0.0-10.1-0.1-0.22","1065","","j","","","","","","","","","","","","","key","j","16.668463414634306","768","428","f","false","img/C_28.png","生人","freeprac_friend","",""
"","","","","","html-keyboard-response","136","982315","0.0-10.1-0.1-1.22","null","<span style='color:red; font-size: 70px;'>错误! </span>","null","","","","","","","","","","","","","","","","","","","","","","","feedback_test",""
"","","","","","psychophysics","137","984639","0.0-10.1-0.1-0.23","1320","","j","","","","","","","","","","","","","key","j","16.665582733812553","768","428","j","true","img/H_28.png","朋友","freeprac_friend","",""
"","","","","","html-keyboard-response","138","984954","0.0-10.1-0.1-1.23","null","<span style='color:GreenYellow; font-size: 70px;'>正确! </span>","null","","","","","","","","","","","","","","","","","","","","","","","feedback_test",""
"","","","","","html-keyboard-response","139","993893","0.0-11.0","8938","[""<style>.context{color:white; font-size: 35px; line-height:40px}</style>               <div><p class='context'>您正确回答了83% 的试次。</p><p class='context'>您的平均反应时为1485毫秒。</p><p class='context'>恭喜您完成这一阶段的练习。按任意键进入<span style='color: yellow;'>重点关注图形为“生人”</span>的练习。</p></div><p class='footer' style='font-size:35px; line-height:30px;'>任务要求：\n               <p class='footer' style='font-size:35px; line-height:35px;'>对与“生人”对应的图形，如果 匹配 ，请按 <span style=\""color: lightgreen;\"">d键</span></p><p class='footer' style='font-size:35px'>如果 不匹配 ，请按<span style=\""color: lightgreen;\"">f键</p></span>\n               <p class='footer' style='font-size:35px; line-height:35px;'>对非“生人”对应的图形，如果 匹配 ，请按 <span style=\""color: lightgreen;\"">k键</span></p><p class='footer' style='font-size:35px'>如果 不匹配 ，请按<span style=\""color: lightgreen;\"">j键</p></span>\n               <p class='footer' style='font-size:22px; line-height:25px;'>请在实验过程中将您的<span style=\""color: lightgreen;\"">食指和中指</span>放在电脑键盘的相应键位上进行按键。</p></span>""]"," ","","","","","","","","","","","","","","","","","","","","","","","",""
"","","","","","psychophysics","140","997505","0.0-12.0-0.0-0.0","2602","","f","","","","","","","","","","","","","key","f","16.666810185184996","768","428","f","true","img/S_28.png","自我","freeprac_stranger","",""
"","","","","","html-keyboard-response","141","997814","0.0-12.0-0.0-1.0","null","<span style='color:GreenYellow; font-size: 70px;'>正确! </span>","null","","","","","","","","","","","","","","","","","","","","","","","feedback_test",""
"","","","","","psychophysics","142","1001190","0.0-12.0-0.0-0.1","2369","","j","","","","","","","","","","","","","key","j","16.667866336634166","768","428","j","true","img/C_28.png","生人","freeprac_stranger","",""
"","","","","","html-keyboard-response","143","1001504","0.0-12.0-0.0-1.1","null","<span style='color:GreenYellow; font-size: 70px;'>正确! </span>","null","","","","","","","","","","","","","","","","","","","","","","","feedback_test",""
"","","","","","psychophysics","144","1003833","0.0-12.0-0.0-0.2","1328","","k","","","","","","","","","","","","","key","k","16.666340579709843","768","428","k","true","img/H_28.png","自我","freeprac_stranger","",""
"","","","","","html-keyboard-response","145","1004144","0.0-12.0-0.0-1.2","null","<span style='color:GreenYellow; font-size: 70px;'>正确! </span>","null","","","","","","","","","","","","","","","","","","","","","","","feedback_test",""
"","","","","","psychophysics","146","1006911","0.0-12.0-0.0-0.3","1758","","k","","","","","","","","","","","","","key","k","16.668484848485132","768","428","k","true","img/C_28.png","朋友","freeprac_stranger","",""
"","","","","","html-keyboard-response","147","1007214","0.0-12.0-0.0-1.3","null","<span style='color:GreenYellow; font-size: 70px;'>正确! </span>","null","","","","","","","","","","","","","","","","","","","","","","","feedback_test",""
"","","","","","psychophysics","148","1009351","0.0-12.0-0.0-0.4","1131","","j","","","","","","","","","","","","","key","j","16.665889763779294","768","428","j","true","img/H_28.png","朋友","freeprac_stranger","",""
"","","","","","html-keyboard-response","149","1009654","0.0-12.0-0.0-1.4","null","<span style='color:GreenYellow; font-size: 70px;'>正确! </span>","null","","","","","","","","","","","","","","","","","","","","","","","feedback_test",""
"","","","","","psychophysics","150","1011683","0.0-12.0-0.0-0.5","1028","","k","","","","","","","","","","","","","key","k","16.666966666666365","768","428","k","true","img/H_28.png","自我","freeprac_stranger","",""
"","","","","","html-keyboard-response","151","1011984","0.0-12.0-0.0-1.5","null","<span style='color:GreenYellow; font-size: 70px;'>正确! </span>","null","","","","","","","","","","","","","","","","","","","","","","","feedback_test",""
"","","","","","psychophysics","152","1013746","0.0-12.0-0.0-0.6","759","","j","","","","","","","","","","","","","key","j","16.666580952381317","768","428","k","false","img/C_28.png","朋友","freeprac_stranger","",""
"","","","","","html-keyboard-response","153","1014064","0.0-12.0-0.0-1.6","null","<span style='color:red; font-size: 70px;'>错误! </span>","null","","","","","","","","","","","","","","","","","","","","","","","feedback_test",""
"","","","","","psychophysics","154","1017183","0.0-12.0-0.0-0.7","2111","","d","","","","","","","","","","","","","key","d","16.666279569892865","768","428","f","false","img/S_28.png","朋友","freeprac_stranger","",""
"","","","","","html-keyboard-response","155","1017484","0.0-12.0-0.0-1.7","null","<span style='color:red; font-size: 70px;'>错误! </span>","null","","","","","","","","","","","","","","","","","","","","","","","feedback_test",""
"","","","","","psychophysics","156","1019806","0.0-12.0-0.0-0.8","1317","","d","","","","","","","","","","","","","key","d","16.668561151078666","768","428","d","true","img/S_28.png","生人","freeprac_stranger","",""
"","","","","","html-keyboard-response","157","1020125","0.0-12.0-0.0-1.8","null","<span style='color:GreenYellow; font-size: 70px;'>正确! </span>","null","","","","","","","","","","","","","","","","","","","","","","","feedback_test",""
"","","","","","psychophysics","158","1023117","0.0-12.0-0.0-0.9","1979","","j","","","","","","","","","","","","","key","j","16.668286516853698","768","428","j","true","img/C_28.png","自我","freeprac_stranger","",""
"","","","","","html-keyboard-response","159","1023435","0.0-12.0-0.0-1.9","null","<span style='color:GreenYellow; font-size: 70px;'>正确! </span>","null","","","","","","","","","","","","","","","","","","","","","","","feedback_test",""
"","","","","","psychophysics","160","1026811","0.0-12.0-0.0-0.10","2374","","j","","","","","","","","","","","","","key","j","16.668346534653146","768","428","j","true","img/H_28.png","生人","freeprac_stranger","",""
"","","","","","html-keyboard-response","161","1027125","0.0-12.0-0.0-1.10","null","<span style='color:GreenYellow; font-size: 70px;'>正确! </span>","null","","","","","","","","","","","","","","","","","","","","","","","feedback_test",""
"","","","","","psychophysics","162","1029180","0.0-12.0-0.0-0.11","1043","","d","","","","","","","","","","","","","key","d","16.667278688525034","768","428","d","true","img/S_28.png","生人","freeprac_stranger","",""
"","","","","","html-keyboard-response","163","1029485","0.0-12.0-0.0-1.11","null","<span style='color:GreenYellow; font-size: 70px;'>正确! </span>","null","","","","","","","","","","","","","","","","","","","","","","","feedback_test",""
"","","","","","instructions","164","1056875","0.0-13.0","27389","","","","","","","","","","","","","","[{""page_index"":0,""viewing_time"":27388}]","","","","","","","","","","","",""
"","","","","","psychophysics","165","1058927","0.0-14.0-0.0-0.0","1039","","d","","","","","","","","","","","","","key","d","16.664180327869083","768","428","d","true","img/H_28.png","自我","prac_self","","自我"
"","","","","","html-keyboard-response","166","1059245","0.0-14.0-0.0-1.0","null","<span style='color:GreenYellow; font-size: 70px;'>正确! </span>","null","","","","","","","","","","","","","","","","","","","","","","","feedback_test",""
"","","","","","psychophysics","167","1061381","0.0-14.0-0.0-0.1","1127","","j","","","","","","","","","","","","","key","j","16.6670787401578","768","428","j","true","img/C_28.png","生人","prac_self","","朋友"
"","","","","","html-keyboard-response","168","1061688","0.0-14.0-0.0-1.1","null","<span style='color:GreenYellow; font-size: 70px;'>正确! </span>","null","","","","","","","","","","","","","","","","","","","","","","","feedback_test",""
"","","","","","psychophysics","169","1064204","0.0-14.0-0.0-0.2","null","","null","","","","","","","","","","","","","key","null","16.664785234899817","768","428","d","false","img/H_28.png","自我","prac_self","","自我"
"","","","","","html-keyboard-response","170","1064515","0.0-14.0-0.0-1.2","null","<span class='add_' style='color:yellow; font-size: 70px;'> 太慢! </span>","null","","","","","","","","","","","","","","","","","","","","","","","feedback_test",""
"","","","","","psychophysics","171","1066476","0.0-14.0-0.0-0.3","952","","j","","","","","","","","","","","","","key","j","16.669461538461952","768","428","j","true","img/S_28.png","朋友","prac_self","","生人"
"","","","","","html-keyboard-response","172","1066781","0.0-14.0-0.0-1.3","null","<span style='color:GreenYellow; font-size: 70px;'>正确! </span>","null","","","","","","","","","","","","","","","","","","","","","","","feedback_test",""
"","","","","","psychophysics","173","1069287","0.0-14.0-0.0-0.4","null","","null","","","","","","","","","","","","","key","null","16.668812080538025","768","428","f","false","img/H_28.png","朋友","prac_self","","自我"
"","","","","","html-keyboard-response","174","1069605","0.0-14.0-0.0-1.4","null","<span class='add_' style='color:yellow; font-size: 70px;'> 太慢! </span>","null","","","","","","","","","","","","","","","","","","","","","","","feedback_test",""
"","","","","","psychophysics","175","1071615","0.0-14.0-0.0-0.5","1010","","k","","","","","","","","","","","","","key","k","16.66570588235133","768","428","k","true","img/S_28.png","生人","prac_self","","生人"
"","","","","","html-keyboard-response","176","1071925","0.0-14.0-0.0-1.5","null","<span style='color:GreenYellow; font-size: 70px;'>正确! </span>","null","","","","","","","","","","","","","","","","","","","","","","","feedback_test",""
"","","","","","psychophysics","177","1074063","0.0-14.0-0.0-0.6","1124","","k","","","","","","","","","","","","","key","k","16.66699212598321","768","428","k","true","img/S_28.png","生人","prac_self","","生人"
"","","","","","html-keyboard-response","178","1074375","0.0-14.0-0.0-1.6","null","<span style='color:GreenYellow; font-size: 70px;'>正确! </span>","null","","","","","","","","","","","","","","","","","","","","","","","feedback_test",""
"","","","","","psychophysics","179","1076368","0.0-14.0-0.0-0.7","980","","j","","","","","","","","","","","","","key","j","16.66699152542436","768","428","k","false","img/C_28.png","朋友","prac_self","","朋友"
"","","","","","html-keyboard-response","180","1076675","0.0-14.0-0.0-1.7","null","<span style='color:red; font-size: 70px;'>错误! </span>","null","","","","","","","","","","","","","","","","","","","","","","","feedback_test",""
"","","","","","psychophysics","181","1078415","0.0-14.0-0.0-0.8","727","","k","","","","","","","","","","","","","key","k","16.664310679612772","768","428","k","true","img/C_28.png","朋友","prac_self","","朋友"
"","","","","","html-keyboard-response","182","1078725","0.0-14.0-0.0-1.8","null","<span style='color:GreenYellow; font-size: 70px;'>正确! </span>","null","","","","","","","","","","","","","","","","","","","","","","","feedback_test",""
"","","","","","psychophysics","183","1080835","0.0-14.0-0.0-0.9","1097","","j","","","","","","","","","","","","","key","j","16.66972800000012","768","428","j","true","img/C_28.png","自我","prac_self","","朋友"
"","","","","","html-keyboard-response","184","1081145","0.0-14.0-0.0-1.9","null","<span style='color:GreenYellow; font-size: 70px;'>正确! </span>","null","","","","","","","","","","","","","","","","","","","","","","","feedback_test",""
"","","","","","psychophysics","185","1083346","0.0-14.0-0.0-0.10","1191","","j","","","","","","","","","","","","","key","j","16.66651145038053","768","428","j","true","img/S_28.png","自我","prac_self","","生人"
"","","","","","html-keyboard-response","186","1083665","0.0-14.0-0.0-1.10","null","<span style='color:GreenYellow; font-size: 70px;'>正确! </span>","null","","","","","","","","","","","","","","","","","","","","","","","feedback_test",""
"","","","","","psychophysics","187","1085779","0.0-14.0-0.0-0.11","1107","","j","","","","","","","","","","","","","key","j","16.667182539683942","768","428","f","false","img/H_28.png","生人","prac_self","","自我"
"","","","","","html-keyboard-response","188","1086085","0.0-14.0-0.0-1.11","null","<span style='color:red; font-size: 70px;'>错误! </span>","null","","","","","","","","","","","","","","","","","","","","","","","feedback_test",""
"","","","","","psychophysics","189","1088023","0.0-14.0-0.0-0.12","937","","f","","","","","","","","","","","","","key","f","16.669905172414065","768","428","k","false","img/S_28.png","生人","prac_self","","生人"
"","","","","","html-keyboard-response","190","1088325","0.0-14.0-0.0-1.12","null","<span style='color:red; font-size: 70px;'>错误! </span>","null","","","","","","","","","","","","","","","","","","","","","","","feedback_test",""
"","","","","","psychophysics","191","1090339","0.0-14.0-0.0-0.13","1001","","j","","","","","","","","","","","","","key","j","16.666316666667505","768","428","k","false","img/C_28.png","朋友","prac_self","","朋友"
"","","","","","html-keyboard-response","192","1090655","0.0-14.0-0.0-1.13","null","<span style='color:red; font-size: 70px;'>错误! </span>","null","","","","","","","","","","","","","","","","","","","","","","","feedback_test",""
"","","","","","psychophysics","193","1093171","0.0-14.0-0.0-0.14","null","","null","","","","","","","","","","","","","key","null","16.664281879195432","768","428","f","false","img/H_28.png","生人","prac_self","","自我"
"","","","","","html-keyboard-response","194","1093475","0.0-14.0-0.0-1.14","null","<span class='add_' style='color:yellow; font-size: 70px;'> 太慢! </span>","null","","","","","","","","","","","","","","","","","","","","","","","feedback_test",""
"","","","","","psychophysics","195","1095506","0.0-14.0-0.0-0.15","1017","","k","","","","","","","","","","","","","key","k","16.66441322314122","768","428","k","true","img/C_28.png","朋友","prac_self","","朋友"
"","","","","","html-keyboard-response","196","1095823","0.0-14.0-0.0-1.15","null","<span style='color:GreenYellow; font-size: 70px;'>正确! </span>","null","","","","","","","","","","","","","","","","","","","","","","","feedback_test",""
"","","","","","psychophysics","197","1097647","0.0-14.0-0.0-0.16","811","","j","","","","","","","","","","","","","key","j","16.66729629629602","768","428","j","true","img/C_28.png","生人","prac_self","","朋友"
"","","","","","html-keyboard-response","198","1097956","0.0-14.0-0.0-1.16","null","<span style='color:GreenYellow; font-size: 70px;'>正确! </span>","null","","","","","","","","","","","","","","","","","","","","","","","feedback_test",""
"","","","","","psychophysics","199","1099780","0.0-14.0-0.0-0.17","809","","d","","","","","","","","","","","","","key","d","16.664796296295847","768","428","d","true","img/H_28.png","自我","prac_self","","自我"
"","","","","","html-keyboard-response","200","1100085","0.0-14.0-0.0-1.17","null","<span style='color:GreenYellow; font-size: 70px;'>正确! </span>","null","","","","","","","","","","","","","","","","","","","","","","","feedback_test",""
"","","","","","psychophysics","201","1101943","0.0-14.0-0.0-0.18","856","","d","","","","","","","","","","","","","key","d","16.66325454545546","768","428","d","true","img/H_28.png","自我","prac_self","","自我"
"","","","","","html-keyboard-response","202","1102245","0.0-14.0-0.0-1.18","null","<span style='color:GreenYellow; font-size: 70px;'>正确! </span>","null","","","","","","","","","","","","","","","","","","","","","","","feedback_test",""
"","","","","","psychophysics","203","1104051","0.0-14.0-0.0-0.19","796","","f","","","","","","","","","","","","","key","f","16.666598130842218","768","428","j","false","img/S_28.png","自我","prac_self","","生人"
"","","","","","html-keyboard-response","204","1104365","0.0-14.0-0.0-1.19","null","<span style='color:red; font-size: 70px;'>错误! </span>","null","","","","","","","","","","","","","","","","","","","","","","","feedback_test",""
"","","","","","psychophysics","205","1106233","0.0-14.0-0.0-0.20","860","","k","","","","","","","","","","","","","key","k","16.669027027027965","768","428","j","false","img/S_28.png","朋友","prac_self","","生人"
"","","","","","html-keyboard-response","206","1106545","0.0-14.0-0.0-1.20","null","<span style='color:red; font-size: 70px;'>错误! </span>","null","","","","","","","","","","","","","","","","","","","","","","","feedback_test",""
"","","","","","psychophysics","207","1108731","0.0-14.0-0.0-0.21","1177","","f","","","","","","","","","","","","","key","f","16.669715384614225","768","428","f","true","img/H_28.png","朋友","prac_self","","自我"
"","","","","","html-keyboard-response","208","1109040","0.0-14.0-0.0-1.21","null","<span style='color:GreenYellow; font-size: 70px;'>正确! </span>","null","","","","","","","","","","","","","","","","","","","","","","","feedback_test",""
"","","","","","psychophysics","209","1111199","0.0-14.0-0.0-0.22","1144","","k","","","","","","","","","","","","","key","k","16.66869531249904","768","428","k","true","img/S_28.png","生人","prac_self","","生人"
"","","","","","html-keyboard-response","210","1111514","0.0-14.0-0.0-1.22","null","<span style='color:GreenYellow; font-size: 70px;'>正确! </span>","null","","","","","","","","","","","","","","","","","","","","","","","feedback_test",""
"","","","","","psychophysics","211","1113397","0.0-14.0-0.0-0.23","876","","j","","","","","","","","","","","","","key","j","16.668642857141094","768","428","j","true","img/C_28.png","自我","prac_self","","朋友"
"","","","","","html-keyboard-response","212","1113705","0.0-14.0-0.0-1.23","null","<span style='color:GreenYellow; font-size: 70px;'>正确! </span>","null","","","","","","","","","","","","","","","","","","","","","","","feedback_test",""
"","","","","","html-keyboard-response","213","1120503","0.0-14.0-1.0-0.0","6797","<style>.context{color:white; font-size: 35px; line-height:40px}</style>                           <div><p class='context'>您正确回答了63% 的试次。</p><p class='context'>您的平均反应时为997毫秒。</p>"," ","","","","","","","","","","","","","","","","","","","","","","","",""
"","","","","","instructions","214","1128522","0.0-14.0-1.0-1.0","8018","","","","","","","","","","","","","","[{""page_index"":0,""viewing_time"":2793},{""page_index"":1,""viewing_time"":3576},{""page_index"":2,""viewing_time"":1648}]","","","","","","","","","","","",""
"","","","","","psychophysics","215","1130579","0.0-14.1-0.1-0.24","1041","","d","","","","","","","","","","","","","key","d","16.665295081966953","768","428","d","true","img/H_28.png","自我","prac_self","","自我"
"","","","","","html-keyboard-response","216","1130895","0.0-14.1-0.1-1.24","null","<span style='color:GreenYellow; font-size: 70px;'>正确! </span>","null","","","","","","","","","","","","","","","","","","","","","","","feedback_test",""
"","","","","","psychophysics","217","1132601","0.0-14.1-0.1-0.25","697","","f","","","","","","","","","","","","","key","f","16.66704950495254","768","428","f","true","img/H_28.png","生人","prac_self","","自我"
"","","","","","html-keyboard-response","218","1132904","0.0-14.1-0.1-1.25","null","<span style='color:GreenYellow; font-size: 70px;'>正确! </span>","null","","","","","","","","","","","","","","","","","","","","","","","feedback_test",""
"","","","","","psychophysics","219","1134781","0.0-14.1-0.1-0.26","874","","k","","","","","","","","","","","","","key","k","16.663576576575586","768","428","j","false","img/C_28.png","生人","prac_self","","朋友"
"","","","","","html-keyboard-response","220","1135085","0.0-14.1-0.1-1.26","null","<span style='color:red; font-size: 70px;'>错误! </span>","null","","","","","","","","","","","","","","","","","","","","","","","feedback_test",""
"","","","","","psychophysics","221","1137154","0.0-14.1-0.1-0.27","1066","","k","","","","","","","","","","","","","key","k","16.667138211381797","768","428","k","true","img/S_28.png","生人","prac_self","","生人"
"","","","","","html-keyboard-response","222","1137465","0.0-14.1-0.1-1.27","null","<span style='color:GreenYellow; font-size: 70px;'>正确! </span>","null","","","","","","","","","","","","","","","","","","","","","","","feedback_test",""
"","","","","","psychophysics","223","1139387","0.0-14.1-0.1-0.28","915","","k","","","","","","","","","","","","","key","k","16.665921052631905","768","428","k","true","img/C_28.png","朋友","prac_self","","朋友"
"","","","","","html-keyboard-response","224","1139695","0.0-14.1-0.1-1.28","null","<span style='color:GreenYellow; font-size: 70px;'>正确! </span>","null","","","","","","","","","","","","","","","","","","","","","","","feedback_test",""
"","","","","","psychophysics","225","1141685","0.0-14.1-0.1-0.29","979","","f","","","","","","","","","","","","","key","f","16.669779661016822","768","428","f","true","img/H_28.png","朋友","prac_self","","自我"
"","","","","","html-keyboard-response","226","1142000","0.0-14.1-0.1-1.29","null","<span style='color:GreenYellow; font-size: 70px;'>正确! </span>","null","","","","","","","","","","","","","","","","","","","","","","","feedback_test",""
"","","","","","psychophysics","227","1144092","0.0-14.1-0.1-0.30","1086","","k","","","","","","","","","","","","","key","k","16.66789599999972","768","428","k","true","img/S_28.png","生人","prac_self","","生人"
"","","","","","html-keyboard-response","228","1144404","0.0-14.1-0.1-1.30","null","<span style='color:GreenYellow; font-size: 70px;'>正确! </span>","null","","","","","","","","","","","","","","","","","","","","","","","feedback_test",""
"","","","","","psychophysics","229","1146425","0.0-14.1-0.1-0.31","1020","","j","","","","","","","","","","","","","key","j","16.666824999998788","768","428","j","true","img/C_28.png","自我","prac_self","","朋友"
"","","","","","html-keyboard-response","230","1146745","0.0-14.1-0.1-1.31","null","<span style='color:GreenYellow; font-size: 70px;'>正确! </span>","null","","","","","","","","","","","","","","","","","","","","","","","feedback_test",""
"","","","","","psychophysics","231","1148647","0.0-14.1-0.1-0.32","891","","k","","","","","","","","","","","","","key","k","16.66640707964605","768","428","j","false","img/S_28.png","自我","prac_self","","生人"
"","","","","","html-keyboard-response","232","1148964","0.0-14.1-0.1-1.32","null","<span style='color:red; font-size: 70px;'>错误! </span>","null","","","","","","","","","","","","","","","","","","","","","","","feedback_test",""
"","","","","","psychophysics","233","1150750","0.0-14.1-0.1-0.33","779","","k","","","","","","","","","","","","","key","k","16.66694339622638","768","428","k","true","img/C_28.png","朋友","prac_self","","朋友"
"","","","","","html-keyboard-response","234","1151054","0.0-14.1-0.1-1.33","null","<span style='color:GreenYellow; font-size: 70px;'>正确! </span>","null","","","","","","","","","","","","","","","","","","","","","","","feedback_test",""
"","","","","","psychophysics","235","1153104","0.0-14.1-0.1-0.34","1048","","k","","","","","","","","","","","","","key","k","16.663900826447684","768","428","j","false","img/S_28.png","朋友","prac_self","","生人"
"","","","","","html-keyboard-response","236","1153425","0.0-14.1-0.1-1.34","null","<span style='color:red; font-size: 70px;'>错误! </span>","null","","","","","","","","","","","","","","","","","","","","","","","feedback_test",""
"","","","","","psychophysics","237","1155600","0.0-14.1-0.1-0.35","1162","","d","","","","","","","","","","","","","key","d","16.66799224806271","768","428","d","true","img/H_28.png","自我","prac_self","","自我"
"","","","","","html-keyboard-response","238","1155915","0.0-14.1-0.1-1.35","null","<span style='color:GreenYellow; font-size: 70px;'>正确! </span>","null","","","","","","","","","","","","","","","","","","","","","","","feedback_test",""
"","","","","","psychophysics","239","1157874","0.0-14.1-0.1-0.36","955","","d","","","","","","","","","","","","","key","d","16.669538461537552","768","428","d","true","img/H_28.png","自我","prac_self","","自我"
"","","","","","html-keyboard-response","240","1158195","0.0-14.1-0.1-1.36","null","<span style='color:GreenYellow; font-size: 70px;'>正确! </span>","null","","","","","","","","","","","","","","","","","","","","","","","feedback_test",""
"","","","","","psychophysics","241","1159879","0.0-14.1-0.1-0.37","675","","f","","","","","","","","","","","","","key","f","16.667380000001284","768","428","f","true","img/H_28.png","朋友","prac_self","","自我"
"","","","","","html-keyboard-response","242","1160195","0.0-14.1-0.1-1.37","null","<span style='color:GreenYellow; font-size: 70px;'>正确! </span>","null","","","","","","","","","","","","","","","","","","","","","","","feedback_test",""
"","","","","","psychophysics","243","1162058","0.0-14.1-0.1-0.38","853","","j","","","","","","","","","","","","","key","j","16.66619819819902","768","428","f","false","img/H_28.png","生人","prac_self","","自我"
"","","","","","html-keyboard-response","244","1162365","0.0-14.1-0.1-1.38","null","<span style='color:red; font-size: 70px;'>错误! </span>","null","","","","","","","","","","","","","","","","","","","","","","","feedback_test",""
"","","","","","psychophysics","245","1164300","0.0-14.1-0.1-0.39","929","","k","","","","","","","","","","","","","key","k","16.66812173913071","768","428","k","true","img/C_28.png","朋友","prac_self","","朋友"
"","","","","","html-keyboard-response","246","1164604","0.0-14.1-0.1-1.39","null","<span style='color:GreenYellow; font-size: 70px;'>正确! </span>","null","","","","","","","","","","","","","","","","","","","","","","","feedback_test",""
"","","","","","psychophysics","247","1166444","0.0-14.1-0.1-0.40","836","","j","","","","","","","","","","","","","key","j","16.66391743119131","768","428","j","true","img/S_28.png","朋友","prac_self","","生人"
"","","","","","html-keyboard-response","248","1166755","0.0-14.1-0.1-1.40","null","<span style='color:GreenYellow; font-size: 70px;'>正确! </span>","null","","","","","","","","","","","","","","","","","","","","","","","feedback_test",""
"","","","","","psychophysics","249","1168623","0.0-14.1-0.1-0.41","867","","k","","","","","","","","","","","","","key","k","16.664153153154377","768","428","k","true","img/S_28.png","生人","prac_self","","生人"
"","","","","","html-keyboard-response","250","1168935","0.0-14.1-0.1-1.41","null","<span style='color:GreenYellow; font-size: 70px;'>正确! </span>","null","","","","","","","","","","","","","","","","","","","","","","","feedback_test",""
"","","","","","psychophysics","251","1170880","0.0-14.1-0.1-0.42","941","","j","","","","","","","","","","","","","key","j","16.669939655172318","768","428","j","true","img/C_28.png","自我","prac_self","","朋友"
"","","","","","html-keyboard-response","252","1171185","0.0-14.1-0.1-1.42","null","<span style='color:GreenYellow; font-size: 70px;'>正确! </span>","null","","","","","","","","","","","","","","","","","","","","","","","feedback_test",""
"","","","","","psychophysics","253","1173552","0.0-14.1-0.1-0.43","1364","","j","","","","","","","","","","","","","key","j","16.666914893616426","768","428","j","true","img/C_28.png","生人","prac_self","","朋友"
"","","","","","html-keyboard-response","254","1173855","0.0-14.1-0.1-1.43","null","<span style='color:GreenYellow; font-size: 70px;'>正确! </span>","null","","","","","","","","","","","","","","","","","","","","","","","feedback_test",""
"","","","","","psychophysics","255","1175781","0.0-14.1-0.1-0.44","924","","k","","","","","","","","","","","","","key","k","16.6671052631583","768","428","k","true","img/S_28.png","生人","prac_self","","生人"
"","","","","","html-keyboard-response","256","1176090","0.0-14.1-0.1-1.44","null","<span style='color:GreenYellow; font-size: 70px;'>正确! </span>","null","","","","","","","","","","","","","","","","","","","","","","","feedback_test",""
"","","","","","psychophysics","257","1177936","0.0-14.1-0.1-0.45","831","","d","","","","","","","","","","","","","key","d","16.666899082569167","768","428","d","true","img/H_28.png","自我","prac_self","","自我"
"","","","","","html-keyboard-response","258","1178246","0.0-14.1-0.1-1.45","null","<span style='color:GreenYellow; font-size: 70px;'>正确! </span>","null","","","","","","","","","","","","","","","","","","","","","","","feedback_test",""
"","","","","","psychophysics","259","1179974","0.0-14.1-0.1-0.46","718","","f","","","","","","","","","","","","","key","f","16.667378640776608","768","428","j","false","img/S_28.png","自我","prac_self","","生人"
"","","","","","html-keyboard-response","260","1180295","0.0-14.1-0.1-1.46","null","<span style='color:red; font-size: 70px;'>错误! </span>","null","","","","","","","","","","","","","","","","","","","","","","","feedback_test",""
"","","","","","psychophysics","261","1182142","0.0-14.1-0.1-0.47","836","","k","","","","","","","","","","","","","key","k","16.667254545454952","768","428","k","true","img/C_28.png","朋友","prac_self","","朋友"
"","","","","","html-keyboard-response","262","1182445","0.0-14.1-0.1-1.47","null","<span style='color:GreenYellow; font-size: 70px;'>正确! </span>","null","","","","","","","","","","","","","","","","","","","","","","","feedback_test",""
"","","","","","html-keyboard-response","263","1187277","0.0-15.0","4831","[""<style>.context{color:white; font-size: 35px; line-height:40px}</style>           <div><p class='context'>您正确回答了79% 的试次。</p><p class='context'>您的平均反应时为942毫秒。</p><p class='context'>恭喜您完成这一阶段的练习。按任意键进入<span style='color: yellow;'>重点关注图形为“朋友”</span>的练习。</p></div><p class='footer' style='font-size:35px; line-height:30px;'>任务要求：\n           <p class='footer' style='font-size:35px; line-height:35px;'>对于与“朋友”对应的图形：如果 匹配 ，请按 <span style=\""color: lightgreen;\"">d键</span></p><p class='footer' style='font-size:35px'>如果 不匹配 ，请按<span style=\""color: lightgreen;\"">f键</p></span>\n           <p class='footer' style='font-size:35px; line-height:35px;'>对于非“朋友”对应的图形：如果 匹配 ，请按 <span style=\""color: lightgreen;\"">k键</span></p><p class='footer' style='font-size:35px'>如果 不匹配 ，请按<span style=\""color: lightgreen;\"">j键</p></span>\n           <p class='footer' style='font-size:22px; line-height:25px;'>请在实验过程中将您的<span style=\""color: lightgreen;\"">食指和中指</span>放在电脑键盘的相应键位上进行按键。</p></span>""]"," ","","","","","","","","","","","","","","","","","","","","","","","",""
"","","","","","psychophysics","264","1189545","0.0-16.0-0.0-0.0","1257","","j","","","","","","","","","","","","","key","j","16.66559999999935","768","428","k","false","img/S_28.png","生人","prac_friend","","生人"
"","","","","","html-keyboard-response","265","1189854","0.0-16.0-0.0-1.0","null","<span style='color:red; font-size: 70px;'>错误! </span>","null","","","","","","","","","","","","","","","","","","","","","","","feedback_test",""
"","","","","","psychophysics","266","1191849","0.0-16.0-0.0-0.1","991","","k","","","","","","","","","","","","","key","k","16.667177966101317","768","428","j","false","img/H_28.png","生人","prac_friend","","自我"
"","","","","","html-keyboard-response","267","1192155","0.0-16.0-0.0-1.1","null","<span style='color:red; font-size: 70px;'>错误! </span>","null","","","","","","","","","","","","","","","","","","","","","","","feedback_test",""
"","","","","","psychophysics","268","1194290","0.0-16.0-0.0-0.2","1135","","d","","","","","","","","","","","","","key","d","16.668543307086836","768","428","d","true","img/C_28.png","朋友","prac_friend","","朋友"
"","","","","","html-keyboard-response","269","1194605","0.0-16.0-0.0-1.2","null","<span style='color:GreenYellow; font-size: 70px;'>正确! </span>","null","","","","","","","","","","","","","","","","","","","","","","","feedback_test",""
"","","","","","psychophysics","270","1196364","0.0-16.0-0.0-0.3","757","","f","","","","","","","","","","","","","key","f","16.66293269230608","768","428","f","true","img/C_28.png","生人","prac_friend","","朋友"
"","","","","","html-keyboard-response","271","1196674","0.0-16.0-0.0-1.3","null","<span style='color:GreenYellow; font-size: 70px;'>正确! </span>","null","","","","","","","","","","","","","","","","","","","","","","","feedback_test",""
"","","","","","psychophysics","272","1198660","0.0-16.0-0.0-0.4","984","","j","","","","","","","","","","","","","key","j","16.667406779662628","768","428","j","true","img/H_28.png","朋友","prac_friend","","自我"
"","","","","","html-keyboard-response","273","1198975","0.0-16.0-0.0-1.4","null","<span style='color:GreenYellow; font-size: 70px;'>正确! </span>","null","","","","","","","","","","","","","","","","","","","","","","","feedback_test",""
"","","","","","psychophysics","274","1200653","0.0-16.0-0.0-0.5","664","","k","","","","","","","","","","","","","key","k","16.666101010102366","768","428","k","true","img/H_28.png","自我","prac_friend","","自我"
"","","","","","html-keyboard-response","275","1200965","0.0-16.0-0.0-1.5","null","<span style='color:GreenYellow; font-size: 70px;'>正确! </span>","null","","","","","","","","","","","","","","","","","","","","","","","feedback_test",""
"","","","","","psychophysics","276","1202841","0.0-16.0-0.0-0.6","870","","j","","","","","","","","","","","","","key","j","16.666089285713888","768","428","j","true","img/S_28.png","朋友","prac_friend","","生人"
"","","","","","html-keyboard-response","277","1203154","0.0-16.0-0.0-1.6","null","<span style='color:GreenYellow; font-size: 70px;'>正确! </span>","null","","","","","","","","","","","","","","","","","","","","","","","feedback_test",""
"","","","","","psychophysics","278","1205533","0.0-16.0-0.0-0.7","1378","","d","","","","","","","","","","","","","key","d","16.66536879432652","768","428","d","true","img/C_28.png","朋友","prac_friend","","朋友"
"","","","","","html-keyboard-response","279","1205838","0.0-16.0-0.0-1.7","null","<span style='color:GreenYellow; font-size: 70px;'>正确! </span>","null","","","","","","","","","","","","","","","","","","","","","","","feedback_test",""
"","","","","","psychophysics","280","1207941","0.0-16.0-0.0-0.8","1101","","k","","","","","","","","","","","","","key","k","16.666648000000045","768","428","k","true","img/S_28.png","生人","prac_friend","","生人"
"","","","","","html-keyboard-response","281","1208245","0.0-16.0-0.0-1.8","null","<span style='color:GreenYellow; font-size: 70px;'>正确! </span>","null","","","","","","","","","","","","","","","","","","","","","","","feedback_test",""
"","","","","","psychophysics","282","1210296","0.0-16.0-0.0-0.9","1039","","f","","","","","","","","","","","","","key","f","16.669237704917055","768","428","f","true","img/C_28.png","自我","prac_friend","","朋友"
"","","","","","html-keyboard-response","283","1210614","0.0-16.0-0.0-1.9","null","<span style='color:GreenYellow; font-size: 70px;'>正确! </span>","null","","","","","","","","","","","","","","","","","","","","","","","feedback_test",""
"","","","","","psychophysics","284","1212836","0.0-16.0-0.0-0.10","1213","","k","","","","","","","","","","","","","key","k","16.66709848484871","768","428","k","true","img/H_28.png","自我","prac_friend","","自我"
"","","","","","html-keyboard-response","285","1213154","0.0-16.0-0.0-1.10","null","<span style='color:GreenYellow; font-size: 70px;'>正确! </span>","null","","","","","","","","","","","","","","","","","","","","","","","feedback_test",""
"","","","","","psychophysics","286","1215035","0.0-16.0-0.0-0.11","879","","j","","","","","","","","","","","","","key","j","16.665738738739762","768","428","j","true","img/S_28.png","自我","prac_friend","","生人"
"","","","","","html-keyboard-response","287","1215345","0.0-16.0-0.0-1.11","null","<span style='color:GreenYellow; font-size: 70px;'>正确! </span>","null","","","","","","","","","","","","","","","","","","","","","","","feedback_test",""
"","","","","","psychophysics","288","1217297","0.0-16.0-0.0-0.12","941","","k","","","","","","","","","","","","","key","k","16.669551724138476","768","428","k","true","img/S_28.png","生人","prac_friend","","生人"
"","","","","","html-keyboard-response","289","1217605","0.0-16.0-0.0-1.12","null","<span style='color:GreenYellow; font-size: 70px;'>正确! </span>","null","","","","","","","","","","","","","","","","","","","","","","","feedback_test",""
"","","","","","psychophysics","290","1219444","0.0-16.0-0.0-0.13","838","","j","","","","","","","","","","","","","key","j","16.666633027522405","768","428","j","true","img/S_28.png","自我","prac_friend","","生人"
"","","","","","html-keyboard-response","291","1219765","0.0-16.0-0.0-1.13","null","<span style='color:GreenYellow; font-size: 70px;'>正确! </span>","null","","","","","","","","","","","","","","","","","","","","","","","feedback_test",""
"","","","","","psychophysics","292","1221518","0.0-16.0-0.0-0.14","746","","d","","","","","","","","","","","","","key","d","16.665576923076653","768","428","k","false","img/H_28.png","自我","prac_friend","","自我"
"","","","","","html-keyboard-response","293","1221834","0.0-16.0-0.0-1.14","null","<span style='color:red; font-size: 70px;'>错误! </span>","null","","","","","","","","","","","","","","","","","","","","","","","feedback_test",""
"","","","","","psychophysics","294","1223807","0.0-16.0-0.0-0.15","968","","j","","","","","","","","","","","","","key","j","16.66956779660886","768","428","j","true","img/H_28.png","生人","prac_friend","","自我"
"","","","","","html-keyboard-response","295","1224114","0.0-16.0-0.0-1.15","null","<span style='color:GreenYellow; font-size: 70px;'>正确! </span>","null","","","","","","","","","","","","","","","","","","","","","","","feedback_test",""
"","","","","","psychophysics","296","1226163","0.0-16.0-0.0-0.16","1041","","f","","","","","","","","","","","","","key","f","16.665032786885888","768","428","f","true","img/C_28.png","自我","prac_friend","","朋友"
"","","","","","html-keyboard-response","297","1226464","0.0-16.0-0.0-1.16","null","<span style='color:GreenYellow; font-size: 70px;'>正确! </span>","null","","","","","","","","","","","","","","","","","","","","","","","feedback_test",""
"","","","","","psychophysics","298","1228520","0.0-16.0-0.0-0.17","1049","","j","","","","","","","","","","","","","key","j","16.66636065573653","768","428","j","true","img/H_28.png","朋友","prac_friend","","自我"
"","","","","","html-keyboard-response","299","1228825","0.0-16.0-0.0-1.17","null","<span style='color:GreenYellow; font-size: 70px;'>正确! </span>","null","","","","","","","","","","","","","","","","","","","","","","","feedback_test",""
"","","","","","psychophysics","300","1230708","0.0-16.0-0.0-0.18","870","","d","","","","","","","","","","","","","key","d","16.666571428571064","768","428","d","true","img/C_28.png","朋友","prac_friend","","朋友"
"","","","","","html-keyboard-response","301","1231014","0.0-16.0-0.0-1.18","null","<span style='color:GreenYellow; font-size: 70px;'>正确! </span>","null","","","","","","","","","","","","","","","","","","","","","","","feedback_test",""
"","","","","","psychophysics","302","1232958","0.0-16.0-0.0-0.19","934","","k","","","","","","","","","","","","","key","k","16.66882758620717","768","428","k","true","img/H_28.png","自我","prac_friend","","自我"
"","","","","","html-keyboard-response","303","1233274","0.0-16.0-0.0-1.19","null","<span style='color:GreenYellow; font-size: 70px;'>正确! </span>","null","","","","","","","","","","","","","","","","","","","","","","","feedback_test",""
"","","","","","psychophysics","304","1235299","0.0-16.0-0.0-0.20","1010","","f","","","","","","","","","","","","","key","f","16.66617499999896","768","428","f","true","img/C_28.png","生人","prac_friend","","朋友"
"","","","","","html-keyboard-response","305","1235604","0.0-16.0-0.0-1.20","null","<span style='color:GreenYellow; font-size: 70px;'>正确! </span>","null","","","","","","","","","","","","","","","","","","","","","","","feedback_test",""
"","","","","","psychophysics","306","1237435","0.0-16.0-0.0-0.21","829","","j","","","","","","","","","","","","","key","j","16.66626851851793","768","428","j","true","img/S_28.png","朋友","prac_friend","","生人"
"","","","","","html-keyboard-response","307","1237745","0.0-16.0-0.0-1.21","null","<span style='color:GreenYellow; font-size: 70px;'>正确! </span>","null","","","","","","","","","","","","","","","","","","","","","","","feedback_test",""
"","","","","","psychophysics","308","1239294","0.0-16.0-0.0-0.22","539","","k","","","","","","","","","","","","","key","k","16.668336956521355","768","428","k","true","img/S_28.png","生人","prac_friend","","生人"
"","","","","","html-keyboard-response","309","1239604","0.0-16.0-0.0-1.22","null","<span style='color:GreenYellow; font-size: 70px;'>正确! </span>","null","","","","","","","","","","","","","","","","","","","","","","","feedback_test",""
"","","","","","psychophysics","310","1241770","0.0-16.0-0.0-0.23","1164","","d","","","","","","","","","","","","","key","d","16.66521875000035","768","428","d","true","img/C_28.png","朋友","prac_friend","","朋友"
"","","","","","html-keyboard-response","311","1242072","0.0-16.0-0.0-1.23","null","<span style='color:GreenYellow; font-size: 70px;'>正确! </span>","null","","","","","","","","","","","","","","","","","","","","","","","feedback_test",""
"","","","","","html-keyboard-response","312","1246517","0.0-17.0","4442","[""<style>.context{color:white; font-size: 35px; line-height:40px}</style>               <div><p class='context'>您正确回答了88% 的试次。</p><p class='context'>您的平均反应时为962毫秒。</p><p class='context'>恭喜您完成这一阶段的练习。按任意键进入<span style='color: yellow;'>重点关注图形为“生人”</span>的练习。</p></div><p class='footer' style='font-size:35px; line-height:30px;'>任务要求：\n               <p class='footer' style='font-size:35px; line-height:35px;'>对与“生人”对应的图形，如果 匹配 ，请按 <span style=\""color: lightgreen;\"">d键</span></p><p class='footer' style='font-size:35px'>如果 不匹配 ，请按<span style=\""color: lightgreen;\"">f键</p></span>\n               <p class='footer' style='font-size:35px; line-height:35px;'>对非“生人”对应的图形，如果 匹配 ，请按 <span style=\""color: lightgreen;\"">k键</span></p><p class='footer' style='font-size:35px'>如果 不匹配 ，请按<span style=\""color: lightgreen;\"">j键</p></span>\n               <p class='footer' style='font-size:22px; line-height:25px;'>请在实验过程中将您的<span style=\""color: lightgreen;\"">食指和中指</span>放在电脑键盘的相应键位上进行按键。</p></span>""]"," ","","","","","","","","","","","","","","","","","","","","","","","",""
"","","","","","psychophysics","313","1248824","0.0-18.0-0.0-0.0","1301","","k","","","","","","","","","","","","","key","k","16.669427536232263","768","428","k","true","img/H_28.png","自我","prac_stranger","","自我"
"","","","","","html-keyboard-response","314","1249145","0.0-18.0-0.0-1.0","null","<span style='color:GreenYellow; font-size: 70px;'>正确! </span>","null","","","","","","","","","","","","","","","","","","","","","","","feedback_test",""
"","","","","","psychophysics","315","1251554","0.0-18.0-0.0-0.1","1399","","k","","","","","","","","","","","","","key","k","16.668993006992785","768","428","k","true","img/C_28.png","朋友","prac_stranger","","朋友"
"","","","","","html-keyboard-response","316","1251865","0.0-18.0-0.0-1.1","null","<span style='color:GreenYellow; font-size: 70px;'>正确! </span>","null","","","","","","","","","","","","","","","","","","","","","","","feedback_test",""
"","","","","","psychophysics","317","1253862","0.0-18.0-0.0-0.2","991","","j","","","","","","","","","","","","","key","j","16.667428571429543","768","428","j","true","img/C_28.png","自我","prac_stranger","","朋友"
"","","","","","html-keyboard-response","318","1254175","0.0-18.0-0.0-1.2","null","<span style='color:GreenYellow; font-size: 70px;'>正确! </span>","null","","","","","","","","","","","","","","","","","","","","","","","feedback_test",""
"","","","","","psychophysics","319","1256378","0.0-18.0-0.0-0.3","1200","","j","","","","","","","","","","","","","key","j","16.664427480916316","768","428","j","true","img/H_28.png","朋友","prac_stranger","","自我"
"","","","","","html-keyboard-response","320","1256684","0.0-18.0-0.0-1.3","null","<span style='color:GreenYellow; font-size: 70px;'>正确! </span>","null","","","","","","","","","","","","","","","","","","","","","","","feedback_test",""
"","","","","","psychophysics","321","1258834","0.0-18.0-0.0-0.4","1142","","k","","","","","","","","","","","","","key","k","16.668374999999287","768","428","k","true","img/C_28.png","朋友","prac_stranger","","朋友"
"","","","","","html-keyboard-response","322","1259154","0.0-18.0-0.0-1.4","null","<span style='color:GreenYellow; font-size: 70px;'>正确! </span>","null","","","","","","","","","","","","","","","","","","","","","","","feedback_test",""
"","","","","","psychophysics","323","1261248","0.0-18.0-0.0-0.5","1092","","d","","","","","","","","","","","","","key","d","16.66610483871022","768","428","d","true","img/S_28.png","生人","prac_stranger","","生人"
"","","","","","html-keyboard-response","324","1261565","0.0-18.0-0.0-1.5","null","<span style='color:GreenYellow; font-size: 70px;'>正确! </span>","null","","","","","","","","","","","","","","","","","","","","","","","feedback_test",""
"","","","","","psychophysics","325","1263513","0.0-18.0-0.0-0.6","940","","j","","","","","","","","","","","","","key","j","16.666706896551627","768","428","j","true","img/C_28.png","生人","prac_stranger","","朋友"
"","","","","","html-keyboard-response","326","1263825","0.0-18.0-0.0-1.6","null","<span style='color:GreenYellow; font-size: 70px;'>正确! </span>","null","","","","","","","","","","","","","","","","","","","","","","","feedback_test",""
"","","","","","psychophysics","327","1265940","0.0-18.0-0.0-0.7","1101","","j","","","","","","","","","","","","","key","j","16.664349206348156","768","428","f","false","img/S_28.png","自我","prac_stranger","","生人"
"","","","","","html-keyboard-response","328","1266254","0.0-18.0-0.0-1.7","null","<span style='color:red; font-size: 70px;'>错误! </span>","null","","","","","","","","","","","","","","","","","","","","","","","feedback_test",""
"","","","","","psychophysics","329","1268466","0.0-18.0-0.0-0.8","1210","","f","","","","","","","","","","","","","key","f","16.663916030534338","768","428","f","true","img/S_28.png","朋友","prac_stranger","","生人"
"","","","","","html-keyboard-response","330","1268784","0.0-18.0-0.0-1.8","null","<span style='color:GreenYellow; font-size: 70px;'>正确! </span>","null","","","","","","","","","","","","","","","","","","","","","","","feedback_test",""
"","","","","","psychophysics","331","1270741","0.0-18.0-0.0-0.9","952","","k","","","","","","","","","","","","","key","k","16.666965811967085","768","428","k","true","img/H_28.png","自我","prac_stranger","","自我"
"","","","","","html-keyboard-response","332","1271054","0.0-18.0-0.0-1.9","null","<span style='color:GreenYellow; font-size: 70px;'>正确! </span>","null","","","","","","","","","","","","","","","","","","","","","","","feedback_test",""
"","","","","","psychophysics","333","1272876","0.0-18.0-0.0-0.10","817","","j","","","","","","","","","","","","","key","j","16.667694444444756","768","428","j","true","img/H_28.png","生人","prac_stranger","","自我"
"","","","","","html-keyboard-response","334","1273194","0.0-18.0-0.0-1.10","null","<span style='color:GreenYellow; font-size: 70px;'>正确! </span>","null","","","","","","","","","","","","","","","","","","","","","","","feedback_test",""
"","","","","","psychophysics","335","1275198","0.0-18.0-0.0-0.11","993","","d","","","","","","","","","","","","","key","d","16.668949579831775","768","428","d","true","img/S_28.png","生人","prac_stranger","","生人"
"","","","","","html-keyboard-response","336","1275505","0.0-18.0-0.0-1.11","null","<span style='color:GreenYellow; font-size: 70px;'>正确! </span>","null","","","","","","","","","","","","","","","","","","","","","","","feedback_test",""
"","","","","","psychophysics","337","1277626","0.0-18.0-0.0-0.12","1119","","k","","","","","","","","","","","","","key","k","16.663841269840116","768","428","k","true","img/C_28.png","朋友","prac_stranger","","朋友"
"","","","","","html-keyboard-response","338","1277945","0.0-18.0-0.0-1.12","null","<span style='color:GreenYellow; font-size: 70px;'>正确! </span>","null","","","","","","","","","","","","","","","","","","","","","","","feedback_test",""
"","","","","","psychophysics","339","1279929","0.0-18.0-0.0-0.13","973","","d","","","","","","","","","","","","","key","d","16.666440677965234","768","428","f","false","img/S_28.png","自我","prac_stranger","","生人"
"","","","","","html-keyboard-response","340","1280244","0.0-18.0-0.0-1.13","null","<span style='color:red; font-size: 70px;'>错误! </span>","null","","","","","","","","","","","","","","","","","","","","","","","feedback_test",""
"","","","","","psychophysics","341","1282174","0.0-18.0-0.0-0.14","920","","d","","","","","","","","","","","","","key","d","16.6656260869567","768","428","d","true","img/S_28.png","生人","prac_stranger","","生人"
"","","","","","html-keyboard-response","342","1282484","0.0-18.0-0.0-1.14","null","<span style='color:GreenYellow; font-size: 70px;'>正确! </span>","null","","","","","","","","","","","","","","","","","","","","","","","feedback_test",""
"","","","","","psychophysics","343","1284533","0.0-18.0-0.0-0.15","1044","","j","","","","","","","","","","","","","key","j","16.666352459015783","768","428","j","true","img/H_28.png","生人","prac_stranger","","自我"
"","","","","","html-keyboard-response","344","1284844","0.0-18.0-0.0-1.15","null","<span style='color:GreenYellow; font-size: 70px;'>正确! </span>","null","","","","","","","","","","","","","","","","","","","","","","","feedback_test",""
"","","","","","psychophysics","345","1286901","0.0-18.0-0.0-0.16","1044","","k","","","","","","","","","","","","","key","k","16.66804918032674","768","428","k","true","img/H_28.png","自我","prac_stranger","","自我"
"","","","","","html-keyboard-response","346","1287206","0.0-18.0-0.0-1.16","null","<span style='color:GreenYellow; font-size: 70px;'>正确! </span>","null","","","","","","","","","","","","","","","","","","","","","","","feedback_test",""
"","","","","","psychophysics","347","1289140","0.0-18.0-0.0-0.17","933","","k","","","","","","","","","","","","","key","k","16.6687043478267","768","428","k","true","img/C_28.png","朋友","prac_stranger","","朋友"
"","","","","","html-keyboard-response","348","1289455","0.0-18.0-0.0-1.17","null","<span style='color:GreenYellow; font-size: 70px;'>正确! </span>","null","","","","","","","","","","","","","","","","","","","","","","","feedback_test",""
"","","","","","psychophysics","349","1291408","0.0-18.0-0.0-0.18","946","","k","","","","","","","","","","","","","key","k","16.66714655172385","768","428","k","true","img/H_28.png","自我","prac_stranger","","自我"
"","","","","","html-keyboard-response","350","1291724","0.0-18.0-0.0-1.18","null","<span style='color:GreenYellow; font-size: 70px;'>正确! </span>","null","","","","","","","","","","","","","","","","","","","","","","","feedback_test",""
"","","","","","psychophysics","351","1293554","0.0-18.0-0.0-0.19","820","","j","","","","","","","","","","","","","key","j","16.666731481481325","768","428","j","true","img/C_28.png","生人","prac_stranger","","朋友"
"","","","","","html-keyboard-response","352","1293860","0.0-18.0-0.0-1.19","null","<span style='color:GreenYellow; font-size: 70px;'>正确! </span>","null","","","","","","","","","","","","","","","","","","","","","","","feedback_test",""
"","","","","","psychophysics","353","1295681","0.0-18.0-0.0-0.20","809","","j","","","","","","","","","","","","","key","j","16.66703703703738","768","428","j","true","img/C_28.png","自我","prac_stranger","","朋友"
"","","","","","html-keyboard-response","354","1295989","0.0-18.0-0.0-1.20","null","<span style='color:GreenYellow; font-size: 70px;'>正确! </span>","null","","","","","","","","","","","","","","","","","","","","","","","feedback_test",""
"","","","","","psychophysics","355","1297630","0.0-18.0-0.0-0.21","640","","d","","","","","","","","","","","","","key","d","16.66709278350379","768","428","d","true","img/S_28.png","生人","prac_stranger","","生人"
"","","","","","html-keyboard-response","356","1297934","0.0-18.0-0.0-1.21","null","<span style='color:GreenYellow; font-size: 70px;'>正确! </span>","null","","","","","","","","","","","","","","","","","","","","","","","feedback_test",""
"","","","","","psychophysics","357","1299532","0.0-18.0-0.0-0.22","592","","f","","","","","","","","","","","","","key","f","16.669115789474823","768","428","f","true","img/S_28.png","朋友","prac_stranger","","生人"
"","","","","","html-keyboard-response","358","1299835","0.0-18.0-0.0-1.22","null","<span style='color:GreenYellow; font-size: 70px;'>正确! </span>","null","","","","","","","","","","","","","","","","","","","","","","","feedback_test",""
"","","","","","psychophysics","359","1301787","0.0-18.0-0.0-0.23","947","","j","","","","","","","","","","","","","key","j","16.667379310344554","768","428","j","true","img/H_28.png","朋友","prac_stranger","","自我"
"","","","","","html-keyboard-response","360","1302104","0.0-18.0-0.0-1.23","null","<span style='color:GreenYellow; font-size: 70px;'>正确! </span>","null","","","","","","","","","","","","","","","","","","","","","","","feedback_test",""
"","","","","","html-keyboard-response","361","1311021","0.0-19.0","8915","[""<style>.context{color:white; font-size: 35px; line-height:40px}</style>                                     <div><p class='context'>您正确回答了92% 的试次。</p><p class='context'>您的平均反应时为993毫秒。</p><p class='context'>恭喜您完成练习。您可以在此时休息一段时间，准备好后按任意键进入正式实验。</p><p class='footer' style='font-size: 35px; line-height:40px;'>请在进入正式实验实验之前将您的<span style='color: lightgreen;'>食指和中指</span>放在电脑键盘的相应键位上，做好按键准备。</p>""]"," ","","","","","","","","","","","","","","","","","","","","","","","",""
"","","","","","html-keyboard-response","362","1315634","0.0-20.0-1.0-0.0","4610","
                 <p>请您将食指和中指放在相应按键上，准备进入<span style='color: yellow;'>重点图形为“朋友”对应图形</span>的正式匹配任务</p>
                 <p> <div style = ""color: green""><按任意键开始></div></p>
                 "," ","","","","","","","","","","","","","","","","","","","","","","","",""
"","","","","","psychophysics","363","1317787","0.0-20.0-1.0-1.0-0.0-0.0","1147","","j","","","","","","","","","","","","","key","j","16.666296875000626","768","428","j","true","img/H_28.png","生人","friend","","自我"
"","","","","","html-keyboard-response","364","1318089","0.0-20.0-1.0-1.0-0.0-1.0","null","<span style='color:GreenYellow; font-size: 70px;'>正确! </span>","null","","","","","","","","","","","","","","","","","","","","","","","feedback_test",""
"","","","","","psychophysics","365","1319915","0.0-20.0-1.0-1.0-0.0-0.1","824","","j","","","","","","","","","","","","","key","j","16.666703703703305","768","428","j","true","img/H_28.png","朋友","friend","","自我"
"","","","","","html-keyboard-response","366","1320220","0.0-20.0-1.0-1.0-0.0-1.1","null","<span style='color:GreenYellow; font-size: 70px;'>正确! </span>","null","","","","","","","","","","","","","","","","","","","","","","","feedback_test",""
"","","","","","psychophysics","367","1322208","0.0-20.0-1.0-1.0-0.0-0.2","986","","k","","","","","","","","","","","","","key","k","16.647144067795725","768","428","k","true","img/H_28.png","自我","friend","","自我"
"","","","","","html-keyboard-response","368","1322524","0.0-20.0-1.0-1.0-0.0-1.2","null","<span style='color:GreenYellow; font-size: 70px;'>正确! </span>","null","","","","","","","","","","","","","","","","","","","","","","","feedback_test",""
"","","","","","psychophysics","369","1325026","0.0-20.0-1.0-1.0-0.0-0.3","1501","","k","","","","","","","","","","","","","key","k","16.665979865772787","768","428","k","true","img/S_28.png","生人","friend","","生人"
"","","","","","html-keyboard-response","370","1325345","0.0-20.0-1.0-1.0-0.0-1.3","null","<span class='add_' style='color:yellow; font-size: 70px;'> 太慢! </span>","null","","","","","","","","","","","","","","","","","","","","","","","feedback_test",""
"","","","","","psychophysics","371","1327143","0.0-20.0-1.0-1.0-0.0-0.4","787","","k","","","","","","","","","","","","","key","k","16.6674485981299","768","428","k","true","img/H_28.png","自我","friend","","自我"
"","","","","","html-keyboard-response","372","1327454","0.0-20.0-1.0-1.0-0.0-1.4","null","<span style='color:GreenYellow; font-size: 70px;'>正确! </span>","null","","","","","","","","","","","","","","","","","","","","","","","feedback_test",""
"","","","","","psychophysics","373","1329312","0.0-20.0-1.0-1.0-0.0-0.5","857","","j","","","","","","","","","","","","","key","j","16.66435454545585","768","428","j","true","img/S_28.png","朋友","friend","","生人"
"","","","","","html-keyboard-response","374","1329621","0.0-20.0-1.0-1.0-0.0-1.5","null","<span style='color:GreenYellow; font-size: 70px;'>正确! </span>","null","","","","","","","","","","","","","","","","","","","","","","","feedback_test",""
"","","","","","psychophysics","375","1331213","0.0-20.0-1.0-1.0-0.0-0.6","590","","d","","","","","","","","","","","","","key","d","16.663829787235528","768","428","d","true","img/C_28.png","朋友","friend","","朋友"
"","","","","","html-keyboard-response","376","1331515","0.0-20.0-1.0-1.0-0.0-1.6","null","<span style='color:GreenYellow; font-size: 70px;'>正确! </span>","null","","","","","","","","","","","","","","","","","","","","","","","feedback_test",""
"","","","","","psychophysics","377","1333712","0.0-20.0-1.0-1.0-0.0-0.7","1189","","j","","","","","","","","","","","","","key","j","16.667091603054956","768","428","j","true","img/S_28.png","自我","friend","","生人"
"","","","","","html-keyboard-response","378","1334015","0.0-20.0-1.0-1.0-0.0-1.7","null","<span style='color:GreenYellow; font-size: 70px;'>正确! </span>","null","","","","","","","","","","","","","","","","","","","","","","","feedback_test",""
"","","","","","psychophysics","379","1336179","0.0-20.0-1.0-1.0-0.0-0.8","1157","","f","","","","","","","","","","","","","key","f","16.66560465116198","768","428","f","true","img/C_28.png","生人","friend","","朋友"
"","","","","","html-keyboard-response","380","1336494","0.0-20.0-1.0-1.0-0.0-1.8","null","<span style='color:GreenYellow; font-size: 70px;'>正确! </span>","null","","","","","","","","","","","","","","","","","","","","","","","feedback_test",""
"","","","","","psychophysics","381","1338542","0.0-20.0-1.0-1.0-0.0-0.9","1037","","j","","","","","","","","","","","","","key","j","16.666852459015676","768","428","k","false","img/S_28.png","生人","friend","","生人"
"","","","","","html-keyboard-response","382","1338855","0.0-20.0-1.0-1.0-0.0-1.9","null","<span style='color:red; font-size: 70px;'>错误! </span>","null","","","","","","","","","","","","","","","","","","","","","","","feedback_test",""
"","","","","","psychophysics","383","1340680","0.0-20.0-1.0-1.0-0.0-0.10","823","","d","","","","","","","","","","","","","key","d","16.666833333332626","768","428","d","true","img/C_28.png","朋友","friend","","朋友"
"","","","","","html-keyboard-response","384","1340984","0.0-20.0-1.0-1.0-0.0-1.10","null","<span style='color:GreenYellow; font-size: 70px;'>正确! </span>","null","","","","","","","","","","","","","","","","","","","","","","","feedback_test",""
"","","","","","psychophysics","385","1343086","0.0-20.0-1.0-1.0-0.0-0.11","1097","","f","","","","","","","","","","","","","key","f","16.66704000000097","768","428","f","true","img/C_28.png","自我","friend","","朋友"
"","","","","","html-keyboard-response","386","1343405","0.0-20.0-1.0-1.0-0.0-1.11","null","<span style='color:GreenYellow; font-size: 70px;'>正确! </span>","null","","","","","","","","","","","","","","","","","","","","","","","feedback_test",""
"","","","","","psychophysics","387","1345315","0.0-20.0-1.0-1.0-0.0-0.12","909","","j","","","","","","","","","","","","","key","j","16.66469026548557","768","428","j","true","img/H_28.png","朋友","friend","","自我"
"","","","","","html-keyboard-response","388","1345624","0.0-20.0-1.0-1.0-0.0-1.12","null","<span style='color:GreenYellow; font-size: 70px;'>正确! </span>","null","","","","","","","","","","","","","","","","","","","","","","","feedback_test",""
"","","","","","psychophysics","389","1347665","0.0-20.0-1.0-1.0-0.0-0.13","1025","","d","","","","","","","","","","","","","key","d","16.667008264461717","768","428","k","false","img/S_28.png","生人","friend","","生人"
"","","","","","html-keyboard-response","390","1347974","0.0-20.0-1.0-1.0-0.0-1.13","null","<span style='color:red; font-size: 70px;'>错误! </span>","null","","","","","","","","","","","","","","","","","","","","","","","feedback_test",""
"","","","","","psychophysics","391","1349924","0.0-20.0-1.0-1.0-0.0-0.14","935","","j","","","","","","","","","","","","","key","j","16.663387931034308","768","428","j","true","img/H_28.png","生人","friend","","自我"
"","","","","","html-keyboard-response","392","1350245","0.0-20.0-1.0-1.0-0.0-1.14","null","<span style='color:GreenYellow; font-size: 70px;'>正确! </span>","null","","","","","","","","","","","","","","","","","","","","","","","feedback_test",""
"","","","","","psychophysics","393","1352080","0.0-20.0-1.0-1.0-0.0-0.15","824","","k","","","","","","","","","","","","","key","k","16.66444954128483","768","428","k","true","img/S_28.png","生人","friend","","生人"
"","","","","","html-keyboard-response","394","1352384","0.0-20.0-1.0-1.0-0.0-1.15","null","<span style='color:GreenYellow; font-size: 70px;'>正确! </span>","null","","","","","","","","","","","","","","","","","","","","","","","feedback_test",""
"","","","","","psychophysics","395","1354166","0.0-20.0-1.0-1.0-0.0-0.16","777","","j","","","","","","","","","","","","","key","j","16.667396226414603","768","428","j","true","img/S_28.png","朋友","friend","","生人"
"","","","","","html-keyboard-response","396","1354484","0.0-20.0-1.0-1.0-0.0-1.16","null","<span style='color:GreenYellow; font-size: 70px;'>正确! </span>","null","","","","","","","","","","","","","","","","","","","","","","","feedback_test",""
"","","","","","psychophysics","397","1356048","0.0-20.0-1.0-1.0-0.0-0.17","555","","d","","","","","","","","","","","","","key","d","16.66733333333245","768","428","d","true","img/C_28.png","朋友","friend","","朋友"
"","","","","","html-keyboard-response","398","1356354","0.0-20.0-1.0-1.0-0.0-1.17","null","<span style='color:GreenYellow; font-size: 70px;'>正确! </span>","null","","","","","","","","","","","","","","","","","","","","","","","feedback_test",""
"","","","","","psychophysics","399","1358149","0.0-20.0-1.0-1.0-0.0-0.18","794","","d","","","","","","","","","","","","","key","d","16.655471698115228","768","428","d","true","img/C_28.png","朋友","friend","","朋友"
"","","","","","html-keyboard-response","400","1358455","0.0-20.0-1.0-1.0-0.0-1.18","null","<span style='color:GreenYellow; font-size: 70px;'>正确! </span>","null","","","","","","","","","","","","","","","","","","","","","","","feedback_test",""
"","","","","","psychophysics","401","1360099","0.0-20.0-1.0-1.0-0.0-0.19","644","","f","","","","","","","","","","","","","key","f","16.65277319587767","768","428","f","true","img/C_28.png","生人","friend","","朋友"
"","","","","","html-keyboard-response","402","1360405","0.0-20.0-1.0-1.0-0.0-1.19","null","<span style='color:GreenYellow; font-size: 70px;'>正确! </span>","null","","","","","","","","","","","","","","","","","","","","","","","feedback_test",""
"","","","","","psychophysics","403","1362309","0.0-20.0-1.0-1.0-0.0-0.20","903","","j","","","","","","","","","","","","","key","j","16.665309734512697","768","428","j","true","img/S_28.png","自我","friend","","生人"
"","","","","","html-keyboard-response","404","1362624","0.0-20.0-1.0-1.0-0.0-1.20","null","<span style='color:GreenYellow; font-size: 70px;'>正确! </span>","null","","","","","","","","","","","","","","","","","","","","","","","feedback_test",""
"","","","","","psychophysics","405","1364892","0.0-20.0-1.0-1.0-0.0-0.21","1253","","f","","","","","","","","","","","","","key","f","16.66696296296324","768","428","f","true","img/C_28.png","自我","friend","","朋友"
"","","","","","html-keyboard-response","406","1365204","0.0-20.0-1.0-1.0-0.0-1.21","null","<span style='color:GreenYellow; font-size: 70px;'>正确! </span>","null","","","","","","","","","","","","","","","","","","","","","","","feedback_test",""
"","","","","","psychophysics","407","1367415","0.0-20.0-1.0-1.0-0.0-0.22","1209","","k","","","","","","","","","","","","","key","k","16.66496946564911","768","428","k","true","img/H_28.png","自我","friend","","自我"
"","","","","","html-keyboard-response","408","1367734","0.0-20.0-1.0-1.0-0.0-1.22","null","<span style='color:GreenYellow; font-size: 70px;'>正确! </span>","null","","","","","","","","","","","","","","","","","","","","","","","feedback_test",""
"","","","","","psychophysics","409","1369398","0.0-20.0-1.0-1.0-0.0-0.23","658","","k","","","","","","","","","","","","","key","k","16.66872727272637","768","428","k","true","img/H_28.png","自我","friend","","自我"
"","","","","","html-keyboard-response","410","1369706","0.0-20.0-1.0-1.0-0.0-1.23","null","<span style='color:GreenYellow; font-size: 70px;'>正确! </span>","null","","","","","","","","","","","","","","","","","","","","","","","feedback_test",""
"","","","","","psychophysics","411","1371397","0.0-20.0-1.0-1.0-0.0-0.24","689","","j","","","","","","","","","","","","","key","j","16.66709999999963","768","428","j","true","img/S_28.png","朋友","friend","","生人"
"","","","","","html-keyboard-response","412","1371710","0.0-20.0-1.0-1.0-0.0-1.24","null","<span style='color:GreenYellow; font-size: 70px;'>正确! </span>","null","","","","","","","","","","","","","","","","","","","","","","","feedback_test",""
"","","","","","psychophysics","413","1373388","0.0-20.0-1.0-1.0-0.0-0.25","665","","k","","","","","","","","","","","","","key","k","16.66461616161637","768","428","k","true","img/S_28.png","生人","friend","","生人"
"","","","","","html-keyboard-response","414","1373705","0.0-20.0-1.0-1.0-0.0-1.25","null","<span style='color:GreenYellow; font-size: 70px;'>正确! </span>","null","","","","","","","","","","","","","","","","","","","","","","","feedback_test",""
"","","","","","psychophysics","415","1375336","0.0-20.0-1.0-1.0-0.0-0.26","630","","j","","","","","","","","","","","","","key","j","16.655062499999378","768","428","j","true","img/H_28.png","生人","friend","","自我"
"","","","","","html-keyboard-response","416","1375645","0.0-20.0-1.0-1.0-0.0-1.26","null","<span style='color:GreenYellow; font-size: 70px;'>正确! </span>","null","","","","","","","","","","","","","","","","","","","","","","","feedback_test",""
"","","","","","psychophysics","417","1377496","0.0-20.0-1.0-1.0-0.0-0.27","841","","j","","","","","","","","","","","","","key","j","16.667648648650193","768","428","j","true","img/H_28.png","朋友","friend","","自我"
"","","","","","html-keyboard-response","418","1377805","0.0-20.0-1.0-1.0-0.0-1.27","null","<span style='color:GreenYellow; font-size: 70px;'>正确! </span>","null","","","","","","","","","","","","","","","","","","","","","","","feedback_test",""
"","","","","","psychophysics","419","1379548","0.0-20.0-1.0-1.0-0.0-0.28","742","","f","","","","","","","","","","","","","key","f","16.66730097087227","768","428","f","true","img/C_28.png","生人","friend","","朋友"
"","","","","","html-keyboard-response","420","1379865","0.0-20.0-1.0-1.0-0.0-1.28","null","<span style='color:GreenYellow; font-size: 70px;'>正确! </span>","null","","","","","","","","","","","","","","","","","","","","","","","feedback_test",""
"","","","","","psychophysics","421","1381776","0.0-20.0-1.0-1.0-0.0-0.29","903","","j","","","","","","","","","","","","","key","j","16.665780701754173","768","428","k","false","img/S_28.png","生人","friend","","生人"
