"success","timeout","failed_images","failed_audio","failed_video","trial_type","trial_index","time_elapsed","internal_node_id","rt","stimulus","response","value","item_width_mm","item_height_mm","item_width_px","px2mm","view_dist_mm","item_width_deg","px2deg","scale_factor","win_width_deg","win_height_deg","view_history","response_type","key_press","avg_frame_time","center_x","center_y","correct_response","correct","Image","text","condition","screen_id","label"
"true","false","[]","[]","[]","preload","0","465","0.0-0.0","","","","","","","","","","","","","","","","","","","","","","","","","","",""
"","","","","","html-keyboard-response","1","52916","0.0-1.0","52450","
     <p>您好，欢迎参加本次实验。</p>
     <p>为充分保障您的权利，请确保您已经知晓并同意《参与实验同意书》以及《数据公开知情同意书》。</p>
     <p>如果您未见过上述内容，请咨询实验员。</p>
     <p>如果您选择继续实验，则表示您已经清楚两份知情同意书的内容并同意。</p>
     <p> <div style = ""color: green""><按任意键至下页></div> </p>
     ","d","","","","","","","","","","","","","","","","","","","","","","","",""
"","","","","","html-keyboard-response","2","54846","0.0-2.0","1933","
     <p>本实验首先需要您填写一些基本个人信息。</p>
     <p> <div style = ""color: green""><按任意键至下页></div></p>
     ","d","","","","","","","","","","","","","","","","","","","","","","","",""
"","","","","","call-function","3","54848","0.0-3.0-0.0","","","","","","","","","","","","","","","","","","","","","","","","","","",""
"","","","","","survey-html-form","4","60189","0.0-3.0-1.0","5340","","{""Q0"":""46""}","","","","","","","","","","","","","","","","","","","","","","","",""
"","","","","","html-button-response","5","61029","0.0-3.0-2.0","837","<p style = 'color : white'>您的性别</p>","0","","","","","","","","","","","","","","","","","","","","","","","",""
"","","","","","survey-html-form","6","64597","0.0-3.0-3.0","3566","","{""Q0"":""2001""}","","","","","","","","","","","","","","","","","","","","","","","",""
"","","","","","survey-html-form","7","66221","0.0-3.0-4.0","1623","","{""Q0"":""5""}","","","","","","","","","","","","","","","","","","","","","","","",""
"","","","","","virtual-chinrest","8","166903","0.0-4.0","100686","","","","85.6","53.98","328.7612875931176","3.839931839087613","745.09","6.575225751862351","50","0.760430164482765","20.48","12.5","","","","","","","","","","","","",""
"true","","","","","fullscreen","9","170823","0.0-5.0","","","","","","","","","","","","","","","","","","","","","","","","","","",""
"","","","","","instructions","10","240009","0.0-6.0","69189","","","","","","","","","","","","","","[{""page_index"":0,""viewing_time"":3581},{""page_index"":1,""viewing_time"":31656},{""page_index"":2,""viewing_time"":25912},{""page_index"":3,""viewing_time"":3464},{""page_index"":4,""viewing_time"":4576}]","","","","","","","","","","","",""
"","","","","","instructions","11","274013","0.0-7.0","34007","","","","","","","","","","","","","","[{""page_index"":0,""viewing_time"":34006}]","","","","","","","","","","","",""
"","","","","","psychophysics","12","276607","0.0-8.0-0.0-0.0","1584","","j","","","","","","","","","","","","","key","j","16.666000000000086","512","380","j","true","img/H_28.png","朋友","freeprac_self","",""
"","","","","","html-keyboard-response","13","276911","0.0-8.0-0.0-1.0","null","<span style='color:GreenYellow; font-size: 70px;'>正确! </span>","null","","","","","","","","","","","","","","","","","","","","","","","feedback_test",""
"","","","","","psychophysics","14","279277","0.0-8.0-0.0-0.1","1364","","f","","","","","","","","","","","","","key","f","16.66600000000012","512","380","d","false","img/S_28.png","生人","freeprac_self","",""
"","","","","","html-keyboard-response","15","279582","0.0-8.0-0.0-1.1","null","<span style='color:red; font-size: 70px;'>错误! </span>","null","","","","","","","","","","","","","","","","","","","","","","","feedback_test",""
"","","","","","psychophysics","16","281989","0.0-8.0-0.0-0.2","1397","","k","","","","","","","","","","","","","key","k","16.666000000000086","512","380","d","false","img/C_28.png","朋友","freeprac_self","",""
"","","","","","html-keyboard-response","17","282294","0.0-8.0-0.0-1.2","null","<span style='color:red; font-size: 70px;'>错误! </span>","null","","","","","","","","","","","","","","","","","","","","","","","feedback_test",""
"","","","","","psychophysics","18","284256","0.0-8.0-0.0-0.3","960","","f","","","","","","","","","","","","","key","f","16.666000000000174","512","380","f","true","img/C_28.png","生人","freeprac_self","",""
"","","","","","html-keyboard-response","19","284559","0.0-8.0-0.0-1.3","null","<span style='color:GreenYellow; font-size: 70px;'>正确! </span>","null","","","","","","","","","","","","","","","","","","","","","","","feedback_test",""
"","","","","","psychophysics","20","286639","0.0-8.0-0.0-0.4","1076","","f","","","","","","","","","","","","","key","f","16.665999999999787","512","380","f","true","img/S_28.png","自我","freeprac_self","",""
"","","","","","html-keyboard-response","21","286943","0.0-8.0-0.0-1.4","null","<span style='color:GreenYellow; font-size: 70px;'>正确! </span>","null","","","","","","","","","","","","","","","","","","","","","","","feedback_test",""
"","","","","","psychophysics","22","289109","0.0-8.0-0.0-0.5","1163","","f","","","","","","","","","","","","","key","f","16.665999999999922","512","380","j","false","img/H_28.png","生人","freeprac_self","",""
"","","","","","html-keyboard-response","23","289415","0.0-8.0-0.0-1.5","null","<span style='color:red; font-size: 70px;'>错误! </span>","null","","","","","","","","","","","","","","","","","","","","","","","feedback_test",""
"","","","","","psychophysics","24","291469","0.0-8.0-0.0-0.6","1047","","j","","","","","","","","","","","","","key","j","16.665999999999823","512","380","k","false","img/H_28.png","自我","freeprac_self","",""
"","","","","","html-keyboard-response","25","291775","0.0-8.0-0.0-1.6","null","<span style='color:red; font-size: 70px;'>错误! </span>","null","","","","","","","","","","","","","","","","","","","","","","","feedback_test",""
"","","","","","psychophysics","26","293941","0.0-8.0-0.0-0.7","1162","","j","","","","","","","","","","","","","key","j","16.665999999999922","512","380","f","false","img/C_28.png","自我","freeprac_self","",""
"","","","","","html-keyboard-response","27","294247","0.0-8.0-0.0-1.7","null","<span style='color:red; font-size: 70px;'>错误! </span>","null","","","","","","","","","","","","","","","","","","","","","","","feedback_test",""
"","","","","","psychophysics","28","296440","0.0-8.0-0.0-0.8","1186","","j","","","","","","","","","","","","","key","j","16.665999999999677","512","380","k","false","img/H_28.png","自我","freeprac_self","",""
"","","","","","html-keyboard-response","29","296743","0.0-8.0-0.0-1.8","null","<span style='color:red; font-size: 70px;'>错误! </span>","null","","","","","","","","","","","","","","","","","","","","","","","feedback_test",""
"","","","","","psychophysics","30","299013","0.0-8.0-0.0-0.9","1268","","f","","","","","","","","","","","","","key","f","16.666000000000007","512","380","d","false","img/C_28.png","朋友","freeprac_self","",""
"","","","","","html-keyboard-response","31","299319","0.0-8.0-0.0-1.9","null","<span style='color:red; font-size: 70px;'>错误! </span>","null","","","","","","","","","","","","","","","","","","","","","","","feedback_test",""
"","","","","","psychophysics","32","301406","0.0-8.0-0.0-0.10","1084","","f","","","","","","","","","","","","","key","f","16.665999999999787","512","380","d","false","img/S_28.png","生人","freeprac_self","",""
"","","","","","html-keyboard-response","33","301711","0.0-8.0-0.0-1.10","null","<span style='color:red; font-size: 70px;'>错误! </span>","null","","","","","","","","","","","","","","","","","","","","","","","feedback_test",""
"","","","","","psychophysics","34","303773","0.0-8.0-0.0-0.11","1061","","f","","","","","","","","","","","","","key","f","16.666000000000302","512","380","f","true","img/S_28.png","朋友","freeprac_self","",""
"","","","","","html-keyboard-response","35","304079","0.0-8.0-0.0-1.11","null","<span style='color:GreenYellow; font-size: 70px;'>正确! </span>","null","","","","","","","","","","","","","","","","","","","","","","","feedback_test",""
"","","","","","html-keyboard-response","36","309333","0.0-8.0-1.0-0.0","5253","<style>.context{color:white; font-size: 35px; line-height:40px}</style>                              <div><p class='context'>您正确回答了33% 的试次。</p><p class='context'>您的平均反应时为1170毫秒。</p>","j","","","","","","","","","","","","","","","","","","","","","","","",""
"","","","","","instructions","37","331335","0.0-8.0-1.0-1.0","22004","","","","","","","","","","","","","","[{""page_index"":0,""viewing_time"":1900},{""page_index"":1,""viewing_time"":18560},{""page_index"":2,""viewing_time"":1544}]","","","","","","","","","","","",""
"","","","","","psychophysics","38","333352","0.0-8.1-0.1-0.12","1013","","d","","","","","","","","","","","","","key","d","16.665999999999865","512","380","f","false","img/S_28.png","自我","freeprac_self","",""
"","","","","","html-keyboard-response","39","333658","0.0-8.1-0.1-1.12","null","<span style='color:red; font-size: 70px;'>错误! </span>","null","","","","","","","","","","","","","","","","","","","","","","","feedback_test",""
"","","","","","psychophysics","40","335728","0.0-8.1-0.1-0.13","1062","","d","","","","","","","","","","","","","key","d","16.666000000000043","512","380","d","true","img/C_28.png","朋友","freeprac_self","",""
"","","","","","html-keyboard-response","41","336035","0.0-8.1-0.1-1.13","null","<span style='color:GreenYellow; font-size: 70px;'>正确! </span>","null","","","","","","","","","","","","","","","","","","","","","","","feedback_test",""
"","","","","","psychophysics","42","338202","0.0-8.1-0.1-0.14","1162","","f","","","","","","","","","","","","","key","f","16.666000000000373","512","380","k","false","img/H_28.png","自我","freeprac_self","",""
"","","","","","html-keyboard-response","43","338506","0.0-8.1-0.1-1.14","null","<span style='color:red; font-size: 70px;'>错误! </span>","null","","","","","","","","","","","","","","","","","","","","","","","feedback_test",""
"","","","","","psychophysics","44","340728","0.0-8.1-0.1-0.15","1214","","f","","","","","","","","","","","","","key","f","16.666000000000086","512","380","f","true","img/C_28.png","自我","freeprac_self","",""
"","","","","","html-keyboard-response","45","341035","0.0-8.1-0.1-1.15","null","<span style='color:GreenYellow; font-size: 70px;'>正确! </span>","null","","","","","","","","","","","","","","","","","","","","","","","feedback_test",""
"","","","","","psychophysics","46","343288","0.0-8.1-0.1-0.16","1249","","d","","","","","","","","","","","","","key","d","16.666000000000047","512","380","f","false","img/S_28.png","朋友","freeprac_self","",""
"","","","","","html-keyboard-response","47","343594","0.0-8.1-0.1-1.16","null","<span style='color:red; font-size: 70px;'>错误! </span>","null","","","","","","","","","","","","","","","","","","","","","","","feedback_test",""
"","","","","","psychophysics","48","345818","0.0-8.1-0.1-0.17","1217","","d","","","","","","","","","","","","","key","d","16.666000000000086","512","380","k","false","img/H_28.png","自我","freeprac_self","",""
"","","","","","html-keyboard-response","49","346122","0.0-8.1-0.1-1.17","null","<span style='color:red; font-size: 70px;'>错误! </span>","null","","","","","","","","","","","","","","","","","","","","","","","feedback_test",""
"","","","","","psychophysics","50","348418","0.0-8.1-0.1-0.18","1296","","k","","","","","","","","","","","","","key","k","16.666000000000007","512","380","j","false","img/H_28.png","生人","freeprac_self","",""
"","","","","","html-keyboard-response","51","348723","0.0-8.1-0.1-1.18","null","<span style='color:red; font-size: 70px;'>错误! </span>","null","","","","","","","","","","","","","","","","","","","","","","","feedback_test",""
"","","","","","psychophysics","52","350969","0.0-8.1-0.1-0.19","1245","","f","","","","","","","","","","","","","key","f","16.665999999999848","512","380","f","true","img/C_28.png","生人","freeprac_self","",""
"","","","","","html-keyboard-response","53","351275","0.0-8.1-0.1-1.19","null","<span style='color:GreenYellow; font-size: 70px;'>正确! </span>","null","","","","","","","","","","","","","","","","","","","","","","","feedback_test",""
"","","","","","psychophysics","54","353480","0.0-8.1-0.1-0.20","1198","","k","","","","","","","","","","","","","key","k","16.665999999999883","512","380","d","false","img/S_28.png","生人","freeprac_self","",""
"","","","","","html-keyboard-response","55","353786","0.0-8.1-0.1-1.20","null","<span style='color:red; font-size: 70px;'>错误! </span>","null","","","","","","","","","","","","","","","","","","","","","","","feedback_test",""
"","","","","","psychophysics","56","355688","0.0-8.1-0.1-0.21","900","","k","","","","","","","","","","","","","key","k","16.665999999999755","512","380","d","false","img/S_28.png","生人","freeprac_self","",""
"","","","","","html-keyboard-response","57","355994","0.0-8.1-0.1-1.21","null","<span style='color:red; font-size: 70px;'>错误! </span>","null","","","","","","","","","","","","","","","","","","","","","","","feedback_test",""
"","","","","","psychophysics","58","357985","0.0-8.1-0.1-0.22","983","","j","","","","","","","","","","","","","key","j","16.665999999999904","512","380","d","false","img/C_28.png","朋友","freeprac_self","",""
"","","","","","html-keyboard-response","59","358290","0.0-8.1-0.1-1.22","null","<span style='color:red; font-size: 70px;'>错误! </span>","null","","","","","","","","","","","","","","","","","","","","","","","feedback_test",""
"","","","","","psychophysics","60","360418","0.0-8.1-0.1-0.23","1121","","f","","","","","","","","","","","","","key","f","16.66600000000021","512","380","j","false","img/H_28.png","朋友","freeprac_self","",""
"","","","","","html-keyboard-response","61","360723","0.0-8.1-0.1-1.23","null","<span style='color:red; font-size: 70px;'>错误! </span>","null","","","","","","","","","","","","","","","","","","","","","","","feedback_test",""
"","","","","","html-keyboard-response","62","361816","0.0-8.1-1.1-0.1","1093","<style>.context{color:white; font-size: 35px; line-height:40px}</style>                              <div><p class='context'>您正确回答了25% 的试次。</p><p class='context'>您的平均反应时为1174毫秒。</p>","f","","","","","","","","","","","","","","","","","","","","","","","",""
"","","","","","instructions","63","383186","0.0-8.1-1.1-1.1","21372","","","","","","","","","","","","","","[{""page_index"":0,""viewing_time"":1804},{""page_index"":1,""viewing_time"":18440},{""page_index"":2,""viewing_time"":1128}]","","","","","","","","","","","",""
"","","","","","psychophysics","64","385571","0.0-8.2-0.2-0.24","1382","","j","","","","","","","","","","","","","key","j","16.665999999999897","512","380","j","true","img/H_28.png","朋友","freeprac_self","",""
"","","","","","html-keyboard-response","65","385878","0.0-8.2-0.2-1.24","null","<span style='color:GreenYellow; font-size: 70px;'>正确! </span>","null","","","","","","","","","","","","","","","","","","","","","","","feedback_test",""
"","","","","","psychophysics","66","387875","0.0-8.2-0.2-0.25","995","","d","","","","","","","","","","","","","key","d","16.66599999999964","512","380","d","true","img/S_28.png","生人","freeprac_self","",""
"","","","","","html-keyboard-response","67","388181","0.0-8.2-0.2-1.25","null","<span style='color:GreenYellow; font-size: 70px;'>正确! </span>","null","","","","","","","","","","","","","","","","","","","","","","","feedback_test",""
"","","","","","psychophysics","68","390660","0.0-8.2-0.2-0.26","1476","","j","","","","","","","","","","","","","key","j","16.665999999999798","512","380","k","false","img/H_28.png","自我","freeprac_self","",""
"","","","","","html-keyboard-response","69","390966","0.0-8.2-0.2-1.26","null","<span style='color:red; font-size: 70px;'>错误! </span>","null","","","","","","","","","","","","","","","","","","","","","","","feedback_test",""
"","","","","","psychophysics","70","393043","0.0-8.2-0.2-0.27","1077","","f","","","","","","","","","","","","","key","f","16.666000000000043","512","380","f","true","img/C_28.png","自我","freeprac_self","",""
"","","","","","html-keyboard-response","71","393350","0.0-8.2-0.2-1.27","null","<span style='color:GreenYellow; font-size: 70px;'>正确! </span>","null","","","","","","","","","","","","","","","","","","","","","","","feedback_test",""
"","","","","","psychophysics","72","395164","0.0-8.2-0.2-0.28","813","","k","","","","","","","","","","","","","key","k","16.665999999999887","512","380","k","true","img/H_28.png","自我","freeprac_self","",""
"","","","","","html-keyboard-response","73","395470","0.0-8.2-0.2-1.28","null","<span style='color:GreenYellow; font-size: 70px;'>正确! </span>","null","","","","","","","","","","","","","","","","","","","","","","","feedback_test",""
"","","","","","psychophysics","74","397691","0.0-8.2-0.2-0.29","1214","","f","","","","","","","","","","","","","key","f","16.666000000000086","512","380","d","false","img/S_28.png","生人","freeprac_self","",""
"","","","","","html-keyboard-response","75","397997","0.0-8.2-0.2-1.29","null","<span style='color:red; font-size: 70px;'>错误! </span>","null","","","","","","","","","","","","","","","","","","","","","","","feedback_test",""
"","","","","","psychophysics","76","400100","0.0-8.2-0.2-0.30","1100","","f","","","","","","","","","","","","","key","f","16.66600000000021","512","380","d","false","img/C_28.png","朋友","freeprac_self","",""
"","","","","","html-keyboard-response","77","400407","0.0-8.2-0.2-1.30","null","<span style='color:red; font-size: 70px;'>错误! </span>","null","","","","","","","","","","","","","","","","","","","","","","","feedback_test",""
"","","","","","psychophysics","78","402414","0.0-8.2-0.2-0.31","1001","","f","","","","","","","","","","","","","key","f","16.66600000000013","512","380","f","true","img/S_28.png","朋友","freeprac_self","",""
"","","","","","html-keyboard-response","79","402717","0.0-8.2-0.2-1.31","null","<span style='color:GreenYellow; font-size: 70px;'>正确! </span>","null","","","","","","","","","","","","","","","","","","","","","","","feedback_test",""
"","","","","","psychophysics","80","404899","0.0-8.2-0.2-0.32","1174","","f","","","","","","","","","","","","","key","f","16.665999999999677","512","380","f","true","img/C_28.png","生人","freeprac_self","",""
"","","","","","html-keyboard-response","81","405206","0.0-8.2-0.2-1.32","null","<span style='color:GreenYellow; font-size: 70px;'>正确! </span>","null","","","","","","","","","","","","","","","","","","","","","","","feedback_test",""
"","","","","","psychophysics","82","407459","0.0-8.2-0.2-0.33","1246","","d","","","","","","","","","","","","","key","d","16.66599999999961","512","380","j","false","img/H_28.png","生人","freeprac_self","",""
"","","","","","html-keyboard-response","83","407767","0.0-8.2-0.2-1.33","null","<span style='color:red; font-size: 70px;'>错误! </span>","null","","","","","","","","","","","","","","","","","","","","","","","feedback_test",""
"","","","","","psychophysics","84","410051","0.0-8.2-0.2-0.34","1277","","f","","","","","","","","","","","","","key","f","16.666000000000007","512","380","d","false","img/C_28.png","朋友","freeprac_self","",""
"","","","","","html-keyboard-response","85","410358","0.0-8.2-0.2-1.34","null","<span style='color:red; font-size: 70px;'>错误! </span>","null","","","","","","","","","","","","","","","","","","","","","","","feedback_test",""
"","","","","","psychophysics","86","412539","0.0-8.2-0.2-0.35","1175","","d","","","","","","","","","","","","","key","d","16.665999999999677","512","380","f","false","img/S_28.png","自我","freeprac_self","",""
"","","","","","html-keyboard-response","87","412847","0.0-8.2-0.2-1.35","null","<span style='color:red; font-size: 70px;'>错误! </span>","null","","","","","","","","","","","","","","","","","","","","","","","feedback_test",""
"","","","","","html-keyboard-response","88","414603","0.0-8.2-1.2-0.2","1753","<style>.context{color:white; font-size: 35px; line-height:40px}</style>                              <div><p class='context'>您正确回答了50% 的试次。</p><p class='context'>您的平均反应时为1074毫秒。</p>","f","","","","","","","","","","","","","","","","","","","","","","","",""
"","","","","","instructions","89","426202","0.0-8.2-1.2-1.2","11596","","","","","","","","","","","","","","[{""page_index"":0,""viewing_time"":1940},{""page_index"":1,""viewing_time"":8848},{""page_index"":2,""viewing_time"":808}]","","","","","","","","","","","",""
"","","","","","psychophysics","90","428187","0.0-8.3-0.3-0.36","981","","k","","","","","","","","","","","","","key","k","16.665999999999904","512","380","k","true","img/H_28.png","自我","freeprac_self","",""
"","","","","","html-keyboard-response","91","428495","0.0-8.3-0.3-1.36","null","<span style='color:GreenYellow; font-size: 70px;'>正确! </span>","null","","","","","","","","","","","","","","","","","","","","","","","feedback_test",""
"","","","","","psychophysics","92","430731","0.0-8.3-0.3-0.37","1234","","j","","","","","","","","","","","","","key","j","16.665999999999848","512","380","j","true","img/H_28.png","生人","freeprac_self","",""
"","","","","","html-keyboard-response","93","431038","0.0-8.3-0.3-1.37","null","<span style='color:GreenYellow; font-size: 70px;'>正确! </span>","null","","","","","","","","","","","","","","","","","","","","","","","feedback_test",""
"","","","","","psychophysics","94","432939","0.0-8.3-0.3-0.38","893","","f","","","","","","","","","","","","","key","f","16.665999999999755","512","380","f","true","img/C_28.png","生人","freeprac_self","",""
"","","","","","html-keyboard-response","95","433247","0.0-8.3-0.3-1.38","null","<span style='color:GreenYellow; font-size: 70px;'>正确! </span>","null","","","","","","","","","","","","","","","","","","","","","","","feedback_test",""
"","","","","","psychophysics","96","435083","0.0-8.3-0.3-0.39","835","","d","","","","","","","","","","","","","key","d","16.66599999999984","512","380","d","true","img/C_28.png","朋友","freeprac_self","",""
"","","","","","html-keyboard-response","97","435391","0.0-8.3-0.3-1.39","null","<span style='color:GreenYellow; font-size: 70px;'>正确! </span>","null","","","","","","","","","","","","","","","","","","","","","","","feedback_test",""
"","","","","","psychophysics","98","437451","0.0-8.3-0.3-0.40","1054","","f","","","","","","","","","","","","","key","f","16.666000000000043","512","380","f","true","img/S_28.png","自我","freeprac_self","",""
"","","","","","html-keyboard-response","99","437758","0.0-8.3-0.3-1.40","null","<span style='color:GreenYellow; font-size: 70px;'>正确! </span>","null","","","","","","","","","","","","","","","","","","","","","","","feedback_test",""
"","","","","","psychophysics","100","440043","0.0-8.3-0.3-0.41","1279","","d","","","","","","","","","","","","","key","d","16.666000000000007","512","380","d","true","img/S_28.png","生人","freeprac_self","",""
"","","","","","html-keyboard-response","101","440351","0.0-8.3-0.3-1.41","null","<span style='color:GreenYellow; font-size: 70px;'>正确! </span>","null","","","","","","","","","","","","","","","","","","","","","","","feedback_test",""
"","","","","","psychophysics","102","441998","0.0-8.3-0.3-0.42","640","","d","","","","","","","","","","","","","key","d","16.665999999999816","512","380","d","true","img/C_28.png","朋友","freeprac_self","",""
"","","","","","html-keyboard-response","103","442299","0.0-8.3-0.3-1.42","null","<span style='color:GreenYellow; font-size: 70px;'>正确! </span>","null","","","","","","","","","","","","","","","","","","","","","","","feedback_test",""
"","","","","","psychophysics","104","444735","0.0-8.3-0.3-0.43","1429","","k","","","","","","","","","","","","","key","k","16.665999999999645","512","380","j","false","img/H_28.png","朋友","freeprac_self","",""
"","","","","","html-keyboard-response","105","445042","0.0-8.3-0.3-1.43","null","<span style='color:red; font-size: 70px;'>错误! </span>","null","","","","","","","","","","","","","","","","","","","","","","","feedback_test",""
"","","","","","psychophysics","106","447136","0.0-8.3-0.3-0.44","1092","","k","","","","","","","","","","","","","key","k","16.666","512","380","k","true","img/H_28.png","自我","freeprac_self","",""
"","","","","","html-keyboard-response","107","447443","0.0-8.3-0.3-1.44","null","<span style='color:GreenYellow; font-size: 70px;'>正确! </span>","null","","","","","","","","","","","","","","","","","","","","","","","feedback_test",""
"","","","","","psychophysics","108","449903","0.0-8.3-0.3-0.45","1460","","d","","","","","","","","","","","","","key","d","16.66600000000001","512","380","f","false","img/S_28.png","朋友","freeprac_self","",""
"","","","","","html-keyboard-response","109","450210","0.0-8.3-0.3-1.45","null","<span style='color:red; font-size: 70px;'>错误! </span>","null","","","","","","","","","","","","","","","","","","","","","","","feedback_test",""
"","","","","","psychophysics","110","452144","0.0-8.3-0.3-0.46","925","","d","","","","","","","","","","","","","key","d","16.665999999999716","512","380","d","true","img/S_28.png","生人","freeprac_self","",""
"","","","","","html-keyboard-response","111","452451","0.0-8.3-0.3-1.46","null","<span style='color:GreenYellow; font-size: 70px;'>正确! </span>","null","","","","","","","","","","","","","","","","","","","","","","","feedback_test",""
"","","","","","psychophysics","112","454407","0.0-8.3-0.3-0.47","949","","f","","","","","","","","","","","","","key","f","16.665999999999947","512","380","f","true","img/C_28.png","自我","freeprac_self","",""
"","","","","","html-keyboard-response","113","454715","0.0-8.3-0.3-1.47","null","<span style='color:GreenYellow; font-size: 70px;'>正确! </span>","null","","","","","","","","","","","","","","","","","","","","","","","feedback_test",""
"","","","","","html-keyboard-response","114","473888","0.0-9.0","19172","[""<style>.context{color:white; font-size: 35px; line-height:40px}</style>              <div><p class='context'>您正确回答了83% 的试次。</p><p class='context'>您的平均反应时为988毫秒。</p><p class='context'>恭喜您完成这一阶段的练习。按任意键进入<span style='color: yellow;'>重点关注图形为“朋友”</span>的练习。</p></div><p class='footer' style='font-size:35px; line-height:30px;'>任务要求：\n              <p class='footer' style='font-size:35px; line-height:35px;'>对于与“朋友”对应的图形：如果 匹配 ，请按 <span style=\""color: lightgreen;\"">k键</span></p><p class='footer' style='font-size:35px'>如果 不匹配 ，请按<span style=\""color: lightgreen;\"">j键</p></span>\n              <p class='footer' style='font-size:35px; line-height:35px;'>对于非“朋友”对应的图形：如果 匹配 ，请按 <span style=\""color: lightgreen;\"">d键</span></p><p class='footer' style='font-size:35px'>如果 不匹配 ，请按<span style=\""color: lightgreen;\"">f键</p></span>\n              <p class='footer' style='font-size:22px; line-height:25px;'>请在实验过程中将您的<span style=\""color: lightgreen;\"">食指和中指</span>放在电脑键盘的相应键位上进行按键。</p></span>""]","j","","","","","","","","","","","","","","","","","","","","","","","",""
"","","","","","psychophysics","115","475728","0.0-10.0-0.0-0.0","835","","k","","","","","","","","","","","","","key","k","16.666000000000086","512","380","k","true","img/C_28.png","朋友","freeprac_friend","",""
"","","","","","html-keyboard-response","116","476034","0.0-10.0-0.0-1.0","null","<span style='color:GreenYellow; font-size: 70px;'>正确! </span>","null","","","","","","","","","","","","","","","","","","","","","","","feedback_test",""
"","","","","","psychophysics","117","478328","0.0-10.0-0.0-0.1","1286","","d","","","","","","","","","","","","","key","d","16.665999999999777","512","380","d","true","img/H_28.png","自我","freeprac_friend","",""
"","","","","","html-keyboard-response","118","478634","0.0-10.0-0.0-1.1","null","<span style='color:GreenYellow; font-size: 70px;'>正确! </span>","null","","","","","","","","","","","","","","","","","","","","","","","feedback_test",""
"","","","","","psychophysics","119","480528","0.0-10.0-0.0-0.2","884","","d","","","","","","","","","","","","","key","d","16.66600000000027","512","380","d","true","img/S_28.png","生人","freeprac_friend","",""
"","","","","","html-keyboard-response","120","480835","0.0-10.0-0.0-1.2","null","<span style='color:GreenYellow; font-size: 70px;'>正确! </span>","null","","","","","","","","","","","","","","","","","","","","","","","feedback_test",""
"","","","","","psychophysics","121","482847","0.0-10.0-0.0-0.3","1005","","f","","","","","","","","","","","","","key","f","16.66600000000035","512","380","f","true","img/S_28.png","朋友","freeprac_friend","",""
"","","","","","html-keyboard-response","122","483155","0.0-10.0-0.0-1.3","null","<span style='color:GreenYellow; font-size: 70px;'>正确! </span>","null","","","","","","","","","","","","","","","","","","","","","","","feedback_test",""
"","","","","","psychophysics","123","485615","0.0-10.0-0.0-0.4","1456","","d","","","","","","","","","","","","","key","d","16.66600000000001","512","380","f","false","img/S_28.png","自我","freeprac_friend","",""
"","","","","","html-keyboard-response","124","485923","0.0-10.0-0.0-1.4","null","<span style='color:red; font-size: 70px;'>错误! </span>","null","","","","","","","","","","","","","","","","","","","","","","","feedback_test",""
"","","","","","psychophysics","125","487780","0.0-10.0-0.0-0.5","854","","d","","","","","","","","","","","","","key","d","16.666000000000086","512","380","d","true","img/S_28.png","生人","freeprac_friend","",""
"","","","","","html-keyboard-response","126","488082","0.0-10.0-0.0-1.5","null","<span style='color:GreenYellow; font-size: 70px;'>正确! </span>","null","","","","","","","","","","","","","","","","","","","","","","","feedback_test",""
"","","","","","psychophysics","127","490415","0.0-10.0-0.0-0.6","1324","","d","","","","","","","","","","","","","key","d","16.66599999999974","512","380","d","true","img/H_28.png","自我","freeprac_friend","",""
"","","","","","html-keyboard-response","128","490722","0.0-10.0-0.0-1.6","null","<span style='color:GreenYellow; font-size: 70px;'>正确! </span>","null","","","","","","","","","","","","","","","","","","","","","","","feedback_test",""
"","","","","","psychophysics","129","492735","0.0-10.0-0.0-0.7","1009","","f","","","","","","","","","","","","","key","f","16.665999999999865","512","380","f","true","img/H_28.png","朋友","freeprac_friend","",""
"","","","","","html-keyboard-response","130","493043","0.0-10.0-0.0-1.7","null","<span style='color:GreenYellow; font-size: 70px;'>正确! </span>","null","","","","","","","","","","","","","","","","","","","","","","","feedback_test",""
"","","","","","psychophysics","131","494847","0.0-10.0-0.0-0.8","803","","k","","","","","","","","","","","","","key","k","16.665999999999887","512","380","k","true","img/C_28.png","朋友","freeprac_friend","",""
"","","","","","html-keyboard-response","132","495155","0.0-10.0-0.0-1.8","null","<span style='color:GreenYellow; font-size: 70px;'>正确! </span>","null","","","","","","","","","","","","","","","","","","","","","","","feedback_test",""
"","","","","","psychophysics","133","496903","0.0-10.0-0.0-0.9","744","","j","","","","","","","","","","","","","key","j","16.665999999999677","512","380","j","true","img/C_28.png","自我","freeprac_friend","",""
"","","","","","html-keyboard-response","134","497211","0.0-10.0-0.0-1.9","null","<span style='color:GreenYellow; font-size: 70px;'>正确! </span>","null","","","","","","","","","","","","","","","","","","","","","","","feedback_test",""
"","","","","","psychophysics","135","499047","0.0-10.0-0.0-0.10","828","","j","","","","","","","","","","","","","key","j","16.66599999999984","512","380","j","true","img/C_28.png","生人","freeprac_friend","",""
"","","","","","html-keyboard-response","136","499354","0.0-10.0-0.0-1.10","null","<span style='color:GreenYellow; font-size: 70px;'>正确! </span>","null","","","","","","","","","","","","","","","","","","","","","","","feedback_test",""
"","","","","","psychophysics","137","501535","0.0-10.0-0.0-0.11","1176","","d","","","","","","","","","","","","","key","d","16.665999999999677","512","380","f","false","img/H_28.png","生人","freeprac_friend","",""
"","","","","","html-keyboard-response","138","501843","0.0-10.0-0.0-1.11","null","<span style='color:red; font-size: 70px;'>错误! </span>","null","","","","","","","","","","","","","","","","","","","","","","","feedback_test",""
"","","","","","html-keyboard-response","139","515538","0.0-11.0","13699","[""<style>.context{color:white; font-size: 35px; line-height:40px}</style>                  <div><p class='context'>您正确回答了83% 的试次。</p><p class='context'>您的平均反应时为957毫秒。</p><p class='context'>恭喜您完成这一阶段的练习。按任意键进入<span style='color: yellow;'>重点关注图形为“生人”</span>的练习。</p></div><p class='footer' style='font-size:35px; line-height:30px;'>任务要求：\n                  <p class='footer' style='font-size:35px; line-height:35px;'>对与“生人”对应的图形，如果 匹配 ，请按 <span style=\""color: lightgreen;\"">k键</span></p><p class='footer' style='font-size:35px'>如果 不匹配 ，请按<span style=\""color: lightgreen;\"">j键</p></span>\n                  <p class='footer' style='font-size:35px; line-height:35px;'>对非“生人”对应的图形，如果 匹配 ，请按 <span style=\""color: lightgreen;\"">d键</span></p><p class='footer' style='font-size:35px'>如果 不匹配 ，请按<span style=\""color: lightgreen;\"">f键</p></span>\n                  <p class='footer' style='font-size:22px; line-height:25px;'>请在实验过程中将您的<span style=\""color: lightgreen;\"">食指和中指</span>放在电脑键盘的相应键位上进行按键。</p></span>""]","j","","","","","","","","","","","","","","","","","","","","","","","",""
"","","","","","psychophysics","140","517810","0.0-12.0-0.0-0.0","1260","","d","","","","","","","","","","","","","key","d","16.666000000000242","512","380","j","false","img/S_28.png","朋友","freeprac_stranger","",""
"","","","","","html-keyboard-response","141","518117","0.0-12.0-0.0-1.0","null","<span style='color:red; font-size: 70px;'>错误! </span>","null","","","","","","","","","","","","","","","","","","","","","","","feedback_test",""
"","","","","","psychophysics","142","520402","0.0-12.0-0.0-0.1","1282","","d","","","","","","","","","","","","","key","d","16.666000000000007","512","380","f","false","img/C_28.png","自我","freeprac_stranger","",""
"","","","","","html-keyboard-response","143","520709","0.0-12.0-0.0-1.1","null","<span style='color:red; font-size: 70px;'>错误! </span>","null","","","","","","","","","","","","","","","","","","","","","","","feedback_test",""
"","","","","","psychophysics","144","523082","0.0-12.0-0.0-0.2","1365","","k","","","","","","","","","","","","","key","k","16.66600000000012","512","380","f","false","img/H_28.png","生人","freeprac_stranger","",""
"","","","","","html-keyboard-response","145","523389","0.0-12.0-0.0-1.2","null","<span style='color:red; font-size: 70px;'>错误! </span>","null","","","","","","","","","","","","","","","","","","","","","","","feedback_test",""
"","","","","","psychophysics","146","525578","0.0-12.0-0.0-0.3","1181","","f","","","","","","","","","","","","","key","f","16.666000000000572","512","380","f","true","img/C_28.png","生人","freeprac_stranger","",""
"","","","","","html-keyboard-response","147","525886","0.0-12.0-0.0-1.3","null","<span style='color:GreenYellow; font-size: 70px;'>正确! </span>","null","","","","","","","","","","","","","","","","","","","","","","","feedback_test",""
"","","","","","psychophysics","148","527882","0.0-12.0-0.0-0.4","995","","k","","","","","","","","","","","","","key","k","16.665999999999904","512","380","k","true","img/S_28.png","生人","freeprac_stranger","",""
"","","","","","html-keyboard-response","149","528189","0.0-12.0-0.0-1.4","null","<span style='color:GreenYellow; font-size: 70px;'>正确! </span>","null","","","","","","","","","","","","","","","","","","","","","","","feedback_test",""
"","","","","","psychophysics","150","530082","0.0-12.0-0.0-0.5","884","","k","","","","","","","","","","","","","key","k","16.665999999999517","512","380","k","true","img/S_28.png","生人","freeprac_stranger","",""
"","","","","","html-keyboard-response","151","530390","0.0-12.0-0.0-1.5","null","<span style='color:GreenYellow; font-size: 70px;'>正确! </span>","null","","","","","","","","","","","","","","","","","","","","","","","feedback_test",""
"","","","","","psychophysics","152","532482","0.0-12.0-0.0-0.6","1084","","d","","","","","","","","","","","","","key","d","16.66599999999932","512","380","d","true","img/C_28.png","朋友","freeprac_stranger","",""
"","","","","","html-keyboard-response","153","532790","0.0-12.0-0.0-1.6","null","<span style='color:GreenYellow; font-size: 70px;'>正确! </span>","null","","","","","","","","","","","","","","","","","","","","","","","feedback_test",""
"","","","","","psychophysics","154","535066","0.0-12.0-0.0-0.7","1269","","j","","","","","","","","","","","","","key","j","16.66599999999938","512","380","j","true","img/S_28.png","自我","freeprac_stranger","",""
"","","","","","html-keyboard-response","155","535373","0.0-12.0-0.0-1.7","null","<span style='color:GreenYellow; font-size: 70px;'>正确! </span>","null","","","","","","","","","","","","","","","","","","","","","","","feedback_test",""
"","","","","","psychophysics","156","537530","0.0-12.0-0.0-0.8","1149","","f","","","","","","","","","","","","","key","f","16.666000000000167","512","380","f","true","img/H_28.png","朋友","freeprac_stranger","",""
"","","","","","html-keyboard-response","157","537838","0.0-12.0-0.0-1.8","null","<span style='color:GreenYellow; font-size: 70px;'>正确! </span>","null","","","","","","","","","","","","","","","","","","","","","","","feedback_test",""
"","","","","","psychophysics","158","539698","0.0-12.0-0.0-0.9","858","","d","","","","","","","","","","","","","key","d","16.666000000000086","512","380","d","true","img/C_28.png","朋友","freeprac_stranger","",""
"","","","","","html-keyboard-response","159","540006","0.0-12.0-0.0-1.9","null","<span style='color:GreenYellow; font-size: 70px;'>正确! </span>","null","","","","","","","","","","","","","","","","","","","","","","","feedback_test",""
"","","","","","psychophysics","160","542330","0.0-12.0-0.0-0.10","1316","","d","","","","","","","","","","","","","key","d","16.66600000000039","512","380","d","true","img/H_28.png","自我","freeprac_stranger","",""
"","","","","","html-keyboard-response","161","542638","0.0-12.0-0.0-1.10","null","<span style='color:GreenYellow; font-size: 70px;'>正确! </span>","null","","","","","","","","","","","","","","","","","","","","","","","feedback_test",""
"","","","","","psychophysics","162","544650","0.0-12.0-0.0-0.11","1010","","d","","","","","","","","","","","","","key","d","16.66600000000062","512","380","d","true","img/H_28.png","自我","freeprac_stranger","",""
"","","","","","html-keyboard-response","163","544958","0.0-12.0-0.0-1.11","null","<span style='color:GreenYellow; font-size: 70px;'>正确! </span>","null","","","","","","","","","","","","","","","","","","","","","","","feedback_test",""
"","","","","","instructions","164","560977","0.0-13.0","16017","","","","","","","","","","","","","","[{""page_index"":0,""viewing_time"":16017}]","","","","","","","","","","","",""
"","","","","","psychophysics","165","563106","0.0-14.0-0.0-0.0","1124","","f","","","","","","","","","","","","","key","f","16.665999999999503","512","380","f","true","img/S_28.png","自我","prac_self","","生人"
"","","","","","html-keyboard-response","166","563414","0.0-14.0-0.0-1.0","null","<span style='color:GreenYellow; font-size: 70px;'>正确! </span>","null","","","","","","","","","","","","","","","","","","","","","","","feedback_test",""
"","","","","","psychophysics","167","565794","0.0-14.0-0.0-0.1","1376","","d","","","","","","","","","","","","","key","d","16.66600000000031","512","380","j","false","img/H_28.png","生人","prac_self","","自我"
"","","","","","html-keyboard-response","168","566101","0.0-14.0-0.0-1.1","null","<span style='color:red; font-size: 70px;'>错误! </span>","null","","","","","","","","","","","","","","","","","","","","","","","feedback_test",""
"","","","","","psychophysics","169","568602","0.0-14.0-0.0-0.2","null","","null","","","","","","","","","","","","","key","null","16.66600000000037","512","380","f","false","img/S_28.png","朋友","prac_self","","生人"
"","","","","","html-keyboard-response","170","568906","0.0-14.0-0.0-1.2","null","<span class='add_' style='color:yellow; font-size: 70px;'> 太慢! </span>","null","","","","","","","","","","","","","","","","","","","","","","","feedback_test",""
"","","","","","psychophysics","171","570806","0.0-14.0-0.0-0.3","892","","f","","","","","","","","","","","","","key","f","16.66600000000027","512","380","f","true","img/C_28.png","生人","prac_self","","朋友"
"","","","","","html-keyboard-response","172","571113","0.0-14.0-0.0-1.3","null","<span style='color:GreenYellow; font-size: 70px;'>正确! </span>","null","","","","","","","","","","","","","","","","","","","","","","","feedback_test",""
"","","","","","psychophysics","173","572909","0.0-14.0-0.0-0.4","796","","k","","","","","","","","","","","","","key","k","16.666000000000185","512","380","k","true","img/H_28.png","自我","prac_self","","自我"
"","","","","","html-keyboard-response","174","573218","0.0-14.0-0.0-1.4","null","<span style='color:GreenYellow; font-size: 70px;'>正确! </span>","null","","","","","","","","","","","","","","","","","","","","","","","feedback_test",""
"","","","","","psychophysics","175","575214","0.0-14.0-0.0-0.5","995","","d","","","","","","","","","","","","","key","d","16.66599999999964","512","380","d","true","img/C_28.png","朋友","prac_self","","朋友"
"","","","","","html-keyboard-response","176","575522","0.0-14.0-0.0-1.5","null","<span style='color:GreenYellow; font-size: 70px;'>正确! </span>","null","","","","","","","","","","","","","","","","","","","","","","","feedback_test",""
"","","","","","psychophysics","177","577221","0.0-14.0-0.0-0.6","692","","d","","","","","","","","","","","","","key","d","16.666000000000608","512","380","d","true","img/C_28.png","朋友","prac_self","","朋友"
"","","","","","html-keyboard-response","178","577530","0.0-14.0-0.0-1.6","null","<span style='color:GreenYellow; font-size: 70px;'>正确! </span>","null","","","","","","","","","","","","","","","","","","","","","","","feedback_test",""
"","","","","","psychophysics","179","579653","0.0-14.0-0.0-0.7","1123","","f","","","","","","","","","","","","","key","f","16.665999999999748","512","380","f","true","img/C_28.png","自我","prac_self","","朋友"
"","","","","","html-keyboard-response","180","579962","0.0-14.0-0.0-1.7","null","<span style='color:GreenYellow; font-size: 70px;'>正确! </span>","null","","","","","","","","","","","","","","","","","","","","","","","feedback_test",""
"","","","","","psychophysics","181","581926","0.0-14.0-0.0-0.8","962","","d","","","","","","","","","","","","","key","d","16.665999999999446","512","380","d","true","img/S_28.png","生人","prac_self","","生人"
"","","","","","html-keyboard-response","182","582233","0.0-14.0-0.0-1.8","null","<span style='color:GreenYellow; font-size: 70px;'>正确! </span>","null","","","","","","","","","","","","","","","","","","","","","","","feedback_test",""
"","","","","","psychophysics","183","584197","0.0-14.0-0.0-0.9","962","","d","","","","","","","","","","","","","key","d","16.666000000000174","512","380","j","false","img/H_28.png","朋友","prac_self","","自我"
"","","","","","html-keyboard-response","184","584506","0.0-14.0-0.0-1.9","null","<span style='color:red; font-size: 70px;'>错误! </span>","null","","","","","","","","","","","","","","","","","","","","","","","feedback_test",""
"","","","","","psychophysics","185","586621","0.0-14.0-0.0-0.10","1109","","d","","","","","","","","","","","","","key","d","16.665999999999748","512","380","d","true","img/S_28.png","生人","prac_self","","生人"
"","","","","","html-keyboard-response","186","586930","0.0-14.0-0.0-1.10","null","<span style='color:GreenYellow; font-size: 70px;'>正确! </span>","null","","","","","","","","","","","","","","","","","","","","","","","feedback_test",""
"","","","","","psychophysics","187","588736","0.0-14.0-0.0-0.11","800","","k","","","","","","","","","","","","","key","k","16.666000000000974","512","380","k","true","img/H_28.png","自我","prac_self","","自我"
"","","","","","html-keyboard-response","188","589042","0.0-14.0-0.0-1.11","null","<span style='color:GreenYellow; font-size: 70px;'>正确! </span>","null","","","","","","","","","","","","","","","","","","","","","","","feedback_test",""
"","","","","","psychophysics","189","590837","0.0-14.0-0.0-0.12","792","","k","","","","","","","","","","","","","key","k","16.665999999999887","512","380","k","true","img/H_28.png","自我","prac_self","","自我"
"","","","","","html-keyboard-response","190","591146","0.0-14.0-0.0-1.12","null","<span style='color:GreenYellow; font-size: 70px;'>正确! </span>","null","","","","","","","","","","","","","","","","","","","","","","","feedback_test",""
"","","","","","psychophysics","191","593053","0.0-14.0-0.0-0.13","907","","j","","","","","","","","","","","","","key","j","16.66600000000027","512","380","j","true","img/H_28.png","朋友","prac_self","","自我"
"","","","","","html-keyboard-response","192","593363","0.0-14.0-0.0-1.13","null","<span style='color:GreenYellow; font-size: 70px;'>正确! </span>","null","","","","","","","","","","","","","","","","","","","","","","","feedback_test",""
"","","","","","psychophysics","193","595445","0.0-14.0-0.0-0.14","1082","","f","","","","","","","","","","","","","key","f","16.666000000000516","512","380","f","true","img/C_28.png","自我","prac_self","","朋友"
"","","","","","html-keyboard-response","194","595754","0.0-14.0-0.0-1.14","null","<span style='color:GreenYellow; font-size: 70px;'>正确! </span>","null","","","","","","","","","","","","","","","","","","","","","","","feedback_test",""
"","","","","","psychophysics","195","597719","0.0-14.0-0.0-0.15","957","","d","","","","","","","","","","","","","key","d","16.666000000000174","512","380","f","false","img/S_28.png","自我","prac_self","","生人"
"","","","","","html-keyboard-response","196","598026","0.0-14.0-0.0-1.15","null","<span style='color:red; font-size: 70px;'>错误! </span>","null","","","","","","","","","","","","","","","","","","","","","","","feedback_test",""
"","","","","","psychophysics","197","599821","0.0-14.0-0.0-0.16","792","","d","","","","","","","","","","","","","key","d","16.665999999999887","512","380","d","true","img/C_28.png","朋友","prac_self","","朋友"
"","","","","","html-keyboard-response","198","600130","0.0-14.0-0.0-1.16","null","<span style='color:GreenYellow; font-size: 70px;'>正确! </span>","null","","","","","","","","","","","","","","","","","","","","","","","feedback_test",""
"","","","","","psychophysics","199","602119","0.0-14.0-0.0-0.17","984","","d","","","","","","","","","","","","","key","d","16.665999999999904","512","380","d","true","img/C_28.png","朋友","prac_self","","朋友"
"","","","","","html-keyboard-response","200","602427","0.0-14.0-0.0-1.17","null","<span style='color:GreenYellow; font-size: 70px;'>正确! </span>","null","","","","","","","","","","","","","","","","","","","","","","","feedback_test",""
"","","","","","psychophysics","201","604703","0.0-14.0-0.0-0.18","1274","","j","","","","","","","","","","","","","key","j","16.666000000000007","512","380","f","false","img/S_28.png","朋友","prac_self","","生人"
"","","","","","html-keyboard-response","202","605009","0.0-14.0-0.0-1.18","null","<span style='color:red; font-size: 70px;'>错误! </span>","null","","","","","","","","","","","","","","","","","","","","","","","feedback_test",""
"","","","","","psychophysics","203","607293","0.0-14.0-0.0-0.19","1280","","d","","","","","","","","","","","","","key","d","16.666000000000007","512","380","j","false","img/H_28.png","生人","prac_self","","自我"
"","","","","","html-keyboard-response","204","607602","0.0-14.0-0.0-1.19","null","<span style='color:red; font-size: 70px;'>错误! </span>","null","","","","","","","","","","","","","","","","","","","","","","","feedback_test",""
"","","","","","psychophysics","205","609702","0.0-14.0-0.0-0.20","1093","","f","","","","","","","","","","","","","key","f","16.666","512","380","f","true","img/C_28.png","生人","prac_self","","朋友"
"","","","","","html-keyboard-response","206","610010","0.0-14.0-0.0-1.20","null","<span style='color:GreenYellow; font-size: 70px;'>正确! </span>","null","","","","","","","","","","","","","","","","","","","","","","","feedback_test",""
"","","","","","psychophysics","207","612149","0.0-14.0-0.0-0.21","1138","","k","","","","","","","","","","","","","key","k","16.666000000000167","512","380","d","false","img/S_28.png","生人","prac_self","","生人"
"","","","","","html-keyboard-response","208","612458","0.0-14.0-0.0-1.21","null","<span style='color:red; font-size: 70px;'>错误! </span>","null","","","","","","","","","","","","","","","","","","","","","","","feedback_test",""
"","","","","","psychophysics","209","614605","0.0-14.0-0.0-0.22","1143","","j","","","","","","","","","","","","","key","j","16.666000000000167","512","380","d","false","img/S_28.png","生人","prac_self","","生人"
"","","","","","html-keyboard-response","210","614914","0.0-14.0-0.0-1.22","null","<span style='color:red; font-size: 70px;'>错误! </span>","null","","","","","","","","","","","","","","","","","","","","","","","feedback_test",""
"","","","","","psychophysics","211","617037","0.0-14.0-0.0-0.23","1118","","f","","","","","","","","","","","","","key","f","16.665999999999748","512","380","k","false","img/H_28.png","自我","prac_self","","自我"
"","","","","","html-keyboard-response","212","617346","0.0-14.0-0.0-1.23","null","<span style='color:red; font-size: 70px;'>错误! </span>","null","","","","","","","","","","","","","","","","","","","","","","","feedback_test",""
"","","","","","html-keyboard-response","213","621269","0.0-14.0-1.0-0.0","3922","<style>.context{color:white; font-size: 35px; line-height:40px}</style>                              <div><p class='context'>您正确回答了63% 的试次。</p><p class='context'>您的平均反应时为943毫秒。</p>","k","","","","","","","","","","","","","","","","","","","","","","","",""
"","","","","","instructions","214","636112","0.0-14.0-1.0-1.0","14842","","","","","","","","","","","","","","[{""page_index"":0,""viewing_time"":2641},{""page_index"":1,""viewing_time"":10840},{""page_index"":2,""viewing_time"":1360}]","","","","","","","","","","","",""
"","","","","","psychophysics","215","638377","0.0-14.1-0.1-0.24","1262","","f","","","","","","","","","","","","","key","f","16.666000000000242","512","380","f","true","img/C_28.png","生人","prac_self","","朋友"
"","","","","","html-keyboard-response","216","638686","0.0-14.1-0.1-1.24","null","<span style='color:GreenYellow; font-size: 70px;'>正确! </span>","null","","","","","","","","","","","","","","","","","","","","","","","feedback_test",""
"","","","","","psychophysics","217","640881","0.0-14.1-0.1-0.25","1191","","f","","","","","","","","","","","","","key","f","16.666000000000327","512","380","j","false","img/H_28.png","朋友","prac_self","","自我"
"","","","","","html-keyboard-response","218","641189","0.0-14.1-0.1-1.25","null","<span style='color:red; font-size: 70px;'>错误! </span>","null","","","","","","","","","","","","","","","","","","","","","","","feedback_test",""
"","","","","","psychophysics","219","643693","0.0-14.1-0.1-0.26","null","","null","","","","","","","","","","","","","key","null","16.66600000000037","512","380","d","false","img/S_28.png","生人","prac_self","","生人"
"","","","","","html-keyboard-response","220","643997","0.0-14.1-0.1-1.26","null","<span class='add_' style='color:yellow; font-size: 70px;'> 太慢! </span>","null","","","","","","","","","","","","","","","","","","","","","","","feedback_test",""
"","","","","","psychophysics","221","646393","0.0-14.1-0.1-0.27","1394","","f","","","","","","","","","","","","","key","f","16.666000000000086","512","380","k","false","img/H_28.png","自我","prac_self","","自我"
"","","","","","html-keyboard-response","222","646701","0.0-14.1-0.1-1.27","null","<span style='color:red; font-size: 70px;'>错误! </span>","null","","","","","","","","","","","","","","","","","","","","","","","feedback_test",""
"","","","","","psychophysics","223","648929","0.0-14.1-0.1-0.28","1222","","d","","","","","","","","","","","","","key","d","16.665999999999848","512","380","d","true","img/S_28.png","生人","prac_self","","生人"
"","","","","","html-keyboard-response","224","649238","0.0-14.1-0.1-1.28","null","<span style='color:GreenYellow; font-size: 70px;'>正确! </span>","null","","","","","","","","","","","","","","","","","","","","","","","feedback_test",""
"","","","","","psychophysics","225","651321","0.0-14.1-0.1-0.29","1081","","f","","","","","","","","","","","","","key","f","16.666000000000256","512","380","f","true","img/C_28.png","自我","prac_self","","朋友"
"","","","","","html-keyboard-response","226","651622","0.0-14.1-0.1-1.29","null","<span style='color:GreenYellow; font-size: 70px;'>正确! </span>","null","","","","","","","","","","","","","","","","","","","","","","","feedback_test",""
"","","","","","psychophysics","227","653553","0.0-14.1-0.1-0.30","929","","j","","","","","","","","","","","","","key","j","16.665999999999716","512","380","j","true","img/H_28.png","生人","prac_self","","自我"
"","","","","","html-keyboard-response","228","653862","0.0-14.1-0.1-1.30","null","<span style='color:GreenYellow; font-size: 70px;'>正确! </span>","null","","","","","","","","","","","","","","","","","","","","","","","feedback_test",""
"","","","","","psychophysics","229","655777","0.0-14.1-0.1-0.31","912","","k","","","","","","","","","","","","","key","k","16.665999999999993","512","380","k","true","img/H_28.png","自我","prac_self","","自我"
"","","","","","html-keyboard-response","230","656086","0.0-14.1-0.1-1.31","null","<span style='color:GreenYellow; font-size: 70px;'>正确! </span>","null","","","","","","","","","","","","","","","","","","","","","","","feedback_test",""
"","","","","","psychophysics","231","658040","0.0-14.1-0.1-0.32","952","","d","","","","","","","","","","","","","key","d","16.666000000000174","512","380","d","true","img/C_28.png","朋友","prac_self","","朋友"
"","","","","","html-keyboard-response","232","658349","0.0-14.1-0.1-1.32","null","<span style='color:GreenYellow; font-size: 70px;'>正确! </span>","null","","","","","","","","","","","","","","","","","","","","","","","feedback_test",""
"","","","","","psychophysics","233","660240","0.0-14.1-0.1-0.33","885","","d","","","","","","","","","","","","","key","d","16.66600000000027","512","380","d","true","img/C_28.png","朋友","prac_self","","朋友"
"","","","","","html-keyboard-response","234","660550","0.0-14.1-0.1-1.33","null","<span style='color:GreenYellow; font-size: 70px;'>正确! </span>","null","","","","","","","","","","","","","","","","","","","","","","","feedback_test",""
"","","","","","psychophysics","235","662585","0.0-14.1-0.1-0.34","1029","","f","","","","","","","","","","","","","key","f","16.666000000000086","512","380","f","true","img/S_28.png","自我","prac_self","","生人"
"","","","","","html-keyboard-response","236","662894","0.0-14.1-0.1-1.34","null","<span style='color:GreenYellow; font-size: 70px;'>正确! </span>","null","","","","","","","","","","","","","","","","","","","","","","","feedback_test",""
"","","","","","psychophysics","237","665057","0.0-14.1-0.1-0.35","1158","","f","","","","","","","","","","","","","key","f","16.665999999999922","512","380","f","true","img/S_28.png","朋友","prac_self","","生人"
"","","","","","html-keyboard-response","238","665366","0.0-14.1-0.1-1.35","null","<span style='color:GreenYellow; font-size: 70px;'>正确! </span>","null","","","","","","","","","","","","","","","","","","","","","","","feedback_test",""
"","","","","","psychophysics","239","667482","0.0-14.1-0.1-0.36","1109","","f","","","","","","","","","","","","","key","f","16.666000000000672","512","380","f","true","img/C_28.png","自我","prac_self","","朋友"
"","","","","","html-keyboard-response","240","667790","0.0-14.1-0.1-1.36","null","<span style='color:GreenYellow; font-size: 70px;'>正确! </span>","null","","","","","","","","","","","","","","","","","","","","","","","feedback_test",""
"","","","","","psychophysics","241","669824","0.0-14.1-0.1-0.37","1027","","d","","","","","","","","","","","","","key","d","16.666000000000086","512","380","d","true","img/S_28.png","生人","prac_self","","生人"
"","","","","","html-keyboard-response","242","670126","0.0-14.1-0.1-1.37","null","<span style='color:GreenYellow; font-size: 70px;'>正确! </span>","null","","","","","","","","","","","","","","","","","","","","","","","feedback_test",""
"","","","","","psychophysics","243","672282","0.0-14.1-0.1-0.38","1150","","k","","","","","","","","","","","","","key","k","16.666000000000167","512","380","k","true","img/H_28.png","自我","prac_self","","自我"
"","","","","","html-keyboard-response","244","672591","0.0-14.1-0.1-1.38","null","<span style='color:GreenYellow; font-size: 70px;'>正确! </span>","null","","","","","","","","","","","","","","","","","","","","","","","feedback_test",""
"","","","","","psychophysics","245","674752","0.0-14.1-0.1-0.39","1155","","f","","","","","","","","","","","","","key","f","16.665999999999258","512","380","f","true","img/S_28.png","朋友","prac_self","","生人"
"","","","","","html-keyboard-response","246","675054","0.0-14.1-0.1-1.39","null","<span style='color:GreenYellow; font-size: 70px;'>正确! </span>","null","","","","","","","","","","","","","","","","","","","","","","","feedback_test",""
"","","","","","psychophysics","247","677352","0.0-14.1-0.1-0.40","1297","","j","","","","","","","","","","","","","key","j","16.665999999999777","512","380","j","true","img/H_28.png","朋友","prac_self","","自我"
"","","","","","html-keyboard-response","248","677662","0.0-14.1-0.1-1.40","null","<span style='color:GreenYellow; font-size: 70px;'>正确! </span>","null","","","","","","","","","","","","","","","","","","","","","","","feedback_test",""
"","","","","","psychophysics","249","679609","0.0-14.1-0.1-0.41","944","","d","","","","","","","","","","","","","key","d","16.666000000000448","512","380","d","true","img/C_28.png","朋友","prac_self","","朋友"
"","","","","","html-keyboard-response","250","679918","0.0-14.1-0.1-1.41","null","<span style='color:GreenYellow; font-size: 70px;'>正确! </span>","null","","","","","","","","","","","","","","","","","","","","","","","feedback_test",""
"","","","","","psychophysics","251","681960","0.0-14.1-0.1-0.42","1039","","d","","","","","","","","","","","","","key","d","16.665999999999823","512","380","d","true","img/C_28.png","朋友","prac_self","","朋友"
"","","","","","html-keyboard-response","252","682261","0.0-14.1-0.1-1.42","null","<span style='color:GreenYellow; font-size: 70px;'>正确! </span>","null","","","","","","","","","","","","","","","","","","","","","","","feedback_test",""
"","","","","","psychophysics","253","684298","0.0-14.1-0.1-0.43","1033","","f","","","","","","","","","","","","","key","f","16.666000000000086","512","380","f","true","img/C_28.png","生人","prac_self","","朋友"
"","","","","","html-keyboard-response","254","684605","0.0-14.1-0.1-1.43","null","<span style='color:GreenYellow; font-size: 70px;'>正确! </span>","null","","","","","","","","","","","","","","","","","","","","","","","feedback_test",""
"","","","","","psychophysics","255","686872","0.0-14.1-0.1-0.44","1259","","k","","","","","","","","","","","","","key","k","16.66599999999938","512","380","j","false","img/H_28.png","生人","prac_self","","自我"
"","","","","","html-keyboard-response","256","687170","0.0-14.1-0.1-1.44","null","<span style='color:red; font-size: 70px;'>错误! </span>","null","","","","","","","","","","","","","","","","","","","","","","","feedback_test",""
"","","","","","psychophysics","257","689404","0.0-14.1-0.1-0.45","1227","","f","","","","","","","","","","","","","key","f","16.665999999999848","512","380","d","false","img/S_28.png","生人","prac_self","","生人"
"","","","","","html-keyboard-response","258","689706","0.0-14.1-0.1-1.45","null","<span style='color:red; font-size: 70px;'>错误! </span>","null","","","","","","","","","","","","","","","","","","","","","","","feedback_test",""
"","","","","","psychophysics","259","691812","0.0-14.1-0.1-0.46","1101","","j","","","","","","","","","","","","","key","j","16.666","512","380","k","false","img/H_28.png","自我","prac_self","","自我"
"","","","","","html-keyboard-response","260","692121","0.0-14.1-0.1-1.46","null","<span style='color:red; font-size: 70px;'>错误! </span>","null","","","","","","","","","","","","","","","","","","","","","","","feedback_test",""
"","","","","","psychophysics","261","694180","0.0-14.1-0.1-0.47","1052","","f","","","","","","","","","","","","","key","f","16.665999999999823","512","380","f","true","img/S_28.png","自我","prac_self","","生人"
"","","","","","html-keyboard-response","262","694482","0.0-14.1-0.1-1.47","null","<span style='color:GreenYellow; font-size: 70px;'>正确! </span>","null","","","","","","","","","","","","","","","","","","","","","","","feedback_test",""
"","","","","","html-keyboard-response","263","702540","0.0-15.0","8057","[""<style>.context{color:white; font-size: 35px; line-height:40px}</style>              <div><p class='context'>您正确回答了75% 的试次。</p><p class='context'>您的平均反应时为1069毫秒。</p><p class='context'>恭喜您完成这一阶段的练习。按任意键进入<span style='color: yellow;'>重点关注图形为“朋友”</span>的练习。</p></div><p class='footer' style='font-size:35px; line-height:30px;'>任务要求：\n              <p class='footer' style='font-size:35px; line-height:35px;'>对于与“朋友”对应的图形：如果 匹配 ，请按 <span style=\""color: lightgreen;\"">k键</span></p><p class='footer' style='font-size:35px'>如果 不匹配 ，请按<span style=\""color: lightgreen;\"">j键</p></span>\n              <p class='footer' style='font-size:35px; line-height:35px;'>对于非“朋友”对应的图形：如果 匹配 ，请按 <span style=\""color: lightgreen;\"">d键</span></p><p class='footer' style='font-size:35px'>如果 不匹配 ，请按<span style=\""color: lightgreen;\"">f键</p></span>\n              <p class='footer' style='font-size:22px; line-height:25px;'>请在实验过程中将您的<span style=\""color: lightgreen;\"">食指和中指</span>放在电脑键盘的相应键位上进行按键。</p></span>""]","j","","","","","","","","","","","","","","","","","","","","","","","",""
"","","","","","psychophysics","264","704716","0.0-16.0-0.0-0.0","1172","","j","","","","","","","","","","","","","key","j","16.665999999999922","512","380","j","true","img/C_28.png","生人","prac_friend","","朋友"
"","","","","","html-keyboard-response","265","705018","0.0-16.0-0.0-1.0","null","<span style='color:GreenYellow; font-size: 70px;'>正确! </span>","null","","","","","","","","","","","","","","","","","","","","","","","feedback_test",""
"","","","","","psychophysics","266","707044","0.0-16.0-0.0-0.1","1018","","f","","","","","","","","","","","","","key","f","16.66599999999938","512","380","f","true","img/H_28.png","朋友","prac_friend","","自我"
"","","","","","html-keyboard-response","267","707354","0.0-16.0-0.0-1.1","null","<span style='color:GreenYellow; font-size: 70px;'>正确! </span>","null","","","","","","","","","","","","","","","","","","","","","","","feedback_test",""
"","","","","","psychophysics","268","709140","0.0-16.0-0.0-0.2","778","","k","","","","","","","","","","","","","key","k","16.666000000000185","512","380","k","true","img/C_28.png","朋友","prac_friend","","朋友"
"","","","","","html-keyboard-response","269","709442","0.0-16.0-0.0-1.2","null","<span style='color:GreenYellow; font-size: 70px;'>正确! </span>","null","","","","","","","","","","","","","","","","","","","","","","","feedback_test",""
"","","","","","psychophysics","270","711668","0.0-16.0-0.0-0.3","1223","","d","","","","","","","","","","","","","key","d","16.665999999999848","512","380","f","false","img/S_28.png","自我","prac_friend","","生人"
"","","","","","html-keyboard-response","271","711970","0.0-16.0-0.0-1.3","null","<span style='color:red; font-size: 70px;'>错误! </span>","null","","","","","","","","","","","","","","","","","","","","","","","feedback_test",""
"","","","","","psychophysics","272","714180","0.0-16.0-0.0-0.4","1202","","f","","","","","","","","","","","","","key","f","16.666000000000327","512","380","f","true","img/H_28.png","生人","prac_friend","","自我"
"","","","","","html-keyboard-response","273","714482","0.0-16.0-0.0-1.4","null","<span style='color:GreenYellow; font-size: 70px;'>正确! </span>","null","","","","","","","","","","","","","","","","","","","","","","","feedback_test",""
"","","","","","psychophysics","274","716596","0.0-16.0-0.0-0.5","1113","","d","","","","","","","","","","","","","key","d","16.666","512","380","d","true","img/S_28.png","生人","prac_friend","","生人"
"","","","","","html-keyboard-response","275","716898","0.0-16.0-0.0-1.5","null","<span style='color:GreenYellow; font-size: 70px;'>正确! </span>","null","","","","","","","","","","","","","","","","","","","","","","","feedback_test",""
"","","","","","psychophysics","276","719045","0.0-16.0-0.0-0.6","1145","","f","","","","","","","","","","","","","key","f","16.666000000000167","512","380","f","true","img/S_28.png","朋友","prac_friend","","生人"
"","","","","","html-keyboard-response","277","719355","0.0-16.0-0.0-1.6","null","<span style='color:GreenYellow; font-size: 70px;'>正确! </span>","null","","","","","","","","","","","","","","","","","","","","","","","feedback_test",""
"","","","","","psychophysics","278","721308","0.0-16.0-0.0-0.7","946","","d","","","","","","","","","","","","","key","d","16.665999999999446","512","380","d","true","img/S_28.png","生人","prac_friend","","生人"
"","","","","","html-keyboard-response","279","721610","0.0-16.0-0.0-1.7","null","<span style='color:GreenYellow; font-size: 70px;'>正确! </span>","null","","","","","","","","","","","","","","","","","","","","","","","feedback_test",""
"","","","","","psychophysics","280","723612","0.0-16.0-0.0-0.8","1001","","j","","","","","","","","","","","","","key","j","16.66600000000062","512","380","j","true","img/C_28.png","自我","prac_friend","","朋友"
"","","","","","html-keyboard-response","281","723913","0.0-16.0-0.0-1.8","null","<span style='color:GreenYellow; font-size: 70px;'>正确! </span>","null","","","","","","","","","","","","","","","","","","","","","","","feedback_test",""
"","","","","","psychophysics","282","726180","0.0-16.0-0.0-0.9","1264","","d","","","","","","","","","","","","","key","d","16.666000000000242","512","380","d","true","img/H_28.png","自我","prac_friend","","自我"
"","","","","","html-keyboard-response","283","726482","0.0-16.0-0.0-1.9","null","<span style='color:GreenYellow; font-size: 70px;'>正确! </span>","null","","","","","","","","","","","","","","","","","","","","","","","feedback_test",""
"","","","","","psychophysics","284","728420","0.0-16.0-0.0-0.10","937","","k","","","","","","","","","","","","","key","k","16.665999999999716","512","380","k","true","img/C_28.png","朋友","prac_friend","","朋友"
"","","","","","html-keyboard-response","285","728721","0.0-16.0-0.0-1.10","null","<span style='color:GreenYellow; font-size: 70px;'>正确! </span>","null","","","","","","","","","","","","","","","","","","","","","","","feedback_test",""
"","","","","","psychophysics","286","730852","0.0-16.0-0.0-0.11","1124","","d","","","","","","","","","","","","","key","d","16.665999999999503","512","380","d","true","img/H_28.png","自我","prac_friend","","自我"
"","","","","","html-keyboard-response","287","731154","0.0-16.0-0.0-1.11","null","<span style='color:GreenYellow; font-size: 70px;'>正确! </span>","null","","","","","","","","","","","","","","","","","","","","","","","feedback_test",""
"","","","","","psychophysics","288","733516","0.0-16.0-0.0-0.12","1355","","f","","","","","","","","","","","","","key","f","16.665999999999933","512","380","f","true","img/H_28.png","朋友","prac_friend","","自我"
"","","","","","html-keyboard-response","289","733817","0.0-16.0-0.0-1.12","null","<span style='color:GreenYellow; font-size: 70px;'>正确! </span>","null","","","","","","","","","","","","","","","","","","","","","","","feedback_test",""
"","","","","","psychophysics","290","735678","0.0-16.0-0.0-0.13","852","","k","","","","","","","","","","","","","key","k","16.666000000000086","512","380","k","true","img/C_28.png","朋友","prac_friend","","朋友"
"","","","","","html-keyboard-response","291","735986","0.0-16.0-0.0-1.13","null","<span style='color:GreenYellow; font-size: 70px;'>正确! </span>","null","","","","","","","","","","","","","","","","","","","","","","","feedback_test",""
"","","","","","psychophysics","292","738164","0.0-16.0-0.0-0.14","1170","","f","","","","","","","","","","","","","key","f","16.665999999999922","512","380","d","false","img/H_28.png","自我","prac_friend","","自我"
"","","","","","html-keyboard-response","293","738466","0.0-16.0-0.0-1.14","null","<span style='color:red; font-size: 70px;'>错误! </span>","null","","","","","","","","","","","","","","","","","","","","","","","feedback_test",""
"","","","","","psychophysics","294","740404","0.0-16.0-0.0-0.15","931","","f","","","","","","","","","","","","","key","f","16.665999999999716","512","380","f","true","img/H_28.png","生人","prac_friend","","自我"
"","","","","","html-keyboard-response","295","740706","0.0-16.0-0.0-1.15","null","<span style='color:GreenYellow; font-size: 70px;'>正确! </span>","null","","","","","","","","","","","","","","","","","","","","","","","feedback_test",""
"","","","","","psychophysics","296","742980","0.0-16.0-0.0-0.16","1269","","f","","","","","","","","","","","","","key","f","16.666000000000242","512","380","j","false","img/C_28.png","自我","prac_friend","","朋友"
"","","","","","html-keyboard-response","297","743282","0.0-16.0-0.0-1.16","null","<span style='color:red; font-size: 70px;'>错误! </span>","null","","","","","","","","","","","","","","","","","","","","","","","feedback_test",""
"","","","","","psychophysics","298","745785","0.0-16.0-0.0-0.17","null","","null","","","","","","","","","","","","","key","null","16.66600000000037","512","380","j","false","img/C_28.png","生人","prac_friend","","朋友"
"","","","","","html-keyboard-response","299","746090","0.0-16.0-0.0-1.17","null","<span class='add_' style='color:yellow; font-size: 70px;'> 太慢! </span>","null","","","","","","","","","","","","","","","","","","","","","","","feedback_test",""
"","","","","","psychophysics","300","748274","0.0-16.0-0.0-0.18","1184","","f","","","","","","","","","","","","","key","f","16.665999999999677","512","380","d","false","img/H_28.png","自我","prac_friend","","自我"
"","","","","","html-keyboard-response","301","748581","0.0-16.0-0.0-1.18","null","<span style='color:red; font-size: 70px;'>错误! </span>","null","","","","","","","","","","","","","","","","","","","","","","","feedback_test",""
"","","","","","psychophysics","302","750889","0.0-16.0-0.0-0.19","1300","","k","","","","","","","","","","","","","key","k","16.665999999999777","512","380","k","true","img/C_28.png","朋友","prac_friend","","朋友"
"","","","","","html-keyboard-response","303","751197","0.0-16.0-0.0-1.19","null","<span style='color:GreenYellow; font-size: 70px;'>正确! </span>","null","","","","","","","","","","","","","","","","","","","","","","","feedback_test",""
"","","","","","psychophysics","304","753111","0.0-16.0-0.0-0.20","906","","d","","","","","","","","","","","","","key","d","16.665999999999993","512","380","d","true","img/S_28.png","生人","prac_friend","","生人"
"","","","","","html-keyboard-response","305","753414","0.0-16.0-0.0-1.20","null","<span style='color:GreenYellow; font-size: 70px;'>正确! </span>","null","","","","","","","","","","","","","","","","","","","","","","","feedback_test",""
"","","","","","psychophysics","306","755519","0.0-16.0-0.0-0.21","1098","","f","","","","","","","","","","","","","key","f","16.666","512","380","f","true","img/S_28.png","朋友","prac_friend","","生人"
"","","","","","html-keyboard-response","307","755821","0.0-16.0-0.0-1.21","null","<span style='color:GreenYellow; font-size: 70px;'>正确! </span>","null","","","","","","","","","","","","","","","","","","","","","","","feedback_test",""
"","","","","","psychophysics","308","757967","0.0-16.0-0.0-0.22","1144","","d","","","","","","","","","","","","","key","d","16.666000000000167","512","380","d","true","img/S_28.png","生人","prac_friend","","生人"
"","","","","","html-keyboard-response","309","758269","0.0-16.0-0.0-1.22","null","<span style='color:GreenYellow; font-size: 70px;'>正确! </span>","null","","","","","","","","","","","","","","","","","","","","","","","feedback_test",""
"","","","","","psychophysics","310","760257","0.0-16.0-0.0-0.23","984","","f","","","","","","","","","","","","","key","f","16.665999999999904","512","380","f","true","img/S_28.png","自我","prac_friend","","生人"
"","","","","","html-keyboard-response","311","760566","0.0-16.0-0.0-1.23","null","<span style='color:GreenYellow; font-size: 70px;'>正确! </span>","null","","","","","","","","","","","","","","","","","","","","","","","feedback_test",""
"","","","","","html-keyboard-response","312","764919","0.0-17.0","4351","[""<style>.context{color:white; font-size: 35px; line-height:40px}</style>                  <div><p class='context'>您正确回答了79% 的试次。</p><p class='context'>您的平均反应时为1067毫秒。</p><p class='context'>恭喜您完成这一阶段的练习。按任意键进入<span style='color: yellow;'>重点关注图形为“生人”</span>的练习。</p></div><p class='footer' style='font-size:35px; line-height:30px;'>任务要求：\n                  <p class='footer' style='font-size:35px; line-height:35px;'>对与“生人”对应的图形，如果 匹配 ，请按 <span style=\""color: lightgreen;\"">k键</span></p><p class='footer' style='font-size:35px'>如果 不匹配 ，请按<span style=\""color: lightgreen;\"">j键</p></span>\n                  <p class='footer' style='font-size:35px; line-height:35px;'>对非“生人”对应的图形，如果 匹配 ，请按 <span style=\""color: lightgreen;\"">d键</span></p><p class='footer' style='font-size:35px'>如果 不匹配 ，请按<span style=\""color: lightgreen;\"">f键</p></span>\n                  <p class='footer' style='font-size:22px; line-height:25px;'>请在实验过程中将您的<span style=\""color: lightgreen;\"">食指和中指</span>放在电脑键盘的相应键位上进行按键。</p></span>""]","j","","","","","","","","","","","","","","","","","","","","","","","",""
"","","","","","psychophysics","313","767103","0.0-18.0-0.0-0.0","1180","","d","","","","","","","","","","","","","key","d","16.666000000000572","512","380","d","true","img/H_28.png","自我","prac_stranger","","自我"
"","","","","","html-keyboard-response","314","767405","0.0-18.0-0.0-1.0","null","<span style='color:GreenYellow; font-size: 70px;'>正确! </span>","null","","","","","","","","","","","","","","","","","","","","","","","feedback_test",""
"","","","","","psychophysics","315","769511","0.0-18.0-0.0-0.1","1104","","f","","","","","","","","","","","","","key","f","16.665999999999748","512","380","f","true","img/C_28.png","自我","prac_stranger","","朋友"
"","","","","","html-keyboard-response","316","769813","0.0-18.0-0.0-1.1","null","<span style='color:GreenYellow; font-size: 70px;'>正确! </span>","null","","","","","","","","","","","","","","","","","","","","","","","feedback_test",""
"","","","","","psychophysics","317","771831","0.0-18.0-0.0-0.2","1009","","d","","","","","","","","","","","","","key","d","16.66600000000035","512","380","d","true","img/C_28.png","朋友","prac_stranger","","朋友"
"","","","","","html-keyboard-response","318","772133","0.0-18.0-0.0-1.2","null","<span style='color:GreenYellow; font-size: 70px;'>正确! </span>","null","","","","","","","","","","","","","","","","","","","","","","","feedback_test",""
"","","","","","psychophysics","319","774031","0.0-18.0-0.0-0.3","890","","k","","","","","","","","","","","","","key","k","16.66600000000027","512","380","k","true","img/S_28.png","生人","prac_stranger","","生人"
"","","","","","html-keyboard-response","320","774333","0.0-18.0-0.0-1.3","null","<span style='color:GreenYellow; font-size: 70px;'>正确! </span>","null","","","","","","","","","","","","","","","","","","","","","","","feedback_test",""
"","","","","","psychophysics","321","776335","0.0-18.0-0.0-0.4","993","","d","","","","","","","","","","","","","key","d","16.66599999999964","512","380","d","true","img/C_28.png","朋友","prac_stranger","","朋友"
"","","","","","html-keyboard-response","322","776637","0.0-18.0-0.0-1.4","null","<span style='color:GreenYellow; font-size: 70px;'>正确! </span>","null","","","","","","","","","","","","","","","","","","","","","","","feedback_test",""
"","","","","","psychophysics","323","778623","0.0-18.0-0.0-0.5","983","","f","","","","","","","","","","","","","key","f","16.665999999999904","512","380","f","true","img/H_28.png","生人","prac_stranger","","自我"
"","","","","","html-keyboard-response","324","778924","0.0-18.0-0.0-1.5","null","<span style='color:GreenYellow; font-size: 70px;'>正确! </span>","null","","","","","","","","","","","","","","","","","","","","","","","feedback_test",""
"","","","","","psychophysics","325","780919","0.0-18.0-0.0-0.6","993","","k","","","","","","","","","","","","","key","k","16.66599999999964","512","380","k","true","img/S_28.png","生人","prac_stranger","","生人"
"","","","","","html-keyboard-response","326","781222","0.0-18.0-0.0-1.6","null","<span style='color:GreenYellow; font-size: 70px;'>正确! </span>","null","","","","","","","","","","","","","","","","","","","","","","","feedback_test",""
"","","","","","psychophysics","327","783263","0.0-18.0-0.0-0.7","1039","","j","","","","","","","","","","","","","key","j","16.66600000000078","512","380","f","false","img/C_28.png","生人","prac_stranger","","朋友"
"","","","","","html-keyboard-response","328","783565","0.0-18.0-0.0-1.7","null","<span style='color:red; font-size: 70px;'>错误! </span>","null","","","","","","","","","","","","","","","","","","","","","","","feedback_test",""
"","","","","","psychophysics","329","785807","0.0-18.0-0.0-0.8","1233","","f","","","","","","","","","","","","","key","f","16.665999999999848","512","380","f","true","img/H_28.png","朋友","prac_stranger","","自我"
"","","","","","html-keyboard-response","330","786110","0.0-18.0-0.0-1.8","null","<span style='color:GreenYellow; font-size: 70px;'>正确! </span>","null","","","","","","","","","","","","","","","","","","","","","","","feedback_test",""
"","","","","","psychophysics","331","788375","0.0-18.0-0.0-0.9","1256","","k","","","","","","","","","","","","","key","k","16.66600000000048","512","380","j","false","img/S_28.png","自我","prac_stranger","","生人"
"","","","","","html-keyboard-response","332","788677","0.0-18.0-0.0-1.9","null","<span style='color:red; font-size: 70px;'>错误! </span>","null","","","","","","","","","","","","","","","","","","","","","","","feedback_test",""
"","","","","","psychophysics","333","790791","0.0-18.0-0.0-0.10","1106","","j","","","","","","","","","","","","","key","j","16.666","512","380","j","true","img/S_28.png","朋友","prac_stranger","","生人"
"","","","","","html-keyboard-response","334","791093","0.0-18.0-0.0-1.10","null","<span style='color:GreenYellow; font-size: 70px;'>正确! </span>","null","","","","","","","","","","","","","","","","","","","","","","","feedback_test",""
"","","","","","psychophysics","335","793263","0.0-18.0-0.0-0.11","1162","","d","","","","","","","","","","","","","key","d","16.665999999999922","512","380","d","true","img/H_28.png","自我","prac_stranger","","自我"
"","","","","","html-keyboard-response","336","793565","0.0-18.0-0.0-1.11","null","<span style='color:GreenYellow; font-size: 70px;'>正确! </span>","null","","","","","","","","","","","","","","","","","","","","","","","feedback_test",""
"","","","","","psychophysics","337","795527","0.0-18.0-0.0-0.12","954","","f","","","","","","","","","","","","","key","f","16.666000000000174","512","380","j","false","img/S_28.png","自我","prac_stranger","","生人"
"","","","","","html-keyboard-response","338","795829","0.0-18.0-0.0-1.12","null","<span style='color:red; font-size: 70px;'>错误! </span>","null","","","","","","","","","","","","","","","","","","","","","","","feedback_test",""
"","","","","","psychophysics","339","798207","0.0-18.0-0.0-0.13","1370","","f","","","","","","","","","","","","","key","f","16.66599999999971","512","380","d","false","img/H_28.png","自我","prac_stranger","","自我"
"","","","","","html-keyboard-response","340","798509","0.0-18.0-0.0-1.13","null","<span style='color:red; font-size: 70px;'>错误! </span>","null","","","","","","","","","","","","","","","","","","","","","","","feedback_test",""
"","","","","","psychophysics","341","800543","0.0-18.0-0.0-0.14","1033","","k","","","","","","","","","","","","","key","k","16.666000000000086","512","380","k","true","img/S_28.png","生人","prac_stranger","","生人"
"","","","","","html-keyboard-response","342","800845","0.0-18.0-0.0-1.14","null","<span style='color:GreenYellow; font-size: 70px;'>正确! </span>","null","","","","","","","","","","","","","","","","","","","","","","","feedback_test",""
"","","","","","psychophysics","343","802807","0.0-18.0-0.0-0.15","954","","f","","","","","","","","","","","","","key","f","16.665999999999446","512","380","f","true","img/C_28.png","生人","prac_stranger","","朋友"
"","","","","","html-keyboard-response","344","803110","0.0-18.0-0.0-1.15","null","<span style='color:GreenYellow; font-size: 70px;'>正确! </span>","null","","","","","","","","","","","","","","","","","","","","","","","feedback_test",""
"","","","","","psychophysics","345","805613","0.0-18.0-0.0-0.16","null","","null","","","","","","","","","","","","","key","null","16.66599999999959","512","380","f","false","img/H_28.png","朋友","prac_stranger","","自我"
"","","","","","html-keyboard-response","346","805918","0.0-18.0-0.0-1.16","null","<span class='add_' style='color:yellow; font-size: 70px;'> 太慢! </span>","null","","","","","","","","","","","","","","","","","","","","","","","feedback_test",""
"","","","","","psychophysics","347","807995","0.0-18.0-0.0-0.17","1075","","f","","","","","","","","","","","","","key","f","16.66599999999932","512","380","f","true","img/C_28.png","自我","prac_stranger","","朋友"
"","","","","","html-keyboard-response","348","808297","0.0-18.0-0.0-1.17","null","<span style='color:GreenYellow; font-size: 70px;'>正确! </span>","null","","","","","","","","","","","","","","","","","","","","","","","feedback_test",""
"","","","","","psychophysics","349","810203","0.0-18.0-0.0-0.18","900","","f","","","","","","","","","","","","","key","f","16.66600000000027","512","380","j","false","img/S_28.png","朋友","prac_stranger","","生人"
"","","","","","html-keyboard-response","350","810506","0.0-18.0-0.0-1.18","null","<span style='color:red; font-size: 70px;'>错误! </span>","null","","","","","","","","","","","","","","","","","","","","","","","feedback_test",""
"","","","","","psychophysics","351","812436","0.0-18.0-0.0-0.19","924","","k","","","","","","","","","","","","","key","k","16.665999999999993","512","380","k","true","img/S_28.png","生人","prac_stranger","","生人"
"","","","","","html-keyboard-response","352","812745","0.0-18.0-0.0-1.19","null","<span style='color:GreenYellow; font-size: 70px;'>正确! </span>","null","","","","","","","","","","","","","","","","","","","","","","","feedback_test",""
"","","","","","psychophysics","353","815139","0.0-18.0-0.0-0.20","1386","","f","","","","","","","","","","","","","key","f","16.666000000000086","512","380","f","true","img/H_28.png","生人","prac_stranger","","自我"
"","","","","","html-keyboard-response","354","815442","0.0-18.0-0.0-1.20","null","<span style='color:GreenYellow; font-size: 70px;'>正确! </span>","null","","","","","","","","","","","","","","","","","","","","","","","feedback_test",""
"","","","","","psychophysics","355","817555","0.0-18.0-0.0-0.21","1105","","f","","","","","","","","","","","","","key","f","16.665999999999748","512","380","d","false","img/H_28.png","自我","prac_stranger","","自我"
"","","","","","html-keyboard-response","356","817858","0.0-18.0-0.0-1.21","null","<span style='color:red; font-size: 70px;'>错误! </span>","null","","","","","","","","","","","","","","","","","","","","","","","feedback_test",""
"","","","","","psychophysics","357","819746","0.0-18.0-0.0-0.22","882","","d","","","","","","","","","","","","","key","d","16.665999999999517","512","380","d","true","img/C_28.png","朋友","prac_stranger","","朋友"
"","","","","","html-keyboard-response","358","820050","0.0-18.0-0.0-1.22","null","<span style='color:GreenYellow; font-size: 70px;'>正确! </span>","null","","","","","","","","","","","","","","","","","","","","","","","feedback_test",""
"","","","","","psychophysics","359","821858","0.0-18.0-0.0-0.23","805","","d","","","","","","","","","","","","","key","d","16.666000000000672","512","380","d","true","img/C_28.png","朋友","prac_stranger","","朋友"
"","","","","","html-keyboard-response","360","822161","0.0-18.0-0.0-1.23","null","<span style='color:GreenYellow; font-size: 70px;'>正确! </span>","null","","","","","","","","","","","","","","","","","","","","","","","feedback_test",""
"","","","","","html-keyboard-response","361","825859","0.0-19.0","3696","[""<style>.context{color:white; font-size: 35px; line-height:40px}</style>                                        <div><p class='context'>您正确回答了71% 的试次。</p><p class='context'>您的平均反应时为1042毫秒。</p><p class='context'>恭喜您完成练习。您可以在此时休息一段时间，准备好后按任意键进入正式实验。</p><p class='footer' style='font-size: 35px; line-height:40px;'>请在进入正式实验实验之前将您的<span style='color: lightgreen;'>食指和中指</span>放在电脑键盘的相应键位上，做好按键准备。</p>""]","j","","","","","","","","","","","","","","","","","","","","","","","",""
"","","","","","html-keyboard-response","362","830323","0.0-20.0-0.0-0.0","4461","
                    <p>请您将食指和中指放在相应按键上，准备进入<span style='color: yellow;'>重点图形为“自我”对应图形</span>的正式匹配任务</p>
                    <p> <div style = ""color: green""><按任意键开始></div></p>
                    ","j","","","","","","","","","","","","","","","","","","","","","","","",""
"","","","","","psychophysics","363","832226","0.0-20.0-0.0-1.0-0.0-0.0","897","","j","","","","","","","","","","","","","key","j","16.66600000000027","512","380","j","true","img/H_28.png","生人","self","","自我"
"","","","","","html-keyboard-response","364","832530","0.0-20.0-0.0-1.0-0.0-1.0","null","<span style='color:GreenYellow; font-size: 70px;'>正确! </span>","null","","","","","","","","","","","","","","","","","","","","","","","feedback_test",""
"","","","","","psychophysics","365","834578","0.0-20.0-0.0-1.0-0.0-0.1","1042","","f","","","","","","","","","","","","","key","f","16.665999999999823","512","380","f","true","img/C_28.png","自我","self","","朋友"
"","","","","","html-keyboard-response","366","834881","0.0-20.0-0.0-1.0-0.0-1.1","null","<span style='color:GreenYellow; font-size: 70px;'>正确! </span>","null","","","","","","","","","","","","","","","","","","","","","","","feedback_test",""
"","","","","","psychophysics","367","836962","0.0-20.0-0.0-1.0-0.0-0.2","1076","","f","","","","","","","","","","","","","key","f","16.666000000000256","512","380","f","true","img/S_28.png","自我","self","","生人"
"","","","","","html-keyboard-response","368","837265","0.0-20.0-0.0-1.0-0.0-1.2","null","<span style='color:GreenYellow; font-size: 70px;'>正确! </span>","null","","","","","","","","","","","","","","","","","","","","","","","feedback_test",""
"","","","","","psychophysics","369","839394","0.0-20.0-0.0-1.0-0.0-0.3","1125","","k","","","","","","","","","","","","","key","k","16.66600000000042","512","380","k","true","img/H_28.png","自我","self","","自我"
"","","","","","html-keyboard-response","370","839697","0.0-20.0-0.0-1.0-0.0-1.3","null","<span style='color:GreenYellow; font-size: 70px;'>正确! </span>","null","","","","","","","","","","","","","","","","","","","","","","","feedback_test",""
"","","","","","psychophysics","371","841482","0.0-20.0-0.0-1.0-0.0-0.4","780","","j","","","","","","","","","","","","","key","j","16.666000000000185","512","380","j","true","img/H_28.png","朋友","self","","自我"
"","","","","","html-keyboard-response","372","841786","0.0-20.0-0.0-1.0-0.0-1.4","null","<span style='color:GreenYellow; font-size: 70px;'>正确! </span>","null","","","","","","","","","","","","","","","","","","","","","","","feedback_test",""
"","","","","","psychophysics","373","843914","0.0-20.0-0.0-1.0-0.0-0.5","1121","","d","","","","","","","","","","","","","key","d","16.665999999999748","512","380","d","true","img/C_28.png","朋友","self","","朋友"
"","","","","","html-keyboard-response","374","844218","0.0-20.0-0.0-1.0-0.0-1.5","null","<span style='color:GreenYellow; font-size: 70px;'>正确! </span>","null","","","","","","","","","","","","","","","","","","","","","","","feedback_test",""
"","","","","","psychophysics","375","846203","0.0-20.0-0.0-1.0-0.0-0.6","984","","f","","","","","","","","","","","","","key","f","16.66599999999964","512","380","f","true","img/S_28.png","朋友","self","","生人"
"","","","","","html-keyboard-response","376","846505","0.0-20.0-0.0-1.0-0.0-1.6","null","<span style='color:GreenYellow; font-size: 70px;'>正确! </span>","null","","","","","","","","","","","","","","","","","","","","","","","feedback_test",""
"","","","","","psychophysics","377","848522","0.0-20.0-0.0-1.0-0.0-0.7","1009","","d","","","","","","","","","","","","","key","d","16.66600000000035","512","380","d","true","img/S_28.png","生人","self","","生人"
"","","","","","html-keyboard-response","378","848826","0.0-20.0-0.0-1.0-0.0-1.7","null","<span style='color:GreenYellow; font-size: 70px;'>正确! </span>","null","","","","","","","","","","","","","","","","","","","","","","","feedback_test",""
"","","","","","psychophysics","379","850530","0.0-20.0-0.0-1.0-0.0-0.8","698","","d","","","","","","","","","","","","","key","d","16.665999999999457","512","380","d","true","img/S_28.png","生人","self","","生人"
"","","","","","html-keyboard-response","380","850834","0.0-20.0-0.0-1.0-0.0-1.8","null","<span style='color:GreenYellow; font-size: 70px;'>正确! </span>","null","","","","","","","","","","","","","","","","","","","","","","","feedback_test",""
"","","","","","psychophysics","381","853146","0.0-20.0-0.0-1.0-0.0-0.9","1311","","k","","","","","","","","","","","","","key","k","16.66599999999955","512","380","k","true","img/H_28.png","自我","self","","自我"
"","","","","","html-keyboard-response","382","853449","0.0-20.0-0.0-1.0-0.0-1.9","null","<span style='color:GreenYellow; font-size: 70px;'>正确! </span>","null","","","","","","","","","","","","","","","","","","","","","","","feedback_test",""
"","","","","","psychophysics","383","855282","0.0-20.0-0.0-1.0-0.0-0.10","830","","d","","","","","","","","","","","","","key","d","16.666000000000377","512","380","d","true","img/C_28.png","朋友","self","","朋友"
"","","","","","html-keyboard-response","384","855585","0.0-20.0-0.0-1.0-0.0-1.10","null","<span style='color:GreenYellow; font-size: 70px;'>正确! </span>","null","","","","","","","","","","","","","","","","","","","","","","","feedback_test",""
"","","","","","psychophysics","385","857466","0.0-20.0-0.0-1.0-0.0-0.11","880","","f","","","","","","","","","","","","","key","f","16.666000000000846","512","380","f","true","img/C_28.png","生人","self","","朋友"
"","","","","","html-keyboard-response","386","857770","0.0-20.0-0.0-1.0-0.0-1.11","null","<span style='color:GreenYellow; font-size: 70px;'>正确! </span>","null","","","","","","","","","","","","","","","","","","","","","","","feedback_test",""
"","","","","","psychophysics","387","859746","0.0-20.0-0.0-1.0-0.0-0.12","969","","d","","","","","","","","","","","","","key","d","16.666000000000174","512","380","f","false","img/S_28.png","自我","self","","生人"
"","","","","","html-keyboard-response","388","860049","0.0-20.0-0.0-1.0-0.0-1.12","null","<span style='color:red; font-size: 70px;'>错误! </span>","null","","","","","","","","","","","","","","","","","","","","","","","feedback_test",""
"","","","","","psychophysics","389","862178","0.0-20.0-0.0-1.0-0.0-0.13","1125","","j","","","","","","","","","","","","","key","j","16.66600000000042","512","380","j","true","img/H_28.png","朋友","self","","自我"
"","","","","","html-keyboard-response","390","862481","0.0-20.0-0.0-1.0-0.0-1.13","null","<span style='color:GreenYellow; font-size: 70px;'>正确! </span>","null","","","","","","","","","","","","","","","","","","","","","","","feedback_test",""
"","","","","","psychophysics","391","864298","0.0-20.0-0.0-1.0-0.0-0.14","813","","d","","","","","","","","","","","","","key","d","16.665999999999595","512","380","d","true","img/C_28.png","朋友","self","","朋友"
"","","","","","html-keyboard-response","392","864601","0.0-20.0-0.0-1.0-0.0-1.14","null","<span style='color:GreenYellow; font-size: 70px;'>正确! </span>","null","","","","","","","","","","","","","","","","","","","","","","","feedback_test",""
"","","","","","psychophysics","393","866803","0.0-20.0-0.0-1.0-0.0-0.15","1201","","f","","","","","","","","","","","","","key","f","16.66599999999944","512","380","f","true","img/S_28.png","朋友","self","","生人"
"","","","","","html-keyboard-response","394","867106","0.0-20.0-0.0-1.0-0.0-1.15","null","<span style='color:GreenYellow; font-size: 70px;'>正确! </span>","null","","","","","","","","","","","","","","","","","","","","","","","feedback_test",""
"","","","","","psychophysics","395","868942","0.0-20.0-0.0-1.0-0.0-0.16","833","","k","","","","","","","","","","","","","key","k","16.666000000000377","512","380","k","true","img/H_28.png","自我","self","","自我"
"","","","","","html-keyboard-response","396","869246","0.0-20.0-0.0-1.0-0.0-1.16","null","<span style='color:GreenYellow; font-size: 70px;'>正确! </span>","null","","","","","","","","","","","","","","","","","","","","","","","feedback_test",""
"","","","","","psychophysics","397","871158","0.0-20.0-0.0-1.0-0.0-0.17","911","","f","","","","","","","","","","","","","key","f","16.665999999999993","512","380","f","true","img/C_28.png","自我","self","","朋友"
"","","","","","html-keyboard-response","398","871462","0.0-20.0-0.0-1.0-0.0-1.17","null","<span style='color:GreenYellow; font-size: 70px;'>正确! </span>","null","","","","","","","","","","","","","","","","","","","","","","","feedback_test",""
"","","","","","psychophysics","399","873438","0.0-20.0-0.0-1.0-0.0-0.18","974","","j","","","","","","","","","","","","","key","j","16.665999999999904","512","380","j","true","img/H_28.png","生人","self","","自我"
"","","","","","html-keyboard-response","400","873741","0.0-20.0-0.0-1.0-0.0-1.18","null","<span style='color:GreenYellow; font-size: 70px;'>正确! </span>","null","","","","","","","","","","","","","","","","","","","","","","","feedback_test",""
"","","","","","psychophysics","401","875534","0.0-20.0-0.0-1.0-0.0-0.19","787","","k","","","","","","","","","","","","","key","k","16.665999999999887","512","380","k","true","img/H_28.png","自我","self","","自我"
"","","","","","html-keyboard-response","402","875838","0.0-20.0-0.0-1.0-0.0-1.19","null","<span style='color:GreenYellow; font-size: 70px;'>正确! </span>","null","","","","","","","","","","","","","","","","","","","","","","","feedback_test",""
"","","","","","psychophysics","403","877718","0.0-20.0-0.0-1.0-0.0-0.20","873","","d","","","","","","","","","","","","","key","d","16.665999999999517","512","380","d","true","img/C_28.png","朋友","self","","朋友"
"","","","","","html-keyboard-response","404","878021","0.0-20.0-0.0-1.0-0.0-1.20","null","<span style='color:GreenYellow; font-size: 70px;'>正确! </span>","null","","","","","","","","","","","","","","","","","","","","","","","feedback_test",""
"","","","","","psychophysics","405","880294","0.0-20.0-0.0-1.0-0.0-0.21","1265","","d","","","","","","","","","","","","","key","d","16.666000000000242","512","380","d","true","img/S_28.png","生人","self","","生人"
"","","","","","html-keyboard-response","406","880597","0.0-20.0-0.0-1.0-0.0-1.21","null","<span style='color:GreenYellow; font-size: 70px;'>正确! </span>","null","","","","","","","","","","","","","","","","","","","","","","","feedback_test",""
"","","","","","psychophysics","407","882632","0.0-20.0-0.0-1.0-0.0-0.22","1034","","f","","","","","","","","","","","","","key","f","16.666000000000086","512","380","f","true","img/C_28.png","生人","self","","朋友"
"","","","","","html-keyboard-response","408","882941","0.0-20.0-0.0-1.0-0.0-1.22","null","<span style='color:GreenYellow; font-size: 70px;'>正确! </span>","null","","","","","","","","","","","","","","","","","","","","","","","feedback_test",""
"","","","","","psychophysics","409","885062","0.0-20.0-0.0-1.0-0.0-0.23","1115","","d","","","","","","","","","","","","","key","d","16.665999999999748","512","380","d","true","img/S_28.png","生人","self","","生人"
"","","","","","html-keyboard-response","410","885366","0.0-20.0-0.0-1.0-0.0-1.23","null","<span style='color:GreenYellow; font-size: 70px;'>正确! </span>","null","","","","","","","","","","","","","","","","","","","","","","","feedback_test",""
"","","","","","psychophysics","411","887433","0.0-20.0-0.0-1.0-0.0-0.24","1060","","f","","","","","","","","","","","","","key","f","16.666000000000516","512","380","f","true","img/C_28.png","自我","self","","朋友"
"","","","","","html-keyboard-response","412","887741","0.0-20.0-0.0-1.0-0.0-1.24","null","<span style='color:GreenYellow; font-size: 70px;'>正确! </span>","null","","","","","","","","","","","","","","","","","","","","","","","feedback_test",""
"","","","","","psychophysics","413","889694","0.0-20.0-0.0-1.0-0.0-0.25","947","","j","","","","","","","","","","","","","key","j","16.666000000000448","512","380","j","true","img/H_28.png","朋友","self","","自我"
"","","","","","html-keyboard-response","414","889997","0.0-20.0-0.0-1.0-0.0-1.25","null","<span style='color:GreenYellow; font-size: 70px;'>正确! </span>","null","","","","","","","","","","","","","","","","","","","","","","","feedback_test",""
"","","","","","psychophysics","415","892232","0.0-20.0-0.0-1.0-0.0-0.26","1233","","k","","","","","","","","","","","","","key","k","16.665999999999848","512","380","j","false","img/H_28.png","生人","self","","自我"
"","","","","","html-keyboard-response","416","892540","0.0-20.0-0.0-1.0-0.0-1.26","null","<span style='color:red; font-size: 70px;'>错误! </span>","null","","","","","","","","","","","","","","","","","","","","","","","feedback_test",""
"","","","","","psychophysics","417","894461","0.0-20.0-0.0-1.0-0.0-0.27","915","","d","","","","","","","","","","","","","key","d","16.665999999999993","512","380","d","true","img/C_28.png","朋友","self","","朋友"
"","","","","","html-keyboard-response","418","894765","0.0-20.0-0.0-1.0-0.0-1.27","null","<span style='color:GreenYellow; font-size: 70px;'>正确! </span>","null","","","","","","","","","","","","","","","","","","","","","","","feedback_test",""
"","","","","","psychophysics","419","897215","0.0-20.0-0.0-1.0-0.0-0.28","1443","","k","","","","","","","","","","","","","key","k","16.66600000000023","512","380","k","true","img/H_28.png","自我","self","","自我"
"","","","","","html-keyboard-response","420","897517","0.0-20.0-0.0-1.0-0.0-1.28","null","<span style='color:GreenYellow; font-size: 70px;'>正确! </span>","null","","","","","","","","","","","","","","","","","","","","","","","feedback_test",""
"","","","","","psychophysics","421","899416","0.0-20.0-0.0-1.0-0.0-0.29","891","","f","","","","","","","","","","","","","key","f","16.66599999999924","512","380","f","true","img/S_28.png","自我","self","","生人"
"","","","","","html-keyboard-response","422","899725","0.0-20.0-0.0-1.0-0.0-1.29","null","<span style='color:GreenYellow; font-size: 70px;'>正确! </span>","null","","","","","","","","","","","","","","","","","","","","","","","feedback_test",""
"","","","","","psychophysics","423","901589","0.0-20.0-0.0-1.0-0.0-0.30","860","","d","","","","","","","","","","","","","key","d","16.665999999999798","512","380","d","true","img/C_28.png","朋友","self","","朋友"
