"success","timeout","failed_images","failed_audio","failed_video","trial_type","trial_index","time_elapsed","internal_node_id","rt","stimulus","response","value","item_width_mm","item_height_mm","item_width_px","px2mm","view_dist_mm","item_width_deg","px2deg","scale_factor","win_width_deg","win_height_deg","view_history","response_type","key_press","avg_frame_time","center_x","center_y","correct_response","correct","Image","text","condition","screen_id","label"
"true","false","[]","[]","[]","preload","0","390","0.0-0.0","","","","","","","","","","","","","","","","","","","","","","","","","","",""
"","","","","","html-keyboard-response","1","2382","0.0-1.0","1991","
     <p>您好，欢迎参加本次实验。</p>
     <p>为充分保障您的权利，请确保您已经知晓并同意《参与实验同意书》以及《数据公开知情同意书》。</p>
     <p>如果您未见过上述内容，请咨询实验员。</p>
     <p>如果您选择继续实验，则表示您已经清楚两份知情同意书的内容并同意。</p>
     <p> <div style = ""color: green""><按任意键至下页></div> </p>
     "," ","","","","","","","","","","","","","","","","","","","","","","","",""
"","","","","","html-keyboard-response","2","3438","0.0-2.0","1056","
     <p>本实验首先需要您填写一些基本个人信息。</p>
     <p> <div style = ""color: green""><按任意键至下页></div></p>
     "," ","","","","","","","","","","","","","","","","","","","","","","","",""
"","","","","","call-function","3","3439","0.0-3.0-0.0","","","","","","","","","","","","","","","","","","","","","","","","","","",""
"","","","","","survey-html-form","4","9830","0.0-3.0-1.0","6391","","{""Q0"":""39""}","","","","","","","","","","","","","","","","","","","","","","","",""
"","","","","","html-button-response","5","10614","0.0-3.0-2.0","783","<p style = 'color : white'>您的性别</p>","1","","","","","","","","","","","","","","","","","","","","","","","",""
"","","","","","survey-html-form","6","15870","0.0-3.0-3.0","5255","","{""Q0"":""2000""}","","","","","","","","","","","","","","","","","","","","","","","",""
"","","","","","survey-html-form","7","17806","0.0-3.0-4.0","1935","","{""Q0"":""5""}","","","","","","","","","","","","","","","","","","","","","","","",""
"","","","","","virtual-chinrest","8","71983","0.0-4.0","54175","","","","85.6","53.98","501.812758160284","5.854482178536647","487.43","10.036255163205679","50","0.5619625954386883","38.4","19.38","","","","","","","","","","","","",""
"true","","","","","fullscreen","9","74323","0.0-5.0","","","","","","","","","","","","","","","","","","","","","","","","","","",""
"","","","","","instructions","10","86758","0.0-6.0","12434","","","","","","","","","","","","","","[{""page_index"":0,""viewing_time"":2322},{""page_index"":1,""viewing_time"":3672},{""page_index"":2,""viewing_time"":1704},{""page_index"":3,""viewing_time"":3456},{""page_index"":4,""viewing_time"":1280}]","","","","","","","","","","","",""
"","","","","","instructions","11","100022","0.0-7.0","13263","","","","","","","","","","","","","","[{""page_index"":0,""viewing_time"":13263}]","","","","","","","","","","","",""
"","","","","","psychophysics","12","102070","0.0-8.0-0.0-0.0","1045","","j","","","","","","","","","","","","","key","j","16.66820661157027","960","536","j","true","img/S_28.png","自我","freeprac_self","",""
"","","","","","html-keyboard-response","13","102376","0.0-8.0-0.0-1.0","null","<span style='color:GreenYellow; font-size: 70px;'>正确! </span>","null","","","","","","","","","","","","","","","","","","","","","","","feedback_test",""
"","","","","","psychophysics","14","106070","0.0-8.0-0.0-0.1","2693","","d","","","","","","","","","","","","","key","d","16.667868181818232","960","536","k","false","img/S_28.png","生人","freeprac_self","",""
"","","","","","html-keyboard-response","15","106375","0.0-8.0-0.0-1.1","null","<span style='color:red; font-size: 70px;'>错误! </span>","null","","","","","","","","","","","","","","","","","","","","","","","feedback_test",""
"","","","","","psychophysics","16","108638","0.0-8.0-0.0-0.2","1262","","f","","","","","","","","","","","","","key","f","16.66791111111115","960","536","f","true","img/H_28.png","朋友","freeprac_self","",""
"","","","","","html-keyboard-response","17","108940","0.0-8.0-0.0-1.2","null","<span style='color:GreenYellow; font-size: 70px;'>正确! </span>","null","","","","","","","","","","","","","","","","","","","","","","","feedback_test",""
"","","","","","psychophysics","18","111302","0.0-8.0-0.0-0.3","1360","","f","","","","","","","","","","","","","key","f","16.667642857142866","960","536","f","true","img/H_28.png","朋友","freeprac_self","",""
"","","","","","html-keyboard-response","19","111612","0.0-8.0-0.0-1.3","null","<span style='color:GreenYellow; font-size: 70px;'>正确! </span>","null","","","","","","","","","","","","","","","","","","","","","","","feedback_test",""
"","","","","","psychophysics","20","114101","0.0-8.0-0.0-0.4","1488","","d","","","","","","","","","","","","","key","d","16.66765540540537","960","536","d","true","img/C_28.png","朋友","freeprac_self","",""
"","","","","","html-keyboard-response","21","114408","0.0-8.0-0.0-1.4","null","<span style='color:GreenYellow; font-size: 70px;'>正确! </span>","null","","","","","","","","","","","","","","","","","","","","","","","feedback_test",""
"","","","","","psychophysics","22","116934","0.0-8.0-0.0-0.5","1523","","k","","","","","","","","","","","","","key","k","16.667286666666623","960","536","d","false","img/C_28.png","自我","freeprac_self","",""
"","","","","","html-keyboard-response","23","117237","0.0-8.0-0.0-1.5","null","<span style='color:red; font-size: 70px;'>错误! </span>","null","","","","","","","","","","","","","","","","","","","","","","","feedback_test",""
"","","","","","psychophysics","24","120414","0.0-8.0-0.0-0.6","2176","","j","","","","","","","","","","","","","key","j","16.597507936507956","960","536","j","true","img/S_28.png","自我","freeprac_self","",""
"","","","","","html-keyboard-response","25","120719","0.0-8.0-0.0-1.6","null","<span style='color:GreenYellow; font-size: 70px;'>正确! </span>","null","","","","","","","","","","","","","","","","","","","","","","","feedback_test",""
"","","","","","psychophysics","26","123526","0.0-8.0-0.0-0.7","1804","","d","","","","","","","","","","","","","key","d","16.667892857142892","960","536","d","true","img/H_28.png","生人","freeprac_self","",""
"","","","","","html-keyboard-response","27","123832","0.0-8.0-0.0-1.7","null","<span style='color:GreenYellow; font-size: 70px;'>正确! </span>","null","","","","","","","","","","","","","","","","","","","","","","","feedback_test",""
"","","","","","psychophysics","28","126286","0.0-8.0-0.0-0.8","1453","","d","","","","","","","","","","","","","key","d","16.66876712328767","960","536","k","false","img/S_28.png","朋友","freeprac_self","",""
"","","","","","html-keyboard-response","29","126601","0.0-8.0-0.0-1.8","null","<span style='color:red; font-size: 70px;'>错误! </span>","null","","","","","","","","","","","","","","","","","","","","","","","feedback_test",""
"","","","","","psychophysics","30","130414","0.0-8.0-0.0-0.9","2811","","f","","","","","","","","","","","","","key","f","16.667885964912305","960","536","f","true","img/C_28.png","生人","freeprac_self","",""
"","","","","","html-keyboard-response","31","130715","0.0-8.0-0.0-1.9","null","<span style='color:GreenYellow; font-size: 70px;'>正确! </span>","null","","","","","","","","","","","","","","","","","","","","","","","feedback_test",""
"","","","","","psychophysics","32","133413","0.0-8.0-0.0-0.10","1696","","k","","","","","","","","","","","","","key","k","16.66723602484483","960","536","d","false","img/H_28.png","自我","freeprac_self","",""
"","","","","","html-keyboard-response","33","133730","0.0-8.0-0.0-1.10","null","<span style='color:red; font-size: 70px;'>错误! </span>","null","","","","","","","","","","","","","","","","","","","","","","","feedback_test",""
"","","","","","psychophysics","34","136197","0.0-8.0-0.0-0.11","1466","","d","","","","","","","","","","","","","key","d","16.667789115646315","960","536","f","false","img/C_28.png","生人","freeprac_self","",""
"","","","","","html-keyboard-response","35","136507","0.0-8.0-0.0-1.11","null","<span style='color:red; font-size: 70px;'>错误! </span>","null","","","","","","","","","","","","","","","","","","","","","","","feedback_test",""
"","","","","","html-keyboard-response","36","143509","0.0-8.0-1.0-0.0","7001","<style>.context{color:white; font-size: 35px; line-height:40px}</style>                              <div><p class='context'>您正确回答了58% 的试次。</p><p class='context'>您的平均反应时为1707毫秒。</p>","j","","","","","","","","","","","","","","","","","","","","","","","",""
"","","","","","instructions","37","164389","0.0-8.0-1.0-1.0","20878","","","","","","","","","","","","","","[{""page_index"":0,""viewing_time"":1910},{""page_index"":1,""viewing_time"":16056},{""page_index"":2,""viewing_time"":2912}]","","","","","","","","","","","",""
"","","","","","psychophysics","38","168125","0.0-8.1-0.1-0.12","2726","","f","","","","","","","","","","","","","key","f","16.65545739910321","960","536","j","false","img/S_28.png","自我","freeprac_self","",""
"","","","","","html-keyboard-response","39","168441","0.0-8.1-0.1-1.12","null","<span style='color:red; font-size: 70px;'>错误! </span>","null","","","","","","","","","","","","","","","","","","","","","","","feedback_test",""
"","","","","","psychophysics","40","174365","0.0-8.1-0.1-0.13","4924","","d","","","","","","","","","","","","","key","d","16.667717514124302","960","536","f","false","img/H_28.png","朋友","freeprac_self","",""
"","","","","","html-keyboard-response","41","174678","0.0-8.1-0.1-1.13","null","<span style='color:red; font-size: 70px;'>错误! </span>","null","","","","","","","","","","","","","","","","","","","","","","","feedback_test",""
"","","","","","psychophysics","42","177573","0.0-8.1-0.1-0.14","1894","","k","","","","","","","","","","","","","key","k","16.667790697674505","960","536","d","false","img/H_28.png","自我","freeprac_self","",""
"","","","","","html-keyboard-response","43","177874","0.0-8.1-0.1-1.14","null","<span style='color:red; font-size: 70px;'>错误! </span>","null","","","","","","","","","","","","","","","","","","","","","","","feedback_test",""
"","","","","","psychophysics","44","181197","0.0-8.1-0.1-0.15","2322","","f","","","","","","","","","","","","","key","f","16.66792424242415","960","536","f","true","img/H_28.png","朋友","freeprac_self","",""
"","","","","","html-keyboard-response","45","181501","0.0-8.1-0.1-1.15","null","<span style='color:GreenYellow; font-size: 70px;'>正确! </span>","null","","","","","","","","","","","","","","","","","","","","","","","feedback_test",""
"","","","","","psychophysics","46","183901","0.0-8.1-0.1-0.16","1399","","f","","","","","","","","","","","","","key","f","16.667573426573348","960","536","f","true","img/C_28.png","生人","freeprac_self","",""
"","","","","","html-keyboard-response","47","184205","0.0-8.1-0.1-1.16","null","<span style='color:GreenYellow; font-size: 70px;'>正确! </span>","null","","","","","","","","","","","","","","","","","","","","","","","feedback_test",""
"","","","","","psychophysics","48","186821","0.0-8.1-0.1-0.17","1613","","f","","","","","","","","","","","","","key","f","16.66828846153844","960","536","f","true","img/C_28.png","生人","freeprac_self","",""
"","","","","","html-keyboard-response","49","187135","0.0-8.1-0.1-1.17","null","<span style='color:GreenYellow; font-size: 70px;'>正确! </span>","null","","","","","","","","","","","","","","","","","","","","","","","feedback_test",""
"","","","","","psychophysics","50","189221","0.0-8.1-0.1-0.18","1085","","j","","","","","","","","","","","","","key","j","16.66766935483869","960","536","j","true","img/S_28.png","自我","freeprac_self","",""
"","","","","","html-keyboard-response","51","189525","0.0-8.1-0.1-1.18","null","<span style='color:GreenYellow; font-size: 70px;'>正确! </span>","null","","","","","","","","","","","","","","","","","","","","","","","feedback_test",""
"","","","","","psychophysics","52","192437","0.0-8.1-0.1-0.19","1910","","d","","","","","","","","","","","","","key","d","16.6677919075144","960","536","d","true","img/C_28.png","朋友","freeprac_self","",""
"","","","","","html-keyboard-response","53","192738","0.0-8.1-0.1-1.19","null","<span style='color:GreenYellow; font-size: 70px;'>正确! </span>","null","","","","","","","","","","","","","","","","","","","","","","","feedback_test",""
"","","","","","psychophysics","54","196581","0.0-8.1-0.1-0.20","2841","","d","","","","","","","","","","","","","key","d","16.668230434782604","960","536","d","true","img/H_28.png","生人","freeprac_self","",""
"","","","","","html-keyboard-response","55","196896","0.0-8.1-0.1-1.20","null","<span style='color:GreenYellow; font-size: 70px;'>正确! </span>","null","","","","","","","","","","","","","","","","","","","","","","","feedback_test",""
"","","","","","psychophysics","56","200429","0.0-8.1-0.1-0.21","2531","","k","","","","","","","","","","","","","key","k","16.667284360189534","960","536","k","true","img/S_28.png","生人","freeprac_self","",""
"","","","","","html-keyboard-response","57","200732","0.0-8.1-0.1-1.21","null","<span style='color:GreenYellow; font-size: 70px;'>正确! </span>","null","","","","","","","","","","","","","","","","","","","","","","","feedback_test",""
"","","","","","psychophysics","58","204501","0.0-8.1-0.1-0.22","2768","","d","","","","","","","","","","","","","key","d","16.66755111111108","960","536","d","true","img/C_28.png","自我","freeprac_self","",""
"","","","","","html-keyboard-response","59","204817","0.0-8.1-0.1-1.22","null","<span style='color:GreenYellow; font-size: 70px;'>正确! </span>","null","","","","","","","","","","","","","","","","","","","","","","","feedback_test",""
"","","","","","psychophysics","60","207718","0.0-8.1-0.1-0.23","1900","","d","","","","","","","","","","","","","key","d","16.6674971098265","960","536","k","false","img/S_28.png","朋友","freeprac_self","",""
"","","","","","html-keyboard-response","61","208031","0.0-8.1-0.1-1.23","null","<span style='color:red; font-size: 70px;'>错误! </span>","null","","","","","","","","","","","","","","","","","","","","","","","feedback_test",""
"","","","","","html-keyboard-response","62","210766","0.0-8.1-1.1-0.1","2733","<style>.context{color:white; font-size: 35px; line-height:40px}</style>                              <div><p class='context'>您正确回答了67% 的试次。</p><p class='context'>您的平均反应时为2059毫秒。</p>"," ","","","","","","","","","","","","","","","","","","","","","","","",""
"","","","","","instructions","63","223830","0.0-8.1-1.1-1.1","13063","","","","","","","","","","","","","","[{""page_index"":0,""viewing_time"":1543},{""page_index"":1,""viewing_time"":8960},{""page_index"":2,""viewing_time"":2560}]","","","","","","","","","","","",""
"","","","","","psychophysics","64","228982","0.0-8.2-0.2-0.24","4149","","d","","","","","","","","","","","","","key","d","16.66794155844154","960","536","d","true","img/H_28.png","生人","freeprac_self","",""
"","","","","","html-keyboard-response","65","229295","0.0-8.2-0.2-1.24","null","<span style='color:GreenYellow; font-size: 70px;'>正确! </span>","null","","","","","","","","","","","","","","","","","","","","","","","feedback_test",""
"","","","","","psychophysics","66","231862","0.0-8.2-0.2-0.25","1566","","f","","","","","","","","","","","","","key","f","16.66766666666661","960","536","f","true","img/C_28.png","生人","freeprac_self","",""
"","","","","","html-keyboard-response","67","232166","0.0-8.2-0.2-1.25","null","<span style='color:GreenYellow; font-size: 70px;'>正确! </span>","null","","","","","","","","","","","","","","","","","","","","","","","feedback_test",""
"","","","","","psychophysics","68","236477","0.0-8.2-0.2-0.26","3310","","d","","","","","","","","","","","","","key","d","16.667739299610883","960","536","d","true","img/H_28.png","自我","freeprac_self","",""
"","","","","","html-keyboard-response","69","236781","0.0-8.2-0.2-1.26","null","<span style='color:GreenYellow; font-size: 70px;'>正确! </span>","null","","","","","","","","","","","","","","","","","","","","","","","feedback_test",""
"","","","","","psychophysics","70","239669","0.0-8.2-0.2-0.27","1887","","d","","","","","","","","","","","","","key","d","16.66805232558139","960","536","d","true","img/C_28.png","自我","freeprac_self","",""
"","","","","","html-keyboard-response","71","239979","0.0-8.2-0.2-1.27","null","<span style='color:GreenYellow; font-size: 70px;'>正确! </span>","null","","","","","","","","","","","","","","","","","","","","","","","feedback_test",""
"","","","","","psychophysics","72","242349","0.0-8.2-0.2-0.28","1369","","f","","","","","","","","","","","","","key","f","16.667028368794373","960","536","f","true","img/C_28.png","生人","freeprac_self","",""
"","","","","","html-keyboard-response","73","242666","0.0-8.2-0.2-1.28","null","<span style='color:GreenYellow; font-size: 70px;'>正确! </span>","null","","","","","","","","","","","","","","","","","","","","","","","feedback_test",""
"","","","","","psychophysics","74","245110","0.0-8.2-0.2-0.29","1442","","k","","","","","","","","","","","","","key","k","16.667413793103407","960","536","k","true","img/S_28.png","生人","freeprac_self","",""
"","","","","","html-keyboard-response","75","245423","0.0-8.2-0.2-1.29","null","<span style='color:GreenYellow; font-size: 70px;'>正确! </span>","null","","","","","","","","","","","","","","","","","","","","","","","feedback_test",""
"","","","","","psychophysics","76","248149","0.0-8.2-0.2-0.30","1724","","f","","","","","","","","","","","","","key","f","16.667822085889636","960","536","f","true","img/H_28.png","朋友","freeprac_self","",""
"","","","","","html-keyboard-response","77","248459","0.0-8.2-0.2-1.30","null","<span style='color:GreenYellow; font-size: 70px;'>正确! </span>","null","","","","","","","","","","","","","","","","","","","","","","","feedback_test",""
"","","","","","psychophysics","78","251021","0.0-8.2-0.2-0.31","1561","","f","","","","","","","","","","","","","key","f","16.667732026143796","960","536","f","true","img/H_28.png","朋友","freeprac_self","",""
"","","","","","html-keyboard-response","79","251328","0.0-8.2-0.2-1.31","null","<span style='color:GreenYellow; font-size: 70px;'>正确! </span>","null","","","","","","","","","","","","","","","","","","","","","","","feedback_test",""
"","","","","","psychophysics","80","253958","0.0-8.2-0.2-0.32","1628","","k","","","","","","","","","","","","","key","k","16.58117307692308","960","536","k","true","img/S_28.png","朋友","freeprac_self","",""
"","","","","","html-keyboard-response","81","254260","0.0-8.2-0.2-1.32","null","<span style='color:GreenYellow; font-size: 70px;'>正确! </span>","null","","","","","","","","","","","","","","","","","","","","","","","feedback_test",""
"","","","","","psychophysics","82","256870","0.0-8.2-0.2-0.33","1608","","j","","","","","","","","","","","","","key","j","16.668358974358945","960","536","j","true","img/S_28.png","自我","freeprac_self","",""
"","","","","","html-keyboard-response","83","257174","0.0-8.2-0.2-1.33","null","<span style='color:GreenYellow; font-size: 70px;'>正确! </span>","null","","","","","","","","","","","","","","","","","","","","","","","feedback_test",""
"","","","","","psychophysics","84","258958","0.0-8.2-0.2-0.34","783","","j","","","","","","","","","","","","","key","j","16.667018867924508","960","536","j","true","img/S_28.png","自我","freeprac_self","",""
"","","","","","html-keyboard-response","85","259260","0.0-8.2-0.2-1.34","null","<span style='color:GreenYellow; font-size: 70px;'>正确! </span>","null","","","","","","","","","","","","","","","","","","","","","","","feedback_test",""
"","","","","","psychophysics","86","261574","0.0-8.2-0.2-0.35","1313","","d","","","","","","","","","","","","","key","d","16.66820289855051","960","536","d","true","img/C_28.png","朋友","freeprac_self","",""
"","","","","","html-keyboard-response","87","261883","0.0-8.2-0.2-1.35","null","<span style='color:GreenYellow; font-size: 70px;'>正确! </span>","null","","","","","","","","","","","","","","","","","","","","","","","feedback_test",""
"","","","","","html-keyboard-response","88","266870","0.0-9.0","4986","[""<style>.context{color:white; font-size: 35px; line-height:40px}</style>              <div><p class='context'>您正确回答了100% 的试次。</p><p class='context'>您的平均反应时为1862毫秒。</p><p class='context'>恭喜您完成这一阶段的练习。按任意键进入<span style='color: yellow;'>重点关注图形为“朋友”</span>的练习。</p></div><p class='footer' style='font-size:35px; line-height:30px;'>任务要求：\n              <p class='footer' style='font-size:35px; line-height:35px;'>对于与“朋友”对应的图形：如果 匹配 ，请按 <span style=\""color: lightgreen;\"">j键</span></p><p class='footer' style='font-size:35px'>如果 不匹配 ，请按<span style=\""color: lightgreen;\"">k键</p></span>\n              <p class='footer' style='font-size:35px; line-height:35px;'>对于非“朋友”对应的图形：如果 匹配 ，请按 <span style=\""color: lightgreen;\"">f键</span></p><p class='footer' style='font-size:35px'>如果 不匹配 ，请按<span style=\""color: lightgreen;\"">d键</p></span>\n              <p class='footer' style='font-size:22px; line-height:25px;'>请在实验过程中将您的<span style=\""color: lightgreen;\"">食指和中指</span>放在电脑键盘的相应键位上进行按键。</p></span>""]","j","","","","","","","","","","","","","","","","","","","","","","","",""
"","","","","","psychophysics","89","274622","0.0-10.0-0.0-0.0","6748","","j","","","","","","","","","","","","","key","j","16.66778448275865","960","536","f","false","img/C_28.png","生人","freeprac_friend","",""
"","","","","","html-keyboard-response","90","274930","0.0-10.0-0.0-1.0","null","<span style='color:red; font-size: 70px;'>错误! </span>","null","","","","","","","","","","","","","","","","","","","","","","","feedback_test",""
"","","","","","psychophysics","91","279558","0.0-10.0-0.0-0.1","3627","","f","","","","","","","","","","","","","key","f","16.618173913043407","960","536","f","true","img/S_28.png","自我","freeprac_friend","",""
"","","","","","html-keyboard-response","92","279871","0.0-10.0-0.0-1.1","null","<span style='color:GreenYellow; font-size: 70px;'>正确! </span>","null","","","","","","","","","","","","","","","","","","","","","","","feedback_test",""
"","","","","","psychophysics","93","285342","0.0-10.0-0.0-0.2","4469","","k","","","","","","","","","","","","","key","k","16.66773394495409","960","536","k","true","img/H_28.png","自我","freeprac_friend","",""
"","","","","","html-keyboard-response","94","285645","0.0-10.0-0.0-1.2","null","<span style='color:GreenYellow; font-size: 70px;'>正确! </span>","null","","","","","","","","","","","","","","","","","","","","","","","feedback_test",""
"","","","","","psychophysics","95","288110","0.0-10.0-0.0-0.3","1464","","j","","","","","","","","","","","","","key","j","16.667571428571637","960","536","j","true","img/H_28.png","朋友","freeprac_friend","",""
"","","","","","html-keyboard-response","96","288419","0.0-10.0-0.0-1.3","null","<span style='color:GreenYellow; font-size: 70px;'>正确! </span>","null","","","","","","","","","","","","","","","","","","","","","","","feedback_test",""
"","","","","","psychophysics","97","290478","0.0-10.0-0.0-0.4","1058","","j","","","","","","","","","","","","","key","j","16.667098360655725","960","536","j","true","img/H_28.png","朋友","freeprac_friend","",""
"","","","","","html-keyboard-response","98","290780","0.0-10.0-0.0-1.4","null","<span style='color:GreenYellow; font-size: 70px;'>正确! </span>","null","","","","","","","","","","","","","","","","","","","","","","","feedback_test",""
"","","","","","psychophysics","99","292958","0.0-10.0-0.0-0.5","1176","","f","","","","","","","","","","","","","key","f","16.666861538461838","960","536","f","true","img/S_28.png","自我","freeprac_friend","",""
"","","","","","html-keyboard-response","100","293261","0.0-10.0-0.0-1.5","null","<span style='color:GreenYellow; font-size: 70px;'>正确! </span>","null","","","","","","","","","","","","","","","","","","","","","","","feedback_test",""
"","","","","","psychophysics","101","295734","0.0-10.0-0.0-0.6","1471","","f","","","","","","","","","","","","","key","f","16.668445945945898","960","536","f","true","img/C_28.png","生人","freeprac_friend","",""
"","","","","","html-keyboard-response","102","296039","0.0-10.0-0.0-1.6","null","<span style='color:GreenYellow; font-size: 70px;'>正确! </span>","null","","","","","","","","","","","","","","","","","","","","","","","feedback_test",""
"","","","","","psychophysics","103","298942","0.0-10.0-0.0-0.7","1902","","d","","","","","","","","","","","","","key","d","16.66709826589593","960","536","d","true","img/C_28.png","自我","freeprac_friend","",""
"","","","","","html-keyboard-response","104","299245","0.0-10.0-0.0-1.7","null","<span style='color:GreenYellow; font-size: 70px;'>正确! </span>","null","","","","","","","","","","","","","","","","","","","","","","","feedback_test",""
"","","","","","psychophysics","105","302070","0.0-10.0-0.0-0.8","1825","","d","","","","","","","","","","","","","key","d","16.667733727810703","960","536","d","true","img/S_28.png","生人","freeprac_friend","",""
"","","","","","html-keyboard-response","106","302375","0.0-10.0-0.0-1.8","null","<span style='color:GreenYellow; font-size: 70px;'>正确! </span>","null","","","","","","","","","","","","","","","","","","","","","","","feedback_test",""
"","","","","","psychophysics","107","304702","0.0-10.0-0.0-0.9","1326","","k","","","","","","","","","","","","","key","k","16.667057553956557","960","536","k","true","img/H_28.png","生人","freeprac_friend","",""
"","","","","","html-keyboard-response","108","305011","0.0-10.0-0.0-1.9","null","<span style='color:GreenYellow; font-size: 70px;'>正确! </span>","null","","","","","","","","","","","","","","","","","","","","","","","feedback_test",""
"","","","","","psychophysics","109","307654","0.0-10.0-0.0-0.10","1640","","d","","","","","","","","","","","","","key","d","16.66749367088594","960","536","d","true","img/C_28.png","朋友","freeprac_friend","",""
"","","","","","html-keyboard-response","110","307960","0.0-10.0-0.0-1.10","null","<span style='color:GreenYellow; font-size: 70px;'>正确! </span>","null","","","","","","","","","","","","","","","","","","","","","","","feedback_test",""
"","","","","","psychophysics","111","310086","0.0-10.0-0.0-0.11","1124","","d","","","","","","","","","","","","","key","d","16.66786614173242","960","536","d","true","img/S_28.png","朋友","freeprac_friend","",""
"","","","","","html-keyboard-response","112","310402","0.0-10.0-0.0-1.11","null","<span style='color:GreenYellow; font-size: 70px;'>正确! </span>","null","","","","","","","","","","","","","","","","","","","","","","","feedback_test",""
"","","","","","html-keyboard-response","113","315598","0.0-11.0","5195","[""<style>.context{color:white; font-size: 35px; line-height:40px}</style>                  <div><p class='context'>您正确回答了92% 的试次。</p><p class='context'>您的平均反应时为1917毫秒。</p><p class='context'>恭喜您完成这一阶段的练习。按任意键进入<span style='color: yellow;'>重点关注图形为“生人”</span>的练习。</p></div><p class='footer' style='font-size:35px; line-height:30px;'>任务要求：\n                  <p class='footer' style='font-size:35px; line-height:35px;'>对与“生人”对应的图形，如果 匹配 ，请按 <span style=\""color: lightgreen;\"">j键</span></p><p class='footer' style='font-size:35px'>如果 不匹配 ，请按<span style=\""color: lightgreen;\"">k键</p></span>\n                  <p class='footer' style='font-size:35px; line-height:35px;'>对非“生人”对应的图形，如果 匹配 ，请按 <span style=\""color: lightgreen;\"">f键</span></p><p class='footer' style='font-size:35px'>如果 不匹配 ，请按<span style=\""color: lightgreen;\"">d键</p></span>\n                  <p class='footer' style='font-size:22px; line-height:25px;'>请在实验过程中将您的<span style=\""color: lightgreen;\"">食指和中指</span>放在电脑键盘的相应键位上进行按键。</p></span>""]"," ","","","","","","","","","","","","","","","","","","","","","","","",""
"","","","","","psychophysics","114","318902","0.0-12.0-0.0-0.0","2297","","d","","","","","","","","","","","","","key","d","16.66758585858601","960","536","d","true","img/H_28.png","生人","freeprac_stranger","",""
"","","","","","html-keyboard-response","115","319211","0.0-12.0-0.0-1.0","null","<span style='color:GreenYellow; font-size: 70px;'>正确! </span>","null","","","","","","","","","","","","","","","","","","","","","","","feedback_test",""
"","","","","","psychophysics","116","321167","0.0-12.0-0.0-0.1","955","","j","","","","","","","","","","","","","key","j","16.66725000000011","960","536","j","true","img/C_28.png","生人","freeprac_stranger","",""
"","","","","","html-keyboard-response","117","321478","0.0-12.0-0.0-1.1","null","<span style='color:GreenYellow; font-size: 70px;'>正确! </span>","null","","","","","","","","","","","","","","","","","","","","","","","feedback_test",""
"","","","","","psychophysics","118","324606","0.0-12.0-0.0-0.2","2126","","f","","","","","","","","","","","","","key","f","16.667866310160445","960","536","f","true","img/H_28.png","朋友","freeprac_stranger","",""
"","","","","","html-keyboard-response","119","324922","0.0-12.0-0.0-1.2","null","<span style='color:GreenYellow; font-size: 70px;'>正确! </span>","null","","","","","","","","","","","","","","","","","","","","","","","feedback_test",""
"","","","","","psychophysics","120","327294","0.0-12.0-0.0-0.3","1371","","f","","","","","","","","","","","","","key","f","16.667787234042525","960","536","f","true","img/S_28.png","自我","freeprac_stranger","",""
"","","","","","html-keyboard-response","121","327596","0.0-12.0-0.0-1.3","null","<span style='color:GreenYellow; font-size: 70px;'>正确! </span>","null","","","","","","","","","","","","","","","","","","","","","","","feedback_test",""
"","","","","","psychophysics","122","329934","0.0-12.0-0.0-0.4","1337","","d","","","","","","","","","","","","","key","d","16.668223021582538","960","536","d","true","img/S_28.png","朋友","freeprac_stranger","",""
"","","","","","html-keyboard-response","123","330250","0.0-12.0-0.0-1.4","null","<span style='color:GreenYellow; font-size: 70px;'>正确! </span>","null","","","","","","","","","","","","","","","","","","","","","","","feedback_test",""
"","","","","","psychophysics","124","333622","0.0-12.0-0.0-0.5","2371","","k","","","","","","","","","","","","","key","k","16.60346268656732","960","536","d","false","img/S_28.png","生人","freeprac_stranger","",""
"","","","","","html-keyboard-response","125","333936","0.0-12.0-0.0-1.5","null","<span style='color:red; font-size: 70px;'>错误! </span>","null","","","","","","","","","","","","","","","","","","","","","","","feedback_test",""
"","","","","","psychophysics","126","336630","0.0-12.0-0.0-0.6","1692","","d","","","","","","","","","","","","","key","d","16.667631249999978","960","536","d","true","img/H_28.png","自我","freeprac_stranger","",""
"","","","","","html-keyboard-response","127","336944","0.0-12.0-0.0-1.6","null","<span style='color:GreenYellow; font-size: 70px;'>正确! </span>","null","","","","","","","","","","","","","","","","","","","","","","","feedback_test",""
"","","","","","psychophysics","128","339526","0.0-12.0-0.0-0.7","1581","","f","","","","","","","","","","","","","key","f","16.668448051947998","960","536","f","true","img/H_28.png","朋友","freeprac_stranger","",""
"","","","","","html-keyboard-response","129","339831","0.0-12.0-0.0-1.7","null","<span style='color:GreenYellow; font-size: 70px;'>正确! </span>","null","","","","","","","","","","","","","","","","","","","","","","","feedback_test",""
"","","","","","psychophysics","130","341982","0.0-12.0-0.0-0.8","1150","","k","","","","","","","","","","","","","key","k","16.667828124999687","960","536","k","true","img/C_28.png","朋友","freeprac_stranger","",""
"","","","","","html-keyboard-response","131","342290","0.0-12.0-0.0-1.8","null","<span style='color:GreenYellow; font-size: 70px;'>正确! </span>","null","","","","","","","","","","","","","","","","","","","","","","","feedback_test",""
"","","","","","psychophysics","132","345598","0.0-12.0-0.0-0.9","2307","","f","","","","","","","","","","","","","key","f","16.667502538071176","960","536","f","true","img/S_28.png","自我","freeprac_stranger","",""
"","","","","","html-keyboard-response","133","345906","0.0-12.0-0.0-1.9","null","<span style='color:GreenYellow; font-size: 70px;'>正确! </span>","null","","","","","","","","","","","","","","","","","","","","","","","feedback_test",""
"","","","","","psychophysics","134","349550","0.0-12.0-0.0-0.10","2643","","j","","","","","","","","","","","","","key","j","16.66729493087564","960","536","j","true","img/C_28.png","生人","freeprac_stranger","",""
"","","","","","html-keyboard-response","135","349857","0.0-12.0-0.0-1.10","null","<span style='color:GreenYellow; font-size: 70px;'>正确! </span>","null","","","","","","","","","","","","","","","","","","","","","","","feedback_test",""
"","","","","","psychophysics","136","352158","0.0-12.0-0.0-0.11","1299","","k","","","","","","","","","","","","","key","k","16.66708029197048","960","536","k","true","img/C_28.png","自我","freeprac_stranger","",""
"","","","","","html-keyboard-response","137","352470","0.0-12.0-0.0-1.11","null","<span style='color:GreenYellow; font-size: 70px;'>正确! </span>","null","","","","","","","","","","","","","","","","","","","","","","","feedback_test",""
"","","","","","instructions","138","372167","0.0-13.0","19695","","","","","","","","","","","","","","[{""page_index"":0,""viewing_time"":19695}]","","","","","","","","","","","",""
"","","","","","psychophysics","139","374165","0.0-14.0-0.0-0.0","998","","j","","","","","","","","","","","","","key","j","16.668008403360997","960","536","j","true","img/S_28.png","自我","prac_self","","自我"
"","","","","","html-keyboard-response","140","374473","0.0-14.0-0.0-1.0","null","<span style='color:GreenYellow; font-size: 70px;'>正确! </span>","null","","","","","","","","","","","","","","","","","","","","","","","feedback_test",""
"","","","","","psychophysics","141","376975","0.0-14.0-0.0-0.1","null","","null","","","","","","","","","","","","","key","null","16.66740268456395","960","536","d","false","img/C_28.png","自我","prac_self","","生人"
"","","","","","html-keyboard-response","142","377278","0.0-14.0-0.0-1.1","null","<span class='add_' style='color:yellow; font-size: 70px;'> 太慢! </span>","null","","","","","","","","","","","","","","","","","","","","","","","feedback_test",""
"","","","","","psychophysics","143","379333","0.0-14.0-0.0-0.2","1055","","d","","","","","","","","","","","","","key","d","16.667614754098544","960","536","d","true","img/H_28.png","自我","prac_self","","朋友"
"","","","","","html-keyboard-response","144","379642","0.0-14.0-0.0-1.2","null","<span style='color:GreenYellow; font-size: 70px;'>正确! </span>","null","","","","","","","","","","","","","","","","","","","","","","","feedback_test",""
"","","","","","psychophysics","145","381853","0.0-14.0-0.0-0.3","1211","","f","","","","","","","","","","","","","key","f","16.66738931297721","960","536","k","false","img/S_28.png","朋友","prac_self","","自我"
"","","","","","html-keyboard-response","146","382156","0.0-14.0-0.0-1.3","null","<span style='color:red; font-size: 70px;'>错误! </span>","null","","","","","","","","","","","","","","","","","","","","","","","feedback_test",""
"","","","","","psychophysics","147","384518","0.0-14.0-0.0-0.4","1361","","d","","","","","","","","","","","","","key","d","16.66834285714306","960","536","f","false","img/C_28.png","生人","prac_self","","生人"
"","","","","","html-keyboard-response","148","384824","0.0-14.0-0.0-1.4","null","<span style='color:red; font-size: 70px;'>错误! </span>","null","","","","","","","","","","","","","","","","","","","","","","","feedback_test",""
"","","","","","psychophysics","149","387229","0.0-14.0-0.0-0.5","1404","","d","","","","","","","","","","","","","key","d","16.666839160839213","960","536","d","true","img/H_28.png","生人","prac_self","","朋友"
"","","","","","html-keyboard-response","150","387546","0.0-14.0-0.0-1.5","null","<span style='color:GreenYellow; font-size: 70px;'>正确! </span>","null","","","","","","","","","","","","","","","","","","","","","","","feedback_test",""
"","","","","","psychophysics","151","389517","0.0-14.0-0.0-0.6","970","","j","","","","","","","","","","","","","key","j","16.667632478632584","960","536","j","true","img/S_28.png","自我","prac_self","","自我"
"","","","","","html-keyboard-response","152","389818","0.0-14.0-0.0-1.6","null","<span style='color:GreenYellow; font-size: 70px;'>正确! </span>","null","","","","","","","","","","","","","","","","","","","","","","","feedback_test",""
"","","","","","psychophysics","153","391637","0.0-14.0-0.0-0.7","817","","d","","","","","","","","","","","","","key","d","16.66731481481488","960","536","f","false","img/C_28.png","生人","prac_self","","生人"
"","","","","","html-keyboard-response","154","391945","0.0-14.0-0.0-1.7","null","<span style='color:red; font-size: 70px;'>错误! </span>","null","","","","","","","","","","","","","","","","","","","","","","","feedback_test",""
"","","","","","psychophysics","155","393901","0.0-14.0-0.0-0.8","956","","d","","","","","","","","","","","","","key","d","16.66782758620684","960","536","d","true","img/C_28.png","朋友","prac_self","","生人"
"","","","","","html-keyboard-response","156","394217","0.0-14.0-0.0-1.8","null","<span style='color:GreenYellow; font-size: 70px;'>正确! </span>","null","","","","","","","","","","","","","","","","","","","","","","","feedback_test",""
"","","","","","psychophysics","157","396557","0.0-14.0-0.0-0.9","1339","","k","","","","","","","","","","","","","key","k","16.667757142856967","960","536","k","true","img/S_28.png","生人","prac_self","","自我"
"","","","","","html-keyboard-response","158","396858","0.0-14.0-0.0-1.9","null","<span style='color:GreenYellow; font-size: 70px;'>正确! </span>","null","","","","","","","","","","","","","","","","","","","","","","","feedback_test",""
"","","","","","psychophysics","159","398942","0.0-14.0-0.0-0.10","1081","","f","","","","","","","","","","","","","key","f","16.667637096774282","960","536","f","true","img/H_28.png","朋友","prac_self","","朋友"
"","","","","","html-keyboard-response","160","399254","0.0-14.0-0.0-1.10","null","<span style='color:GreenYellow; font-size: 70px;'>正确! </span>","null","","","","","","","","","","","","","","","","","","","","","","","feedback_test",""
"","","","","","psychophysics","161","401509","0.0-14.0-0.0-0.11","1254","","f","","","","","","","","","","","","","key","f","16.565514925372987","960","536","f","true","img/H_28.png","朋友","prac_self","","朋友"
"","","","","","html-keyboard-response","162","401813","0.0-14.0-0.0-1.11","null","<span style='color:GreenYellow; font-size: 70px;'>正确! </span>","null","","","","","","","","","","","","","","","","","","","","","","","feedback_test",""
"","","","","","psychophysics","163","404054","0.0-14.0-0.0-0.12","1238","","f","","","","","","","","","","","","","key","f","16.667172932330804","960","536","f","true","img/H_28.png","朋友","prac_self","","朋友"
"","","","","","html-keyboard-response","164","404355","0.0-14.0-0.0-1.12","null","<span style='color:GreenYellow; font-size: 70px;'>正确! </span>","null","","","","","","","","","","","","","","","","","","","","","","","feedback_test",""
"","","","","","psychophysics","165","406270","0.0-14.0-0.0-0.13","913","","j","","","","","","","","","","","","","key","j","16.668592920353785","960","536","j","true","img/S_28.png","自我","prac_self","","自我"
"","","","","","html-keyboard-response","166","406582","0.0-14.0-0.0-1.13","null","<span style='color:GreenYellow; font-size: 70px;'>正确! </span>","null","","","","","","","","","","","","","","","","","","","","","","","feedback_test",""
"","","","","","psychophysics","167","408798","0.0-14.0-0.0-0.14","1214","","d","","","","","","","","","","","","","key","d","16.66823484848481","960","536","d","true","img/C_28.png","朋友","prac_self","","生人"
"","","","","","html-keyboard-response","168","409104","0.0-14.0-0.0-1.14","null","<span style='color:GreenYellow; font-size: 70px;'>正确! </span>","null","","","","","","","","","","","","","","","","","","","","","","","feedback_test",""
"","","","","","psychophysics","169","411165","0.0-14.0-0.0-0.15","1060","","d","","","","","","","","","","","","","key","d","16.562147540983563","960","536","d","true","img/C_28.png","自我","prac_self","","生人"
"","","","","","html-keyboard-response","170","411475","0.0-14.0-0.0-1.15","null","<span style='color:GreenYellow; font-size: 70px;'>正确! </span>","null","","","","","","","","","","","","","","","","","","","","","","","feedback_test",""
"","","","","","psychophysics","171","413806","0.0-14.0-0.0-0.16","1329","","d","","","","","","","","","","","","","key","d","16.667869565217163","960","536","k","false","img/S_28.png","朋友","prac_self","","自我"
"","","","","","html-keyboard-response","172","414108","0.0-14.0-0.0-1.16","null","<span style='color:red; font-size: 70px;'>错误! </span>","null","","","","","","","","","","","","","","","","","","","","","","","feedback_test",""
"","","","","","psychophysics","173","416581","0.0-14.0-0.0-0.17","1472","","d","","","","","","","","","","","","","key","d","16.66733333333332","960","536","d","true","img/H_28.png","自我","prac_self","","朋友"
"","","","","","html-keyboard-response","174","416891","0.0-14.0-0.0-1.17","null","<span style='color:GreenYellow; font-size: 70px;'>正确! </span>","null","","","","","","","","","","","","","","","","","","","","","","","feedback_test",""
"","","","","","psychophysics","175","418909","0.0-14.0-0.0-0.18","1017","","d","","","","","","","","","","","","","key","d","16.66705833333302","960","536","f","false","img/C_28.png","生人","prac_self","","生人"
"","","","","","html-keyboard-response","176","419213","0.0-14.0-0.0-1.18","null","<span style='color:red; font-size: 70px;'>错误! </span>","null","","","","","","","","","","","","","","","","","","","","","","","feedback_test",""
"","","","","","psychophysics","177","421238","0.0-14.0-0.0-0.19","1024","","j","","","","","","","","","","","","","key","j","16.667074999999993","960","536","j","true","img/S_28.png","自我","prac_self","","自我"
"","","","","","html-keyboard-response","178","421550","0.0-14.0-0.0-1.19","null","<span style='color:GreenYellow; font-size: 70px;'>正确! </span>","null","","","","","","","","","","","","","","","","","","","","","","","feedback_test",""
"","","","","","psychophysics","179","423821","0.0-14.0-0.0-0.20","1270","","d","","","","","","","","","","","","","key","d","16.668325925926265","960","536","d","true","img/H_28.png","生人","prac_self","","朋友"
"","","","","","html-keyboard-response","180","424123","0.0-14.0-0.0-1.20","null","<span style='color:GreenYellow; font-size: 70px;'>正确! </span>","null","","","","","","","","","","","","","","","","","","","","","","","feedback_test",""
"","","","","","psychophysics","181","426213","0.0-14.0-0.0-0.21","1090","","d","","","","","","","","","","","","","key","d","16.66856451612905","960","536","k","false","img/S_28.png","生人","prac_self","","自我"
"","","","","","html-keyboard-response","182","426524","0.0-14.0-0.0-1.21","null","<span style='color:red; font-size: 70px;'>错误! </span>","null","","","","","","","","","","","","","","","","","","","","","","","feedback_test",""
"","","","","","psychophysics","183","428790","0.0-14.0-0.0-0.22","1264","","f","","","","","","","","","","","","","key","f","16.66830597014893","960","536","f","true","img/H_28.png","朋友","prac_self","","朋友"
"","","","","","html-keyboard-response","184","429094","0.0-14.0-0.0-1.22","null","<span style='color:GreenYellow; font-size: 70px;'>正确! </span>","null","","","","","","","","","","","","","","","","","","","","","","","feedback_test",""
"","","","","","psychophysics","185","431486","0.0-14.0-0.0-0.23","1390","","f","","","","","","","","","","","","","key","f","16.66773943661943","960","536","f","true","img/C_28.png","生人","prac_self","","生人"
"","","","","","html-keyboard-response","186","431788","0.0-14.0-0.0-1.23","null","<span style='color:GreenYellow; font-size: 70px;'>正确! </span>","null","","","","","","","","","","","","","","","","","","","","","","","feedback_test",""
"","","","","","html-keyboard-response","187","441206","0.0-15.0","9416","[""<style>.context{color:white; font-size: 35px; line-height:40px}</style>              <div><p class='context'>您正确回答了71% 的试次。</p><p class='context'>您的平均反应时为1171毫秒。</p><p class='context'>恭喜您完成这一阶段的练习。按任意键进入<span style='color: yellow;'>重点关注图形为“朋友”</span>的练习。</p></div><p class='footer' style='font-size:35px; line-height:30px;'>任务要求：\n              <p class='footer' style='font-size:35px; line-height:35px;'>对于与“朋友”对应的图形：如果 匹配 ，请按 <span style=\""color: lightgreen;\"">j键</span></p><p class='footer' style='font-size:35px'>如果 不匹配 ，请按<span style=\""color: lightgreen;\"">k键</p></span>\n              <p class='footer' style='font-size:35px; line-height:35px;'>对于非“朋友”对应的图形：如果 匹配 ，请按 <span style=\""color: lightgreen;\"">f键</span></p><p class='footer' style='font-size:35px'>如果 不匹配 ，请按<span style=\""color: lightgreen;\"">d键</p></span>\n              <p class='footer' style='font-size:22px; line-height:25px;'>请在实验过程中将您的<span style=\""color: lightgreen;\"">食指和中指</span>放在电脑键盘的相应键位上进行按键。</p></span>""]"," ","","","","","","","","","","","","","","","","","","","","","","","",""
"","","","","","psychophysics","188","443722","0.0-16.0-0.0-0.0","null","","null","","","","","","","","","","","","","key","null","16.66804666666702","960","536","d","false","img/C_28.png","朋友","prac_friend","","生人"
"","","","","","html-keyboard-response","189","444035","0.0-16.0-0.0-1.0","null","<span class='add_' style='color:yellow; font-size: 70px;'> 太慢! </span>","null","","","","","","","","","","","","","","","","","","","","","","","feedback_test",""
"","","","","","psychophysics","190","446389","0.0-16.0-0.0-0.1","1354","","f","","","","","","","","","","","","","key","f","16.667785714285646","960","536","d","false","img/S_28.png","生人","prac_friend","","自我"
"","","","","","html-keyboard-response","191","446701","0.0-16.0-0.0-1.1","null","<span style='color:red; font-size: 70px;'>错误! </span>","null","","","","","","","","","","","","","","","","","","","","","","","feedback_test",""
"","","","","","psychophysics","192","448869","0.0-16.0-0.0-0.2","1168","","f","","","","","","","","","","","","","key","f","16.668519379844973","960","536","f","true","img/S_28.png","自我","prac_friend","","自我"
"","","","","","html-keyboard-response","193","449180","0.0-16.0-0.0-1.2","null","<span style='color:GreenYellow; font-size: 70px;'>正确! </span>","null","","","","","","","","","","","","","","","","","","","","","","","feedback_test",""
"","","","","","psychophysics","194","451413","0.0-16.0-0.0-0.3","1232","","f","","","","","","","","","","","","","key","f","16.667135338345805","960","536","f","true","img/C_28.png","生人","prac_friend","","生人"
"","","","","","html-keyboard-response","195","451714","0.0-16.0-0.0-1.3","null","<span style='color:GreenYellow; font-size: 70px;'>正确! </span>","null","","","","","","","","","","","","","","","","","","","","","","","feedback_test",""
"","","","","","psychophysics","196","453998","0.0-16.0-0.0-0.4","1283","","d","","","","","","","","","","","","","key","d","16.668301470588418","960","536","d","true","img/S_28.png","朋友","prac_friend","","自我"
"","","","","","html-keyboard-response","197","454301","0.0-16.0-0.0-1.4","null","<span style='color:GreenYellow; font-size: 70px;'>正确! </span>","null","","","","","","","","","","","","","","","","","","","","","","","feedback_test",""
"","","","","","psychophysics","198","456285","0.0-16.0-0.0-0.5","983","","f","","","","","","","","","","","","","key","f","16.668559322034017","960","536","f","true","img/C_28.png","生人","prac_friend","","生人"
"","","","","","html-keyboard-response","199","456598","0.0-16.0-0.0-1.5","null","<span style='color:GreenYellow; font-size: 70px;'>正确! </span>","null","","","","","","","","","","","","","","","","","","","","","","","feedback_test",""
"","","","","","psychophysics","200","458781","0.0-16.0-0.0-0.6","1182","","k","","","","","","","","","","","","","key","k","16.668276923076842","960","536","d","false","img/C_28.png","自我","prac_friend","","生人"
"","","","","","html-keyboard-response","201","459082","0.0-16.0-0.0-1.6","null","<span style='color:red; font-size: 70px;'>错误! </span>","null","","","","","","","","","","","","","","","","","","","","","","","feedback_test",""
"","","","","","psychophysics","202","461293","0.0-16.0-0.0-0.7","1210","","f","","","","","","","","","","","","","key","f","16.667484848484904","960","536","j","false","img/H_28.png","朋友","prac_friend","","朋友"
"","","","","","html-keyboard-response","203","461599","0.0-16.0-0.0-1.7","null","<span style='color:red; font-size: 70px;'>错误! </span>","null","","","","","","","","","","","","","","","","","","","","","","","feedback_test",""
"","","","","","psychophysics","204","463718","0.0-16.0-0.0-0.8","1117","","d","","","","","","","","","","","","","key","d","16.667587301587606","960","536","k","false","img/H_28.png","生人","prac_friend","","朋友"
"","","","","","html-keyboard-response","205","464024","0.0-16.0-0.0-1.8","null","<span style='color:red; font-size: 70px;'>错误! </span>","null","","","","","","","","","","","","","","","","","","","","","","","feedback_test",""
"","","","","","psychophysics","206","466526","0.0-16.0-0.0-0.9","null","","null","","","","","","","","","","","","","key","null","16.57792617449687","960","536","k","false","img/H_28.png","自我","prac_friend","","朋友"
"","","","","","html-keyboard-response","207","466831","0.0-16.0-0.0-1.9","null","<span class='add_' style='color:yellow; font-size: 70px;'> 太慢! </span>","null","","","","","","","","","","","","","","","","","","","","","","","feedback_test",""
"","","","","","psychophysics","208","468853","0.0-16.0-0.0-0.10","1022","","f","","","","","","","","","","","","","key","f","16.66782499999972","960","536","j","false","img/H_28.png","朋友","prac_friend","","朋友"
"","","","","","html-keyboard-response","209","469166","0.0-16.0-0.0-1.10","null","<span style='color:red; font-size: 70px;'>错误! </span>","null","","","","","","","","","","","","","","","","","","","","","","","feedback_test",""
"","","","","","psychophysics","210","471085","0.0-16.0-0.0-0.11","919","","j","","","","","","","","","","","","","key","j","16.66696491228057","960","536","f","false","img/S_28.png","自我","prac_friend","","自我"
"","","","","","html-keyboard-response","211","471387","0.0-16.0-0.0-1.11","null","<span style='color:red; font-size: 70px;'>错误! </span>","null","","","","","","","","","","","","","","","","","","","","","","","feedback_test",""
"","","","","","psychophysics","212","473365","0.0-16.0-0.0-0.12","976","","f","","","","","","","","","","","","","key","f","16.667415254237326","960","536","f","true","img/S_28.png","自我","prac_friend","","自我"
"","","","","","html-keyboard-response","213","473674","0.0-16.0-0.0-1.12","null","<span style='color:GreenYellow; font-size: 70px;'>正确! </span>","null","","","","","","","","","","","","","","","","","","","","","","","feedback_test",""
"","","","","","psychophysics","214","475677","0.0-16.0-0.0-0.13","1003","","d","","","","","","","","","","","","","key","d","16.668483333333764","960","536","k","false","img/H_28.png","自我","prac_friend","","朋友"
"","","","","","html-keyboard-response","215","475988","0.0-16.0-0.0-1.13","null","<span style='color:red; font-size: 70px;'>错误! </span>","null","","","","","","","","","","","","","","","","","","","","","","","feedback_test",""
"","","","","","psychophysics","216","478349","0.0-16.0-0.0-0.14","1359","","j","","","","","","","","","","","","","key","j","16.66812056737559","960","536","j","true","img/H_28.png","朋友","prac_friend","","朋友"
"","","","","","html-keyboard-response","217","478660","0.0-16.0-0.0-1.14","null","<span style='color:GreenYellow; font-size: 70px;'>正确! </span>","null","","","","","","","","","","","","","","","","","","","","","","","feedback_test",""
"","","","","","psychophysics","218","480717","0.0-16.0-0.0-0.15","1057","","d","","","","","","","","","","","","","key","d","16.667360655737745","960","536","d","true","img/C_28.png","自我","prac_friend","","生人"
"","","","","","html-keyboard-response","219","481032","0.0-16.0-0.0-1.15","null","<span style='color:GreenYellow; font-size: 70px;'>正确! </span>","null","","","","","","","","","","","","","","","","","","","","","","","feedback_test",""
"","","","","","psychophysics","220","483357","0.0-16.0-0.0-0.16","1323","","f","","","","","","","","","","","","","key","f","16.666999999999803","960","536","j","false","img/H_28.png","朋友","prac_friend","","朋友"
"","","","","","html-keyboard-response","221","483663","0.0-16.0-0.0-1.16","null","<span style='color:red; font-size: 70px;'>错误! </span>","null","","","","","","","","","","","","","","","","","","","","","","","feedback_test",""
"","","","","","psychophysics","222","485741","0.0-16.0-0.0-0.17","1077","","j","","","","","","","","","","","","","key","j","16.667829268292536","960","536","d","false","img/S_28.png","朋友","prac_friend","","自我"
"","","","","","html-keyboard-response","223","486054","0.0-16.0-0.0-1.17","null","<span style='color:red; font-size: 70px;'>错误! </span>","null","","","","","","","","","","","","","","","","","","","","","","","feedback_test",""
"","","","","","psychophysics","224","488117","0.0-16.0-0.0-0.18","1062","","f","","","","","","","","","","","","","key","f","16.668081300813","960","536","f","true","img/C_28.png","生人","prac_friend","","生人"
"","","","","","html-keyboard-response","225","488427","0.0-16.0-0.0-1.18","null","<span style='color:GreenYellow; font-size: 70px;'>正确! </span>","null","","","","","","","","","","","","","","","","","","","","","","","feedback_test",""
"","","","","","psychophysics","226","490581","0.0-16.0-0.0-0.19","1154","","f","","","","","","","","","","","","","key","f","16.556617187499796","960","536","f","true","img/S_28.png","自我","prac_friend","","自我"
"","","","","","html-keyboard-response","227","490896","0.0-16.0-0.0-1.19","null","<span style='color:GreenYellow; font-size: 70px;'>正确! </span>","null","","","","","","","","","","","","","","","","","","","","","","","feedback_test",""
"","","","","","psychophysics","228","493093","0.0-16.0-0.0-0.20","1195","","d","","","","","","","","","","","","","key","d","16.66826923076923","960","536","k","false","img/H_28.png","生人","prac_friend","","朋友"
"","","","","","html-keyboard-response","229","493398","0.0-16.0-0.0-1.20","null","<span style='color:red; font-size: 70px;'>错误! </span>","null","","","","","","","","","","","","","","","","","","","","","","","feedback_test",""
"","","","","","psychophysics","230","495381","0.0-16.0-0.0-0.21","983","","f","","","","","","","","","","","","","key","f","16.66859322033874","960","536","f","true","img/C_28.png","生人","prac_friend","","生人"
"","","","","","html-keyboard-response","231","495682","0.0-16.0-0.0-1.21","null","<span style='color:GreenYellow; font-size: 70px;'>正确! </span>","null","","","","","","","","","","","","","","","","","","","","","","","feedback_test",""
"","","","","","psychophysics","232","498037","0.0-16.0-0.0-0.22","1354","","d","","","","","","","","","","","","","key","d","16.667464285714335","960","536","d","true","img/S_28.png","生人","prac_friend","","自我"
"","","","","","html-keyboard-response","233","498348","0.0-16.0-0.0-1.22","null","<span style='color:GreenYellow; font-size: 70px;'>正确! </span>","null","","","","","","","","","","","","","","","","","","","","","","","feedback_test",""
"","","","","","psychophysics","234","500469","0.0-16.0-0.0-0.23","1120","","d","","","","","","","","","","","","","key","d","16.666785714285826","960","536","d","true","img/C_28.png","朋友","prac_friend","","生人"
"","","","","","html-keyboard-response","235","500778","0.0-16.0-0.0-1.23","null","<span style='color:GreenYellow; font-size: 70px;'>正确! </span>","null","","","","","","","","","","","","","","","","","","","","","","","feedback_test",""
"","","","","","html-keyboard-response","236","505126","0.0-16.0-1.0-0.0","4346","<style>.context{color:white; font-size: 35px; line-height:40px}</style>                              <div><p class='context'>您正确回答了50% 的试次。</p><p class='context'>您的平均反应时为1144毫秒。</p>","j","","","","","","","","","","","","","","","","","","","","","","","",""
"","","","","","instructions","237","514614","0.0-16.0-1.0-1.0","9486","","","","","","","","","","","","","","[{""page_index"":0,""viewing_time"":2327},{""page_index"":1,""viewing_time"":5087},{""page_index"":2,""viewing_time"":2072}]","","","","","","","","","","","",""
"","","","","","psychophysics","238","516806","0.0-16.1-0.1-0.24","1190","","f","","","","","","","","","","","","","key","f","16.66873846153836","960","536","f","true","img/S_28.png","自我","prac_friend","","自我"
"","","","","","html-keyboard-response","239","517108","0.0-16.1-0.1-1.24","null","<span style='color:GreenYellow; font-size: 70px;'>正确! </span>","null","","","","","","","","","","","","","","","","","","","","","","","feedback_test",""
"","","","","","psychophysics","240","519611","0.0-16.1-0.1-0.25","null","","null","","","","","","","","","","","","","key","null","16.667999999999655","960","536","d","false","img/C_28.png","朋友","prac_friend","","生人"
"","","","","","html-keyboard-response","241","519922","0.0-16.1-0.1-1.25","null","<span class='add_' style='color:yellow; font-size: 70px;'> 太慢! </span>","null","","","","","","","","","","","","","","","","","","","","","","","feedback_test",""
"","","","","","psychophysics","242","522190","0.0-16.1-0.1-0.26","1267","","d","","","","","","","","","","","","","key","d","16.66838518518532","960","536","d","true","img/C_28.png","自我","prac_friend","","生人"
"","","","","","html-keyboard-response","243","522503","0.0-16.1-0.1-1.26","null","<span style='color:GreenYellow; font-size: 70px;'>正确! </span>","null","","","","","","","","","","","","","","","","","","","","","","","feedback_test",""
"","","","","","psychophysics","244","524669","0.0-16.1-0.1-0.27","1166","","f","","","","","","","","","","","","","key","f","16.668077519380077","960","536","f","true","img/C_28.png","生人","prac_friend","","生人"
"","","","","","html-keyboard-response","245","524977","0.0-16.1-0.1-1.27","null","<span style='color:GreenYellow; font-size: 70px;'>正确! </span>","null","","","","","","","","","","","","","","","","","","","","","","","feedback_test",""
"","","","","","psychophysics","246","527293","0.0-16.1-0.1-0.28","1314","","j","","","","","","","","","","","","","key","j","16.668297101449106","960","536","j","true","img/H_28.png","朋友","prac_friend","","朋友"
"","","","","","html-keyboard-response","247","527602","0.0-16.1-0.1-1.28","null","<span style='color:GreenYellow; font-size: 70px;'>正确! </span>","null","","","","","","","","","","","","","","","","","","","","","","","feedback_test",""
"","","","","","psychophysics","248","529669","0.0-16.1-0.1-0.29","1067","","d","","","","","","","","","","","","","key","d","16.66717073170665","960","536","d","true","img/S_28.png","生人","prac_friend","","自我"
"","","","","","html-keyboard-response","249","529973","0.0-16.1-0.1-1.29","null","<span style='color:GreenYellow; font-size: 70px;'>正确! </span>","null","","","","","","","","","","","","","","","","","","","","","","","feedback_test",""
"","","","","","psychophysics","250","531710","0.0-16.1-0.1-0.30","736","","j","","","","","","","","","","","","","key","j","16.66671844660214","960","536","j","true","img/H_28.png","朋友","prac_friend","","朋友"
"","","","","","html-keyboard-response","251","532024","0.0-16.1-0.1-1.30","null","<span style='color:GreenYellow; font-size: 70px;'>正确! </span>","null","","","","","","","","","","","","","","","","","","","","","","","feedback_test",""
"","","","","","psychophysics","252","533949","0.0-16.1-0.1-0.31","925","","d","","","","","","","","","","","","","key","d","16.667704347826785","960","536","d","true","img/S_28.png","朋友","prac_friend","","自我"
"","","","","","html-keyboard-response","253","534254","0.0-16.1-0.1-1.31","null","<span style='color:GreenYellow; font-size: 70px;'>正确! </span>","null","","","","","","","","","","","","","","","","","","","","","","","feedback_test",""
"","","","","","psychophysics","254","536285","0.0-16.1-0.1-0.32","1031","","k","","","","","","","","","","","","","key","k","16.668024793388476","960","536","k","true","img/H_28.png","自我","prac_friend","","朋友"
"","","","","","html-keyboard-response","255","536587","0.0-16.1-0.1-1.32","null","<span style='color:GreenYellow; font-size: 70px;'>正确! </span>","null","","","","","","","","","","","","","","","","","","","","","","","feedback_test",""
"","","","","","psychophysics","256","538614","0.0-16.1-0.1-0.33","1026","","k","","","","","","","","","","","","","key","k","16.666776859504555","960","536","k","true","img/H_28.png","生人","prac_friend","","朋友"
"","","","","","html-keyboard-response","257","538928","0.0-16.1-0.1-1.33","null","<span style='color:GreenYellow; font-size: 70px;'>正确! </span>","null","","","","","","","","","","","","","","","","","","","","","","","feedback_test",""
"","","","","","psychophysics","258","540942","0.0-16.1-0.1-0.34","1013","","f","","","","","","","","","","","","","key","f","16.667891666666645","960","536","f","true","img/S_28.png","自我","prac_friend","","自我"
"","","","","","html-keyboard-response","259","541257","0.0-16.1-0.1-1.34","null","<span style='color:GreenYellow; font-size: 70px;'>正确! </span>","null","","","","","","","","","","","","","","","","","","","","","","","feedback_test",""
"","","","","","psychophysics","260","543517","0.0-16.1-0.1-0.35","1260","","f","","","","","","","","","","","","","key","f","16.668014814815034","960","536","f","true","img/C_28.png","生人","prac_friend","","生人"
"","","","","","html-keyboard-response","261","543826","0.0-16.1-0.1-1.35","null","<span style='color:GreenYellow; font-size: 70px;'>正确! </span>","null","","","","","","","","","","","","","","","","","","","","","","","feedback_test",""
"","","","","","psychophysics","262","545862","0.0-16.1-0.1-0.36","1033","","d","","","","","","","","","","","","","key","d","16.667867768594363","960","536","d","true","img/C_28.png","朋友","prac_friend","","生人"
"","","","","","html-keyboard-response","263","546172","0.0-16.1-0.1-1.36","null","<span style='color:GreenYellow; font-size: 70px;'>正确! </span>","null","","","","","","","","","","","","","","","","","","","","","","","feedback_test",""
"","","","","","psychophysics","264","548037","0.0-16.1-0.1-0.37","864","","k","","","","","","","","","","","","","key","k","16.667657657657532","960","536","k","true","img/H_28.png","生人","prac_friend","","朋友"
"","","","","","html-keyboard-response","265","548347","0.0-16.1-0.1-1.37","null","<span style='color:GreenYellow; font-size: 70px;'>正确! </span>","null","","","","","","","","","","","","","","","","","","","","","","","feedback_test",""
"","","","","","psychophysics","266","550582","0.0-16.1-0.1-0.38","1234","","f","","","","","","","","","","","","","key","f","16.66720300751889","960","536","f","true","img/S_28.png","自我","prac_friend","","自我"
"","","","","","html-keyboard-response","267","550884","0.0-16.1-0.1-1.38","null","<span style='color:GreenYellow; font-size: 70px;'>正确! </span>","null","","","","","","","","","","","","","","","","","","","","","","","feedback_test",""
"","","","","","psychophysics","268","553325","0.0-16.1-0.1-0.39","1440","","j","","","","","","","","","","","","","key","j","16.667241379310344","960","536","j","true","img/H_28.png","朋友","prac_friend","","朋友"
"","","","","","html-keyboard-response","269","553639","0.0-16.1-0.1-1.39","null","<span style='color:GreenYellow; font-size: 70px;'>正确! </span>","null","","","","","","","","","","","","","","","","","","","","","","","feedback_test",""
"","","","","","psychophysics","270","555501","0.0-16.1-0.1-0.40","862","","k","","","","","","","","","","","","","key","k","16.66735135135136","960","536","k","true","img/H_28.png","自我","prac_friend","","朋友"
"","","","","","html-keyboard-response","271","555813","0.0-16.1-0.1-1.40","null","<span style='color:GreenYellow; font-size: 70px;'>正确! </span>","null","","","","","","","","","","","","","","","","","","","","","","","feedback_test",""
"","","","","","psychophysics","272","558309","0.0-16.1-0.1-0.41","1495","","d","","","","","","","","","","","","","key","d","16.66761073825534","960","536","d","true","img/S_28.png","生人","prac_friend","","自我"
"","","","","","html-keyboard-response","273","558618","0.0-16.1-0.1-1.41","null","<span style='color:GreenYellow; font-size: 70px;'>正确! </span>","null","","","","","","","","","","","","","","","","","","","","","","","feedback_test",""
"","","","","","psychophysics","274","560926","0.0-16.1-0.1-0.42","1306","","d","","","","","","","","","","","","","key","d","16.66766423357644","960","536","d","true","img/S_28.png","朋友","prac_friend","","自我"
"","","","","","html-keyboard-response","275","561241","0.0-16.1-0.1-1.42","null","<span style='color:GreenYellow; font-size: 70px;'>正确! </span>","null","","","","","","","","","","","","","","","","","","","","","","","feedback_test",""
"","","","","","psychophysics","276","563293","0.0-16.1-0.1-0.43","1052","","d","","","","","","","","","","","","","key","d","16.668122950819182","960","536","d","true","img/C_28.png","自我","prac_friend","","生人"
"","","","","","html-keyboard-response","277","563595","0.0-16.1-0.1-1.43","null","<span style='color:GreenYellow; font-size: 70px;'>正确! </span>","null","","","","","","","","","","","","","","","","","","","","","","","feedback_test",""
"","","","","","psychophysics","278","565414","0.0-16.1-0.1-0.44","816","","d","","","","","","","","","","","","","key","d","16.668342592593508","960","536","f","false","img/S_28.png","自我","prac_friend","","自我"
"","","","","","html-keyboard-response","279","565715","0.0-16.1-0.1-1.44","null","<span style='color:red; font-size: 70px;'>错误! </span>","null","","","","","","","","","","","","","","","","","","","","","","","feedback_test",""
"","","","","","psychophysics","280","567526","0.0-16.1-0.1-0.45","810","","d","","","","","","","","","","","","","key","d","16.667598130840755","960","536","f","false","img/C_28.png","生人","prac_friend","","生人"
"","","","","","html-keyboard-response","281","567840","0.0-16.1-0.1-1.45","null","<span style='color:red; font-size: 70px;'>错误! </span>","null","","","","","","","","","","","","","","","","","","","","","","","feedback_test",""
"","","","","","psychophysics","282","569630","0.0-16.1-0.1-0.46","788","","f","","","","","","","","","","","","","key","f","16.666877358490687","960","536","f","true","img/C_28.png","生人","prac_friend","","生人"
"","","","","","html-keyboard-response","283","569939","0.0-16.1-0.1-1.46","null","<span style='color:GreenYellow; font-size: 70px;'>正确! </span>","null","","","","","","","","","","","","","","","","","","","","","","","feedback_test",""
"","","","","","psychophysics","284","571830","0.0-16.1-0.1-0.47","890","","j","","","","","","","","","","","","","key","j","16.667535714285414","960","536","j","true","img/H_28.png","朋友","prac_friend","","朋友"
"","","","","","html-keyboard-response","285","572144","0.0-16.1-0.1-1.47","null","<span style='color:GreenYellow; font-size: 70px;'>正确! </span>","null","","","","","","","","","","","","","","","","","","","","","","","feedback_test",""
"","","","","","html-keyboard-response","286","578662","0.0-17.0","6516","[""<style>.context{color:white; font-size: 35px; line-height:40px}</style>                  <div><p class='context'>您正确回答了88% 的试次。</p><p class='context'>您的平均反应时为1093毫秒。</p><p class='context'>恭喜您完成这一阶段的练习。按任意键进入<span style='color: yellow;'>重点关注图形为“生人”</span>的练习。</p></div><p class='footer' style='font-size:35px; line-height:30px;'>任务要求：\n                  <p class='footer' style='font-size:35px; line-height:35px;'>对与“生人”对应的图形，如果 匹配 ，请按 <span style=\""color: lightgreen;\"">j键</span></p><p class='footer' style='font-size:35px'>如果 不匹配 ，请按<span style=\""color: lightgreen;\"">k键</p></span>\n                  <p class='footer' style='font-size:35px; line-height:35px;'>对非“生人”对应的图形，如果 匹配 ，请按 <span style=\""color: lightgreen;\"">f键</span></p><p class='footer' style='font-size:35px'>如果 不匹配 ，请按<span style=\""color: lightgreen;\"">d键</p></span>\n                  <p class='footer' style='font-size:22px; line-height:25px;'>请在实验过程中将您的<span style=\""color: lightgreen;\"">食指和中指</span>放在电脑键盘的相应键位上进行按键。</p></span>""]"," ","","","","","","","","","","","","","","","","","","","","","","","",""
"","","","","","psychophysics","287","580614","0.0-18.0-0.0-0.0","948","","f","","","","","","","","","","","","","key","f","16.668758620689662","960","536","f","true","img/S_28.png","自我","prac_stranger","","自我"
"","","","","","html-keyboard-response","288","580922","0.0-18.0-0.0-1.0","null","<span style='color:GreenYellow; font-size: 70px;'>正确! </span>","null","","","","","","","","","","","","","","","","","","","","","","","feedback_test",""
"","","","","","psychophysics","289","583254","0.0-18.0-0.0-0.1","1331","","d","","","","","","","","","","","","","key","d","16.66828057554001","960","536","d","true","img/H_28.png","自我","prac_stranger","","朋友"
"","","","","","html-keyboard-response","290","583563","0.0-18.0-0.0-1.1","null","<span style='color:GreenYellow; font-size: 70px;'>正确! </span>","null","","","","","","","","","","","","","","","","","","","","","","","feedback_test",""
"","","","","","psychophysics","291","585294","0.0-18.0-0.0-0.2","730","","j","","","","","","","","","","","","","key","j","16.668650485437308","960","536","j","true","img/C_28.png","生人","prac_stranger","","生人"
"","","","","","html-keyboard-response","292","585602","0.0-18.0-0.0-1.2","null","<span style='color:GreenYellow; font-size: 70px;'>正确! </span>","null","","","","","","","","","","","","","","","","","","","","","","","feedback_test",""
"","","","","","psychophysics","293","587382","0.0-18.0-0.0-0.3","778","","k","","","","","","","","","","","","","key","k","16.66852380952443","960","536","k","true","img/C_28.png","朋友","prac_stranger","","生人"
"","","","","","html-keyboard-response","294","587686","0.0-18.0-0.0-1.3","null","<span style='color:GreenYellow; font-size: 70px;'>正确! </span>","null","","","","","","","","","","","","","","","","","","","","","","","feedback_test",""
"","","","","","psychophysics","295","589502","0.0-18.0-0.0-0.4","815","","d","","","","","","","","","","","","","key","d","16.668175925925393","960","536","f","false","img/H_28.png","朋友","prac_stranger","","朋友"
"","","","","","html-keyboard-response","296","589803","0.0-18.0-0.0-1.4","null","<span style='color:red; font-size: 70px;'>错误! </span>","null","","","","","","","","","","","","","","","","","","","","","","","feedback_test",""
"","","","","","psychophysics","297","592006","0.0-18.0-0.0-0.5","1200","","d","","","","","","","","","","","","","key","d","16.668274809160263","960","536","d","true","img/S_28.png","朋友","prac_stranger","","自我"
"","","","","","html-keyboard-response","298","592320","0.0-18.0-0.0-1.5","null","<span style='color:GreenYellow; font-size: 70px;'>正确! </span>","null","","","","","","","","","","","","","","","","","","","","","","","feedback_test",""
"","","","","","psychophysics","299","594822","0.0-18.0-0.0-0.6","null","","null","","","","","","","","","","","","","key","null","16.6670268456375","960","536","d","false","img/H_28.png","生人","prac_stranger","","朋友"
"","","","","","html-keyboard-response","300","595135","0.0-18.0-0.0-1.6","null","<span class='add_' style='color:yellow; font-size: 70px;'> 太慢! </span>","null","","","","","","","","","","","","","","","","","","","","","","","feedback_test",""
"","","","","","psychophysics","301","597334","0.0-18.0-0.0-0.7","1197","","k","","","","","","","","","","","","","key","k","16.667276923077253","960","536","d","false","img/S_28.png","生人","prac_stranger","","自我"
"","","","","","html-keyboard-response","302","597642","0.0-18.0-0.0-1.7","null","<span style='color:red; font-size: 70px;'>错误! </span>","null","","","","","","","","","","","","","","","","","","","","","","","feedback_test",""
"","","","","","psychophysics","303","599686","0.0-18.0-0.0-0.8","1042","","k","","","","","","","","","","","","","key","k","16.66833606557386","960","536","k","true","img/C_28.png","自我","prac_stranger","","生人"
"","","","","","html-keyboard-response","304","600000","0.0-18.0-0.0-1.8","null","<span style='color:GreenYellow; font-size: 70px;'>正确! </span>","null","","","","","","","","","","","","","","","","","","","","","","","feedback_test",""
"","","","","","psychophysics","305","601966","0.0-18.0-0.0-0.9","965","","f","","","","","","","","","","","","","key","f","16.556724137930672","960","536","f","true","img/H_28.png","朋友","prac_stranger","","朋友"
"","","","","","html-keyboard-response","306","602267","0.0-18.0-0.0-1.9","null","<span style='color:GreenYellow; font-size: 70px;'>正确! </span>","null","","","","","","","","","","","","","","","","","","","","","","","feedback_test",""
"","","","","","psychophysics","307","604526","0.0-18.0-0.0-0.10","1258","","f","","","","","","","","","","","","","key","f","16.668283582089032","960","536","f","true","img/S_28.png","自我","prac_stranger","","自我"
"","","","","","html-keyboard-response","308","604841","0.0-18.0-0.0-1.10","null","<span style='color:GreenYellow; font-size: 70px;'>正确! </span>","null","","","","","","","","","","","","","","","","","","","","","","","feedback_test",""
"","","","","","psychophysics","309","606950","0.0-18.0-0.0-0.11","1108","","j","","","","","","","","","","","","","key","j","16.668208000000565","960","536","j","true","img/C_28.png","生人","prac_stranger","","生人"
"","","","","","html-keyboard-response","310","607260","0.0-18.0-0.0-1.11","null","<span style='color:GreenYellow; font-size: 70px;'>正确! </span>","null","","","","","","","","","","","","","","","","","","","","","","","feedback_test",""
"","","","","","psychophysics","311","609238","0.0-18.0-0.0-0.12","977","","f","","","","","","","","","","","","","key","f","16.66770338983042","960","536","f","true","img/S_28.png","自我","prac_stranger","","自我"
"","","","","","html-keyboard-response","312","609539","0.0-18.0-0.0-1.12","null","<span style='color:GreenYellow; font-size: 70px;'>正确! </span>","null","","","","","","","","","","","","","","","","","","","","","","","feedback_test",""
"","","","","","psychophysics","313","611342","0.0-18.0-0.0-0.13","801","","d","","","","","","","","","","","","","key","d","16.667934579438548","960","536","f","false","img/H_28.png","朋友","prac_stranger","","朋友"
"","","","","","html-keyboard-response","314","611645","0.0-18.0-0.0-1.13","null","<span style='color:red; font-size: 70px;'>错误! </span>","null","","","","","","","","","","","","","","","","","","","","","","","feedback_test",""
"","","","","","psychophysics","315","613710","0.0-18.0-0.0-0.14","1063","","j","","","","","","","","","","","","","key","j","16.668056910568886","960","536","j","true","img/C_28.png","生人","prac_stranger","","生人"
"","","","","","html-keyboard-response","316","614011","0.0-18.0-0.0-1.14","null","<span style='color:GreenYellow; font-size: 70px;'>正确! </span>","null","","","","","","","","","","","","","","","","","","","","","","","feedback_test",""
"","","","","","psychophysics","317","616126","0.0-18.0-0.0-0.15","1114","","d","","","","","","","","","","","","","key","d","16.66812698412705","960","536","d","true","img/S_28.png","朋友","prac_stranger","","自我"
"","","","","","html-keyboard-response","318","616436","0.0-18.0-0.0-1.15","null","<span style='color:GreenYellow; font-size: 70px;'>正确! </span>","null","","","","","","","","","","","","","","","","","","","","","","","feedback_test",""
"","","","","","psychophysics","319","618446","0.0-18.0-0.0-0.16","1009","","k","","","","","","","","","","","","","key","k","16.667915966387195","960","536","k","true","img/C_28.png","自我","prac_stranger","","生人"
"","","","","","html-keyboard-response","320","618753","0.0-18.0-0.0-1.16","null","<span style='color:GreenYellow; font-size: 70px;'>正确! </span>","null","","","","","","","","","","","","","","","","","","","","","","","feedback_test",""
"","","","","","psychophysics","321","620942","0.0-18.0-0.0-0.17","1187","","f","","","","","","","","","","","","","key","f","16.667507692308238","960","536","f","true","img/S_28.png","自我","prac_stranger","","自我"
"","","","","","html-keyboard-response","322","621243","0.0-18.0-0.0-1.17","null","<span style='color:GreenYellow; font-size: 70px;'>正确! </span>","null","","","","","","","","","","","","","","","","","","","","","","","feedback_test",""
"","","","","","psychophysics","323","622942","0.0-18.0-0.0-0.18","698","","j","","","","","","","","","","","","","key","j","16.666069306931135","960","536","j","true","img/C_28.png","生人","prac_stranger","","生人"
"","","","","","html-keyboard-response","324","623244","0.0-18.0-0.0-1.18","null","<span style='color:GreenYellow; font-size: 70px;'>正确! </span>","null","","","","","","","","","","","","","","","","","","","","","","","feedback_test",""
"","","","","","psychophysics","325","625238","0.0-18.0-0.0-0.19","992","","k","","","","","","","","","","","","","key","k","16.667747899160148","960","536","d","false","img/H_28.png","自我","prac_stranger","","朋友"
"","","","","","html-keyboard-response","326","625547","0.0-18.0-0.0-1.19","null","<span style='color:red; font-size: 70px;'>错误! </span>","null","","","","","","","","","","","","","","","","","","","","","","","feedback_test",""
"","","","","","psychophysics","327","628051","0.0-18.0-0.0-0.20","null","","null","","","","","","","","","","","","","key","null","16.668194630872396","960","536","d","false","img/H_28.png","生人","prac_stranger","","朋友"
"","","","","","html-keyboard-response","328","628353","0.0-18.0-0.0-1.20","null","<span class='add_' style='color:yellow; font-size: 70px;'> 太慢! </span>","null","","","","","","","","","","","","","","","","","","","","","","","feedback_test",""
"","","","","","psychophysics","329","630214","0.0-18.0-0.0-0.21","860","","k","","","","","","","","","","","","","key","k","16.668527272727808","960","536","k","true","img/C_28.png","朋友","prac_stranger","","生人"
"","","","","","html-keyboard-response","330","630518","0.0-18.0-0.0-1.21","null","<span style='color:GreenYellow; font-size: 70px;'>正确! </span>","null","","","","","","","","","","","","","","","","","","","","","","","feedback_test",""
"","","","","","psychophysics","331","632782","0.0-18.0-0.0-0.22","1263","","f","","","","","","","","","","","","","key","f","16.568305970148753","960","536","f","true","img/H_28.png","朋友","prac_stranger","","朋友"
"","","","","","html-keyboard-response","332","633086","0.0-18.0-0.0-1.22","null","<span style='color:GreenYellow; font-size: 70px;'>正确! </span>","null","","","","","","","","","","","","","","","","","","","","","","","feedback_test",""
"","","","","","psychophysics","333","635318","0.0-18.0-0.0-0.23","1232","","d","","","","","","","","","","","","","key","d","16.561022727273116","960","536","d","true","img/S_28.png","生人","prac_stranger","","自我"
"","","","","","html-keyboard-response","334","635626","0.0-18.0-0.0-1.23","null","<span style='color:GreenYellow; font-size: 70px;'>正确! </span>","null","","","","","","","","","","","","","","","","","","","","","","","feedback_test",""
"","","","","","html-keyboard-response","335","659399","0.0-19.0","23771","[""<style>.context{color:white; font-size: 35px; line-height:40px}</style>                                        <div><p class='context'>您正确回答了75% 的试次。</p><p class='context'>您的平均反应时为1042毫秒。</p><p class='context'>恭喜您完成练习。您可以在此时休息一段时间，准备好后按任意键进入正式实验。</p><p class='footer' style='font-size: 35px; line-height:40px;'>请在进入正式实验实验之前将您的<span style='color: lightgreen;'>食指和中指</span>放在电脑键盘的相应键位上，做好按键准备。</p>""]"," ","","","","","","","","","","","","","","","","","","","","","","","",""
"","","","","","html-keyboard-response","336","665318","0.0-20.0-2.0-0.0","5916","
                    <p>请您将食指和中指放在相应按键上，准备进入<span style='color: yellow;'>重点图形为“生人”对应图形</span>的正式匹配任务</p>
                    <p> <div style = ""color: green""><按任意键开始></div></p>
                    "," ","","","","","","","","","","","","","","","","","","","","","","","",""
"","","","","","psychophysics","337","667039","0.0-20.0-2.0-1.0-0.0-0.0","718","","j","","","","","","","","","","","","","key","j","16.667669902912802","960","536","j","true","img/C_28.png","生人","stranger","","生人"
"","","","","","html-keyboard-response","338","667350","0.0-20.0-2.0-1.0-0.0-1.0","null","<span style='color:GreenYellow; font-size: 70px;'>正确! </span>","null","","","","","","","","","","","","","","","","","","","","","","","feedback_test",""
"","","","","","psychophysics","339","669166","0.0-20.0-2.0-1.0-0.0-0.1","815","","k","","","","","","","","","","","","","key","k","16.66747222222168","960","536","k","true","img/C_28.png","自我","stranger","","生人"
"","","","","","html-keyboard-response","340","669479","0.0-20.0-2.0-1.0-0.0-1.1","null","<span style='color:GreenYellow; font-size: 70px;'>正确! </span>","null","","","","","","","","","","","","","","","","","","","","","","","feedback_test",""
"","","","","","psychophysics","341","671334","0.0-20.0-2.0-1.0-0.0-0.2","851","","f","","","","","","","","","","","","","key","f","16.667827272727365","960","536","f","true","img/S_28.png","自我","stranger","","自我"
"","","","","","html-keyboard-response","342","671637","0.0-20.0-2.0-1.0-0.0-1.2","null","<span style='color:GreenYellow; font-size: 70px;'>正确! </span>","null","","","","","","","","","","","","","","","","","","","","","","","feedback_test",""
"","","","","","psychophysics","343","673462","0.0-20.0-2.0-1.0-0.0-0.3","823","","f","","","","","","","","","","","","","key","f","16.536296296295607","960","536","f","true","img/S_28.png","自我","stranger","","自我"
"","","","","","html-keyboard-response","344","673775","0.0-20.0-2.0-1.0-0.0-1.3","null","<span style='color:GreenYellow; font-size: 70px;'>正确! </span>","null","","","","","","","","","","","","","","","","","","","","","","","feedback_test",""
"","","","","","psychophysics","345","675510","0.0-20.0-2.0-1.0-0.0-0.4","733","","d","","","","","","","","","","","","","key","d","16.667640776700086","960","536","d","true","img/H_28.png","自我","stranger","","朋友"
"","","","","","html-keyboard-response","346","675820","0.0-20.0-2.0-1.0-0.0-1.4","null","<span style='color:GreenYellow; font-size: 70px;'>正确! </span>","null","","","","","","","","","","","","","","","","","","","","","","","feedback_test",""
"","","","","","psychophysics","347","677726","0.0-20.0-2.0-1.0-0.0-0.5","905","","d","","","","","","","","","","","","","key","d","16.667666666667188","960","536","f","false","img/H_28.png","朋友","stranger","","朋友"
"","","","","","html-keyboard-response","348","678036","0.0-20.0-2.0-1.0-0.0-1.5","null","<span style='color:red; font-size: 70px;'>错误! </span>","null","","","","","","","","","","","","","","","","","","","","","","","feedback_test",""
"","","","","","psychophysics","349","680206","0.0-20.0-2.0-1.0-0.0-0.6","1168","","f","","","","","","","","","","","","","key","f","16.668184615385073","960","536","f","true","img/H_28.png","朋友","stranger","","朋友"
"","","","","","html-keyboard-response","350","680507","0.0-20.0-2.0-1.0-0.0-1.6","null","<span style='color:GreenYellow; font-size: 70px;'>正确! </span>","null","","","","","","","","","","","","","","","","","","","","","","","feedback_test",""
"","","","","","psychophysics","351","682462","0.0-20.0-2.0-1.0-0.0-0.7","954","","d","","","","","","","","","","","","","key","d","16.66833620689657","960","536","d","true","img/S_28.png","朋友","stranger","","自我"
"","","","","","html-keyboard-response","352","682771","0.0-20.0-2.0-1.0-0.0-1.7","null","<span style='color:GreenYellow; font-size: 70px;'>正确! </span>","null","","","","","","","","","","","","","","","","","","","","","","","feedback_test",""
"","","","","","psychophysics","353","684910","0.0-20.0-2.0-1.0-0.0-0.8","1138","","d","","","","","","","","","","","","","key","d","16.667679687499913","960","536","d","true","img/S_28.png","生人","stranger","","自我"
"","","","","","html-keyboard-response","354","685219","0.0-20.0-2.0-1.0-0.0-1.8","null","<span style='color:GreenYellow; font-size: 70px;'>正确! </span>","null","","","","","","","","","","","","","","","","","","","","","","","feedback_test",""
"","","","","","psychophysics","355","687126","0.0-20.0-2.0-1.0-0.0-0.9","906","","k","","","","","","","","","","","","","key","k","16.668815789473644","960","536","k","true","img/C_28.png","朋友","stranger","","生人"
"","","","","","html-keyboard-response","356","687439","0.0-20.0-2.0-1.0-0.0-1.9","null","<span style='color:GreenYellow; font-size: 70px;'>正确! </span>","null","","","","","","","","","","","","","","","","","","","","","","","feedback_test",""
"","","","","","psychophysics","357","689718","0.0-20.0-2.0-1.0-0.0-0.10","1278","","f","","","","","","","","","","","","","key","f","16.565659259258837","960","536","d","false","img/H_28.png","生人","stranger","","朋友"
"","","","","","html-keyboard-response","358","690027","0.0-20.0-2.0-1.0-0.0-1.10","null","<span style='color:red; font-size: 70px;'>错误! </span>","null","","","","","","","","","","","","","","","","","","","","","","","feedback_test",""
"","","","","","psychophysics","359","692206","0.0-20.0-2.0-1.0-0.0-0.11","1177","","j","","","","","","","","","","","","","key","j","16.667759689922956","960","536","j","true","img/C_28.png","生人","stranger","","生人"
"","","","","","html-keyboard-response","360","692522","0.0-20.0-2.0-1.0-0.0-1.11","null","<span style='color:GreenYellow; font-size: 70px;'>正确! </span>","null","","","","","","","","","","","","","","","","","","","","","","","feedback_test",""
"","","","","","psychophysics","361","694374","0.0-20.0-2.0-1.0-0.0-0.12","851","","j","","","","","","","","","","","","","key","j","16.53490000000033","960","536","j","true","img/C_28.png","生人","stranger","","生人"
"","","","","","html-keyboard-response","362","694683","0.0-20.0-2.0-1.0-0.0-1.12","null","<span style='color:GreenYellow; font-size: 70px;'>正确! </span>","null","","","","","","","","","","","","","","","","","","","","","","","feedback_test",""
"","","","","","psychophysics","363","696302","0.0-20.0-2.0-1.0-0.0-0.13","618","","j","","","","","","","","","","","","","key","j","16.667833333332965","960","536","k","false","img/C_28.png","自我","stranger","","生人"
"","","","","","html-keyboard-response","364","696608","0.0-20.0-2.0-1.0-0.0-1.13","null","<span style='color:red; font-size: 70px;'>错误! </span>","null","","","","","","","","","","","","","","","","","","","","","","","feedback_test",""
"","","","","","psychophysics","365","698582","0.0-20.0-2.0-1.0-0.0-0.14","972","","d","","","","","","","","","","","","","key","d","16.667495726495304","960","536","d","true","img/S_28.png","朋友","stranger","","自我"
"","","","","","html-keyboard-response","366","698890","0.0-20.0-2.0-1.0-0.0-1.14","null","<span style='color:GreenYellow; font-size: 70px;'>正确! </span>","null","","","","","","","","","","","","","","","","","","","","","","","feedback_test",""
"","","","","","psychophysics","367","701126","0.0-20.0-2.0-1.0-0.0-0.15","1235","","d","","","","","","","","","","","","","key","d","16.667556390976813","960","536","d","true","img/H_28.png","自我","stranger","","朋友"
"","","","","","html-keyboard-response","368","701438","0.0-20.0-2.0-1.0-0.0-1.15","null","<span style='color:GreenYellow; font-size: 70px;'>正确! </span>","null","","","","","","","","","","","","","","","","","","","","","","","feedback_test",""
"","","","","","psychophysics","369","703238","0.0-20.0-2.0-1.0-0.0-0.16","798","","f","","","","","","","","","","","","","key","f","16.668308411214596","960","536","f","true","img/S_28.png","自我","stranger","","自我"
"","","","","","html-keyboard-response","370","703552","0.0-20.0-2.0-1.0-0.0-1.16","null","<span style='color:GreenYellow; font-size: 70px;'>正确! </span>","null","","","","","","","","","","","","","","","","","","","","","","","feedback_test",""
"","","","","","psychophysics","371","705382","0.0-20.0-2.0-1.0-0.0-0.17","828","","f","","","","","","","","","","","","","key","f","16.6677155963299","960","536","f","true","img/S_28.png","自我","stranger","","自我"
"","","","","","html-keyboard-response","372","705688","0.0-20.0-2.0-1.0-0.0-1.17","null","<span style='color:GreenYellow; font-size: 70px;'>正确! </span>","null","","","","","","","","","","","","","","","","","","","","","","","feedback_test",""
"","","","","","psychophysics","373","707342","0.0-20.0-2.0-1.0-0.0-0.18","653","","j","","","","","","","","","","","","","key","j","16.668393939394843","960","536","j","true","img/C_28.png","生人","stranger","","生人"
"","","","","","html-keyboard-response","374","707644","0.0-20.0-2.0-1.0-0.0-1.18","null","<span style='color:GreenYellow; font-size: 70px;'>正确! </span>","null","","","","","","","","","","","","","","","","","","","","","","","feedback_test",""
"","","","","","psychophysics","375","709726","0.0-20.0-2.0-1.0-0.0-0.19","1081","","f","","","","","","","","","","","","","key","f","16.667040322580554","960","536","f","true","img/H_28.png","朋友","stranger","","朋友"
"","","","","","html-keyboard-response","376","710040","0.0-20.0-2.0-1.0-0.0-1.19","null","<span style='color:GreenYellow; font-size: 70px;'>正确! </span>","null","","","","","","","","","","","","","","","","","","","","","","","feedback_test",""
"","","","","","psychophysics","377","711694","0.0-20.0-2.0-1.0-0.0-0.20","653","","f","","","","","","","","","","","","","key","f","16.528979591836404","960","536","f","true","img/H_28.png","朋友","stranger","","朋友"
"","","","","","html-keyboard-response","378","712006","0.0-20.0-2.0-1.0-0.0-1.20","null","<span style='color:GreenYellow; font-size: 70px;'>正确! </span>","null","","","","","","","","","","","","","","","","","","","","","","","feedback_test",""
"","","","","","psychophysics","379","714022","0.0-20.0-2.0-1.0-0.0-0.21","1016","","d","","","","","","","","","","","","","key","d","16.668891666666603","960","536","d","true","img/H_28.png","生人","stranger","","朋友"
"","","","","","html-keyboard-response","380","714329","0.0-20.0-2.0-1.0-0.0-1.21","null","<span style='color:GreenYellow; font-size: 70px;'>正确! </span>","null","","","","","","","","","","","","","","","","","","","","","","","feedback_test",""
"","","","","","psychophysics","381","716094","0.0-20.0-2.0-1.0-0.0-0.22","764","","k","","","","","","","","","","","","","key","k","16.66697142857149","960","536","k","true","img/C_28.png","朋友","stranger","","生人"
"","","","","","html-keyboard-response","382","716406","0.0-20.0-2.0-1.0-0.0-1.22","null","<span style='color:GreenYellow; font-size: 70px;'>正确! </span>","null","","","","","","","","","","","","","","","","","","","","","","","feedback_test",""
"","","","","","psychophysics","383","718908","0.0-20.0-2.0-1.0-0.0-0.23","null","","null","","","","","","","","","","","","","key","null","16.667395973153845","960","536","d","false","img/S_28.png","生人","stranger","","自我"
"","","","","","html-keyboard-response","384","719218","0.0-20.0-2.0-1.0-0.0-1.23","null","<span class='add_' style='color:yellow; font-size: 70px;'> 太慢! </span>","null","","","","","","","","","","","","","","","","","","","","","","","feedback_test",""
"","","","","","psychophysics","385","721542","0.0-20.0-2.0-1.0-0.0-0.24","1322","","d","","","","","","","","","","","","","key","d","16.66746043165469","960","536","d","true","img/S_28.png","生人","stranger","","自我"
"","","","","","html-keyboard-response","386","721849","0.0-20.0-2.0-1.0-0.0-1.24","null","<span style='color:GreenYellow; font-size: 70px;'>正确! </span>","null","","","","","","","","","","","","","","","","","","","","","","","feedback_test",""
"","","","","","psychophysics","387","723614","0.0-20.0-2.0-1.0-0.0-0.25","764","","k","","","","","","","","","","","","","key","k","16.667104761904504","960","536","k","true","img/C_28.png","朋友","stranger","","生人"
"","","","","","html-keyboard-response","388","723925","0.0-20.0-2.0-1.0-0.0-1.25","null","<span style='color:GreenYellow; font-size: 70px;'>正确! </span>","null","","","","","","","","","","","","","","","","","","","","","","","feedback_test",""
"","","","","","psychophysics","389","725870","0.0-20.0-2.0-1.0-0.0-0.26","945","","j","","","","","","","","","","","","","key","j","16.548191304347963","960","536","j","true","img/C_28.png","生人","stranger","","生人"
"","","","","","html-keyboard-response","390","726183","0.0-20.0-2.0-1.0-0.0-1.26","null","<span style='color:GreenYellow; font-size: 70px;'>正确! </span>","null","","","","","","","","","","","","","","","","","","","","","","","feedback_test",""
"","","","","","psychophysics","391","728558","0.0-20.0-2.0-1.0-0.0-0.27","1374","","d","","","","","","","","","","","","","key","d","16.66849645390093","960","536","f","false","img/H_28.png","朋友","stranger","","朋友"
"","","","","","html-keyboard-response","392","728864","0.0-20.0-2.0-1.0-0.0-1.27","null","<span style='color:red; font-size: 70px;'>错误! </span>","null","","","","","","","","","","","","","","","","","","","","","","","feedback_test",""
"","","","","","psychophysics","393","730846","0.0-20.0-2.0-1.0-0.0-0.28","982","","k","","","","","","","","","","","","","key","k","16.667805084745574","960","536","d","false","img/H_28.png","生人","stranger","","朋友"
"","","","","","html-keyboard-response","394","731160","0.0-20.0-2.0-1.0-0.0-1.28","null","<span style='color:red; font-size: 70px;'>错误! </span>","null","","","","","","","","","","","","","","","","","","","","","","","feedback_test",""
"","","","","","psychophysics","395","733214","0.0-20.0-2.0-1.0-0.0-0.29","1052","","d","","","","","","","","","","","","","key","d","16.66817213114748","960","536","d","true","img/S_28.png","朋友","stranger","","自我"
"","","","","","html-keyboard-response","396","733516","0.0-20.0-2.0-1.0-0.0-1.29","null","<span style='color:GreenYellow; font-size: 70px;'>正确! </span>","null","","","","","","","","","","","","","","","","","","","","","","","feedback_test",""
"","","","","","psychophysics","397","735270","0.0-20.0-2.0-1.0-0.0-0.30","752","","f","","","","","","","","","","","","","key","f","16.668528846153865","960","536","f","true","img/S_28.png","自我","stranger","","自我"
"","","","","","html-keyboard-response","398","735578","0.0-20.0-2.0-1.0-0.0-1.30","null","<span style='color:GreenYellow; font-size: 70px;'>正确! </span>","null","","","","","","","","","","","","","","","","","","","","","","","feedback_test",""
"","","","","","psychophysics","399","737310","0.0-20.0-2.0-1.0-0.0-0.31","731","","d","","","","","","","","","","","","","key","d","16.667446601941496","960","536","f","false","img/H_28.png","朋友","stranger","","朋友"
"","","","","","html-keyboard-response","400","737616","0.0-20.0-2.0-1.0-0.0-1.31","null","<span style='color:red; font-size: 70px;'>错误! </span>","null","","","","","","","","","","","","","","","","","","","","","","","feedback_test",""
"","","","","","psychophysics","401","739302","0.0-20.0-2.0-1.0-0.0-0.32","685","","f","","","","","","","","","","","","","key","f","16.66652000000002","960","536","f","true","img/S_28.png","自我","stranger","","自我"
"","","","","","html-keyboard-response","402","739608","0.0-20.0-2.0-1.0-0.0-1.32","null","<span style='color:GreenYellow; font-size: 70px;'>正确! </span>","null","","","","","","","","","","","","","","","","","","","","","","","feedback_test",""
"","","","","","psychophysics","403","741702","0.0-20.0-2.0-1.0-0.0-0.33","1092","","d","","","","","","","","","","","","","key","d","16.558314516129265","960","536","d","true","img/H_28.png","自我","stranger","","朋友"
"","","","","","html-keyboard-response","404","742013","0.0-20.0-2.0-1.0-0.0-1.33","null","<span style='color:GreenYellow; font-size: 70px;'>正确! </span>","null","","","","","","","","","","","","","","","","","","","","","","","feedback_test",""
"","","","","","psychophysics","405","743758","0.0-20.0-2.0-1.0-0.0-0.34","744","","k","","","","","","","","","","","","","key","k","16.668019417475556","960","536","k","true","img/C_28.png","自我","stranger","","生人"
"","","","","","html-keyboard-response","406","744065","0.0-20.0-2.0-1.0-0.0-1.34","null","<span style='color:GreenYellow; font-size: 70px;'>正确! </span>","null","","","","","","","","","","","","","","","","","","","","","","","feedback_test",""
"","","","","","psychophysics","407","745821","0.0-20.0-2.0-1.0-0.0-0.35","756","","j","","","","","","","","","","","","","key","j","16.667509615385477","960","536","j","true","img/C_28.png","生人","stranger","","生人"
"","","","","","html-keyboard-response","408","746131","0.0-20.0-2.0-1.0-0.0-1.35","null","<span style='color:GreenYellow; font-size: 70px;'>正确! </span>","null","","","","","","","","","","","","","","","","","","","","","","","feedback_test",""
"","","","","","psychophysics","409","747845","0.0-20.0-2.0-1.0-0.0-0.36","713","","k","","","","","","","","","","","","","key","k","16.667549019607524","960","536","d","false","img/S_28.png","生人","stranger","","自我"
"","","","","","html-keyboard-response","410","748147","0.0-20.0-2.0-1.0-0.0-1.36","null","<span style='color:red; font-size: 70px;'>错误! </span>","null","","","","","","","","","","","","","","","","","","","","","","","feedback_test",""
"","","","","","psychophysics","411","750149","0.0-20.0-2.0-1.0-0.0-0.37","1000","","k","","","","","","","","","","","","","key","k","16.667042016806942","960","536","k","true","img/C_28.png","朋友","stranger","","生人"
"","","","","","html-keyboard-response","412","750453","0.0-20.0-2.0-1.0-0.0-1.37","null","<span style='color:GreenYellow; font-size: 70px;'>正确! </span>","null","","","","","","","","","","","","","","","","","","","","","","","feedback_test",""
"","","","","","psychophysics","413","752101","0.0-20.0-2.0-1.0-0.0-0.38","645","","j","","","","","","","","","","","","","key","j","16.667183673470188","960","536","j","true","img/C_28.png","生人","stranger","","生人"
"","","","","","html-keyboard-response","414","752408","0.0-20.0-2.0-1.0-0.0-1.38","null","<span style='color:GreenYellow; font-size: 70px;'>正确! </span>","null","","","","","","","","","","","","","","","","","","","","","","","feedback_test",""
"","","","","","psychophysics","415","754909","0.0-20.0-2.0-1.0-0.0-0.39","null","","null","","","","","","","","","","","","","key","null","16.66738926174491","960","536","d","false","img/H_28.png","自我","stranger","","朋友"
"","","","","","html-keyboard-response","416","755214","0.0-20.0-2.0-1.0-0.0-1.39","null","<span class='add_' style='color:yellow; font-size: 70px;'> 太慢! </span>","null","","","","","","","","","","","","","","","","","","","","","","","feedback_test",""
"","","","","","psychophysics","417","757181","0.0-20.0-2.0-1.0-0.0-0.40","965","","d","","","","","","","","","","","","","key","d","16.668230769230433","960","536","d","true","img/S_28.png","朋友","stranger","","自我"
"","","","","","html-keyboard-response","418","757487","0.0-20.0-2.0-1.0-0.0-1.40","null","<span style='color:GreenYellow; font-size: 70px;'>正确! </span>","null","","","","","","","","","","","","","","","","","","","","","","","feedback_test",""
"","","","","","psychophysics","419","759189","0.0-20.0-2.0-1.0-0.0-0.41","701","","j","","","","","","","","","","","","","key","j","16.66765346534615","960","536","j","true","img/C_28.png","生人","stranger","","生人"
"","","","","","html-keyboard-response","420","759504","0.0-20.0-2.0-1.0-0.0-1.41","null","<span style='color:GreenYellow; font-size: 70px;'>正确! </span>","null","","","","","","","","","","","","","","","","","","","","","","","feedback_test",""
"","","","","","psychophysics","421","761325","0.0-20.0-2.0-1.0-0.0-0.42","820","","f","","","","","","","","","","","","","key","f","16.66732407407404","960","536","f","true","img/S_28.png","自我","stranger","","自我"
