"success","timeout","failed_images","failed_audio","failed_video","trial_type","trial_index","time_elapsed","internal_node_id","rt","stimulus","response","value","item_width_mm","item_height_mm","item_width_px","px2mm","view_dist_mm","item_width_deg","px2deg","scale_factor","win_width_deg","win_height_deg","view_history","response_type","key_press","avg_frame_time","center_x","center_y","correct_response","correct","Image","text","condition","screen_id","label"
"true","false","[]","[]","[]","preload","0","2249","0.0-0.0","","","","","","","","","","","","","","","","","","","","","","","","","","",""
"","","","","","html-keyboard-response","1","62611","0.0-1.0","60361","
     <p>您好，欢迎参加本次实验。</p>
     <p>为充分保障您的权利，请确保您已经知晓并同意《参与实验同意书》以及《数据公开知情同意书》。</p>
     <p>如果您未见过上述内容，请咨询实验员。</p>
     <p>如果您选择继续实验，则表示您已经清楚两份知情同意书的内容并同意。</p>
     <p> <div style = ""color: green""><按任意键至下页></div> </p>
     "," ","","","","","","","","","","","","","","","","","","","","","","","",""
"","","","","","html-keyboard-response","2","65290","0.0-2.0","2679","
     <p>本实验首先需要您填写一些基本个人信息。</p>
     <p> <div style = ""color: green""><按任意键至下页></div></p>
     "," ","","","","","","","","","","","","","","","","","","","","","","","",""
"","","","","","call-function","3","65291","0.0-3.0-0.0","","","","","","","","","","","","","","","","","","","","","","","","","","",""
"","","","","","survey-html-form","4","81443","0.0-3.0-1.0","16150","","{""Q0"":""33""}","","","","","","","","","","","","","","","","","","","","","","","",""
"","","","","","html-button-response","5","83176","0.0-3.0-2.0","1730","<p style = 'color : white'>您的性别</p>","1","","","","","","","","","","","","","","","","","","","","","","","",""
"","","","","","survey-html-form","6","87681","0.0-3.0-3.0","4502","","{""Q0"":""2002""}","","","","","","","","","","","","","","","","","","","","","","","",""
"","","","","","survey-html-form","7","90824","0.0-3.0-4.0","3142","","{""Q0"":""5""}","","","","","","","","","","","","","","","","","","","","","","","",""
"","","","","","virtual-chinrest","8","192512","0.0-4.0","101686","","","","85.6","53.98","488.31646599119557","5.706169939672399","500.97","9.766329319823912","50","0.7290354202522811","38.4","19.1","","","","","","","","","","","","",""
"true","","","","","fullscreen","9","200184","0.0-5.0","","","","","","","","","","","","","","","","","","","","","","","","","","",""
"","","","","","instructions","10","332647","0.0-6.0","132461","","","","","","","","","","","","","","[{""page_index"":0,""viewing_time"":9909},{""page_index"":1,""viewing_time"":27600},{""page_index"":2,""viewing_time"":83992},{""page_index"":3,""viewing_time"":5216},{""page_index"":4,""viewing_time"":5744}]","","","","","","","","","","","",""
"","","","","","instructions","11","362991","0.0-7.0","30344","","","","","","","","","","","","","","[{""page_index"":0,""viewing_time"":30343}]","","","","","","","","","","","",""
"","","","","","psychophysics","12","365458","0.0-8.0-0.0-0.0","1449","","j","","","","","","","","","","","","","key","j","16.79753424657536","960","536","f","false","img/C_28.png","生人","freeprac_self","",""
"","","","","","html-keyboard-response","13","365771","0.0-8.0-0.0-1.0","null","<span style='color:red; font-size: 70px;'>错误! </span>","null","","","","","","","","","","","","","","","","","","","","","","","feedback_test",""
"","","","","","psychophysics","14","368457","0.0-8.0-0.0-0.1","1675","","d","","","","","","","","","","","","","key","d","16.68324999999968","960","536","d","true","img/H_28.png","自我","freeprac_self","",""
"","","","","","html-keyboard-response","15","368767","0.0-8.0-0.0-1.1","null","<span style='color:GreenYellow; font-size: 70px;'>正确! </span>","null","","","","","","","","","","","","","","","","","","","","","","","feedback_test",""
"","","","","","psychophysics","16","372665","0.0-8.0-0.0-0.2","2884","","f","","","","","","","","","","","","","key","f","16.683261802575156","960","536","d","false","img/H_28.png","生人","freeprac_self","",""
"","","","","","html-keyboard-response","17","372980","0.0-8.0-0.0-1.2","null","<span style='color:red; font-size: 70px;'>错误! </span>","null","","","","","","","","","","","","","","","","","","","","","","","feedback_test",""
"","","","","","psychophysics","18","375826","0.0-8.0-0.0-0.3","1832","","f","","","","","","","","","","","","","key","f","16.683313609467344","960","536","f","true","img/H_28.png","朋友","freeprac_self","",""
"","","","","","html-keyboard-response","19","376131","0.0-8.0-0.0-1.3","null","<span style='color:GreenYellow; font-size: 70px;'>正确! </span>","null","","","","","","","","","","","","","","","","","","","","","","","feedback_test",""
"","","","","","psychophysics","20","379210","0.0-8.0-0.0-0.4","2064","","d","","","","","","","","","","","","","key","d","16.683278688524474","960","536","k","false","img/S_28.png","生人","freeprac_self","",""
"","","","","","html-keyboard-response","21","379520","0.0-8.0-0.0-1.4","null","<span style='color:red; font-size: 70px;'>错误! </span>","null","","","","","","","","","","","","","","","","","","","","","","","feedback_test",""
"","","","","","psychophysics","22","381889","0.0-8.0-0.0-0.5","1354","","j","","","","","","","","","","","","","key","j","16.683262411347286","960","536","j","true","img/S_28.png","自我","freeprac_self","",""
"","","","","","html-keyboard-response","23","382203","0.0-8.0-0.0-1.5","null","<span style='color:GreenYellow; font-size: 70px;'>正确! </span>","null","","","","","","","","","","","","","","","","","","","","","","","feedback_test",""
"","","","","","psychophysics","24","383993","0.0-8.0-0.0-0.6","714","","j","","","","","","","","","","","","","key","j","16.68320754716966","960","536","j","true","img/S_28.png","自我","freeprac_self","",""
"","","","","","html-keyboard-response","25","384295","0.0-8.0-0.0-1.6","null","<span style='color:GreenYellow; font-size: 70px;'>正确! </span>","null","","","","","","","","","","","","","","","","","","","","","","","feedback_test",""
"","","","","","psychophysics","26","386377","0.0-8.0-0.0-0.7","1068","","d","","","","","","","","","","","","","key","d","16.683387096774588","960","536","d","true","img/C_28.png","朋友","freeprac_self","",""
"","","","","","html-keyboard-response","27","386688","0.0-8.0-0.0-1.7","null","<span style='color:GreenYellow; font-size: 70px;'>正确! </span>","null","","","","","","","","","","","","","","","","","","","","","","","feedback_test",""
"","","","","","psychophysics","28","388665","0.0-8.0-0.0-0.8","976","","d","","","","","","","","","","","","","key","d","16.68338983050859","960","536","k","false","img/S_28.png","朋友","freeprac_self","",""
"","","","","","html-keyboard-response","29","388979","0.0-8.0-0.0-1.8","null","<span style='color:red; font-size: 70px;'>错误! </span>","null","","","","","","","","","","","","","","","","","","","","","","","feedback_test",""
"","","","","","psychophysics","30","391106","0.0-8.0-0.0-0.9","1113","","f","","","","","","","","","","","","","key","f","16.68333333333315","960","536","f","true","img/C_28.png","生人","freeprac_self","",""
"","","","","","html-keyboard-response","31","391407","0.0-8.0-0.0-1.9","null","<span style='color:GreenYellow; font-size: 70px;'>正确! </span>","null","","","","","","","","","","","","","","","","","","","","","","","feedback_test",""
"","","","","","psychophysics","32","393818","0.0-8.0-0.0-0.10","1399","","d","","","","","","","","","","","","","key","d","16.683333333333092","960","536","f","false","img/H_28.png","朋友","freeprac_self","",""
"","","","","","html-keyboard-response","33","394121","0.0-8.0-0.0-1.10","null","<span style='color:red; font-size: 70px;'>错误! </span>","null","","","","","","","","","","","","","","","","","","","","","","","feedback_test",""
"","","","","","psychophysics","34","396705","0.0-8.0-0.0-0.11","1570","","f","","","","","","","","","","","","","key","f","16.68311688311696","960","536","d","false","img/C_28.png","自我","freeprac_self","",""
"","","","","","html-keyboard-response","35","397007","0.0-8.0-0.0-1.11","null","<span style='color:red; font-size: 70px;'>错误! </span>","null","","","","","","","","","","","","","","","","","","","","","","","feedback_test",""
"","","","","","html-keyboard-response","36","403009","0.0-8.0-1.0-0.0","6001","<style>.context{color:white; font-size: 35px; line-height:40px}</style>                              <div><p class='context'>您正确回答了50% 的试次。</p><p class='context'>您的平均反应时为1293毫秒。</p>"," ","","","","","","","","","","","","","","","","","","","","","","","",""
"","","","","","instructions","37","417415","0.0-8.0-1.0-1.0","14405","","","","","","","","","","","","","","[{""page_index"":0,""viewing_time"":7158},{""page_index"":1,""viewing_time"":5767},{""page_index"":2,""viewing_time"":1480}]","","","","","","","","","","","",""
"","","","","","psychophysics","38","419305","0.0-8.1-0.1-0.12","880","","f","","","","","","","","","","","","","key","f","16.68339285714267","960","536","f","true","img/C_28.png","生人","freeprac_self","",""
"","","","","","html-keyboard-response","39","419614","0.0-8.1-0.1-1.12","null","<span style='color:GreenYellow; font-size: 70px;'>正确! </span>","null","","","","","","","","","","","","","","","","","","","","","","","feedback_test",""
"","","","","","psychophysics","40","422042","0.0-8.1-0.1-0.13","1416","","j","","","","","","","","","","","","","key","j","16.683194444444478","960","536","k","false","img/S_28.png","生人","freeprac_self","",""
"","","","","","html-keyboard-response","41","422345","0.0-8.1-0.1-1.13","null","<span style='color:red; font-size: 70px;'>错误! </span>","null","","","","","","","","","","","","","","","","","","","","","","","feedback_test",""
"","","","","","psychophysics","42","424626","0.0-8.1-0.1-0.14","1267","","f","","","","","","","","","","","","","key","f","16.68325925925919","960","536","f","true","img/H_28.png","朋友","freeprac_self","",""
"","","","","","html-keyboard-response","43","424928","0.0-8.1-0.1-1.14","null","<span style='color:GreenYellow; font-size: 70px;'>正确! </span>","null","","","","","","","","","","","","","","","","","","","","","","","feedback_test",""
"","","","","","psychophysics","44","427441","0.0-8.1-0.1-0.15","1418","","f","","","","","","","","","","","","","key","f","16.65020134228191","960","536","d","false","img/C_28.png","朋友","freeprac_self","",""
"","","","","","html-keyboard-response","45","427751","0.0-8.1-0.1-1.15","null","<span style='color:red; font-size: 70px;'>错误! </span>","null","","","","","","","","","","","","","","","","","","","","","","","feedback_test",""
"","","","","","psychophysics","46","430081","0.0-8.1-0.1-0.16","1317","","d","","","","","","","","","","","","","key","d","16.68333333333367","960","536","d","true","img/H_28.png","生人","freeprac_self","",""
"","","","","","html-keyboard-response","47","430385","0.0-8.1-0.1-1.16","null","<span style='color:GreenYellow; font-size: 70px;'>正确! </span>","null","","","","","","","","","","","","","","","","","","","","","","","feedback_test",""
"","","","","","psychophysics","48","432401","0.0-8.1-0.1-0.17","1015","","j","","","","","","","","","","","","","key","j","16.683361344537875","960","536","j","true","img/S_28.png","自我","freeprac_self","",""
"","","","","","html-keyboard-response","49","432716","0.0-8.1-0.1-1.17","null","<span style='color:GreenYellow; font-size: 70px;'>正确! </span>","null","","","","","","","","","","","","","","","","","","","","","","","feedback_test",""
"","","","","","psychophysics","50","435065","0.0-8.1-0.1-0.18","1334","","d","","","","","","","","","","","","","key","d","16.68328571428553","960","536","d","true","img/C_28.png","自我","freeprac_self","",""
"","","","","","html-keyboard-response","51","435380","0.0-8.1-0.1-1.18","null","<span style='color:GreenYellow; font-size: 70px;'>正确! </span>","null","","","","","","","","","","","","","","","","","","","","","","","feedback_test",""
"","","","","","psychophysics","52","437129","0.0-8.1-0.1-0.19","737","","f","","","","","","","","","","","","","key","f","16.68326923076921","960","536","f","true","img/H_28.png","朋友","freeprac_self","",""
"","","","","","html-keyboard-response","53","437438","0.0-8.1-0.1-1.19","null","<span style='color:GreenYellow; font-size: 70px;'>正确! </span>","null","","","","","","","","","","","","","","","","","","","","","","","feedback_test",""
"","","","","","psychophysics","54","439618","0.0-8.1-0.1-0.20","1179","","f","","","","","","","","","","","","","key","f","16.683384615384366","960","536","f","true","img/C_28.png","生人","freeprac_self","",""
"","","","","","html-keyboard-response","55","439926","0.0-8.1-0.1-1.20","null","<span style='color:GreenYellow; font-size: 70px;'>正确! </span>","null","","","","","","","","","","","","","","","","","","","","","","","feedback_test",""
"","","","","","psychophysics","56","442473","0.0-8.1-0.1-0.21","1534","","d","","","","","","","","","","","","","key","d","16.64913907284742","960","536","d","true","img/H_28.png","自我","freeprac_self","",""
"","","","","","html-keyboard-response","57","442784","0.0-8.1-0.1-1.21","null","<span style='color:GreenYellow; font-size: 70px;'>正确! </span>","null","","","","","","","","","","","","","","","","","","","","","","","feedback_test",""
"","","","","","psychophysics","58","444721","0.0-8.1-0.1-0.22","928","","k","","","","","","","","","","","","","key","k","16.683478260869364","960","536","k","true","img/S_28.png","朋友","freeprac_self","",""
"","","","","","html-keyboard-response","59","445034","0.0-8.1-0.1-1.22","null","<span style='color:GreenYellow; font-size: 70px;'>正确! </span>","null","","","","","","","","","","","","","","","","","","","","","","","feedback_test",""
"","","","","","psychophysics","60","447193","0.0-8.1-0.1-0.23","1145","","j","","","","","","","","","","","","","key","j","16.68343750000031","960","536","j","true","img/S_28.png","自我","freeprac_self","",""
"","","","","","html-keyboard-response","61","447495","0.0-8.1-0.1-1.23","null","<span style='color:GreenYellow; font-size: 70px;'>正确! </span>","null","","","","","","","","","","","","","","","","","","","","","","","feedback_test",""
"","","","","","html-keyboard-response","62","458793","0.0-9.0","11297","[""<style>.context{color:white; font-size: 35px; line-height:40px}</style>              <div><p class='context'>您正确回答了83% 的试次。</p><p class='context'>您的平均反应时为1134毫秒。</p><p class='context'>恭喜您完成这一阶段的练习。按任意键进入<span style='color: yellow;'>重点关注图形为“朋友”</span>的练习。</p></div><p class='footer' style='font-size:35px; line-height:30px;'>任务要求：\n              <p class='footer' style='font-size:35px; line-height:35px;'>对于与“朋友”对应的图形：如果 匹配 ，请按 <span style=\""color: lightgreen;\"">j键</span></p><p class='footer' style='font-size:35px'>如果 不匹配 ，请按<span style=\""color: lightgreen;\"">k键</p></span>\n              <p class='footer' style='font-size:35px; line-height:35px;'>对于非“朋友”对应的图形：如果 匹配 ，请按 <span style=\""color: lightgreen;\"">f键</span></p><p class='footer' style='font-size:35px'>如果 不匹配 ，请按<span style=\""color: lightgreen;\"">d键</p></span>\n              <p class='footer' style='font-size:22px; line-height:25px;'>请在实验过程中将您的<span style=\""color: lightgreen;\"">食指和中指</span>放在电脑键盘的相应键位上进行按键。</p></span>""]"," ","","","","","","","","","","","","","","","","","","","","","","","",""
"","","","","","psychophysics","63","460705","0.0-10.0-0.0-0.0","903","","k","","","","","","","","","","","","","key","k","16.683362831858673","960","536","k","true","img/H_28.png","自我","freeprac_friend","",""
"","","","","","html-keyboard-response","64","461021","0.0-10.0-0.0-1.0","null","<span style='color:GreenYellow; font-size: 70px;'>正确! </span>","null","","","","","","","","","","","","","","","","","","","","","","","feedback_test",""
"","","","","","psychophysics","65","462921","0.0-10.0-0.0-0.1","886","","f","","","","","","","","","","","","","key","f","16.68318584070755","960","536","d","false","img/S_28.png","生人","freeprac_friend","",""
"","","","","","html-keyboard-response","66","463233","0.0-10.0-0.0-1.1","null","<span style='color:red; font-size: 70px;'>错误! </span>","null","","","","","","","","","","","","","","","","","","","","","","","feedback_test",""
"","","","","","psychophysics","67","465241","0.0-10.0-0.0-0.2","993","","j","","","","","","","","","","","","","key","j","16.64117647058814","960","536","j","true","img/H_28.png","朋友","freeprac_friend","",""
"","","","","","html-keyboard-response","68","465553","0.0-10.0-0.0-1.2","null","<span style='color:GreenYellow; font-size: 70px;'>正确! </span>","null","","","","","","","","","","","","","","","","","","","","","","","feedback_test",""
"","","","","","psychophysics","69","468026","0.0-10.0-0.0-0.3","1457","","f","","","","","","","","","","","","","key","f","16.68340136054436","960","536","f","true","img/S_28.png","自我","freeprac_friend","",""
"","","","","","html-keyboard-response","70","468344","0.0-10.0-0.0-1.3","null","<span style='color:GreenYellow; font-size: 70px;'>正确! </span>","null","","","","","","","","","","","","","","","","","","","","","","","feedback_test",""
"","","","","","psychophysics","71","470393","0.0-10.0-0.0-0.4","1037","","f","","","","","","","","","","","","","key","f","16.68344262295038","960","536","f","true","img/S_28.png","自我","freeprac_friend","",""
"","","","","","html-keyboard-response","72","470705","0.0-10.0-0.0-1.4","null","<span style='color:GreenYellow; font-size: 70px;'>正确! </span>","null","","","","","","","","","","","","","","","","","","","","","","","feedback_test",""
"","","","","","psychophysics","73","473361","0.0-10.0-0.0-0.5","1640","","d","","","","","","","","","","","","","key","d","16.68327044025166","960","536","d","true","img/C_28.png","朋友","freeprac_friend","",""
"","","","","","html-keyboard-response","74","473669","0.0-10.0-0.0-1.5","null","<span style='color:GreenYellow; font-size: 70px;'>正确! </span>","null","","","","","","","","","","","","","","","","","","","","","","","feedback_test",""
"","","","","","psychophysics","75","476361","0.0-10.0-0.0-0.6","1686","","f","","","","","","","","","","","","","key","f","16.683250000000044","960","536","d","false","img/S_28.png","朋友","freeprac_friend","",""
"","","","","","html-keyboard-response","76","476676","0.0-10.0-0.0-1.6","null","<span style='color:red; font-size: 70px;'>错误! </span>","null","","","","","","","","","","","","","","","","","","","","","","","feedback_test",""
"","","","","","psychophysics","77","478697","0.0-10.0-0.0-0.7","1007","","f","","","","","","","","","","","","","key","f","16.683333333333334","960","536","f","true","img/C_28.png","生人","freeprac_friend","",""
"","","","","","html-keyboard-response","78","479003","0.0-10.0-0.0-1.7","null","<span style='color:GreenYellow; font-size: 70px;'>正确! </span>","null","","","","","","","","","","","","","","","","","","","","","","","feedback_test",""
"","","","","","psychophysics","79","480777","0.0-10.0-0.0-0.8","772","","f","","","","","","","","","","","","","key","f","16.68342857142866","960","536","f","true","img/C_28.png","生人","freeprac_friend","",""
"","","","","","html-keyboard-response","80","481091","0.0-10.0-0.0-1.8","null","<span style='color:GreenYellow; font-size: 70px;'>正确! </span>","null","","","","","","","","","","","","","","","","","","","","","","","feedback_test",""
"","","","","","psychophysics","81","483217","0.0-10.0-0.0-0.9","1117","","d","","","","","","","","","","","","","key","d","16.68333333333315","960","536","d","true","img/C_28.png","自我","freeprac_friend","",""
"","","","","","html-keyboard-response","82","483525","0.0-10.0-0.0-1.9","null","<span style='color:GreenYellow; font-size: 70px;'>正确! </span>","null","","","","","","","","","","","","","","","","","","","","","","","feedback_test",""
"","","","","","psychophysics","83","485674","0.0-10.0-0.0-0.10","1136","","j","","","","","","","","","","","","","key","j","16.68328125000062","960","536","j","true","img/H_28.png","朋友","freeprac_friend","",""
"","","","","","html-keyboard-response","84","485987","0.0-10.0-0.0-1.10","null","<span style='color:GreenYellow; font-size: 70px;'>正确! </span>","null","","","","","","","","","","","","","","","","","","","","","","","feedback_test",""
"","","","","","psychophysics","85","487593","0.0-10.0-0.0-0.11","594","","k","","","","","","","","","","","","","key","k","16.683333333333092","960","536","k","true","img/H_28.png","生人","freeprac_friend","",""
"","","","","","html-keyboard-response","86","487907","0.0-10.0-0.0-1.11","null","<span style='color:GreenYellow; font-size: 70px;'>正确! </span>","null","","","","","","","","","","","","","","","","","","","","","","","feedback_test",""
"","","","","","html-keyboard-response","87","496441","0.0-11.0","8533","[""<style>.context{color:white; font-size: 35px; line-height:40px}</style>                  <div><p class='context'>您正确回答了83% 的试次。</p><p class='context'>您的平均反应时为1066毫秒。</p><p class='context'>恭喜您完成这一阶段的练习。按任意键进入<span style='color: yellow;'>重点关注图形为“生人”</span>的练习。</p></div><p class='footer' style='font-size:35px; line-height:30px;'>任务要求：\n                  <p class='footer' style='font-size:35px; line-height:35px;'>对与“生人”对应的图形，如果 匹配 ，请按 <span style=\""color: lightgreen;\"">j键</span></p><p class='footer' style='font-size:35px'>如果 不匹配 ，请按<span style=\""color: lightgreen;\"">k键</p></span>\n                  <p class='footer' style='font-size:35px; line-height:35px;'>对非“生人”对应的图形，如果 匹配 ，请按 <span style=\""color: lightgreen;\"">f键</span></p><p class='footer' style='font-size:35px'>如果 不匹配 ，请按<span style=\""color: lightgreen;\"">d键</p></span>\n                  <p class='footer' style='font-size:22px; line-height:25px;'>请在实验过程中将您的<span style=\""color: lightgreen;\"">食指和中指</span>放在电脑键盘的相应键位上进行按键。</p></span>""]"," ","","","","","","","","","","","","","","","","","","","","","","","",""
"","","","","","psychophysics","88","498489","0.0-12.0-0.0-0.0","1044","","j","","","","","","","","","","","","","key","j","16.683442622950857","960","536","j","true","img/C_28.png","生人","freeprac_stranger","",""
"","","","","","html-keyboard-response","89","498811","0.0-12.0-0.0-1.0","null","<span style='color:GreenYellow; font-size: 70px;'>正确! </span>","null","","","","","","","","","","","","","","","","","","","","","","","feedback_test",""
"","","","","","psychophysics","90","500865","0.0-12.0-0.0-0.1","1039","","d","","","","","","","","","","","","","key","d","16.683278688524474","960","536","d","true","img/H_28.png","自我","freeprac_stranger","",""
"","","","","","html-keyboard-response","91","501170","0.0-12.0-0.0-1.1","null","<span style='color:GreenYellow; font-size: 70px;'>正确! </span>","null","","","","","","","","","","","","","","","","","","","","","","","feedback_test",""
"","","","","","psychophysics","92","503081","0.0-12.0-0.0-0.2","898","","f","","","","","","","","","","","","","key","f","16.68336283185919","960","536","f","true","img/H_28.png","朋友","freeprac_stranger","",""
"","","","","","html-keyboard-response","93","503387","0.0-12.0-0.0-1.2","null","<span style='color:GreenYellow; font-size: 70px;'>正确! </span>","null","","","","","","","","","","","","","","","","","","","","","","","feedback_test",""
"","","","","","psychophysics","94","505225","0.0-12.0-0.0-0.3","822","","f","","","","","","","","","","","","","key","f","16.683272727273025","960","536","f","true","img/H_28.png","朋友","freeprac_stranger","",""
"","","","","","html-keyboard-response","95","505543","0.0-12.0-0.0-1.3","null","<span style='color:GreenYellow; font-size: 70px;'>正确! </span>","null","","","","","","","","","","","","","","","","","","","","","","","feedback_test",""
"","","","","","psychophysics","96","507633","0.0-12.0-0.0-0.4","1078","","d","","","","","","","","","","","","","key","d","16.683387096775057","960","536","d","true","img/H_28.png","生人","freeprac_stranger","",""
"","","","","","html-keyboard-response","97","507946","0.0-12.0-0.0-1.4","null","<span style='color:GreenYellow; font-size: 70px;'>正确! </span>","null","","","","","","","","","","","","","","","","","","","","","","","feedback_test",""
"","","","","","psychophysics","98","509945","0.0-12.0-0.0-0.5","984","","d","","","","","","","","","","","","","key","d","16.68338983050859","960","536","d","true","img/S_28.png","朋友","freeprac_stranger","",""
"","","","","","html-keyboard-response","99","510247","0.0-12.0-0.0-1.5","null","<span style='color:GreenYellow; font-size: 70px;'>正确! </span>","null","","","","","","","","","","","","","","","","","","","","","","","feedback_test",""
"","","","","","psychophysics","100","512136","0.0-12.0-0.0-0.6","875","","f","","","","","","","","","","","","","key","f","16.683214285714453","960","536","f","true","img/S_28.png","自我","freeprac_stranger","",""
"","","","","","html-keyboard-response","101","512451","0.0-12.0-0.0-1.6","null","<span style='color:GreenYellow; font-size: 70px;'>正确! </span>","null","","","","","","","","","","","","","","","","","","","","","","","feedback_test",""
"","","","","","psychophysics","102","514633","0.0-12.0-0.0-0.7","1173","","d","","","","","","","","","","","","","key","d","16.683255813953597","960","536","d","true","img/S_28.png","生人","freeprac_stranger","",""
"","","","","","html-keyboard-response","103","514935","0.0-12.0-0.0-1.7","null","<span style='color:GreenYellow; font-size: 70px;'>正确! </span>","null","","","","","","","","","","","","","","","","","","","","","","","feedback_test",""
"","","","","","psychophysics","104","517457","0.0-12.0-0.0-0.8","1508","","k","","","","","","","","","","","","","key","k","16.683333333333334","960","536","j","false","img/C_28.png","生人","freeprac_stranger","",""
"","","","","","html-keyboard-response","105","517771","0.0-12.0-0.0-1.8","null","<span style='color:red; font-size: 70px;'>错误! </span>","null","","","","","","","","","","","","","","","","","","","","","","","feedback_test",""
"","","","","","psychophysics","106","519681","0.0-12.0-0.0-0.9","895","","d","","","","","","","","","","","","","key","d","16.683362831858158","960","536","k","false","img/C_28.png","朋友","freeprac_stranger","",""
"","","","","","html-keyboard-response","107","519989","0.0-12.0-0.0-1.9","null","<span style='color:red; font-size: 70px;'>错误! </span>","null","","","","","","","","","","","","","","","","","","","","","","","feedback_test",""
"","","","","","psychophysics","108","522465","0.0-12.0-0.0-0.10","1395","","k","","","","","","","","","","","","","key","k","16.647755102040627","960","536","k","true","img/C_28.png","自我","freeprac_stranger","",""
"","","","","","html-keyboard-response","109","522770","0.0-12.0-0.0-1.10","null","<span style='color:GreenYellow; font-size: 70px;'>正确! </span>","null","","","","","","","","","","","","","","","","","","","","","","","feedback_test",""
"","","","","","psychophysics","110","525297","0.0-12.0-0.0-0.11","1515","","f","","","","","","","","","","","","","key","f","16.683178807946465","960","536","f","true","img/S_28.png","自我","freeprac_stranger","",""
"","","","","","html-keyboard-response","111","525615","0.0-12.0-0.0-1.11","null","<span style='color:GreenYellow; font-size: 70px;'>正确! </span>","null","","","","","","","","","","","","","","","","","","","","","","","feedback_test",""
"","","","","","instructions","112","545528","0.0-13.0","19912","","","","","","","","","","","","","","[{""page_index"":0,""viewing_time"":19911}]","","","","","","","","","","","",""
"","","","","","psychophysics","113","547321","0.0-14.0-0.0-0.0","777","","j","","","","","","","","","","","","","key","j","16.683396226414565","960","536","j","true","img/S_28.png","自我","prac_self","","自我"
"","","","","","html-keyboard-response","114","547635","0.0-14.0-0.0-1.0","null","<span style='color:GreenYellow; font-size: 70px;'>正确! </span>","null","","","","","","","","","","","","","","","","","","","","","","","feedback_test",""
"","","","","","psychophysics","115","549881","0.0-14.0-0.0-0.1","1240","","f","","","","","","","","","","","","","key","f","16.683308270676726","960","536","f","true","img/C_28.png","生人","prac_self","","生人"
"","","","","","html-keyboard-response","116","550196","0.0-14.0-0.0-1.1","null","<span style='color:GreenYellow; font-size: 70px;'>正确! </span>","null","","","","","","","","","","","","","","","","","","","","","","","feedback_test",""
"","","","","","psychophysics","117","552473","0.0-14.0-0.0-0.2","1268","","d","","","","","","","","","","","","","key","d","16.683382352940765","960","536","d","true","img/H_28.png","自我","prac_self","","朋友"
"","","","","","html-keyboard-response","118","552788","0.0-14.0-0.0-1.2","null","<span style='color:GreenYellow; font-size: 70px;'>正确! </span>","null","","","","","","","","","","","","","","","","","","","","","","","feedback_test",""
"","","","","","psychophysics","119","554465","0.0-14.0-0.0-0.3","571","","k","","","","","","","","","","","","","key","k","16.683232323232463","960","536","k","true","img/S_28.png","生人","prac_self","","自我"
"","","","","","html-keyboard-response","120","554766","0.0-14.0-0.0-1.3","null","<span style='color:GreenYellow; font-size: 70px;'>正确! </span>","null","","","","","","","","","","","","","","","","","","","","","","","feedback_test",""
"","","","","","psychophysics","121","556425","0.0-14.0-0.0-0.4","646","","j","","","","","","","","","","","","","key","j","16.68326530612207","960","536","j","true","img/S_28.png","自我","prac_self","","自我"
"","","","","","html-keyboard-response","122","556745","0.0-14.0-0.0-1.4","null","<span style='color:GreenYellow; font-size: 70px;'>正确! </span>","null","","","","","","","","","","","","","","","","","","","","","","","feedback_test",""
"","","","","","psychophysics","123","558449","0.0-14.0-0.0-0.5","693","","f","","","","","","","","","","","","","key","f","16.683366336632695","960","536","f","true","img/H_28.png","朋友","prac_self","","朋友"
"","","","","","html-keyboard-response","124","558759","0.0-14.0-0.0-1.5","null","<span style='color:GreenYellow; font-size: 70px;'>正确! </span>","null","","","","","","","","","","","","","","","","","","","","","","","feedback_test",""
"","","","","","psychophysics","125","560945","0.0-14.0-0.0-0.6","1174","","k","","","","","","","","","","","","","key","k","16.683410852713433","960","536","k","true","img/S_28.png","朋友","prac_self","","自我"
"","","","","","html-keyboard-response","126","561276","0.0-14.0-0.0-1.6","null","<span style='color:GreenYellow; font-size: 70px;'>正确! </span>","null","","","","","","","","","","","","","","","","","","","","","","","feedback_test",""
"","","","","","psychophysics","127","563041","0.0-14.0-0.0-0.7","758","","f","","","","","","","","","","","","","key","f","16.68342857142866","960","536","f","true","img/H_28.png","朋友","prac_self","","朋友"
"","","","","","html-keyboard-response","128","563345","0.0-14.0-0.0-1.7","null","<span style='color:GreenYellow; font-size: 70px;'>正确! </span>","null","","","","","","","","","","","","","","","","","","","","","","","feedback_test",""
"","","","","","psychophysics","129","565449","0.0-14.0-0.0-0.8","1092","","k","","","","","","","","","","","","","key","k","16.683359999999404","960","536","f","false","img/C_28.png","生人","prac_self","","生人"
"","","","","","html-keyboard-response","130","565761","0.0-14.0-0.0-1.8","null","<span style='color:red; font-size: 70px;'>错误! </span>","null","","","","","","","","","","","","","","","","","","","","","","","feedback_test",""
"","","","","","psychophysics","131","568193","0.0-14.0-0.0-0.9","1423","","d","","","","","","","","","","","","","key","d","16.683310344827298","960","536","d","true","img/H_28.png","生人","prac_self","","朋友"
"","","","","","html-keyboard-response","132","568507","0.0-14.0-0.0-1.9","null","<span style='color:GreenYellow; font-size: 70px;'>正确! </span>","null","","","","","","","","","","","","","","","","","","","","","","","feedback_test",""
"","","","","","psychophysics","133","570913","0.0-14.0-0.0-0.10","1394","","d","","","","","","","","","","","","","key","d","16.683216783217272","960","536","d","true","img/C_28.png","自我","prac_self","","生人"
"","","","","","html-keyboard-response","134","571215","0.0-14.0-0.0-1.10","null","<span style='color:GreenYellow; font-size: 70px;'>正确! </span>","null","","","","","","","","","","","","","","","","","","","","","","","feedback_test",""
"","","","","","psychophysics","135","573032","0.0-14.0-0.0-0.11","808","","d","","","","","","","","","","","","","key","d","16.683333333332687","960","536","d","true","img/C_28.png","朋友","prac_self","","生人"
"","","","","","html-keyboard-response","136","573335","0.0-14.0-0.0-1.11","null","<span style='color:GreenYellow; font-size: 70px;'>正确! </span>","null","","","","","","","","","","","","","","","","","","","","","","","feedback_test",""
"","","","","","psychophysics","137","575521","0.0-14.0-0.0-0.12","1177","","d","","","","","","","","","","","","","key","d","16.683384615384366","960","536","d","true","img/C_28.png","朋友","prac_self","","生人"
"","","","","","html-keyboard-response","138","575831","0.0-14.0-0.0-1.12","null","<span style='color:GreenYellow; font-size: 70px;'>正确! </span>","null","","","","","","","","","","","","","","","","","","","","","","","feedback_test",""
"","","","","","psychophysics","139","578017","0.0-14.0-0.0-0.13","1175","","d","","","","","","","","","","","","","key","d","16.683384615384366","960","536","d","true","img/H_28.png","自我","prac_self","","朋友"
"","","","","","html-keyboard-response","140","578319","0.0-14.0-0.0-1.13","null","<span style='color:GreenYellow; font-size: 70px;'>正确! </span>","null","","","","","","","","","","","","","","","","","","","","","","","feedback_test",""
"","","","","","psychophysics","141","580145","0.0-14.0-0.0-0.14","816","","f","","","","","","","","","","","","","key","f","16.683333333333763","960","536","f","true","img/H_28.png","朋友","prac_self","","朋友"
"","","","","","html-keyboard-response","142","580453","0.0-14.0-0.0-1.14","null","<span style='color:GreenYellow; font-size: 70px;'>正确! </span>","null","","","","","","","","","","","","","","","","","","","","","","","feedback_test",""
"","","","","","psychophysics","143","582545","0.0-14.0-0.0-0.15","1092","","d","","","","","","","","","","","","","key","d","16.683225806451386","960","536","d","true","img/H_28.png","生人","prac_self","","朋友"
"","","","","","html-keyboard-response","144","582847","0.0-14.0-0.0-1.15","null","<span style='color:GreenYellow; font-size: 70px;'>正确! </span>","null","","","","","","","","","","","","","","","","","","","","","","","feedback_test",""
"","","","","","psychophysics","145","584977","0.0-14.0-0.0-0.16","1114","","d","","","","","","","","","","","","","key","d","16.683307086614395","960","536","d","true","img/C_28.png","自我","prac_self","","生人"
"","","","","","html-keyboard-response","146","585288","0.0-14.0-0.0-1.16","null","<span style='color:GreenYellow; font-size: 70px;'>正确! </span>","null","","","","","","","","","","","","","","","","","","","","","","","feedback_test",""
"","","","","","psychophysics","147","587729","0.0-14.0-0.0-0.17","1369","","f","","","","","","","","","","","","","key","f","16.683310344827298","960","536","f","true","img/C_28.png","生人","prac_self","","生人"
"","","","","","html-keyboard-response","148","588040","0.0-14.0-0.0-1.17","null","<span style='color:GreenYellow; font-size: 70px;'>正确! </span>","null","","","","","","","","","","","","","","","","","","","","","","","feedback_test",""
"","","","","","psychophysics","149","590169","0.0-14.0-0.0-0.18","1119","","d","","","","","","","","","","","","","key","d","16.64174603174592","960","536","f","false","img/C_28.png","生人","prac_self","","生人"
"","","","","","html-keyboard-response","150","590482","0.0-14.0-0.0-1.18","null","<span style='color:red; font-size: 70px;'>错误! </span>","null","","","","","","","","","","","","","","","","","","","","","","","feedback_test",""
"","","","","","psychophysics","151","592625","0.0-14.0-0.0-0.19","1134","","j","","","","","","","","","","","","","key","j","16.68330708661348","960","536","j","true","img/S_28.png","自我","prac_self","","自我"
"","","","","","html-keyboard-response","152","592934","0.0-14.0-0.0-1.19","null","<span style='color:GreenYellow; font-size: 70px;'>正确! </span>","null","","","","","","","","","","","","","","","","","","","","","","","feedback_test",""
"","","","","","psychophysics","153","594681","0.0-14.0-0.0-0.20","745","","f","","","","","","","","","","","","","key","f","16.683269230769767","960","536","f","true","img/H_28.png","朋友","prac_self","","朋友"
"","","","","","html-keyboard-response","154","594997","0.0-14.0-0.0-1.20","null","<span style='color:GreenYellow; font-size: 70px;'>正确! </span>","null","","","","","","","","","","","","","","","","","","","","","","","feedback_test",""
"","","","","","psychophysics","155","596849","0.0-14.0-0.0-0.21","838","","j","","","","","","","","","","","","","key","j","16.63798165137649","960","536","j","true","img/S_28.png","自我","prac_self","","自我"
"","","","","","html-keyboard-response","156","597155","0.0-14.0-0.0-1.21","null","<span style='color:GreenYellow; font-size: 70px;'>正确! </span>","null","","","","","","","","","","","","","","","","","","","","","","","feedback_test",""
"","","","","","psychophysics","157","599633","0.0-14.0-0.0-0.22","1464","","d","","","","","","","","","","","","","key","d","16.683129251700965","960","536","k","false","img/S_28.png","朋友","prac_self","","自我"
"","","","","","html-keyboard-response","158","599945","0.0-14.0-0.0-1.22","null","<span style='color:red; font-size: 70px;'>错误! </span>","null","","","","","","","","","","","","","","","","","","","","","","","feedback_test",""
"","","","","","psychophysics","159","602073","0.0-14.0-0.0-0.23","1120","","j","","","","","","","","","","","","","key","j","16.683464566928585","960","536","k","false","img/S_28.png","生人","prac_self","","自我"
"","","","","","html-keyboard-response","160","602385","0.0-14.0-0.0-1.23","null","<span style='color:red; font-size: 70px;'>错误! </span>","null","","","","","","","","","","","","","","","","","","","","","","","feedback_test",""
"","","","","","html-keyboard-response","161","608400","0.0-15.0","6015","[""<style>.context{color:white; font-size: 35px; line-height:40px}</style>              <div><p class='context'>您正确回答了83% 的试次。</p><p class='context'>您的平均反应时为1011毫秒。</p><p class='context'>恭喜您完成这一阶段的练习。按任意键进入<span style='color: yellow;'>重点关注图形为“朋友”</span>的练习。</p></div><p class='footer' style='font-size:35px; line-height:30px;'>任务要求：\n              <p class='footer' style='font-size:35px; line-height:35px;'>对于与“朋友”对应的图形：如果 匹配 ，请按 <span style=\""color: lightgreen;\"">j键</span></p><p class='footer' style='font-size:35px'>如果 不匹配 ，请按<span style=\""color: lightgreen;\"">k键</p></span>\n              <p class='footer' style='font-size:35px; line-height:35px;'>对于非“朋友”对应的图形：如果 匹配 ，请按 <span style=\""color: lightgreen;\"">f键</span></p><p class='footer' style='font-size:35px'>如果 不匹配 ，请按<span style=\""color: lightgreen;\"">d键</p></span>\n              <p class='footer' style='font-size:22px; line-height:25px;'>请在实验过程中将您的<span style=\""color: lightgreen;\"">食指和中指</span>放在电脑键盘的相应键位上进行按键。</p></span>""]"," ","","","","","","","","","","","","","","","","","","","","","","","",""
"","","","","","psychophysics","162","610433","0.0-16.0-0.0-0.0","1019","","d","","","","","","","","","","","","","key","d","16.68330578512439","960","536","d","true","img/S_28.png","生人","prac_friend","","自我"
"","","","","","html-keyboard-response","163","610745","0.0-16.0-0.0-1.0","null","<span style='color:GreenYellow; font-size: 70px;'>正确! </span>","null","","","","","","","","","","","","","","","","","","","","","","","feedback_test",""
"","","","","","psychophysics","164","613001","0.0-16.0-0.0-0.1","1241","","j","","","","","","","","","","","","","key","j","16.68325925925919","960","536","k","false","img/H_28.png","自我","prac_friend","","朋友"
"","","","","","html-keyboard-response","165","613314","0.0-16.0-0.0-1.1","null","<span style='color:red; font-size: 70px;'>错误! </span>","null","","","","","","","","","","","","","","","","","","","","","","","feedback_test",""
"","","","","","psychophysics","166","615810","0.0-16.0-0.0-0.2","1495","","f","","","","","","","","","","","","","key","f","16.650135135134946","960","536","f","true","img/S_28.png","自我","prac_friend","","自我"
"","","","","","html-keyboard-response","167","616121","0.0-16.0-0.0-1.2","null","<span style='color:GreenYellow; font-size: 70px;'>正确! </span>","null","","","","","","","","","","","","","","","","","","","","","","","feedback_test",""
"","","","","","psychophysics","168","618210","0.0-16.0-0.0-0.3","1075","","f","","","","","","","","","","","","","key","f","16.68338709677412","960","536","f","true","img/C_28.png","生人","prac_friend","","生人"
"","","","","","html-keyboard-response","169","618525","0.0-16.0-0.0-1.3","null","<span style='color:GreenYellow; font-size: 70px;'>正确! </span>","null","","","","","","","","","","","","","","","","","","","","","","","feedback_test",""
"","","","","","psychophysics","170","620537","0.0-16.0-0.0-0.4","998","","d","","","","","","","","","","","","","key","d","16.683361344537385","960","536","d","true","img/S_28.png","朋友","prac_friend","","自我"
"","","","","","html-keyboard-response","171","620853","0.0-16.0-0.0-1.4","null","<span style='color:GreenYellow; font-size: 70px;'>正确! </span>","null","","","","","","","","","","","","","","","","","","","","","","","feedback_test",""
"","","","","","psychophysics","172","622905","0.0-16.0-0.0-0.5","1038","","k","","","","","","","","","","","","","key","k","16.683278688524474","960","536","k","true","img/H_28.png","生人","prac_friend","","朋友"
"","","","","","html-keyboard-response","173","623207","0.0-16.0-0.0-1.5","null","<span style='color:GreenYellow; font-size: 70px;'>正确! </span>","null","","","","","","","","","","","","","","","","","","","","","","","feedback_test",""
"","","","","","psychophysics","174","624977","0.0-16.0-0.0-0.6","759","","d","","","","","","","","","","","","","key","d","16.683269230768648","960","536","d","true","img/C_28.png","朋友","prac_friend","","生人"
"","","","","","html-keyboard-response","175","625282","0.0-16.0-0.0-1.6","null","<span style='color:GreenYellow; font-size: 70px;'>正确! </span>","null","","","","","","","","","","","","","","","","","","","","","","","feedback_test",""
"","","","","","psychophysics","176","627737","0.0-16.0-0.0-0.7","1440","","d","","","","","","","","","","","","","key","d","16.68328767123294","960","536","d","true","img/C_28.png","自我","prac_friend","","生人"
"","","","","","html-keyboard-response","177","628044","0.0-16.0-0.0-1.7","null","<span style='color:GreenYellow; font-size: 70px;'>正确! </span>","null","","","","","","","","","","","","","","","","","","","","","","","feedback_test",""
"","","","","","psychophysics","178","630401","0.0-16.0-0.0-0.8","1349","","d","","","","","","","","","","","","","key","d","16.68340425531905","960","536","f","false","img/S_28.png","自我","prac_friend","","自我"
"","","","","","html-keyboard-response","179","630714","0.0-16.0-0.0-1.8","null","<span style='color:red; font-size: 70px;'>错误! </span>","null","","","","","","","","","","","","","","","","","","","","","","","feedback_test",""
"","","","","","psychophysics","180","632929","0.0-16.0-0.0-0.9","1155","","f","","","","","","","","","","","","","key","f","16.683333333332982","960","536","f","true","img/C_28.png","生人","prac_friend","","生人"
"","","","","","html-keyboard-response","181","633235","0.0-16.0-0.0-1.9","null","<span style='color:GreenYellow; font-size: 70px;'>正确! </span>","null","","","","","","","","","","","","","","","","","","","","","","","feedback_test",""
"","","","","","psychophysics","182","635401","0.0-16.0-0.0-0.10","1153","","j","","","","","","","","","","","","","key","j","16.63000000000011","960","536","j","true","img/H_28.png","朋友","prac_friend","","朋友"
"","","","","","html-keyboard-response","183","635704","0.0-16.0-0.0-1.10","null","<span style='color:GreenYellow; font-size: 70px;'>正确! </span>","null","","","","","","","","","","","","","","","","","","","","","","","feedback_test",""
"","","","","","psychophysics","184","637417","0.0-16.0-0.0-0.11","704","","j","","","","","","","","","","","","","key","j","16.68336633663385","960","536","j","true","img/H_28.png","朋友","prac_friend","","朋友"
"","","","","","html-keyboard-response","185","637727","0.0-16.0-0.0-1.11","null","<span style='color:GreenYellow; font-size: 70px;'>正确! </span>","null","","","","","","","","","","","","","","","","","","","","","","","feedback_test",""
"","","","","","psychophysics","186","640161","0.0-16.0-0.0-0.12","1422","","f","","","","","","","","","","","","","key","f","16.6833103448281","960","536","f","true","img/C_28.png","生人","prac_friend","","生人"
"","","","","","html-keyboard-response","187","640465","0.0-16.0-0.0-1.12","null","<span style='color:GreenYellow; font-size: 70px;'>正确! </span>","null","","","","","","","","","","","","","","","","","","","","","","","feedback_test",""
"","","","","","psychophysics","188","642457","0.0-16.0-0.0-0.13","985","","d","","","","","","","","","","","","","key","d","16.683220338983013","960","536","d","true","img/C_28.png","自我","prac_friend","","生人"
"","","","","","html-keyboard-response","189","642764","0.0-16.0-0.0-1.13","null","<span style='color:GreenYellow; font-size: 70px;'>正确! </span>","null","","","","","","","","","","","","","","","","","","","","","","","feedback_test",""
"","","","","","psychophysics","190","644393","0.0-16.0-0.0-0.14","616","","j","","","","","","","","","","","","","key","j","16.683333333333092","960","536","j","true","img/H_28.png","朋友","prac_friend","","朋友"
"","","","","","html-keyboard-response","191","644698","0.0-16.0-0.0-1.14","null","<span style='color:GreenYellow; font-size: 70px;'>正确! </span>","null","","","","","","","","","","","","","","","","","","","","","","","feedback_test",""
"","","","","","psychophysics","192","646857","0.0-16.0-0.0-0.15","1158","","k","","","","","","","","","","","","","key","k","16.683437499999854","960","536","k","true","img/H_28.png","生人","prac_friend","","朋友"
"","","","","","html-keyboard-response","193","647161","0.0-16.0-0.0-1.15","null","<span style='color:GreenYellow; font-size: 70px;'>正确! </span>","null","","","","","","","","","","","","","","","","","","","","","","","feedback_test",""
"","","","","","psychophysics","194","648865","0.0-16.0-0.0-0.16","691","","j","","","","","","","","","","","","","key","j","16.68336633663385","960","536","k","false","img/H_28.png","自我","prac_friend","","朋友"
"","","","","","html-keyboard-response","195","649171","0.0-16.0-0.0-1.16","null","<span style='color:red; font-size: 70px;'>错误! </span>","null","","","","","","","","","","","","","","","","","","","","","","","feedback_test",""
"","","","","","psychophysics","196","651321","0.0-16.0-0.0-0.17","1136","","f","","","","","","","","","","","","","key","f","16.683437499999854","960","536","f","true","img/C_28.png","生人","prac_friend","","生人"
"","","","","","html-keyboard-response","197","651628","0.0-16.0-0.0-1.17","null","<span style='color:GreenYellow; font-size: 70px;'>正确! </span>","null","","","","","","","","","","","","","","","","","","","","","","","feedback_test",""
"","","","","","psychophysics","198","653617","0.0-16.0-0.0-0.18","973","","d","","","","","","","","","","","","","key","d","16.68338983050859","960","536","d","true","img/C_28.png","朋友","prac_friend","","生人"
"","","","","","html-keyboard-response","199","653929","0.0-16.0-0.0-1.18","null","<span style='color:GreenYellow; font-size: 70px;'>正确! </span>","null","","","","","","","","","","","","","","","","","","","","","","","feedback_test",""
"","","","","","psychophysics","200","656425","0.0-16.0-0.0-0.19","1432","","d","","","","","","","","","","","","","key","d","16.68324324324321","960","536","f","false","img/S_28.png","自我","prac_friend","","自我"
"","","","","","html-keyboard-response","201","656729","0.0-16.0-0.0-1.19","null","<span style='color:red; font-size: 70px;'>错误! </span>","null","","","","","","","","","","","","","","","","","","","","","","","feedback_test",""
"","","","","","psychophysics","202","658489","0.0-16.0-0.0-0.20","757","","j","","","","","","","","","","","","","key","j","16.683269230768648","960","536","j","true","img/H_28.png","朋友","prac_friend","","朋友"
"","","","","","html-keyboard-response","203","658793","0.0-16.0-0.0-1.20","null","<span style='color:GreenYellow; font-size: 70px;'>正确! </span>","null","","","","","","","","","","","","","","","","","","","","","","","feedback_test",""
"","","","","","psychophysics","204","660953","0.0-16.0-0.0-0.21","1144","","d","","","","","","","","","","","","","key","d","16.644999999999527","960","536","d","true","img/S_28.png","朋友","prac_friend","","自我"
"","","","","","html-keyboard-response","205","661259","0.0-16.0-0.0-1.21","null","<span style='color:GreenYellow; font-size: 70px;'>正确! </span>","null","","","","","","","","","","","","","","","","","","","","","","","feedback_test",""
"","","","","","psychophysics","206","663537","0.0-16.0-0.0-0.22","1270","","f","","","","","","","","","","","","","key","f","16.683382352940765","960","536","d","false","img/S_28.png","生人","prac_friend","","自我"
"","","","","","html-keyboard-response","207","663851","0.0-16.0-0.0-1.22","null","<span style='color:red; font-size: 70px;'>错误! </span>","null","","","","","","","","","","","","","","","","","","","","","","","feedback_test",""
"","","","","","psychophysics","208","665713","0.0-16.0-0.0-0.23","861","","k","","","","","","","","","","","","","key","k","16.683272727273025","960","536","f","false","img/S_28.png","自我","prac_friend","","自我"
"","","","","","html-keyboard-response","209","666025","0.0-16.0-0.0-1.23","null","<span style='color:red; font-size: 70px;'>错误! </span>","null","","","","","","","","","","","","","","","","","","","","","","","feedback_test",""
"","","","","","html-keyboard-response","210","675401","0.0-17.0","9374","[""<style>.context{color:white; font-size: 35px; line-height:40px}</style>                  <div><p class='context'>您正确回答了75% 的试次。</p><p class='context'>您的平均反应时为1057毫秒。</p><p class='context'>恭喜您完成这一阶段的练习。按任意键进入<span style='color: yellow;'>重点关注图形为“生人”</span>的练习。</p></div><p class='footer' style='font-size:35px; line-height:30px;'>任务要求：\n                  <p class='footer' style='font-size:35px; line-height:35px;'>对与“生人”对应的图形，如果 匹配 ，请按 <span style=\""color: lightgreen;\"">j键</span></p><p class='footer' style='font-size:35px'>如果 不匹配 ，请按<span style=\""color: lightgreen;\"">k键</p></span>\n                  <p class='footer' style='font-size:35px; line-height:35px;'>对非“生人”对应的图形，如果 匹配 ，请按 <span style=\""color: lightgreen;\"">f键</span></p><p class='footer' style='font-size:35px'>如果 不匹配 ，请按<span style=\""color: lightgreen;\"">d键</p></span>\n                  <p class='footer' style='font-size:22px; line-height:25px;'>请在实验过程中将您的<span style=\""color: lightgreen;\"">食指和中指</span>放在电脑键盘的相应键位上进行按键。</p></span>""]"," ","","","","","","","","","","","","","","","","","","","","","","","",""
"","","","","","psychophysics","211","677265","0.0-18.0-0.0-0.0","859","","k","","","","","","","","","","","","","key","k","16.683423423423296","960","536","k","true","img/C_28.png","自我","prac_stranger","","生人"
"","","","","","html-keyboard-response","212","677576","0.0-18.0-0.0-1.0","null","<span style='color:GreenYellow; font-size: 70px;'>正确! </span>","null","","","","","","","","","","","","","","","","","","","","","","","feedback_test",""
"","","","","","psychophysics","213","680049","0.0-18.0-0.0-0.1","1461","","d","","","","","","","","","","","","","key","d","16.68324324324321","960","536","d","true","img/H_28.png","自我","prac_stranger","","朋友"
"","","","","","html-keyboard-response","214","680361","0.0-18.0-0.0-1.1","null","<span style='color:GreenYellow; font-size: 70px;'>正确! </span>","null","","","","","","","","","","","","","","","","","","","","","","","feedback_test",""
"","","","","","psychophysics","215","682216","0.0-18.0-0.0-0.2","763","","f","","","","","","","","","","","","","key","f","16.683272727273025","960","536","f","true","img/H_28.png","朋友","prac_stranger","","朋友"
"","","","","","html-keyboard-response","216","682530","0.0-18.0-0.0-1.2","null","<span style='color:GreenYellow; font-size: 70px;'>正确! </span>","null","","","","","","","","","","","","","","","","","","","","","","","feedback_test",""
"","","","","","psychophysics","217","684977","0.0-18.0-0.0-0.3","1431","","d","","","","","","","","","","","","","key","d","16.683287671232144","960","536","f","false","img/H_28.png","朋友","prac_stranger","","朋友"
"","","","","","html-keyboard-response","218","685286","0.0-18.0-0.0-1.3","null","<span style='color:red; font-size: 70px;'>错误! </span>","null","","","","","","","","","","","","","","","","","","","","","","","feedback_test",""
"","","","","","psychophysics","219","687385","0.0-18.0-0.0-0.4","1085","","f","","","","","","","","","","","","","key","f","16.64322580645075","960","536","f","true","img/S_28.png","自我","prac_stranger","","自我"
"","","","","","html-keyboard-response","220","687690","0.0-18.0-0.0-1.4","null","<span style='color:GreenYellow; font-size: 70px;'>正确! </span>","null","","","","","","","","","","","","","","","","","","","","","","","feedback_test",""
"","","","","","psychophysics","221","690081","0.0-18.0-0.0-0.5","1374","","d","","","","","","","","","","","","","key","d","16.683380281690404","960","536","d","true","img/S_28.png","生人","prac_stranger","","自我"
"","","","","","html-keyboard-response","222","690397","0.0-18.0-0.0-1.5","null","<span style='color:GreenYellow; font-size: 70px;'>正确! </span>","null","","","","","","","","","","","","","","","","","","","","","","","feedback_test",""
"","","","","","psychophysics","223","692657","0.0-18.0-0.0-0.6","1246","","d","","","","","","","","","","","","","key","d","16.6832835820891","960","536","d","true","img/H_28.png","生人","prac_stranger","","朋友"
"","","","","","html-keyboard-response","224","692970","0.0-18.0-0.0-1.6","null","<span style='color:GreenYellow; font-size: 70px;'>正确! </span>","null","","","","","","","","","","","","","","","","","","","","","","","feedback_test",""
"","","","","","psychophysics","225","695033","0.0-18.0-0.0-0.7","1049","","k","","","","","","","","","","","","","key","k","16.683252032520627","960","536","k","true","img/C_28.png","朋友","prac_stranger","","生人"
"","","","","","html-keyboard-response","226","695341","0.0-18.0-0.0-1.7","null","<span style='color:GreenYellow; font-size: 70px;'>正确! </span>","null","","","","","","","","","","","","","","","","","","","","","","","feedback_test",""
"","","","","","psychophysics","227","697065","0.0-18.0-0.0-0.8","711","","f","","","","","","","","","","","","","key","f","16.683333333332875","960","536","f","true","img/S_28.png","自我","prac_stranger","","自我"
"","","","","","html-keyboard-response","228","697368","0.0-18.0-0.0-1.8","null","<span style='color:GreenYellow; font-size: 70px;'>正确! </span>","null","","","","","","","","","","","","","","","","","","","","","","","feedback_test",""
"","","","","","psychophysics","229","699177","0.0-18.0-0.0-0.9","802","","j","","","","","","","","","","","","","key","j","16.683364485981265","960","536","j","true","img/C_28.png","生人","prac_stranger","","生人"
"","","","","","html-keyboard-response","230","699482","0.0-18.0-0.0-1.9","null","<span style='color:GreenYellow; font-size: 70px;'>正确! </span>","null","","","","","","","","","","","","","","","","","","","","","","","feedback_test",""
"","","","","","psychophysics","231","701441","0.0-18.0-0.0-0.10","945","","d","","","","","","","","","","","","","key","d","16.683275862069046","960","536","d","true","img/S_28.png","朋友","prac_stranger","","自我"
"","","","","","html-keyboard-response","232","701745","0.0-18.0-0.0-1.10","null","<span style='color:GreenYellow; font-size: 70px;'>正确! </span>","null","","","","","","","","","","","","","","","","","","","","","","","feedback_test",""
"","","","","","psychophysics","233","703721","0.0-18.0-0.0-0.11","960","","j","","","","","","","","","","","","","key","j","16.683247863247384","960","536","j","true","img/C_28.png","生人","prac_stranger","","生人"
"","","","","","html-keyboard-response","234","704031","0.0-18.0-0.0-1.11","null","<span style='color:GreenYellow; font-size: 70px;'>正确! </span>","null","","","","","","","","","","","","","","","","","","","","","","","feedback_test",""
"","","","","","psychophysics","235","705785","0.0-18.0-0.0-0.12","742","","k","","","","","","","","","","","","","key","k","16.683269230769767","960","536","d","false","img/H_28.png","生人","prac_stranger","","朋友"
"","","","","","html-keyboard-response","236","706094","0.0-18.0-0.0-1.12","null","<span style='color:red; font-size: 70px;'>错误! </span>","null","","","","","","","","","","","","","","","","","","","","","","","feedback_test",""
"","","","","","psychophysics","237","708609","0.0-18.0-0.0-0.13","null","","null","","","","","","","","","","","","","key","null","16.683355704698425","960","536","f","false","img/S_28.png","自我","prac_stranger","","自我"
"","","","","","html-keyboard-response","238","708927","0.0-18.0-0.0-1.13","null","<span class='add_' style='color:yellow; font-size: 70px;'> 太慢! </span>","null","","","","","","","","","","","","","","","","","","","","","","","feedback_test",""
"","","","","","psychophysics","239","710752","0.0-18.0-0.0-0.14","811","","f","","","","","","","","","","","","","key","f","16.63777777777782","960","536","f","true","img/S_28.png","自我","prac_stranger","","自我"
"","","","","","html-keyboard-response","240","711064","0.0-18.0-0.0-1.14","null","<span style='color:GreenYellow; font-size: 70px;'>正确! </span>","null","","","","","","","","","","","","","","","","","","","","","","","feedback_test",""
"","","","","","psychophysics","241","712969","0.0-18.0-0.0-0.15","903","","f","","","","","","","","","","","","","key","f","16.683362831858158","960","536","f","true","img/H_28.png","朋友","prac_stranger","","朋友"
"","","","","","html-keyboard-response","242","713275","0.0-18.0-0.0-1.15","null","<span style='color:GreenYellow; font-size: 70px;'>正确! </span>","null","","","","","","","","","","","","","","","","","","","","","","","feedback_test",""
"","","","","","psychophysics","243","715249","0.0-18.0-0.0-0.16","963","","d","","","","","","","","","","","","","key","d","16.683247863247384","960","536","k","false","img/C_28.png","朋友","prac_stranger","","生人"
"","","","","","html-keyboard-response","244","715558","0.0-18.0-0.0-1.16","null","<span style='color:red; font-size: 70px;'>错误! </span>","null","","","","","","","","","","","","","","","","","","","","","","","feedback_test",""
"","","","","","psychophysics","245","717585","0.0-18.0-0.0-0.17","1013","","j","","","","","","","","","","","","","key","j","16.683166666666512","960","536","k","false","img/C_28.png","自我","prac_stranger","","生人"
"","","","","","html-keyboard-response","246","717900","0.0-18.0-0.0-1.17","null","<span style='color:red; font-size: 70px;'>错误! </span>","null","","","","","","","","","","","","","","","","","","","","","","","feedback_test",""
"","","","","","psychophysics","247","719672","0.0-18.0-0.0-0.18","760","","j","","","","","","","","","","","","","key","j","16.683396226415667","960","536","j","true","img/C_28.png","生人","prac_stranger","","生人"
"","","","","","html-keyboard-response","248","719976","0.0-18.0-0.0-1.18","null","<span style='color:GreenYellow; font-size: 70px;'>正确! </span>","null","","","","","","","","","","","","","","","","","","","","","","","feedback_test",""
"","","","","","psychophysics","249","721993","0.0-18.0-0.0-0.19","883","","f","","","","","","","","","","","","","key","f","16.683333333333334","960","536","f","true","img/H_28.png","朋友","prac_stranger","","朋友"
"","","","","","html-keyboard-response","250","722295","0.0-18.0-0.0-1.19","null","<span style='color:GreenYellow; font-size: 70px;'>正确! </span>","null","","","","","","","","","","","","","","","","","","","","","","","feedback_test",""
"","","","","","psychophysics","251","724561","0.0-18.0-0.0-0.20","1252","","k","","","","","","","","","","","","","key","k","16.683407407407476","960","536","d","false","img/S_28.png","生人","prac_stranger","","自我"
"","","","","","html-keyboard-response","252","724865","0.0-18.0-0.0-1.20","null","<span style='color:red; font-size: 70px;'>错误! </span>","null","","","","","","","","","","","","","","","","","","","","","","","feedback_test",""
"","","","","","psychophysics","253","727248","0.0-18.0-0.0-0.21","1369","","d","","","","","","","","","","","","","key","d","16.68323943661985","960","536","d","true","img/H_28.png","自我","prac_stranger","","朋友"
"","","","","","html-keyboard-response","254","727552","0.0-18.0-0.0-1.21","null","<span style='color:GreenYellow; font-size: 70px;'>正确! </span>","null","","","","","","","","","","","","","","","","","","","","","","","feedback_test",""
"","","","","","psychophysics","255","729320","0.0-18.0-0.0-0.22","754","","j","","","","","","","","","","","","","key","j","16.683238095238007","960","536","j","true","img/C_28.png","生人","prac_stranger","","生人"
"","","","","","html-keyboard-response","256","729628","0.0-18.0-0.0-1.22","null","<span style='color:GreenYellow; font-size: 70px;'>正确! </span>","null","","","","","","","","","","","","","","","","","","","","","","","feedback_test",""
"","","","","","psychophysics","257","731545","0.0-18.0-0.0-0.23","906","","d","","","","","","","","","","","","","key","d","16.683333333333536","960","536","d","true","img/S_28.png","朋友","prac_stranger","","自我"
"","","","","","html-keyboard-response","258","731859","0.0-18.0-0.0-1.23","null","<span style='color:GreenYellow; font-size: 70px;'>正确! </span>","null","","","","","","","","","","","","","","","","","","","","","","","feedback_test",""
"","","","","","html-keyboard-response","259","742122","0.0-19.0","10260","[""<style>.context{color:white; font-size: 35px; line-height:40px}</style>                                        <div><p class='context'>您正确回答了75% 的试次。</p><p class='context'>您的平均反应时为980毫秒。</p><p class='context'>恭喜您完成练习。您可以在此时休息一段时间，准备好后按任意键进入正式实验。</p><p class='footer' style='font-size: 35px; line-height:40px;'>请在进入正式实验实验之前将您的<span style='color: lightgreen;'>食指和中指</span>放在电脑键盘的相应键位上，做好按键准备。</p>""]"," ","","","","","","","","","","","","","","","","","","","","","","","",""
"","","","","","html-keyboard-response","260","754129","0.0-20.0-2.0-0.0","12005","
                    <p>请您将食指和中指放在相应按键上，准备进入<span style='color: yellow;'>重点图形为“生人”对应图形</span>的正式匹配任务</p>
                    <p> <div style = ""color: green""><按任意键开始></div></p>
                    "," ","","","","","","","","","","","","","","","","","","","","","","","",""
"","","","","","psychophysics","261","755801","0.0-20.0-2.0-1.0-0.0-0.0","668","","j","","","","","","","","","","","","","key","j","16.683434343434673","960","536","j","true","img/C_28.png","生人","stranger","","生人"
"","","","","","html-keyboard-response","262","756144","0.0-20.0-2.0-1.0-0.0-1.0","null","<span style='color:GreenYellow; font-size: 70px;'>正确! </span>","null","","","","","","","","","","","","","","","","","","","","","","","feedback_test",""
"","","","","","psychophysics","263","758369","0.0-20.0-2.0-1.0-0.0-0.1","1211","","d","","","","","","","","","","","","","key","d","16.683333333332982","960","536","k","false","img/C_28.png","自我","stranger","","生人"
"","","","","","html-keyboard-response","264","758677","0.0-20.0-2.0-1.0-0.0-1.1","null","<span style='color:red; font-size: 70px;'>错误! </span>","null","","","","","","","","","","","","","","","","","","","","","","","feedback_test",""
"","","","","","psychophysics","265","760681","0.0-20.0-2.0-1.0-0.0-0.2","993","","j","","","","","","","","","","","","","key","j","16.683361344538362","960","536","j","true","img/C_28.png","生人","stranger","","生人"
"","","","","","html-keyboard-response","266","760986","0.0-20.0-2.0-1.0-0.0-1.2","null","<span style='color:GreenYellow; font-size: 70px;'>正确! </span>","null","","","","","","","","","","","","","","","","","","","","","","","feedback_test",""
"","","","","","psychophysics","267","762897","0.0-20.0-2.0-1.0-0.0-0.3","896","","k","","","","","","","","","","","","","key","k","16.683362831858158","960","536","k","true","img/C_28.png","朋友","stranger","","生人"
"","","","","","html-keyboard-response","268","763221","0.0-20.0-2.0-1.0-0.0-1.3","null","<span style='color:GreenYellow; font-size: 70px;'>正确! </span>","null","","","","","","","","","","","","","","","","","","","","","","","feedback_test",""
"","","","","","psychophysics","269","765249","0.0-20.0-2.0-1.0-0.0-0.4","1015","","d","","","","","","","","","","","","","key","d","16.683333333333334","960","536","d","true","img/S_28.png","朋友","stranger","","自我"
"","","","","","html-keyboard-response","270","765563","0.0-20.0-2.0-1.0-0.0-1.4","null","<span style='color:GreenYellow; font-size: 70px;'>正确! </span>","null","","","","","","","","","","","","","","","","","","","","","","","feedback_test",""
"","","","","","psychophysics","271","767848","0.0-20.0-2.0-1.0-0.0-0.5","1275","","d","","","","","","","","","","","","","key","d","16.68308823529429","960","536","d","true","img/H_28.png","自我","stranger","","朋友"
"","","","","","html-keyboard-response","272","768163","0.0-20.0-2.0-1.0-0.0-1.5","null","<span style='color:GreenYellow; font-size: 70px;'>正确! </span>","null","","","","","","","","","","","","","","","","","","","","","","","feedback_test",""
"","","","","","psychophysics","273","770608","0.0-20.0-2.0-1.0-0.0-0.6","1335","","d","","","","","","","","","","","","","key","d","16.683150684931444","960","536","f","false","img/S_28.png","自我","stranger","","自我"
"","","","","","html-keyboard-response","274","770911","0.0-20.0-2.0-1.0-0.0-1.6","null","<span style='color:red; font-size: 70px;'>错误! </span>","null","","","","","","","","","","","","","","","","","","","","","","","feedback_test",""
"","","","","","psychophysics","275","772721","0.0-20.0-2.0-1.0-0.0-0.7","797","","f","","","","","","","","","","","","","key","f","16.683364485982352","960","536","f","true","img/H_28.png","朋友","stranger","","朋友"
"","","","","","html-keyboard-response","276","773035","0.0-20.0-2.0-1.0-0.0-1.7","null","<span style='color:GreenYellow; font-size: 70px;'>正确! </span>","null","","","","","","","","","","","","","","","","","","","","","","","feedback_test",""
"","","","","","psychophysics","277","775192","0.0-20.0-2.0-1.0-0.0-0.8","1155","","k","","","","","","","","","","","","","key","k","16.683437500000764","960","536","d","false","img/S_28.png","生人","stranger","","自我"
"","","","","","html-keyboard-response","278","775507","0.0-20.0-2.0-1.0-0.0-1.8","null","<span style='color:red; font-size: 70px;'>错误! </span>","null","","","","","","","","","","","","","","","","","","","","","","","feedback_test",""
"","","","","","psychophysics","279","777288","0.0-20.0-2.0-1.0-0.0-0.9","775","","f","","","","","","","","","","","","","key","f","16.683207547170205","960","536","f","true","img/H_28.png","朋友","stranger","","朋友"
"","","","","","html-keyboard-response","280","777594","0.0-20.0-2.0-1.0-0.0-1.9","null","<span style='color:GreenYellow; font-size: 70px;'>正确! </span>","null","","","","","","","","","","","","","","","","","","","","","","","feedback_test",""
"","","","","","psychophysics","281","779617","0.0-20.0-2.0-1.0-0.0-0.10","1019","","d","","","","","","","","","","","","","key","d","16.683333333333334","960","536","d","true","img/H_28.png","生人","stranger","","朋友"
"","","","","","html-keyboard-response","282","779931","0.0-20.0-2.0-1.0-0.0-1.10","null","<span style='color:GreenYellow; font-size: 70px;'>正确! </span>","null","","","","","","","","","","","","","","","","","","","","","","","feedback_test",""
"","","","","","psychophysics","283","782137","0.0-20.0-2.0-1.0-0.0-0.11","1197","","f","","","","","","","","","","","","","key","f","16.683358778626097","960","536","f","true","img/S_28.png","自我","stranger","","自我"
"","","","","","html-keyboard-response","284","782439","0.0-20.0-2.0-1.0-0.0-1.11","null","<span style='color:GreenYellow; font-size: 70px;'>正确! </span>","null","","","","","","","","","","","","","","","","","","","","","","","feedback_test",""
"","","","","","psychophysics","285","784353","0.0-20.0-2.0-1.0-0.0-0.12","902","","d","","","","","","","","","","","","","key","d","16.683333333332516","960","536","d","true","img/H_28.png","自我","stranger","","朋友"
"","","","","","html-keyboard-response","286","784655","0.0-20.0-2.0-1.0-0.0-1.12","null","<span style='color:GreenYellow; font-size: 70px;'>正确! </span>","null","","","","","","","","","","","","","","","","","","","","","","","feedback_test",""
"","","","","","psychophysics","287","786616","0.0-20.0-2.0-1.0-0.0-0.13","946","","f","","","","","","","","","","","","","key","f","16.683103448276785","960","536","f","true","img/S_28.png","自我","stranger","","自我"
"","","","","","html-keyboard-response","288","786920","0.0-20.0-2.0-1.0-0.0-1.13","null","<span style='color:GreenYellow; font-size: 70px;'>正确! </span>","null","","","","","","","","","","","","","","","","","","","","","","","feedback_test",""
"","","","","","psychophysics","289","788841","0.0-20.0-2.0-1.0-0.0-0.14","905","","d","","","","","","","","","","","","","key","d","16.683333333333536","960","536","d","true","img/H_28.png","生人","stranger","","朋友"
"","","","","","html-keyboard-response","290","789141","0.0-20.0-2.0-1.0-0.0-1.14","null","<span style='color:GreenYellow; font-size: 70px;'>正确! </span>","null","","","","","","","","","","","","","","","","","","","","","","","feedback_test",""
"","","","","","psychophysics","291","791257","0.0-20.0-2.0-1.0-0.0-0.15","1115","","d","","","","","","","","","","","","","key","d","16.683360000000334","960","536","k","false","img/C_28.png","自我","stranger","","生人"
"","","","","","html-keyboard-response","292","791569","0.0-20.0-2.0-1.0-0.0-1.15","null","<span style='color:red; font-size: 70px;'>错误! </span>","null","","","","","","","","","","","","","","","","","","","","","","","feedback_test",""
"","","","","","psychophysics","293","793560","0.0-20.0-2.0-1.0-0.0-0.16","983","","j","","","","","","","","","","","","","key","j","16.683220338983013","960","536","d","false","img/S_28.png","生人","stranger","","自我"
"","","","","","html-keyboard-response","294","793863","0.0-20.0-2.0-1.0-0.0-1.16","null","<span style='color:red; font-size: 70px;'>错误! </span>","null","","","","","","","","","","","","","","","","","","","","","","","feedback_test",""
"","","","","","psychophysics","295","796241","0.0-20.0-2.0-1.0-0.0-0.17","1368","","d","","","","","","","","","","","","","key","d","16.683262411347286","960","536","f","false","img/S_28.png","自我","stranger","","自我"
"","","","","","html-keyboard-response","296","796552","0.0-20.0-2.0-1.0-0.0-1.17","null","<span style='color:red; font-size: 70px;'>错误! </span>","null","","","","","","","","","","","","","","","","","","","","","","","feedback_test",""
"","","","","","psychophysics","297","798440","0.0-20.0-2.0-1.0-0.0-0.18","877","","j","","","","","","","","","","","","","key","j","16.68339285714215","960","536","j","true","img/C_28.png","生人","stranger","","生人"
"","","","","","html-keyboard-response","298","798756","0.0-20.0-2.0-1.0-0.0-1.18","null","<span style='color:GreenYellow; font-size: 70px;'>正确! </span>","null","","","","","","","","","","","","","","","","","","","","","","","feedback_test",""
"","","","","","psychophysics","299","800672","0.0-20.0-2.0-1.0-0.0-0.19","914","","d","","","","","","","","","","","","","key","d","16.683333333333536","960","536","k","false","img/C_28.png","朋友","stranger","","生人"
"","","","","","html-keyboard-response","300","800976","0.0-20.0-2.0-1.0-0.0-1.19","null","<span style='color:red; font-size: 70px;'>错误! </span>","null","","","","","","","","","","","","","","","","","","","","","","","feedback_test",""
"","","","","","psychophysics","301","802840","0.0-20.0-2.0-1.0-0.0-0.20","853","","f","","","","","","","","","","","","","key","f","16.68324324324295","960","536","f","true","img/H_28.png","朋友","stranger","","朋友"
"","","","","","html-keyboard-response","302","803148","0.0-20.0-2.0-1.0-0.0-1.20","null","<span style='color:GreenYellow; font-size: 70px;'>正确! </span>","null","","","","","","","","","","","","","","","","","","","","","","","feedback_test",""
"","","","","","psychophysics","303","805354","0.0-20.0-2.0-1.0-0.0-0.21","1193","","d","","","","","","","","","","","","","key","d","16.683358778626097","960","536","d","true","img/S_28.png","朋友","stranger","","自我"
"","","","","","html-keyboard-response","304","805694","0.0-20.0-2.0-1.0-0.0-1.21","null","<span style='color:GreenYellow; font-size: 70px;'>正确! </span>","null","","","","","","","","","","","","","","","","","","","","","","","feedback_test",""
"","","","","","psychophysics","305","807385","0.0-20.0-2.0-1.0-0.0-0.22","677","","j","","","","","","","","","","","","","key","j","16.683399999999676","960","536","j","true","img/C_28.png","生人","stranger","","生人"
"","","","","","html-keyboard-response","306","807720","0.0-20.0-2.0-1.0-0.0-1.22","null","<span style='color:GreenYellow; font-size: 70px;'>正确! </span>","null","","","","","","","","","","","","","","","","","","","","","","","feedback_test",""
"","","","","","psychophysics","307","809433","0.0-20.0-2.0-1.0-0.0-0.23","711","","f","","","","","","","","","","","","","key","f","16.683333333332875","960","536","f","true","img/H_28.png","朋友","stranger","","朋友"
"","","","","","html-keyboard-response","308","809752","0.0-20.0-2.0-1.0-0.0-1.23","null","<span style='color:GreenYellow; font-size: 70px;'>正确! </span>","null","","","","","","","","","","","","","","","","","","","","","","","feedback_test",""
"","","","","","psychophysics","309","811593","0.0-20.0-2.0-1.0-0.0-0.24","825","","j","","","","","","","","","","","","","key","j","16.683119266054703","960","536","j","true","img/C_28.png","生人","stranger","","生人"
"","","","","","html-keyboard-response","310","811898","0.0-20.0-2.0-1.0-0.0-1.24","null","<span style='color:GreenYellow; font-size: 70px;'>正确! </span>","null","","","","","","","","","","","","","","","","","","","","","","","feedback_test",""
"","","","","","psychophysics","311","814405","0.0-20.0-2.0-1.0-0.0-0.25","null","","null","","","","","","","","","","","","","key","null","16.683355704697643","960","536","d","false","img/S_28.png","生人","stranger","","自我"
"","","","","","html-keyboard-response","312","814706","0.0-20.0-2.0-1.0-0.0-1.25","null","<span class='add_' style='color:yellow; font-size: 70px;'> 太慢! </span>","null","","","","","","","","","","","","","","","","","","","","","","","feedback_test",""
"","","","","","psychophysics","313","816417","0.0-20.0-2.0-1.0-0.0-0.26","617","","j","","","","","","","","","","","","","key","j","16.683168316831683","960","536","j","true","img/C_28.png","生人","stranger","","生人"
"","","","","","html-keyboard-response","314","816722","0.0-20.0-2.0-1.0-0.0-1.26","null","<span style='color:GreenYellow; font-size: 70px;'>正确! </span>","null","","","","","","","","","","","","","","","","","","","","","","","feedback_test",""
"","","","","","psychophysics","315","818593","0.0-20.0-2.0-1.0-0.0-0.27","777","","d","","","","","","","","","","","","","key","d","16.68324324324295","960","536","d","true","img/H_28.png","生人","stranger","","朋友"
"","","","","","html-keyboard-response","316","818898","0.0-20.0-2.0-1.0-0.0-1.27","null","<span style='color:GreenYellow; font-size: 70px;'>正确! </span>","null","","","","","","","","","","","","","","","","","","","","","","","feedback_test",""
"","","","","","psychophysics","317","821256","0.0-20.0-2.0-1.0-0.0-0.28","1343","","f","","","","","","","","","","","","","key","f","16.683262411347286","960","536","f","true","img/S_28.png","自我","stranger","","自我"
"","","","","","html-keyboard-response","318","821562","0.0-20.0-2.0-1.0-0.0-1.28","null","<span style='color:GreenYellow; font-size: 70px;'>正确! </span>","null","","","","","","","","","","","","","","","","","","","","","","","feedback_test",""
"","","","","","psychophysics","319","823905","0.0-20.0-2.0-1.0-0.0-0.29","1335","","k","","","","","","","","","","","","","key","k","16.68345323741007","960","536","k","true","img/C_28.png","自我","stranger","","生人"
"","","","","","html-keyboard-response","320","824220","0.0-20.0-2.0-1.0-0.0-1.29","null","<span style='color:GreenYellow; font-size: 70px;'>正确! </span>","null","","","","","","","","","","","","","","","","","","","","","","","feedback_test",""
"","","","","","psychophysics","321","826232","0.0-20.0-2.0-1.0-0.0-0.30","999","","d","","","","","","","","","","","","","key","d","16.683333333333334","960","536","d","true","img/H_28.png","自我","stranger","","朋友"
"","","","","","html-keyboard-response","322","826533","0.0-20.0-2.0-1.0-0.0-1.30","null","<span style='color:GreenYellow; font-size: 70px;'>正确! </span>","null","","","","","","","","","","","","","","","","","","","","","","","feedback_test",""
"","","","","","psychophysics","323","828344","0.0-20.0-2.0-1.0-0.0-0.31","798","","k","","","","","","","","","","","","","key","k","16.68317757009324","960","536","k","true","img/C_28.png","朋友","stranger","","生人"
"","","","","","html-keyboard-response","324","828660","0.0-20.0-2.0-1.0-0.0-1.31","null","<span style='color:GreenYellow; font-size: 70px;'>正确! </span>","null","","","","","","","","","","","","","","","","","","","","","","","feedback_test",""
"","","","","","psychophysics","325","830433","0.0-20.0-2.0-1.0-0.0-0.32","757","","f","","","","","","","","","","","","","key","f","16.683207547170205","960","536","f","true","img/H_28.png","朋友","stranger","","朋友"
"","","","","","html-keyboard-response","326","830737","0.0-20.0-2.0-1.0-0.0-1.32","null","<span style='color:GreenYellow; font-size: 70px;'>正确! </span>","null","","","","","","","","","","","","","","","","","","","","","","","feedback_test",""
"","","","","","psychophysics","327","833025","0.0-20.0-2.0-1.0-0.0-0.33","1273","","d","","","","","","","","","","","","","key","d","16.6832352941171","960","536","d","true","img/S_28.png","朋友","stranger","","自我"
"","","","","","html-keyboard-response","328","833337","0.0-20.0-2.0-1.0-0.0-1.33","null","<span style='color:GreenYellow; font-size: 70px;'>正确! </span>","null","","","","","","","","","","","","","","","","","","","","","","","feedback_test",""
"","","","","","psychophysics","329","835072","0.0-20.0-2.0-1.0-0.0-0.34","723","","f","","","","","","","","","","","","","key","f","16.68330097087383","960","536","f","true","img/S_28.png","自我","stranger","","自我"
"","","","","","html-keyboard-response","330","835383","0.0-20.0-2.0-1.0-0.0-1.34","null","<span style='color:GreenYellow; font-size: 70px;'>正确! </span>","null","","","","","","","","","","","","","","","","","","","","","","","feedback_test",""
"","","","","","psychophysics","331","837280","0.0-20.0-2.0-1.0-0.0-0.35","882","","f","","","","","","","","","","","","","key","f","16.683185840708582","960","536","f","true","img/H_28.png","朋友","stranger","","朋友"
"","","","","","html-keyboard-response","332","837590","0.0-20.0-2.0-1.0-0.0-1.35","null","<span style='color:GreenYellow; font-size: 70px;'>正确! </span>","null","","","","","","","","","","","","","","","","","","","","","","","feedback_test",""
"","","","","","psychophysics","333","839936","0.0-20.0-2.0-1.0-0.0-0.36","1334","","d","","","","","","","","","","","","","key","d","16.683309352518688","960","536","d","true","img/S_28.png","朋友","stranger","","自我"
"","","","","","html-keyboard-response","334","840239","0.0-20.0-2.0-1.0-0.0-1.36","null","<span style='color:GreenYellow; font-size: 70px;'>正确! </span>","null","","","","","","","","","","","","","","","","","","","","","","","feedback_test",""
"","","","","","psychophysics","335","842137","0.0-20.0-2.0-1.0-0.0-0.37","885","","d","","","","","","","","","","","","","key","d","16.68339285714319","960","536","f","false","img/S_28.png","自我","stranger","","自我"
"","","","","","html-keyboard-response","336","842450","0.0-20.0-2.0-1.0-0.0-1.37","null","<span style='color:red; font-size: 70px;'>错误! </span>","null","","","","","","","","","","","","","","","","","","","","","","","feedback_test",""
"","","","","","psychophysics","337","844464","0.0-20.0-2.0-1.0-0.0-0.38","1002","","d","","","","","","","","","","","","","key","d","16.683333333333334","960","536","d","true","img/S_28.png","生人","stranger","","自我"
"","","","","","html-keyboard-response","338","844777","0.0-20.0-2.0-1.0-0.0-1.38","null","<span style='color:GreenYellow; font-size: 70px;'>正确! </span>","null","","","","","","","","","","","","","","","","","","","","","","","feedback_test",""
"","","","","","psychophysics","339","847048","0.0-20.0-2.0-1.0-0.0-0.39","1269","","d","","","","","","","","","","","","","key","d","16.683235294117956","960","536","d","true","img/H_28.png","自我","stranger","","朋友"
"","","","","","html-keyboard-response","340","847363","0.0-20.0-2.0-1.0-0.0-1.39","null","<span style='color:GreenYellow; font-size: 70px;'>正确! </span>","null","","","","","","","","","","","","","","","","","","","","","","","feedback_test",""
"","","","","","psychophysics","341","849496","0.0-20.0-2.0-1.0-0.0-0.40","1130","","d","","","","","","","","","","","","","key","d","16.683174603175196","960","536","d","true","img/H_28.png","生人","stranger","","朋友"
"","","","","","html-keyboard-response","342","849811","0.0-20.0-2.0-1.0-0.0-1.40","null","<span style='color:GreenYellow; font-size: 70px;'>正确! </span>","null","","","","","","","","","","","","","","","","","","","","","","","feedback_test",""
"","","","","","psychophysics","343","852001","0.0-20.0-2.0-1.0-0.0-0.41","1180","","k","","","","","","","","","","","","","key","k","16.683384615384366","960","536","k","true","img/C_28.png","自我","stranger","","生人"
"","","","","","html-keyboard-response","344","852313","0.0-20.0-2.0-1.0-0.0-1.41","null","<span style='color:GreenYellow; font-size: 70px;'>正确! </span>","null","","","","","","","","","","","","","","","","","","","","","","","feedback_test",""
"","","","","","psychophysics","345","854137","0.0-20.0-2.0-1.0-0.0-0.42","821","","j","","","","","","","","","","","","","key","j","16.683333333332687","960","536","j","true","img/C_28.png","生人","stranger","","生人"
"","","","","","html-keyboard-response","346","854443","0.0-20.0-2.0-1.0-0.0-1.42","null","<span style='color:GreenYellow; font-size: 70px;'>正确! </span>","null","","","","","","","","","","","","","","","","","","","","","","","feedback_test",""
"","","","","","psychophysics","347","856225","0.0-20.0-2.0-1.0-0.0-0.43","766","","k","","","","","","","","","","","","","key","k","16.683207547170205","960","536","k","true","img/C_28.png","朋友","stranger","","生人"
"","","","","","html-keyboard-response","348","856539","0.0-20.0-2.0-1.0-0.0-1.43","null","<span style='color:GreenYellow; font-size: 70px;'>正确! </span>","null","","","","","","","","","","","","","","","","","","","","","","","feedback_test",""
"","","","","","psychophysics","349","858768","0.0-20.0-2.0-1.0-0.0-0.44","1216","","j","","","","","","","","","","","","","key","j","16.683333333333863","960","536","j","true","img/C_28.png","生人","stranger","","生人"
"","","","","","html-keyboard-response","350","859073","0.0-20.0-2.0-1.0-0.0-1.44","null","<span style='color:GreenYellow; font-size: 70px;'>正确! </span>","null","","","","","","","","","","","","","","","","","","","","","","","feedback_test",""
"","","","","","psychophysics","351","861017","0.0-20.0-2.0-1.0-0.0-0.45","943","","f","","","","","","","","","","","","","key","f","16.68344827586231","960","536","f","true","img/S_28.png","自我","stranger","","自我"
"","","","","","html-keyboard-response","352","861327","0.0-20.0-2.0-1.0-0.0-1.45","null","<span style='color:GreenYellow; font-size: 70px;'>正确! </span>","null","","","","","","","","","","","","","","","","","","","","","","","feedback_test",""
"","","","","","psychophysics","353","863088","0.0-20.0-2.0-1.0-0.0-0.46","749","","f","","","","","","","","","","","","","key","f","16.683269230768648","960","536","f","true","img/H_28.png","朋友","stranger","","朋友"
"","","","","","html-keyboard-response","354","863400","0.0-20.0-2.0-1.0-0.0-1.46","null","<span style='color:GreenYellow; font-size: 70px;'>正确! </span>","null","","","","","","","","","","","","","","","","","","","","","","","feedback_test",""
"","","","","","psychophysics","355","865177","0.0-20.0-2.0-1.0-0.0-0.47","764","","f","","","","","","","","","","","","","key","f","16.683238095238007","960","536","f","true","img/H_28.png","朋友","stranger","","朋友"
"","","","","","html-keyboard-response","356","865491","0.0-20.0-2.0-1.0-0.0-1.47","null","<span style='color:GreenYellow; font-size: 70px;'>正确! </span>","null","","","","","","","","","","","","","","","","","","","","","","","feedback_test",""
"","","","","","psychophysics","357","867585","0.0-20.0-2.0-1.0-0.0-0.48","1080","","d","","","","","","","","","","","","","key","d","16.683225806451386","960","536","d","true","img/S_28.png","生人","stranger","","自我"
"","","","","","html-keyboard-response","358","867898","0.0-20.0-2.0-1.0-0.0-1.48","null","<span style='color:GreenYellow; font-size: 70px;'>正确! </span>","null","","","","","","","","","","","","","","","","","","","","","","","feedback_test",""
"","","","","","psychophysics","359","870296","0.0-20.0-2.0-1.0-0.0-0.49","1385","","d","","","","","","","","","","","","","key","d","16.683356643356447","960","536","f","false","img/S_28.png","自我","stranger","","自我"
"","","","","","html-keyboard-response","360","870609","0.0-20.0-2.0-1.0-0.0-1.49","null","<span style='color:red; font-size: 70px;'>错误! </span>","null","","","","","","","","","","","","","","","","","","","","","","","feedback_test",""
"","","","","","psychophysics","361","872521","0.0-20.0-2.0-1.0-0.0-0.50","910","","d","","","","","","","","","","","","","key","d","16.683185840708582","960","536","d","true","img/S_28.png","朋友","stranger","","自我"
"","","","","","html-keyboard-response","362","872836","0.0-20.0-2.0-1.0-0.0-1.50","null","<span style='color:GreenYellow; font-size: 70px;'>正确! </span>","null","","","","","","","","","","","","","","","","","","","","","","","feedback_test",""
"","","","","","psychophysics","363","875184","0.0-20.0-2.0-1.0-0.0-0.51","1333","","k","","","","","","","","","","","","","key","k","16.683285714285116","960","536","k","true","img/C_28.png","朋友","stranger","","生人"
"","","","","","html-keyboard-response","364","875495","0.0-20.0-2.0-1.0-0.0-1.51","null","<span style='color:GreenYellow; font-size: 70px;'>正确! </span>","null","","","","","","","","","","","","","","","","","","","","","","","feedback_test",""
"","","","","","psychophysics","365","877568","0.0-20.0-2.0-1.0-0.0-0.52","1061","","f","","","","","","","","","","","","","key","f","16.683252032520627","960","536","f","true","img/H_28.png","朋友","stranger","","朋友"
"","","","","","html-keyboard-response","366","877887","0.0-20.0-2.0-1.0-0.0-1.52","null","<span style='color:GreenYellow; font-size: 70px;'>正确! </span>","null","","","","","","","","","","","","","","","","","","","","","","","feedback_test",""
"","","","","","psychophysics","367","879585","0.0-20.0-2.0-1.0-0.0-0.53","681","","j","","","","","","","","","","","","","key","j","16.68336633663385","960","536","j","true","img/C_28.png","生人","stranger","","生人"
"","","","","","html-keyboard-response","368","879917","0.0-20.0-2.0-1.0-0.0-1.53","null","<span style='color:GreenYellow; font-size: 70px;'>正确! </span>","null","","","","","","","","","","","","","","","","","","","","","","","feedback_test",""
"","","","","","psychophysics","369","882225","0.0-20.0-2.0-1.0-0.0-0.54","1295","","d","","","","","","","","","","","","","key","d","16.683357664233544","960","536","d","true","img/H_28.png","自我","stranger","","朋友"
"","","","","","html-keyboard-response","370","882529","0.0-20.0-2.0-1.0-0.0-1.54","null","<span style='color:GreenYellow; font-size: 70px;'>正确! </span>","null","","","","","","","","","","","","","","","","","","","","","","","feedback_test",""
"","","","","","psychophysics","371","884201","0.0-20.0-2.0-1.0-0.0-0.55","658","","f","","","","","","","","","","","","","key","f","16.683232323232463","960","536","f","true","img/S_28.png","自我","stranger","","自我"
"","","","","","html-keyboard-response","372","884506","0.0-20.0-2.0-1.0-0.0-1.55","null","<span style='color:GreenYellow; font-size: 70px;'>正确! </span>","null","","","","","","","","","","","","","","","","","","","","","","","feedback_test",""
"","","","","","psychophysics","373","886488","0.0-20.0-2.0-1.0-0.0-0.56","968","","d","","","","","","","","","","","","","key","d","16.683389830507608","960","536","d","true","img/H_28.png","生人","stranger","","朋友"
"","","","","","html-keyboard-response","374","886792","0.0-20.0-2.0-1.0-0.0-1.56","null","<span style='color:GreenYellow; font-size: 70px;'>正确! </span>","null","","","","","","","","","","","","","","","","","","","","","","","feedback_test",""
"","","","","","psychophysics","375","889168","0.0-20.0-2.0-1.0-0.0-0.57","1372","","f","","","","","","","","","","","","","key","f","16.68340425531905","960","536","k","false","img/C_28.png","自我","stranger","","生人"
"","","","","","html-keyboard-response","376","889480","0.0-20.0-2.0-1.0-0.0-1.57","null","<span style='color:red; font-size: 70px;'>错误! </span>","null","","","","","","","","","","","","","","","","","","","","","","","feedback_test",""
"","","","","","psychophysics","377","891217","0.0-20.0-2.0-1.0-0.0-0.58","720","","j","","","","","","","","","","","","","key","j","16.68330097087383","960","536","j","true","img/C_28.png","生人","stranger","","生人"
"","","","","","html-keyboard-response","378","891526","0.0-20.0-2.0-1.0-0.0-1.58","null","<span style='color:GreenYellow; font-size: 70px;'>正确! </span>","null","","","","","","","","","","","","","","","","","","","","","","","feedback_test",""
"","","","","","psychophysics","379","893401","0.0-20.0-2.0-1.0-0.0-0.59","861","","f","","","","","","","","","","","","","key","f","16.683243243244","960","536","f","true","img/H_28.png","朋友","stranger","","朋友"
"","","","","","html-keyboard-response","380","893712","0.0-20.0-2.0-1.0-0.0-1.59","null","<span style='color:GreenYellow; font-size: 70px;'>正确! </span>","null","","","","","","","","","","","","","","","","","","","","","","","feedback_test",""
"","","","","","psychophysics","381","895568","0.0-20.0-2.0-1.0-0.0-0.60","842","","f","","","","","","","","","","","","","key","f","16.68345454545501","960","536","f","true","img/H_28.png","朋友","stranger","","朋友"
"","","","","","html-keyboard-response","382","895884","0.0-20.0-2.0-1.0-0.0-1.60","null","<span style='color:GreenYellow; font-size: 70px;'>正确! </span>","null","","","","","","","","","","","","","","","","","","","","","","","feedback_test",""
"","","","","","psychophysics","383","897737","0.0-20.0-2.0-1.0-0.0-0.61","849","","d","","","","","","","","","","","","","key","d","16.683272727273025","960","536","d","true","img/S_28.png","朋友","stranger","","自我"
"","","","","","html-keyboard-response","384","898046","0.0-20.0-2.0-1.0-0.0-1.61","null","<span style='color:GreenYellow; font-size: 70px;'>正确! </span>","null","","","","","","","","","","","","","","","","","","","","","","","feedback_test",""
"","","","","","psychophysics","385","899752","0.0-20.0-2.0-1.0-0.0-0.62","664","","j","","","","","","","","","","","","","key","j","16.683333333332875","960","536","j","true","img/C_28.png","生人","stranger","","生人"
"","","","","","html-keyboard-response","386","900089","0.0-20.0-2.0-1.0-0.0-1.62","null","<span style='color:GreenYellow; font-size: 70px;'>正确! </span>","null","","","","","","","","","","","","","","","","","","","","","","","feedback_test",""
"","","","","","psychophysics","387","902177","0.0-20.0-2.0-1.0-0.0-0.63","1070","","d","","","","","","","","","","","","","key","d","16.68338709677412","960","536","d","true","img/H_28.png","自我","stranger","","朋友"
"","","","","","html-keyboard-response","388","902482","0.0-20.0-2.0-1.0-0.0-1.63","null","<span style='color:GreenYellow; font-size: 70px;'>正确! </span>","null","","","","","","","","","","","","","","","","","","","","","","","feedback_test",""
"","","","","","psychophysics","389","904736","0.0-20.0-2.0-1.0-0.0-0.64","1240","","k","","","","","","","","","","","","","key","k","16.6832835820891","960","536","k","true","img/C_28.png","朋友","stranger","","生人"
"","","","","","html-keyboard-response","390","905051","0.0-20.0-2.0-1.0-0.0-1.64","null","<span style='color:GreenYellow; font-size: 70px;'>正确! </span>","null","","","","","","","","","","","","","","","","","","","","","","","feedback_test",""
"","","","","","psychophysics","391","907416","0.0-20.0-2.0-1.0-0.0-0.65","1251","","d","","","","","","","","","","","","","key","d","16.683262411347286","960","536","d","true","img/S_28.png","生人","stranger","","自我"
"","","","","","html-keyboard-response","392","907722","0.0-20.0-2.0-1.0-0.0-1.65","null","<span style='color:GreenYellow; font-size: 70px;'>正确! </span>","null","","","","","","","","","","","","","","","","","","","","","","","feedback_test",""
"","","","","","psychophysics","393","909712","0.0-20.0-2.0-1.0-0.0-0.66","989","","f","","","","","","","","","","","","","key","f","16.683361344538362","960","536","k","false","img/C_28.png","自我","stranger","","生人"
"","","","","","html-keyboard-response","394","910024","0.0-20.0-2.0-1.0-0.0-1.66","null","<span style='color:red; font-size: 70px;'>错误! </span>","null","","","","","","","","","","","","","","","","","","","","","","","feedback_test",""
"","","","","","psychophysics","395","911913","0.0-20.0-2.0-1.0-0.0-0.67","874","","f","","","","","","","","","","","","","key","f","16.683185840708582","960","536","f","true","img/S_28.png","自我","stranger","","自我"
"","","","","","html-keyboard-response","396","912213","0.0-20.0-2.0-1.0-0.0-1.67","null","<span style='color:GreenYellow; font-size: 70px;'>正确! </span>","null","","","","","","","","","","","","","","","","","","","","","","","feedback_test",""
"","","","","","psychophysics","397","914512","0.0-20.0-2.0-1.0-0.0-0.68","1282","","f","","","","","","","","","","","","","key","f","16.6832352941171","960","536","f","true","img/S_28.png","自我","stranger","","自我"
"","","","","","html-keyboard-response","398","914815","0.0-20.0-2.0-1.0-0.0-1.68","null","<span style='color:GreenYellow; font-size: 70px;'>正确! </span>","null","","","","","","","","","","","","","","","","","","","","","","","feedback_test",""
"","","","","","psychophysics","399","916665","0.0-20.0-2.0-1.0-0.0-0.69","848","","j","","","","","","","","","","","","","key","j","16.683302752293407","960","536","j","true","img/C_28.png","生人","stranger","","生人"
"","","","","","html-keyboard-response","400","916974","0.0-20.0-2.0-1.0-0.0-1.69","null","<span style='color:GreenYellow; font-size: 70px;'>正确! </span>","null","","","","","","","","","","","","","","","","","","","","","","","feedback_test",""
"","","","","","psychophysics","401","918816","0.0-20.0-2.0-1.0-0.0-0.70","827","","d","","","","","","","","","","","","","key","d","16.683302752293407","960","536","d","true","img/H_28.png","生人","stranger","","朋友"
"","","","","","html-keyboard-response","402","919130","0.0-20.0-2.0-1.0-0.0-1.70","null","<span style='color:GreenYellow; font-size: 70px;'>正确! </span>","null","","","","","","","","","","","","","","","","","","","","","","","feedback_test",""
"","","","","","psychophysics","403","920832","0.0-20.0-2.0-1.0-0.0-0.71","694","","f","","","","","","","","","","","","","key","f","16.68336633663385","960","536","f","true","img/H_28.png","朋友","stranger","","朋友"
"","","","","","html-keyboard-response","404","921138","0.0-20.0-2.0-1.0-0.0-1.71","null","<span style='color:GreenYellow; font-size: 70px;'>正确! </span>","null","","","","","","","","","","","","","","","","","","","","","","","feedback_test",""
"","","","","","html-keyboard-response","405","923848","0.0-20.0-2.0-1.0-1.0","2709","<style>.context{color:white; font-size: 35px; line-height:40px}</style>                                        <div><p class='context'>您正确回答了83% 的试次。</p><p class='context'>您的平均反应时为954毫秒。</p><p class='context'>请按任意键进入休息</p></div>"," ","","","","","","","","","","","","","","","","","","","","","","","",""
"","","","","","html-button-response","406","987574","0.0-20.0-2.0-1.0-2.0","63725","
                                <p>在 优先关注""生人""图形 的要求下，您还剩余4组实验</p>
                                <p>现在是休息时间，当您结束休息后，您可以点击 结束休息 按钮 继续</p>
                                <p>建议休息时间还剩余<span id=""iii"">60</span>秒</p>","0","","","","","","","","","","","","","","","","","","","","","","","",""
"","","","","","psychophysics","407","989305","0.0-20.0-2.0-1.0-0.1-0.72","713","","j","","","","","","","","","","","","","key","j","16.68333333333402","960","536","j","true","img/C_28.png","生人","stranger","","生人"
"","","","","","html-keyboard-response","408","989605","0.0-20.0-2.0-1.0-0.1-1.72","null","<span style='color:GreenYellow; font-size: 70px;'>正确! </span>","null","","","","","","","","","","","","","","","","","","","","","","","feedback_test",""
"","","","","","psychophysics","409","991568","0.0-20.0-2.0-1.0-0.1-0.73","948","","f","","","","","","","","","","","","","key","f","16.683275862069046","960","536","f","true","img/H_28.png","朋友","stranger","","朋友"
"","","","","","html-keyboard-response","410","991872","0.0-20.0-2.0-1.0-0.1-1.73","null","<span style='color:GreenYellow; font-size: 70px;'>正确! </span>","null","","","","","","","","","","","","","","","","","","","","","","","feedback_test",""
"","","","","","psychophysics","411","993664","0.0-20.0-2.0-1.0-0.1-0.74","780","","d","","","","","","","","","","","","","key","d","16.68317757009324","960","536","k","false","img/C_28.png","朋友","stranger","","生人"
"","","","","","html-keyboard-response","412","993974","0.0-20.0-2.0-1.0-0.1-1.74","null","<span style='color:red; font-size: 70px;'>错误! </span>","null","","","","","","","","","","","","","","","","","","","","","","","feedback_test",""
"","","","","","psychophysics","413","995792","0.0-20.0-2.0-1.0-0.1-0.75","805","","k","","","","","","","","","","","","","key","k","16.683333333333763","960","536","k","true","img/C_28.png","自我","stranger","","生人"
"","","","","","html-keyboard-response","414","996096","0.0-20.0-2.0-1.0-0.1-1.75","null","<span style='color:GreenYellow; font-size: 70px;'>正确! </span>","null","","","","","","","","","","","","","","","","","","","","","","","feedback_test",""
"","","","","","psychophysics","415","998129","0.0-20.0-2.0-1.0-0.1-0.76","1021","","d","","","","","","","","","","","","","key","d","16.683333333333334","960","536","d","true","img/S_28.png","生人","stranger","","自我"
"","","","","","html-keyboard-response","416","998435","0.0-20.0-2.0-1.0-0.1-1.76","null","<span style='color:GreenYellow; font-size: 70px;'>正确! </span>","null","","","","","","","","","","","","","","","","","","","","","","","feedback_test",""
"","","","","","psychophysics","417","1000432","0.0-20.0-2.0-1.0-0.1-0.77","984","","d","","","","","","","","","","","","","key","d","16.68338983050859","960","536","d","true","img/H_28.png","自我","stranger","","朋友"
"","","","","","html-keyboard-response","418","1000746","0.0-20.0-2.0-1.0-0.1-1.77","null","<span style='color:GreenYellow; font-size: 70px;'>正确! </span>","null","","","","","","","","","","","","","","","","","","","","","","","feedback_test",""
"","","","","","psychophysics","419","1002448","0.0-20.0-2.0-1.0-0.1-0.78","686","","f","","","","","","","","","","","","","key","f","16.68336633663385","960","536","f","true","img/H_28.png","朋友","stranger","","朋友"
