"success","timeout","failed_images","failed_audio","failed_video","trial_type","trial_index","time_elapsed","internal_node_id","rt","stimulus","response","value","item_width_mm","item_height_mm","item_width_px","px2mm","view_dist_mm","item_width_deg","px2deg","scale_factor","win_width_deg","win_height_deg","view_history","response_type","key_press","avg_frame_time","center_x","center_y","correct_response","correct","Image","text","condition","screen_id","label"
"true","false","[]","[]","[]","preload","0","377","0.0-0.0","","","","","","","","","","","","","","","","","","","","","","","","","","",""
"","","","","","html-keyboard-response","1","48272","0.0-1.0","47895","
  <p>您好，欢迎参加本次实验。</p>
  <p>为充分保障您的权利，请确保您已经知晓并同意《参与实验同意书》以及《数据公开知情同意书》。</p>
  <p>如果您未见过上述内容，请咨询实验员。</p>
  <p>如果您选择继续实验，则表示您已经清楚两份知情同意书的内容并同意。</p>
  <p> <div style = ""color: green""><按任意键至下页></div> </p>
  "," ","","","","","","","","","","","","","","","","","","","","","","","",""
"","","","","","html-keyboard-response","2","51358","0.0-2.0","3085","
  <p>本实验首先需要您填写一些基本个人信息。</p>
  <p> <div style = ""color: green""><按任意键至下页></div></p>
  "," ","","","","","","","","","","","","","","","","","","","","","","","",""
"","","","","","call-function","3","51358","0.0-3.0-0.0","","","","","","","","","","","","","","","","","","","","","","","","","","",""
"","","","","","survey-html-form","4","55530","0.0-3.0-1.0","4169","","{""Q0"":""24""}","","","","","","","","","","","","","","","","","","","","","","","",""
"","","","","","html-button-response","5","56857","0.0-3.0-2.0","1326","<p style = 'color : white'>您的性别</p>","0","","","","","","","","","","","","","","","","","","","","","","","",""
"","","","","","survey-html-form","6","61114","0.0-3.0-3.0","4255","","{""Q0"":""2000""}","","","","","","","","","","","","","","","","","","","","","","","",""
"","","","","","survey-html-form","7","71075","0.0-3.0-4.0","9960","","{""Q0"":""6""}","","","","","","","","","","","","","","","","","","","","","","","",""
"","","","","","virtual-chinrest","8","174603","0.0-4.0","103526","","","","85.6","53.98","366.29734386347934","4.2765679740406215","668.56","7.325946877269588","49.99999999999999","1.0756288752856629","28.800000000000004","15.620000000000003","","","","","","","","","","","","",""
"true","","","","","fullscreen","9","180462","0.0-5.0","","","","","","","","","","","","","","","","","","","","","","","","","","",""
"","","","","","instructions","10","405018","0.0-6.0","224553","","","","","","","","","","","","","","[{""page_index"":0,""viewing_time"":6433},{""page_index"":1,""viewing_time"":21607},{""page_index"":2,""viewing_time"":169928},{""page_index"":3,""viewing_time"":24584},{""page_index"":4,""viewing_time"":2000}]","","","","","","","","","","","",""
"","","","","","instructions","11","417625","0.0-7.0","12607","","","","","","","","","","","","","","[{""page_index"":0,""viewing_time"":12607}]","","","","","","","","","","","",""
"","","","","","psychophysics","12","428843","0.0-8.0-0.0-0.0","10208","","d","","","","","","","","","","","","","key","d","22.119853174603094","720","446","k","false","img/S_28.png","朋友","freeprac_self","",""
"","","","","","html-keyboard-response","13","429145","0.0-8.0-0.0-1.0","null","<span style='color:red; font-size: 70px;'>错误! </span>","null","","","","","","","","","","","","","","","","","","","","","","","feedback_test",""
"","","","","","psychophysics","14","432354","0.0-8.0-0.0-0.1","2205","","f","","","","","","","","","","","","","key","f","21.615527027027014","720","446","j","false","img/S_28.png","自我","freeprac_self","",""
"","","","","","html-keyboard-response","15","432666","0.0-8.0-0.0-1.1","null","<span style='color:red; font-size: 70px;'>错误! </span>","null","","","","","","","","","","","","","","","","","","","","","","","feedback_test",""
"","","","","","psychophysics","16","439866","0.0-8.0-0.0-0.2","6198","","f","","","","","","","","","","","","","key","f","21.91270948012234","720","446","f","true","img/C_28.png","朋友","freeprac_self","",""
"","","","","","html-keyboard-response","17","440175","0.0-8.0-0.0-1.2","null","<span style='color:GreenYellow; font-size: 70px;'>正确! </span>","null","","","","","","","","","","","","","","","","","","","","","","","feedback_test",""
"","","","","","psychophysics","18","443347","0.0-8.0-0.0-0.3","2171","","f","","","","","","","","","","","","","key","f","21.425836734693863","720","446","f","true","img/C_28.png","生人","freeprac_self","",""
"","","","","","html-keyboard-response","19","443660","0.0-8.0-0.0-1.3","null","<span style='color:GreenYellow; font-size: 70px;'>正确! </span>","null","","","","","","","","","","","","","","","","","","","","","","","feedback_test",""
"","","","","","psychophysics","20","445524","0.0-8.0-0.0-0.4","860","","d","","","","","","","","","","","","","key","d","21.508290697674965","720","446","d","true","img/C_28.png","自我","freeprac_self","",""
"","","","","","html-keyboard-response","21","445840","0.0-8.0-0.0-1.4","null","<span style='color:GreenYellow; font-size: 70px;'>正确! </span>","null","","","","","","","","","","","","","","","","","","","","","","","feedback_test",""
"","","","","","psychophysics","22","449096","0.0-8.0-0.0-0.5","2254","","d","","","","","","","","","","","","","key","d","21.843391891891795","720","446","k","false","img/S_28.png","朋友","freeprac_self","",""
"","","","","","html-keyboard-response","23","449403","0.0-8.0-0.0-1.5","null","<span style='color:red; font-size: 70px;'>错误! </span>","null","","","","","","","","","","","","","","","","","","","","","","","feedback_test",""
"","","","","","psychophysics","24","452479","0.0-8.0-0.0-0.6","2072","","d","","","","","","","","","","","","","key","d","21.326552447552345","720","446","j","false","img/H_28.png","朋友","freeprac_self","",""
"","","","","","html-keyboard-response","25","452794","0.0-8.0-0.0-1.6","null","<span style='color:red; font-size: 70px;'>错误! </span>","null","","","","","","","","","","","","","","","","","","","","","","","feedback_test",""
"","","","","","psychophysics","26","455381","0.0-8.0-0.0-0.7","1576","","f","","","","","","","","","","","","","key","f","21.376408333333288","720","446","j","false","img/H_28.png","自我","freeprac_self","",""
"","","","","","html-keyboard-response","27","455692","0.0-8.0-0.0-1.7","null","<span style='color:red; font-size: 70px;'>错误! </span>","null","","","","","","","","","","","","","","","","","","","","","","","feedback_test",""
"","","","","","psychophysics","28","459036","0.0-8.0-0.0-0.8","2341","","f","","","","","","","","","","","","","key","f","21.394658064515884","720","446","j","false","img/S_28.png","生人","freeprac_self","",""
"","","","","","html-keyboard-response","29","459339","0.0-8.0-0.0-1.8","null","<span style='color:red; font-size: 70px;'>错误! </span>","null","","","","","","","","","","","","","","","","","","","","","","","feedback_test",""
"","","","","","psychophysics","30","462567","0.0-8.0-0.0-0.9","2219","","d","","","","","","","","","","","","","key","d","21.878734693877544","720","446","k","false","img/H_28.png","生人","freeprac_self","",""
"","","","","","html-keyboard-response","31","462878","0.0-8.0-0.0-1.9","null","<span style='color:red; font-size: 70px;'>错误! </span>","null","","","","","","","","","","","","","","","","","","","","","","","feedback_test",""
"","","","","","psychophysics","32","468243","0.0-8.0-0.0-0.10","4362","","d","","","","","","","","","","","","","key","d","21.695595918367474","720","446","k","false","img/H_28.png","生人","freeprac_self","",""
"","","","","","html-keyboard-response","33","468567","0.0-8.0-0.0-1.10","null","<span style='color:red; font-size: 70px;'>错误! </span>","null","","","","","","","","","","","","","","","","","","","","","","","feedback_test",""
"","","","","","psychophysics","34","478996","0.0-8.0-0.0-0.11","9420","","f","","","","","","","","","","","","","key","f","21.788083682008423","720","446","d","false","img/C_28.png","自我","freeprac_self","",""
"","","","","","html-keyboard-response","35","479308","0.0-8.0-0.0-1.11","null","<span style='color:red; font-size: 70px;'>错误! </span>","null","","","","","","","","","","","","","","","","","","","","","","","feedback_test",""
"","","","","","html-keyboard-response","36","485195","0.0-8.0-1.0-0.0","5886","<style>.context{color:white; font-size: 35px; line-height:40px}</style>                           <div><p class='context'>您正确回答了25% 的试次。</p><p class='context'>您的平均反应时为3076毫秒。</p>"," ","","","","","","","","","","","","","","","","","","","","","","","",""
"","","","","","instructions","37","554857","0.0-8.0-1.0-1.0","69660","","","","","","","","","","","","","","[{""page_index"":0,""viewing_time"":3804},{""page_index"":1,""viewing_time"":63992},{""page_index"":2,""viewing_time"":1864}]","","","","","","","","","","","",""
"","","","","","psychophysics","38","559073","0.0-8.1-0.1-0.12","3212","","d","","","","","","","","","","","","","key","d","21.672103626943084","720","446","k","false","img/S_28.png","朋友","freeprac_self","",""
"","","","","","html-keyboard-response","39","559384","0.0-8.1-0.1-1.12","null","<span style='color:red; font-size: 70px;'>错误! </span>","null","","","","","","","","","","","","","","","","","","","","","","","feedback_test",""
"","","","","","psychophysics","40","561500","0.0-8.1-0.1-0.13","1108","","d","","","","","","","","","","","","","key","d","21.25657142857232","720","446","d","true","img/C_28.png","自我","freeprac_self","",""
"","","","","","html-keyboard-response","41","561811","0.0-8.1-0.1-1.13","null","<span style='color:GreenYellow; font-size: 70px;'>正确! </span>","null","","","","","","","","","","","","","","","","","","","","","","","feedback_test",""
"","","","","","psychophysics","42","564991","0.0-8.1-0.1-0.14","2177","","j","","","","","","","","","","","","","key","j","21.425149659863767","720","446","j","true","img/S_28.png","生人","freeprac_self","",""
"","","","","","html-keyboard-response","43","565302","0.0-8.1-0.1-1.14","null","<span style='color:GreenYellow; font-size: 70px;'>正确! </span>","null","","","","","","","","","","","","","","","","","","","","","","","feedback_test",""
"","","","","","psychophysics","44","569202","0.0-8.1-0.1-0.15","2898","","j","","","","","","","","","","","","","key","j","21.813005617978","720","446","f","false","img/C_28.png","生人","freeprac_self","",""
"","","","","","html-keyboard-response","45","569510","0.0-8.1-0.1-1.15","null","<span style='color:red; font-size: 70px;'>错误! </span>","null","","","","","","","","","","","","","","","","","","","","","","","feedback_test",""
"","","","","","psychophysics","46","573914","0.0-8.1-0.1-0.16","3402","","f","","","","","","","","","","","","","key","f","21.805009950248326","720","446","f","true","img/C_28.png","朋友","freeprac_self","",""
"","","","","","html-keyboard-response","47","574226","0.0-8.1-0.1-1.16","null","<span style='color:GreenYellow; font-size: 70px;'>正确! </span>","null","","","","","","","","","","","","","","","","","","","","","","","feedback_test",""
"","","","","","psychophysics","48","576705","0.0-8.1-0.1-0.17","1477","","f","","","","","","","","","","","","","key","f","21.722526785714894","720","446","j","false","img/H_28.png","自我","freeprac_self","",""
"","","","","","html-keyboard-response","49","577017","0.0-8.1-0.1-1.17","null","<span style='color:red; font-size: 70px;'>错误! </span>","null","","","","","","","","","","","","","","","","","","","","","","","feedback_test",""
"","","","","","psychophysics","50","584573","0.0-8.1-0.1-0.18","6549","","j","","","","","","","","","","","","","key","j","21.908848396501757","720","446","j","true","img/S_28.png","自我","freeprac_self","",""
"","","","","","html-keyboard-response","51","584876","0.0-8.1-0.1-1.18","null","<span style='color:GreenYellow; font-size: 70px;'>正确! </span>","null","","","","","","","","","","","","","","","","","","","","","","","feedback_test",""
"","","","","","psychophysics","52","587772","0.0-8.1-0.1-0.19","1882","","k","","","","","","","","","","","","","key","k","21.75299236641216","720","446","k","true","img/H_28.png","生人","freeprac_self","",""
"","","","","","html-keyboard-response","53","588086","0.0-8.1-0.1-1.19","null","<span style='color:GreenYellow; font-size: 70px;'>正确! </span>","null","","","","","","","","","","","","","","","","","","","","","","","feedback_test",""
"","","","","","psychophysics","54","591211","0.0-8.1-0.1-0.20","2122","","j","","","","","","","","","","","","","key","j","21.946852112675913","720","446","j","true","img/H_28.png","朋友","freeprac_self","",""
"","","","","","html-keyboard-response","55","591525","0.0-8.1-0.1-1.20","null","<span style='color:GreenYellow; font-size: 70px;'>正确! </span>","null","","","","","","","","","","","","","","","","","","","","","","","feedback_test",""
"","","","","","psychophysics","56","593534","0.0-8.1-0.1-0.21","1007","","d","","","","","","","","","","","","","key","d","21.322129032257894","720","446","d","true","img/C_28.png","自我","freeprac_self","",""
"","","","","","html-keyboard-response","57","593839","0.0-8.1-0.1-1.21","null","<span style='color:GreenYellow; font-size: 70px;'>正确! </span>","null","","","","","","","","","","","","","","","","","","","","","","","feedback_test",""
"","","","","","psychophysics","58","597633","0.0-8.1-0.1-0.22","2793","","k","","","","","","","","","","","","","key","k","21.89633720930257","720","446","k","true","img/H_28.png","生人","freeprac_self","",""
"","","","","","html-keyboard-response","59","597950","0.0-8.1-0.1-1.22","null","<span style='color:GreenYellow; font-size: 70px;'>正确! </span>","null","","","","","","","","","","","","","","","","","","","","","","","feedback_test",""
"","","","","","psychophysics","60","601457","0.0-8.1-0.1-0.23","2503","","k","","","","","","","","","","","","","key","k","21.87308750000011","720","446","k","true","img/S_28.png","朋友","freeprac_self","",""
"","","","","","html-keyboard-response","61","601773","0.0-8.1-0.1-1.23","null","<span style='color:GreenYellow; font-size: 70px;'>正确! </span>","null","","","","","","","","","","","","","","","","","","","","","","","feedback_test",""
"","","","","","html-keyboard-response","62","621501","0.0-9.0","19726","[""<style>.context{color:white; font-size: 35px; line-height:40px}</style>           <div><p class='context'>您正确回答了75% 的试次。</p><p class='context'>您的平均反应时为2616毫秒。</p><p class='context'>恭喜您完成这一阶段的练习。按任意键进入<span style='color: yellow;'>重点关注图形为“朋友”</span>的练习。</p></div><p class='footer' style='font-size:35px; line-height:30px;'>任务要求：\n           <p class='footer' style='font-size:35px; line-height:35px;'>对于与“朋友”对应的图形：如果 匹配 ，请按 <span style=\""color: lightgreen;\"">d键</span></p><p class='footer' style='font-size:35px'>如果 不匹配 ，请按<span style=\""color: lightgreen;\"">f键</p></span>\n           <p class='footer' style='font-size:35px; line-height:35px;'>对于非“朋友”对应的图形：如果 匹配 ，请按 <span style=\""color: lightgreen;\"">k键</span></p><p class='footer' style='font-size:35px'>如果 不匹配 ，请按<span style=\""color: lightgreen;\"">j键</p></span>\n           <p class='footer' style='font-size:22px; line-height:25px;'>请在实验过程中将您的<span style=\""color: lightgreen;\"">食指和中指</span>放在电脑键盘的相应键位上进行按键。</p></span>""]","k","","","","","","","","","","","","","","","","","","","","","","","",""
"","","","","","psychophysics","63","625590","0.0-10.0-0.0-0.0","3086","","k","","","","","","","","","","","","","key","k","22.098054347825542","720","446","k","true","img/H_28.png","生人","freeprac_friend","",""
"","","","","","html-keyboard-response","64","625904","0.0-10.0-0.0-1.0","null","<span style='color:GreenYellow; font-size: 70px;'>正确! </span>","null","","","","","","","","","","","","","","","","","","","","","","","feedback_test",""
"","","","","","psychophysics","65","629569","0.0-10.0-0.0-0.1","2664","","j","","","","","","","","","","","","","key","j","22.285631901840965","720","446","j","true","img/C_28.png","生人","freeprac_friend","",""
"","","","","","html-keyboard-response","66","629873","0.0-10.0-0.0-1.1","null","<span style='color:GreenYellow; font-size: 70px;'>正确! </span>","null","","","","","","","","","","","","","","","","","","","","","","","feedback_test",""
"","","","","","psychophysics","67","632206","0.0-10.0-0.0-0.2","1325","","d","","","","","","","","","","","","","key","d","21.64920560747742","720","446","d","true","img/S_28.png","朋友","freeprac_friend","",""
"","","","","","html-keyboard-response","68","632517","0.0-10.0-0.0-1.2","null","<span style='color:GreenYellow; font-size: 70px;'>正确! </span>","null","","","","","","","","","","","","","","","","","","","","","","","feedback_test",""
"","","","","","psychophysics","69","635376","0.0-10.0-0.0-0.3","1858","","j","","","","","","","","","","","","","key","j","21.46219696969704","720","446","j","true","img/C_28.png","朋友","freeprac_friend","",""
"","","","","","html-keyboard-response","70","635690","0.0-10.0-0.0-1.3","null","<span style='color:GreenYellow; font-size: 70px;'>正确! </span>","null","","","","","","","","","","","","","","","","","","","","","","","feedback_test",""
"","","","","","psychophysics","71","638367","0.0-10.0-0.0-0.4","1668","","j","","","","","","","","","","","","","key","j","21.855795081967266","720","446","k","false","img/C_28.png","自我","freeprac_friend","",""
"","","","","","html-keyboard-response","72","638670","0.0-10.0-0.0-1.4","null","<span style='color:red; font-size: 70px;'>错误! </span>","null","","","","","","","","","","","","","","","","","","","","","","","feedback_test",""
"","","","","","psychophysics","73","641954","0.0-10.0-0.0-0.5","2271","","f","","","","","","","","","","","","","key","f","21.774213333333222","720","446","f","true","img/S_28.png","生人","freeprac_friend","",""
"","","","","","html-keyboard-response","74","642261","0.0-10.0-0.0-1.5","null","<span style='color:GreenYellow; font-size: 70px;'>正确! </span>","null","","","","","","","","","","","","","","","","","","","","","","","feedback_test",""
"","","","","","psychophysics","75","644327","0.0-10.0-0.0-0.6","1060","","d","","","","","","","","","","","","","key","d","21.57972631578971","720","446","d","true","img/S_28.png","朋友","freeprac_friend","",""
"","","","","","html-keyboard-response","76","644638","0.0-10.0-0.0-1.6","null","<span style='color:GreenYellow; font-size: 70px;'>正确! </span>","null","","","","","","","","","","","","","","","","","","","","","","","feedback_test",""
"","","","","","psychophysics","77","646771","0.0-10.0-0.0-0.7","1124","","k","","","","","","","","","","","","","key","k","21.208989898989334","720","446","k","true","img/C_28.png","自我","freeprac_friend","",""
"","","","","","html-keyboard-response","78","647072","0.0-10.0-0.0-1.7","null","<span style='color:GreenYellow; font-size: 70px;'>正确! </span>","null","","","","","","","","","","","","","","","","","","","","","","","feedback_test",""
"","","","","","psychophysics","79","651451","0.0-10.0-0.0-0.8","3369","","j","","","","","","","","","","","","","key","j","21.9396281407031","720","446","j","true","img/H_28.png","朋友","freeprac_friend","",""
"","","","","","html-keyboard-response","80","651759","0.0-10.0-0.0-1.8","null","<span style='color:GreenYellow; font-size: 70px;'>正确! </span>","null","","","","","","","","","","","","","","","","","","","","","","","feedback_test",""
"","","","","","psychophysics","81","653916","0.0-10.0-0.0-0.9","1155","","k","","","","","","","","","","","","","key","k","21.497110000000102","720","446","k","true","img/H_28.png","生人","freeprac_friend","",""
"","","","","","html-keyboard-response","82","654221","0.0-10.0-0.0-1.9","null","<span style='color:GreenYellow; font-size: 70px;'>正确! </span>","null","","","","","","","","","","","","","","","","","","","","","","","feedback_test",""
"","","","","","psychophysics","83","656532","0.0-10.0-0.0-0.10","1305","","j","","","","","","","","","","","","","key","j","21.694716981132206","720","446","j","true","img/H_28.png","自我","freeprac_friend","",""
"","","","","","html-keyboard-response","84","656848","0.0-10.0-0.0-1.10","null","<span style='color:GreenYellow; font-size: 70px;'>正确! </span>","null","","","","","","","","","","","","","","","","","","","","","","","feedback_test",""
"","","","","","psychophysics","85","660261","0.0-10.0-0.0-0.11","2400","","f","","","","","","","","","","","","","key","f","21.409348101265984","720","446","f","true","img/S_28.png","自我","freeprac_friend","",""
"","","","","","html-keyboard-response","86","660574","0.0-10.0-0.0-1.11","null","<span style='color:GreenYellow; font-size: 70px;'>正确! </span>","null","","","","","","","","","","","","","","","","","","","","","","","feedback_test",""
"","","","","","html-keyboard-response","87","671516","0.0-11.0","10940","[""<style>.context{color:white; font-size: 35px; line-height:40px}</style>               <div><p class='context'>您正确回答了92% 的试次。</p><p class='context'>您的平均反应时为1965毫秒。</p><p class='context'>恭喜您完成这一阶段的练习。按任意键进入<span style='color: yellow;'>重点关注图形为“生人”</span>的练习。</p></div><p class='footer' style='font-size:35px; line-height:30px;'>任务要求：\n               <p class='footer' style='font-size:35px; line-height:35px;'>对与“生人”对应的图形，如果 匹配 ，请按 <span style=\""color: lightgreen;\"">d键</span></p><p class='footer' style='font-size:35px'>如果 不匹配 ，请按<span style=\""color: lightgreen;\"">f键</p></span>\n               <p class='footer' style='font-size:35px; line-height:35px;'>对非“生人”对应的图形，如果 匹配 ，请按 <span style=\""color: lightgreen;\"">k键</span></p><p class='footer' style='font-size:35px'>如果 不匹配 ，请按<span style=\""color: lightgreen;\"">j键</p></span>\n               <p class='footer' style='font-size:22px; line-height:25px;'>请在实验过程中将您的<span style=\""color: lightgreen;\"">食指和中指</span>放在电脑键盘的相应键位上进行按键。</p></span>""]","j","","","","","","","","","","","","","","","","","","","","","","","",""
"","","","","","psychophysics","88","674897","0.0-12.0-0.0-0.0","2372","","j","","","","","","","","","","","","","key","j","21.57778846153852","720","446","k","false","img/C_28.png","自我","freeprac_stranger","",""
"","","","","","html-keyboard-response","89","675209","0.0-12.0-0.0-1.0","null","<span style='color:red; font-size: 70px;'>错误! </span>","null","","","","","","","","","","","","","","","","","","","","","","","feedback_test",""
"","","","","","psychophysics","90","678671","0.0-12.0-0.0-0.1","2460","","k","","","","","","","","","","","","","key","k","21.726132911391986","720","446","k","true","img/S_28.png","朋友","freeprac_stranger","",""
"","","","","","html-keyboard-response","91","678986","0.0-12.0-0.0-1.1","null","<span style='color:GreenYellow; font-size: 70px;'>正确! </span>","null","","","","","","","","","","","","","","","","","","","","","","","feedback_test",""
"","","","","","psychophysics","92","683684","0.0-12.0-0.0-0.2","3694","","j","","","","","","","","","","","","","key","j","22.010099056603515","720","446","j","true","img/S_28.png","生人","freeprac_stranger","",""
"","","","","","html-keyboard-response","93","683997","0.0-12.0-0.0-1.2","null","<span style='color:GreenYellow; font-size: 70px;'>正确! </span>","null","","","","","","","","","","","","","","","","","","","","","","","feedback_test",""
"","","","","","psychophysics","94","686529","0.0-12.0-0.0-0.3","1522","","d","","","","","","","","","","","","","key","d","21.69116379310385","720","446","d","true","img/H_28.png","生人","freeprac_stranger","",""
"","","","","","html-keyboard-response","95","686846","0.0-12.0-0.0-1.3","null","<span style='color:GreenYellow; font-size: 70px;'>正确! </span>","null","","","","","","","","","","","","","","","","","","","","","","","feedback_test",""
"","","","","","psychophysics","96","688852","0.0-12.0-0.0-0.4","1005","","f","","","","","","","","","","","","","key","f","21.793780219779546","720","446","f","true","img/H_28.png","朋友","freeprac_stranger","",""
"","","","","","html-keyboard-response","97","689167","0.0-12.0-0.0-1.4","null","<span style='color:GreenYellow; font-size: 70px;'>正确! </span>","null","","","","","","","","","","","","","","","","","","","","","","","feedback_test",""
"","","","","","psychophysics","98","691600","0.0-12.0-0.0-0.5","1433","","j","","","","","","","","","","","","","key","j","20.83091379310394","720","446","j","true","img/C_28.png","生人","freeprac_stranger","",""
"","","","","","html-keyboard-response","99","691904","0.0-12.0-0.0-1.5","null","<span style='color:GreenYellow; font-size: 70px;'>正确! </span>","null","","","","","","","","","","","","","","","","","","","","","","","feedback_test",""
"","","","","","psychophysics","100","694237","0.0-12.0-0.0-0.6","1330","","k","","","","","","","","","","","","","key","k","21.73140952381017","720","446","k","true","img/C_28.png","自我","freeprac_stranger","",""
"","","","","","html-keyboard-response","101","694543","0.0-12.0-0.0-1.6","null","<span style='color:GreenYellow; font-size: 70px;'>正确! </span>","null","","","","","","","","","","","","","","","","","","","","","","","feedback_test",""
"","","","","","psychophysics","102","696760","0.0-12.0-0.0-0.7","1215","","d","","","","","","","","","","","","","key","d","21.56469607843182","720","446","d","true","img/H_28.png","生人","freeprac_stranger","",""
"","","","","","html-keyboard-response","103","697073","0.0-12.0-0.0-1.7","null","<span style='color:GreenYellow; font-size: 70px;'>正确! </span>","null","","","","","","","","","","","","","","","","","","","","","","","feedback_test",""
"","","","","","psychophysics","104","699046","0.0-12.0-0.0-0.8","971","","f","","","","","","","","","","","","","key","f","21.662011111111173","720","446","f","true","img/H_28.png","自我","freeprac_stranger","",""
"","","","","","html-keyboard-response","105","699350","0.0-12.0-0.0-1.8","null","<span style='color:GreenYellow; font-size: 70px;'>正确! </span>","null","","","","","","","","","","","","","","","","","","","","","","","feedback_test",""
"","","","","","psychophysics","106","701726","0.0-12.0-0.0-0.9","1373","","j","","","","","","","","","","","","","key","j","21.12605357142872","720","446","j","true","img/S_28.png","自我","freeprac_stranger","",""
"","","","","","html-keyboard-response","107","702039","0.0-12.0-0.0-1.9","null","<span style='color:GreenYellow; font-size: 70px;'>正确! </span>","null","","","","","","","","","","","","","","","","","","","","","","","feedback_test",""
"","","","","","psychophysics","108","704105","0.0-12.0-0.0-0.10","1064","","k","","","","","","","","","","","","","key","k","21.227063157894698","720","446","k","true","img/S_28.png","朋友","freeprac_stranger","",""
"","","","","","html-keyboard-response","109","704410","0.0-12.0-0.0-1.10","null","<span style='color:GreenYellow; font-size: 70px;'>正确! </span>","null","","","","","","","","","","","","","","","","","","","","","","","feedback_test",""
"","","","","","psychophysics","110","706461","0.0-12.0-0.0-0.11","1042","","j","","","","","","","","","","","","","key","j","21.399894736842008","720","446","j","true","img/C_28.png","朋友","freeprac_stranger","",""
"","","","","","html-keyboard-response","111","706769","0.0-12.0-0.0-1.11","null","<span style='color:GreenYellow; font-size: 70px;'>正确! </span>","null","","","","","","","","","","","","","","","","","","","","","","","feedback_test",""
"","","","","","instructions","112","729324","0.0-13.0","22554","","","","","","","","","","","","","","[{""page_index"":0,""viewing_time"":22553}]","","","","","","","","","","","",""
"","","","","","psychophysics","113","731276","0.0-14.0-0.0-0.0","948","","f","","","","","","","","","","","","","key","f","21.477911111110977","720","446","f","true","img/C_28.png","朋友","prac_self","","自我"
"","","","","","html-keyboard-response","114","731591","0.0-14.0-0.0-1.0","null","<span style='color:GreenYellow; font-size: 70px;'>正确! </span>","null","","","","","","","","","","","","","","","","","","","","","","","feedback_test",""
"","","","","","psychophysics","115","733499","0.0-14.0-0.0-0.1","897","","j","","","","","","","","","","","","","key","j","20.878824175824157","720","446","k","false","img/S_28.png","朋友","prac_self","","朋友"
"","","","","","html-keyboard-response","116","733806","0.0-14.0-0.0-1.1","null","<span style='color:red; font-size: 70px;'>错误! </span>","null","","","","","","","","","","","","","","","","","","","","","","","feedback_test",""
"","","","","","psychophysics","117","735714","0.0-14.0-0.0-0.2","895","","f","","","","","","","","","","","","","key","f","21.644655172413366","720","446","f","true","img/C_28.png","生人","prac_self","","自我"
"","","","","","html-keyboard-response","118","736021","0.0-14.0-0.0-1.2","null","<span style='color:GreenYellow; font-size: 70px;'>正确! </span>","null","","","","","","","","","","","","","","","","","","","","","","","feedback_test",""
"","","","","","psychophysics","119","738133","0.0-14.0-0.0-0.3","1110","","j","","","","","","","","","","","","","key","j","21.929294736842674","720","446","j","true","img/H_28.png","朋友","prac_self","","生人"
"","","","","","html-keyboard-response","120","738438","0.0-14.0-0.0-1.3","null","<span style='color:GreenYellow; font-size: 70px;'>正确! </span>","null","","","","","","","","","","","","","","","","","","","","","","","feedback_test",""
"","","","","","psychophysics","121","740162","0.0-14.0-0.0-0.4","722","","f","","","","","","","","","","","","","key","f","21.04016249999986","720","446","j","false","img/S_28.png","自我","prac_self","","朋友"
"","","","","","html-keyboard-response","122","740476","0.0-14.0-0.0-1.4","null","<span style='color:red; font-size: 70px;'>错误! </span>","null","","","","","","","","","","","","","","","","","","","","","","","feedback_test",""
"","","","","","psychophysics","123","742307","0.0-14.0-0.0-0.5","824","","d","","","","","","","","","","","","","key","d","21.429750000000542","720","446","d","true","img/C_28.png","自我","prac_self","","自我"
"","","","","","html-keyboard-response","124","742625","0.0-14.0-0.0-1.5","null","<span style='color:GreenYellow; font-size: 70px;'>正确! </span>","null","","","","","","","","","","","","","","","","","","","","","","","feedback_test",""
"","","","","","psychophysics","125","744261","0.0-14.0-0.0-0.6","632","","j","","","","","","","","","","","","","key","j","21.26896052631568","720","446","k","false","img/H_28.png","生人","prac_self","","生人"
"","","","","","html-keyboard-response","126","744571","0.0-14.0-0.0-1.6","null","<span style='color:red; font-size: 70px;'>错误! </span>","null","","","","","","","","","","","","","","","","","","","","","","","feedback_test",""
"","","","","","psychophysics","127","746469","0.0-14.0-0.0-0.7","896","","f","","","","","","","","","","","","","key","f","21.646482758620092","720","446","j","false","img/S_28.png","生人","prac_self","","朋友"
"","","","","","html-keyboard-response","128","746783","0.0-14.0-0.0-1.7","null","<span style='color:red; font-size: 70px;'>错误! </span>","null","","","","","","","","","","","","","","","","","","","","","","","feedback_test",""
"","","","","","psychophysics","129","748608","0.0-14.0-0.0-0.8","813","","d","","","","","","","","","","","","","key","d","21.170552941176165","720","446","d","true","img/C_28.png","自我","prac_self","","自我"
"","","","","","html-keyboard-response","130","748919","0.0-14.0-0.0-1.8","null","<span style='color:GreenYellow; font-size: 70px;'>正确! </span>","null","","","","","","","","","","","","","","","","","","","","","","","feedback_test",""
"","","","","","psychophysics","131","751207","0.0-14.0-0.0-0.9","1279","","k","","","","","","","","","","","","","key","k","21.789509615385143","720","446","k","true","img/H_28.png","生人","prac_self","","生人"
"","","","","","html-keyboard-response","132","751512","0.0-14.0-0.0-1.9","null","<span style='color:GreenYellow; font-size: 70px;'>正确! </span>","null","","","","","","","","","","","","","","","","","","","","","","","feedback_test",""
"","","","","","psychophysics","133","753362","0.0-14.0-0.0-0.10","835","","j","","","","","","","","","","","","","key","j","20.877103448275413","720","446","j","true","img/H_28.png","自我","prac_self","","生人"
"","","","","","html-keyboard-response","134","753667","0.0-14.0-0.0-1.10","null","<span style='color:GreenYellow; font-size: 70px;'>正确! </span>","null","","","","","","","","","","","","","","","","","","","","","","","feedback_test",""
"","","","","","psychophysics","135","755633","0.0-14.0-0.0-0.11","954","","k","","","","","","","","","","","","","key","k","21.47765555555622","720","446","k","true","img/S_28.png","朋友","prac_self","","朋友"
"","","","","","html-keyboard-response","136","755946","0.0-14.0-0.0-1.11","null","<span style='color:GreenYellow; font-size: 70px;'>正确! </span>","null","","","","","","","","","","","","","","","","","","","","","","","feedback_test",""
"","","","","","psychophysics","137","757892","0.0-14.0-0.0-0.12","944","","j","","","","","","","","","","","","","key","j","21.34533707865153","720","446","f","false","img/C_28.png","朋友","prac_self","","自我"
"","","","","","html-keyboard-response","138","758199","0.0-14.0-0.0-1.12","null","<span style='color:red; font-size: 70px;'>错误! </span>","null","","","","","","","","","","","","","","","","","","","","","","","feedback_test",""
"","","","","","psychophysics","139","759969","0.0-14.0-0.0-0.13","768","","d","","","","","","","","","","","","","key","d","21.081819277108053","720","446","d","true","img/C_28.png","自我","prac_self","","自我"
"","","","","","html-keyboard-response","140","760274","0.0-14.0-0.0-1.13","null","<span style='color:GreenYellow; font-size: 70px;'>正确! </span>","null","","","","","","","","","","","","","","","","","","","","","","","feedback_test",""
"","","","","","psychophysics","141","762406","0.0-14.0-0.0-0.14","1130","","j","","","","","","","","","","","","","key","j","21.642597938143677","720","446","j","true","img/H_28.png","自我","prac_self","","生人"
"","","","","","html-keyboard-response","142","762721","0.0-14.0-0.0-1.14","null","<span style='color:GreenYellow; font-size: 70px;'>正确! </span>","null","","","","","","","","","","","","","","","","","","","","","","","feedback_test",""
"","","","","","psychophysics","143","764779","0.0-14.0-0.0-0.15","1054","","k","","","","","","","","","","","","","key","k","21.86051612903279","720","446","k","true","img/S_28.png","朋友","prac_self","","朋友"
"","","","","","html-keyboard-response","144","765095","0.0-14.0-0.0-1.15","null","<span style='color:GreenYellow; font-size: 70px;'>正确! </span>","null","","","","","","","","","","","","","","","","","","","","","","","feedback_test",""
"","","","","","psychophysics","145","767492","0.0-14.0-0.0-0.16","1395","","k","","","","","","","","","","","","","key","k","21.317162162161786","720","446","k","true","img/H_28.png","生人","prac_self","","生人"
"","","","","","html-keyboard-response","146","767805","0.0-14.0-0.0-1.16","null","<span style='color:GreenYellow; font-size: 70px;'>正确! </span>","null","","","","","","","","","","","","","","","","","","","","","","","feedback_test",""
"","","","","","psychophysics","147","770173","0.0-14.0-0.0-0.17","1358","","k","","","","","","","","","","","","","key","k","21.405614678898544","720","446","k","true","img/S_28.png","朋友","prac_self","","朋友"
"","","","","","html-keyboard-response","148","770482","0.0-14.0-0.0-1.17","null","<span style='color:GreenYellow; font-size: 70px;'>正确! </span>","null","","","","","","","","","","","","","","","","","","","","","","","feedback_test",""
"","","","","","psychophysics","149","772329","0.0-14.0-0.0-0.18","837","","j","","","","","","","","","","","","","key","j","21.624857142857287","720","446","j","true","img/S_28.png","生人","prac_self","","朋友"
"","","","","","html-keyboard-response","150","772641","0.0-14.0-0.0-1.18","null","<span style='color:GreenYellow; font-size: 70px;'>正确! </span>","null","","","","","","","","","","","","","","","","","","","","","","","feedback_test",""
"","","","","","psychophysics","151","774811","0.0-14.0-0.0-0.19","1168","","j","","","","","","","","","","","","","key","j","21.54364646464643","720","446","j","true","img/S_28.png","自我","prac_self","","朋友"
"","","","","","html-keyboard-response","152","775121","0.0-14.0-0.0-1.19","null","<span style='color:GreenYellow; font-size: 70px;'>正确! </span>","null","","","","","","","","","","","","","","","","","","","","","","","feedback_test",""
"","","","","","psychophysics","153","777625","0.0-14.0-0.0-0.20","null","","null","","","","","","","","","","","","","key","null","21.038059322033234","720","446","j","false","img/H_28.png","朋友","prac_self","","生人"
"","","","","","html-keyboard-response","154","777930","0.0-14.0-0.0-1.20","null","<span class='add_' style='color:yellow; font-size: 70px;'> 太慢! </span>","null","","","","","","","","","","","","","","","","","","","","","","","feedback_test",""
"","","","","","psychophysics","155","779937","0.0-14.0-0.0-0.21","991","","k","","","","","","","","","","","","","key","k","21.323720430107837","720","446","k","true","img/H_28.png","生人","prac_self","","生人"
"","","","","","html-keyboard-response","156","780238","0.0-14.0-0.0-1.21","null","<span style='color:GreenYellow; font-size: 70px;'>正确! </span>","null","","","","","","","","","","","","","","","","","","","","","","","feedback_test",""
"","","","","","psychophysics","157","782065","0.0-14.0-0.0-0.22","824","","d","","","","","","","","","","","","","key","d","21.161670588234934","720","446","d","true","img/C_28.png","自我","prac_self","","自我"
"","","","","","html-keyboard-response","158","782378","0.0-14.0-0.0-1.22","null","<span style='color:GreenYellow; font-size: 70px;'>正确! </span>","null","","","","","","","","","","","","","","","","","","","","","","","feedback_test",""
"","","","","","psychophysics","159","784142","0.0-14.0-0.0-0.23","753","","f","","","","","","","","","","","","","key","f","21.67051250000077","720","446","f","true","img/C_28.png","生人","prac_self","","自我"
"","","","","","html-keyboard-response","160","784451","0.0-14.0-0.0-1.23","null","<span style='color:GreenYellow; font-size: 70px;'>正确! </span>","null","","","","","","","","","","","","","","","","","","","","","","","feedback_test",""
"","","","","","html-keyboard-response","161","796094","0.0-15.0","11642","[""<style>.context{color:white; font-size: 35px; line-height:40px}</style>           <div><p class='context'>您正确回答了75% 的试次。</p><p class='context'>您的平均反应时为996毫秒。</p><p class='context'>恭喜您完成这一阶段的练习。按任意键进入<span style='color: yellow;'>重点关注图形为“朋友”</span>的练习。</p></div><p class='footer' style='font-size:35px; line-height:30px;'>任务要求：\n           <p class='footer' style='font-size:35px; line-height:35px;'>对于与“朋友”对应的图形：如果 匹配 ，请按 <span style=\""color: lightgreen;\"">d键</span></p><p class='footer' style='font-size:35px'>如果 不匹配 ，请按<span style=\""color: lightgreen;\"">f键</p></span>\n           <p class='footer' style='font-size:35px; line-height:35px;'>对于非“朋友”对应的图形：如果 匹配 ，请按 <span style=\""color: lightgreen;\"">k键</span></p><p class='footer' style='font-size:35px'>如果 不匹配 ，请按<span style=\""color: lightgreen;\"">j键</p></span>\n           <p class='footer' style='font-size:22px; line-height:25px;'>请在实验过程中将您的<span style=\""color: lightgreen;\"">食指和中指</span>放在电脑键盘的相应键位上进行按键。</p></span>""]","k","","","","","","","","","","","","","","","","","","","","","","","",""
"","","","","","psychophysics","162","798203","0.0-16.0-0.0-0.0","1100","","f","","","","","","","","","","","","","key","f","21.47490721649476","720","446","f","true","img/S_28.png","自我","prac_friend","","朋友"
"","","","","","html-keyboard-response","163","798504","0.0-16.0-0.0-1.0","null","<span style='color:GreenYellow; font-size: 70px;'>正确! </span>","null","","","","","","","","","","","","","","","","","","","","","","","feedback_test",""
"","","","","","psychophysics","164","800622","0.0-16.0-0.0-0.1","1116","","k","","","","","","","","","","","","","key","k","21.25596938775591","720","446","d","false","img/S_28.png","朋友","prac_friend","","朋友"
"","","","","","html-keyboard-response","165","800932","0.0-16.0-0.0-1.1","null","<span style='color:red; font-size: 70px;'>错误! </span>","null","","","","","","","","","","","","","","","","","","","","","","","feedback_test",""
"","","","","","psychophysics","166","803325","0.0-16.0-0.0-0.2","1385","","j","","","","","","","","","","","","","key","j","21.469846846847293","720","446","j","true","img/C_28.png","生人","prac_friend","","自我"
"","","","","","html-keyboard-response","167","803632","0.0-16.0-0.0-1.2","null","<span style='color:GreenYellow; font-size: 70px;'>正确! </span>","null","","","","","","","","","","","","","","","","","","","","","","","feedback_test",""
"","","","","","psychophysics","168","806135","0.0-16.0-0.0-0.3","null","","null","","","","","","","","","","","","","key","null","21.592173913043275","720","446","j","false","img/H_28.png","自我","prac_friend","","生人"
"","","","","","html-keyboard-response","169","806442","0.0-16.0-0.0-1.3","null","<span class='add_' style='color:yellow; font-size: 70px;'> 太慢! </span>","null","","","","","","","","","","","","","","","","","","","","","","","feedback_test",""
"","","","","","psychophysics","170","808197","0.0-16.0-0.0-0.4","739","","d","","","","","","","","","","","","","key","d","20.881216867469217","720","446","k","false","img/C_28.png","自我","prac_friend","","自我"
"","","","","","html-keyboard-response","171","808504","0.0-16.0-0.0-1.4","null","<span style='color:red; font-size: 70px;'>错误! </span>","null","","","","","","","","","","","","","","","","","","","","","","","feedback_test",""
"","","","","","psychophysics","172","811017","0.0-16.0-0.0-0.5","null","","null","","","","","","","","","","","","","key","null","21.59092173912947","720","446","k","false","img/H_28.png","生人","prac_friend","","生人"
"","","","","","html-keyboard-response","173","811330","0.0-16.0-0.0-1.5","null","<span class='add_' style='color:yellow; font-size: 70px;'> 太慢! </span>","null","","","","","","","","","","","","","","","","","","","","","","","feedback_test",""
"","","","","","psychophysics","174","813405","0.0-16.0-0.0-0.6","1067","","d","","","","","","","","","","","","","key","d","21.08518367346937","720","446","f","false","img/S_28.png","生人","prac_friend","","朋友"
"","","","","","html-keyboard-response","175","813711","0.0-16.0-0.0-1.6","null","<span style='color:red; font-size: 70px;'>错误! </span>","null","","","","","","","","","","","","","","","","","","","","","","","feedback_test",""
"","","","","","psychophysics","176","816050","0.0-16.0-0.0-0.7","1331","","j","","","","","","","","","","","","","key","j","21.492822429907257","720","446","k","false","img/C_28.png","自我","prac_friend","","自我"
"","","","","","html-keyboard-response","177","816354","0.0-16.0-0.0-1.7","null","<span style='color:red; font-size: 70px;'>错误! </span>","null","","","","","","","","","","","","","","","","","","","","","","","feedback_test",""
"","","","","","psychophysics","178","818423","0.0-16.0-0.0-0.8","1059","","f","","","","","","","","","","","","","key","f","21.4011052631577","720","446","j","false","img/H_28.png","朋友","prac_friend","","生人"
"","","","","","html-keyboard-response","179","818737","0.0-16.0-0.0-1.8","null","<span style='color:red; font-size: 70px;'>错误! </span>","null","","","","","","","","","","","","","","","","","","","","","","","feedback_test",""
"","","","","","psychophysics","180","821240","0.0-16.0-0.0-0.9","null","","null","","","","","","","","","","","","","key","null","20.89273728813554","720","446","k","false","img/H_28.png","生人","prac_friend","","生人"
"","","","","","html-keyboard-response","181","821555","0.0-16.0-0.0-1.9","null","<span class='add_' style='color:yellow; font-size: 70px;'> 太慢! </span>","null","","","","","","","","","","","","","","","","","","","","","","","feedback_test",""
"","","","","","psychophysics","182","823694","0.0-16.0-0.0-0.10","1137","","j","","","","","","","","","","","","","key","j","21.597102040815766","720","446","j","true","img/C_28.png","朋友","prac_friend","","自我"
"","","","","","html-keyboard-response","183","824001","0.0-16.0-0.0-1.10","null","<span style='color:GreenYellow; font-size: 70px;'>正确! </span>","null","","","","","","","","","","","","","","","","","","","","","","","feedback_test",""
"","","","","","psychophysics","184","826136","0.0-16.0-0.0-0.11","1134","","d","","","","","","","","","","","","","key","d","21.37436363636281","720","446","d","true","img/S_28.png","朋友","prac_friend","","朋友"
"","","","","","html-keyboard-response","185","826440","0.0-16.0-0.0-1.11","null","<span style='color:GreenYellow; font-size: 70px;'>正确! </span>","null","","","","","","","","","","","","","","","","","","","","","","","feedback_test",""
"","","","","","psychophysics","186","828387","0.0-16.0-0.0-0.12","946","","j","","","","","","","","","","","","","key","j","21.48096666666679","720","446","j","true","img/H_28.png","朋友","prac_friend","","生人"
"","","","","","html-keyboard-response","187","828701","0.0-16.0-0.0-1.12","null","<span style='color:GreenYellow; font-size: 70px;'>正确! </span>","null","","","","","","","","","","","","","","","","","","","","","","","feedback_test",""
"","","","","","psychophysics","188","830855","0.0-16.0-0.0-0.13","1142","","f","","","","","","","","","","","","","key","f","21.544424242424693","720","446","j","false","img/H_28.png","自我","prac_friend","","生人"
"","","","","","html-keyboard-response","189","831163","0.0-16.0-0.0-1.13","null","<span style='color:red; font-size: 70px;'>错误! </span>","null","","","","","","","","","","","","","","","","","","","","","","","feedback_test",""
"","","","","","psychophysics","190","833427","0.0-16.0-0.0-0.14","1260","","d","","","","","","","","","","","","","key","d","21.46986538461575","720","446","d","true","img/S_28.png","朋友","prac_friend","","朋友"
"","","","","","html-keyboard-response","191","833736","0.0-16.0-0.0-1.14","null","<span style='color:GreenYellow; font-size: 70px;'>正确! </span>","null","","","","","","","","","","","","","","","","","","","","","","","feedback_test",""
"","","","","","psychophysics","192","835535","0.0-16.0-0.0-0.15","785","","d","","","","","","","","","","","","","key","d","21.542426829268905","720","446","d","true","img/S_28.png","朋友","prac_friend","","朋友"
"","","","","","html-keyboard-response","193","835838","0.0-16.0-0.0-1.15","null","<span style='color:GreenYellow; font-size: 70px;'>正确! </span>","null","","","","","","","","","","","","","","","","","","","","","","","feedback_test",""
"","","","","","psychophysics","194","837640","0.0-16.0-0.0-0.16","800","","f","","","","","","","","","","","","","key","f","21.807345679012574","720","446","f","true","img/S_28.png","自我","prac_friend","","朋友"
"","","","","","html-keyboard-response","195","837950","0.0-16.0-0.0-1.16","null","<span style='color:GreenYellow; font-size: 70px;'>正确! </span>","null","","","","","","","","","","","","","","","","","","","","","","","feedback_test",""
"","","","","","psychophysics","196","839657","0.0-16.0-0.0-0.17","695","","j","","","","","","","","","","","","","key","j","21.57541025641004","720","446","k","false","img/H_28.png","生人","prac_friend","","生人"
"","","","","","html-keyboard-response","197","839965","0.0-16.0-0.0-1.17","null","<span style='color:red; font-size: 70px;'>错误! </span>","null","","","","","","","","","","","","","","","","","","","","","","","feedback_test",""
"","","","","","psychophysics","198","842009","0.0-16.0-0.0-0.18","1044","","d","","","","","","","","","","","","","key","d","21.445244680851093","720","446","k","false","img/C_28.png","自我","prac_friend","","自我"
"","","","","","html-keyboard-response","199","842316","0.0-16.0-0.0-1.18","null","<span style='color:red; font-size: 70px;'>错误! </span>","null","","","","","","","","","","","","","","","","","","","","","","","feedback_test",""
"","","","","","psychophysics","200","844516","0.0-16.0-0.0-0.19","1187","","f","","","","","","","","","","","","","key","f","20.870873786407316","720","446","f","true","img/S_28.png","生人","prac_friend","","朋友"
"","","","","","html-keyboard-response","201","844831","0.0-16.0-0.0-1.19","null","<span style='color:GreenYellow; font-size: 70px;'>正确! </span>","null","","","","","","","","","","","","","","","","","","","","","","","feedback_test",""
"","","","","","psychophysics","202","847097","0.0-16.0-0.0-0.20","1265","","j","","","","","","","","","","","","","key","j","21.471394230769455","720","446","k","false","img/H_28.png","生人","prac_friend","","生人"
"","","","","","html-keyboard-response","203","847398","0.0-16.0-0.0-1.20","null","<span style='color:red; font-size: 70px;'>错误! </span>","null","","","","","","","","","","","","","","","","","","","","","","","feedback_test",""
"","","","","","psychophysics","204","849445","0.0-16.0-0.0-0.21","1045","","k","","","","","","","","","","","","","key","k","21.2728617021274","720","446","k","true","img/C_28.png","自我","prac_friend","","自我"
"","","","","","html-keyboard-response","205","849760","0.0-16.0-0.0-1.21","null","<span style='color:GreenYellow; font-size: 70px;'>正确! </span>","null","","","","","","","","","","","","","","","","","","","","","","","feedback_test",""
"","","","","","psychophysics","206","851892","0.0-16.0-0.0-0.22","1132","","j","","","","","","","","","","","","","key","j","21.86162499999894","720","446","j","true","img/C_28.png","生人","prac_friend","","自我"
"","","","","","html-keyboard-response","207","852208","0.0-16.0-0.0-1.22","null","<span style='color:GreenYellow; font-size: 70px;'>正确! </span>","null","","","","","","","","","","","","","","","","","","","","","","","feedback_test",""
"","","","","","psychophysics","208","854032","0.0-16.0-0.0-0.23","818","","j","","","","","","","","","","","","","key","j","21.483891566264365","720","446","j","true","img/C_28.png","朋友","prac_friend","","自我"
"","","","","","html-keyboard-response","209","854336","0.0-16.0-0.0-1.23","null","<span style='color:GreenYellow; font-size: 70px;'>正确! </span>","null","","","","","","","","","","","","","","","","","","","","","","","feedback_test",""
"","","","","","html-keyboard-response","210","859909","0.0-16.0-1.0-0.0","5571","<style>.context{color:white; font-size: 35px; line-height:40px}</style>                           <div><p class='context'>您正确回答了50% 的试次。</p><p class='context'>您的平均反应时为1061毫秒。</p>","k","","","","","","","","","","","","","","","","","","","","","","","",""
"","","","","","instructions","211","894738","0.0-16.0-1.0-1.0","34826","","","","","","","","","","","","","","[{""page_index"":0,""viewing_time"":8635},{""page_index"":1,""viewing_time"":23367},{""page_index"":2,""viewing_time"":2824}]","","","","","","","","","","","",""
"","","","","","psychophysics","212","896960","0.0-16.1-0.1-0.24","1219","","f","","","","","","","","","","","","","key","f","21.195902912622063","720","446","j","false","img/C_28.png","朋友","prac_friend","","自我"
"","","","","","html-keyboard-response","213","897271","0.0-16.1-0.1-1.24","null","<span style='color:red; font-size: 70px;'>错误! </span>","null","","","","","","","","","","","","","","","","","","","","","","","feedback_test",""
"","","","","","psychophysics","214","899624","0.0-16.1-0.1-0.25","1352","","j","","","","","","","","","","","","","key","j","21.017270270270412","720","446","f","false","img/S_28.png","自我","prac_friend","","朋友"
"","","","","","html-keyboard-response","215","899929","0.0-16.1-0.1-1.25","null","<span style='color:red; font-size: 70px;'>错误! </span>","null","","","","","","","","","","","","","","","","","","","","","","","feedback_test",""
"","","","","","psychophysics","216","902071","0.0-16.1-0.1-0.26","1130","","d","","","","","","","","","","","","","key","d","21.597959183673233","720","446","d","true","img/S_28.png","朋友","prac_friend","","朋友"
"","","","","","html-keyboard-response","217","902375","0.0-16.1-0.1-1.26","null","<span style='color:GreenYellow; font-size: 70px;'>正确! </span>","null","","","","","","","","","","","","","","","","","","","","","","","feedback_test",""
"","","","","","psychophysics","218","904620","0.0-16.1-0.1-0.27","1234","","j","","","","","","","","","","","","","key","j","21.109304761905445","720","446","j","true","img/H_28.png","自我","prac_friend","","生人"
"","","","","","html-keyboard-response","219","904933","0.0-16.1-0.1-1.27","null","<span style='color:GreenYellow; font-size: 70px;'>正确! </span>","null","","","","","","","","","","","","","","","","","","","","","","","feedback_test",""
"","","","","","psychophysics","220","907067","0.0-16.1-0.1-0.28","1129","","k","","","","","","","","","","","","","key","k","21.595877551021083","720","446","k","true","img/H_28.png","生人","prac_friend","","生人"
"","","","","","html-keyboard-response","221","907377","0.0-16.1-0.1-1.28","null","<span style='color:GreenYellow; font-size: 70px;'>正确! </span>","null","","","","","","","","","","","","","","","","","","","","","","","feedback_test",""
"","","","","","psychophysics","222","909282","0.0-16.1-0.1-0.29","903","","j","","","","","","","","","","","","","key","j","21.451977011494755","720","446","j","true","img/C_28.png","生人","prac_friend","","自我"
"","","","","","html-keyboard-response","223","909589","0.0-16.1-0.1-1.29","null","<span style='color:GreenYellow; font-size: 70px;'>正确! </span>","null","","","","","","","","","","","","","","","","","","","","","","","feedback_test",""
"","","","","","psychophysics","224","911487","0.0-16.1-0.1-0.30","885","","j","","","","","","","","","","","","","key","j","21.70602325581388","720","446","k","false","img/C_28.png","自我","prac_friend","","自我"
"","","","","","html-keyboard-response","225","911801","0.0-16.1-0.1-1.30","null","<span style='color:red; font-size: 70px;'>错误! </span>","null","","","","","","","","","","","","","","","","","","","","","","","feedback_test",""
"","","","","","psychophysics","226","914052","0.0-16.1-0.1-0.31","1249","","k","","","","","","","","","","","","","key","k","20.907301886792443","720","446","k","true","img/H_28.png","生人","prac_friend","","生人"
"","","","","","html-keyboard-response","227","914360","0.0-16.1-0.1-1.31","null","<span style='color:GreenYellow; font-size: 70px;'>正确! </span>","null","","","","","","","","","","","","","","","","","","","","","","","feedback_test",""
"","","","","","psychophysics","228","916244","0.0-16.1-0.1-0.32","877","","k","","","","","","","","","","","","","key","k","21.509686046511444","720","446","k","true","img/C_28.png","自我","prac_friend","","自我"
"","","","","","html-keyboard-response","229","916556","0.0-16.1-0.1-1.32","null","<span style='color:GreenYellow; font-size: 70px;'>正确! </span>","null","","","","","","","","","","","","","","","","","","","","","","","feedback_test",""
"","","","","","psychophysics","230","918524","0.0-16.1-0.1-0.33","958","","d","","","","","","","","","","","","","key","d","21.90686516853944","720","446","d","true","img/S_28.png","朋友","prac_friend","","朋友"
"","","","","","html-keyboard-response","231","918834","0.0-16.1-0.1-1.33","null","<span style='color:GreenYellow; font-size: 70px;'>正确! </span>","null","","","","","","","","","","","","","","","","","","","","","","","feedback_test",""
"","","","","","psychophysics","232","920720","0.0-16.1-0.1-0.34","884","","j","","","","","","","","","","","","","key","j","21.43795402298933","720","446","j","true","img/H_28.png","朋友","prac_friend","","生人"
"","","","","","html-keyboard-response","233","921033","0.0-16.1-0.1-1.34","null","<span style='color:GreenYellow; font-size: 70px;'>正确! </span>","null","","","","","","","","","","","","","","","","","","","","","","","feedback_test",""
"","","","","","psychophysics","234","923129","0.0-16.1-0.1-0.35","1095","","f","","","","","","","","","","","","","key","f","20.663980000000446","720","446","f","true","img/S_28.png","生人","prac_friend","","朋友"
"","","","","","html-keyboard-response","235","923435","0.0-16.1-0.1-1.35","null","<span style='color:GreenYellow; font-size: 70px;'>正确! </span>","null","","","","","","","","","","","","","","","","","","","","","","","feedback_test",""
"","","","","","psychophysics","236","925345","0.0-16.1-0.1-0.36","908","","j","","","","","","","","","","","","","key","j","21.400272727271922","720","446","j","true","img/C_28.png","朋友","prac_friend","","自我"
"","","","","","html-keyboard-response","237","925655","0.0-16.1-0.1-1.36","null","<span style='color:GreenYellow; font-size: 70px;'>正确! </span>","null","","","","","","","","","","","","","","","","","","","","","","","feedback_test",""
"","","","","","psychophysics","238","927752","0.0-16.1-0.1-0.37","1087","","j","","","","","","","","","","","","","key","j","21.471175257732238","720","446","j","true","img/C_28.png","生人","prac_friend","","自我"
"","","","","","html-keyboard-response","239","928059","0.0-16.1-0.1-1.37","null","<span style='color:GreenYellow; font-size: 70px;'>正确! </span>","null","","","","","","","","","","","","","","","","","","","","","","","feedback_test",""
"","","","","","psychophysics","240","930140","0.0-16.1-0.1-0.38","1075","","j","","","","","","","","","","","","","key","j","21.092724489796506","720","446","f","false","img/S_28.png","自我","prac_friend","","朋友"
"","","","","","html-keyboard-response","241","930453","0.0-16.1-0.1-1.38","null","<span style='color:red; font-size: 70px;'>错误! </span>","null","","","","","","","","","","","","","","","","","","","","","","","feedback_test",""
"","","","","","psychophysics","242","932594","0.0-16.1-0.1-0.39","1130","","j","","","","","","","","","","","","","key","j","21.379666666666076","720","446","k","false","img/C_28.png","自我","prac_friend","","自我"
"","","","","","html-keyboard-response","243","932904","0.0-16.1-0.1-1.39","null","<span style='color:red; font-size: 70px;'>错误! </span>","null","","","","","","","","","","","","","","","","","","","","","","","feedback_test",""
"","","","","","psychophysics","244","934887","0.0-16.1-0.1-0.40","981","","d","","","","","","","","","","","","","key","d","21.37556521739158","720","446","d","true","img/S_28.png","朋友","prac_friend","","朋友"
"","","","","","html-keyboard-response","245","935200","0.0-16.1-0.1-1.40","null","<span style='color:GreenYellow; font-size: 70px;'>正确! </span>","null","","","","","","","","","","","","","","","","","","","","","","","feedback_test",""
"","","","","","psychophysics","246","937644","0.0-16.1-0.1-0.41","1435","","f","","","","","","","","","","","","","key","f","21.18880701754365","720","446","f","true","img/S_28.png","生人","prac_friend","","朋友"
"","","","","","html-keyboard-response","247","937953","0.0-16.1-0.1-1.41","null","<span style='color:GreenYellow; font-size: 70px;'>正确! </span>","null","","","","","","","","","","","","","","","","","","","","","","","feedback_test",""
"","","","","","psychophysics","248","940234","0.0-16.1-0.1-0.42","1271","","k","","","","","","","","","","","","","key","k","22.2752277227718","720","446","k","true","img/H_28.png","生人","prac_friend","","生人"
"","","","","","html-keyboard-response","249","940541","0.0-16.1-0.1-1.42","null","<span style='color:GreenYellow; font-size: 70px;'>正确! </span>","null","","","","","","","","","","","","","","","","","","","","","","","feedback_test",""
"","","","","","psychophysics","250","942690","0.0-16.1-0.1-0.43","1140","","d","","","","","","","","","","","","","key","d","21.819298969072857","720","446","d","true","img/S_28.png","朋友","prac_friend","","朋友"
"","","","","","html-keyboard-response","251","943006","0.0-16.1-0.1-1.43","null","<span style='color:GreenYellow; font-size: 70px;'>正确! </span>","null","","","","","","","","","","","","","","","","","","","","","","","feedback_test",""
"","","","","","psychophysics","252","945512","0.0-16.1-0.1-0.44","null","","null","","","","","","","","","","","","","key","null","21.78163157894762","720","446","j","false","img/H_28.png","自我","prac_friend","","生人"
"","","","","","html-keyboard-response","253","945826","0.0-16.1-0.1-1.44","null","<span class='add_' style='color:yellow; font-size: 70px;'> 太慢! </span>","null","","","","","","","","","","","","","","","","","","","","","","","feedback_test",""
"","","","","","psychophysics","254","947688","0.0-16.1-0.1-0.45","860","","k","","","","","","","","","","","","","key","k","21.318104651162326","720","446","k","true","img/C_28.png","自我","prac_friend","","自我"
"","","","","","html-keyboard-response","255","947990","0.0-16.1-0.1-1.45","null","<span style='color:GreenYellow; font-size: 70px;'>正确! </span>","null","","","","","","","","","","","","","","","","","","","","","","","feedback_test",""
"","","","","","psychophysics","256","950227","0.0-16.1-0.1-0.46","1233","","j","","","","","","","","","","","","","key","j","21.722088235294603","720","446","j","true","img/H_28.png","朋友","prac_friend","","生人"
"","","","","","html-keyboard-response","257","950538","0.0-16.1-0.1-1.46","null","<span style='color:GreenYellow; font-size: 70px;'>正确! </span>","null","","","","","","","","","","","","","","","","","","","","","","","feedback_test",""
"","","","","","psychophysics","258","952535","0.0-16.1-0.1-0.47","987","","j","","","","","","","","","","","","","key","j","21.793769230769314","720","446","k","false","img/H_28.png","生人","prac_friend","","生人"
"","","","","","html-keyboard-response","259","952843","0.0-16.1-0.1-1.47","null","<span style='color:red; font-size: 70px;'>错误! </span>","null","","","","","","","","","","","","","","","","","","","","","","","feedback_test",""
"","","","","","html-keyboard-response","260","961632","0.0-17.0","8784","[""<style>.context{color:white; font-size: 35px; line-height:40px}</style>               <div><p class='context'>您正确回答了71% 的试次。</p><p class='context'>您的平均反应时为1081毫秒。</p><p class='context'>恭喜您完成这一阶段的练习。按任意键进入<span style='color: yellow;'>重点关注图形为“生人”</span>的练习。</p></div><p class='footer' style='font-size:35px; line-height:30px;'>任务要求：\n               <p class='footer' style='font-size:35px; line-height:35px;'>对与“生人”对应的图形，如果 匹配 ，请按 <span style=\""color: lightgreen;\"">d键</span></p><p class='footer' style='font-size:35px'>如果 不匹配 ，请按<span style=\""color: lightgreen;\"">f键</p></span>\n               <p class='footer' style='font-size:35px; line-height:35px;'>对非“生人”对应的图形，如果 匹配 ，请按 <span style=\""color: lightgreen;\"">k键</span></p><p class='footer' style='font-size:35px'>如果 不匹配 ，请按<span style=\""color: lightgreen;\"">j键</p></span>\n               <p class='footer' style='font-size:22px; line-height:25px;'>请在实验过程中将您的<span style=\""color: lightgreen;\"">食指和中指</span>放在电脑键盘的相应键位上进行按键。</p></span>""]","k","","","","","","","","","","","","","","","","","","","","","","","",""
"","","","","","psychophysics","261","964142","0.0-18.0-0.0-0.0","null","","null","","","","","","","","","","","","","key","null","21.973247787610223","720","446","k","false","img/S_28.png","朋友","prac_stranger","","朋友"
"","","","","","html-keyboard-response","262","964445","0.0-18.0-0.0-1.0","null","<span class='add_' style='color:yellow; font-size: 70px;'> 太慢! </span>","null","","","","","","","","","","","","","","","","","","","","","","","feedback_test",""
"","","","","","psychophysics","263","966551","0.0-18.0-0.0-0.1","1103","","j","","","","","","","","","","","","","key","j","21.04038383838288","720","446","j","true","img/C_28.png","朋友","prac_stranger","","自我"
"","","","","","html-keyboard-response","264","966864","0.0-18.0-0.0-1.1","null","<span style='color:GreenYellow; font-size: 70px;'>正确! </span>","null","","","","","","","","","","","","","","","","","","","","","","","feedback_test",""
"","","","","","psychophysics","265","968811","0.0-18.0-0.0-0.2","936","","k","","","","","","","","","","","","","key","k","21.777613636362897","720","446","k","true","img/C_28.png","自我","prac_stranger","","自我"
"","","","","","html-keyboard-response","266","969124","0.0-18.0-0.0-1.2","null","<span style='color:GreenYellow; font-size: 70px;'>正确! </span>","null","","","","","","","","","","","","","","","","","","","","","","","feedback_test",""
"","","","","","psychophysics","267","971356","0.0-18.0-0.0-0.3","1230","","k","","","","","","","","","","","","","key","k","21.828699999999955","720","446","k","true","img/C_28.png","自我","prac_stranger","","自我"
"","","","","","html-keyboard-response","268","971661","0.0-18.0-0.0-1.3","null","<span style='color:GreenYellow; font-size: 70px;'>正确! </span>","null","","","","","","","","","","","","","","","","","","","","","","","feedback_test",""
"","","","","","psychophysics","269","973967","0.0-18.0-0.0-0.4","1291","","f","","","","","","","","","","","","","key","f","21.58304761904846","720","446","f","true","img/H_28.png","自我","prac_stranger","","生人"
"","","","","","html-keyboard-response","270","974285","0.0-18.0-0.0-1.4","null","<span style='color:GreenYellow; font-size: 70px;'>正确! </span>","null","","","","","","","","","","","","","","","","","","","","","","","feedback_test",""
"","","","","","psychophysics","271","976509","0.0-18.0-0.0-0.5","1213","","d","","","","","","","","","","","","","key","d","21.9438613861382","720","446","k","false","img/S_28.png","朋友","prac_stranger","","朋友"
"","","","","","html-keyboard-response","272","976823","0.0-18.0-0.0-1.5","null","<span style='color:red; font-size: 70px;'>错误! </span>","null","","","","","","","","","","","","","","","","","","","","","","","feedback_test",""
"","","","","","psychophysics","273","978752","0.0-18.0-0.0-0.6","915","","j","","","","","","","","","","","","","key","j","21.586272727272114","720","446","j","true","img/S_28.png","自我","prac_stranger","","朋友"
"","","","","","html-keyboard-response","274","979065","0.0-18.0-0.0-1.6","null","<span style='color:GreenYellow; font-size: 70px;'>正确! </span>","null","","","","","","","","","","","","","","","","","","","","","","","feedback_test",""
"","","","","","psychophysics","275","981191","0.0-18.0-0.0-0.7","1123","","j","","","","","","","","","","","","","key","j","21.208737373736575","720","446","f","false","img/H_28.png","朋友","prac_stranger","","生人"
"","","","","","html-keyboard-response","276","981501","0.0-18.0-0.0-1.7","null","<span style='color:red; font-size: 70px;'>错误! </span>","null","","","","","","","","","","","","","","","","","","","","","","","feedback_test",""
"","","","","","psychophysics","277","984012","0.0-18.0-0.0-0.8","1510","","f","","","","","","","","","","","","","key","f","22.121336283185933","720","446","d","false","img/H_28.png","生人","prac_stranger","","生人"
"","","","","","html-keyboard-response","278","984322","0.0-18.0-0.0-1.8","null","<span class='add_' style='color:yellow; font-size: 70px;'> 太慢! </span>","null","","","","","","","","","","","","","","","","","","","","","","","feedback_test",""
"","","","","","psychophysics","279","986484","0.0-18.0-0.0-0.9","1160","","j","","","","","","","","","","","","","key","j","21.11637623762334","720","446","j","true","img/C_28.png","生人","prac_stranger","","自我"
"","","","","","html-keyboard-response","280","986799","0.0-18.0-0.0-1.9","null","<span style='color:GreenYellow; font-size: 70px;'>正确! </span>","null","","","","","","","","","","","","","","","","","","","","","","","feedback_test",""
"","","","","","psychophysics","281","988821","0.0-18.0-0.0-0.10","1011","","j","","","","","","","","","","","","","key","j","21.793736263737337","720","446","j","true","img/S_28.png","生人","prac_stranger","","朋友"
"","","","","","html-keyboard-response","282","989133","0.0-18.0-0.0-1.10","null","<span style='color:GreenYellow; font-size: 70px;'>正确! </span>","null","","","","","","","","","","","","","","","","","","","","","","","feedback_test",""
"","","","","","psychophysics","283","991088","0.0-18.0-0.0-0.11","951","","j","","","","","","","","","","","","","key","j","21.244692307692226","720","446","d","false","img/H_28.png","生人","prac_stranger","","生人"
"","","","","","html-keyboard-response","284","991404","0.0-18.0-0.0-1.11","null","<span style='color:red; font-size: 70px;'>错误! </span>","null","","","","","","","","","","","","","","","","","","","","","","","feedback_test",""
"","","","","","psychophysics","285","993563","0.0-18.0-0.0-0.12","1156","","k","","","","","","","","","","","","","key","k","21.377373737373595","720","446","k","true","img/S_28.png","朋友","prac_stranger","","朋友"
"","","","","","html-keyboard-response","286","993875","0.0-18.0-0.0-1.12","null","<span style='color:GreenYellow; font-size: 70px;'>正确! </span>","null","","","","","","","","","","","","","","","","","","","","","","","feedback_test",""
"","","","","","psychophysics","287","995877","0.0-18.0-0.0-0.13","990","","j","","","","","","","","","","","","","key","j","20.87556842105267","720","446","j","true","img/S_28.png","生人","prac_stranger","","朋友"
"","","","","","html-keyboard-response","288","996187","0.0-18.0-0.0-1.13","null","<span style='color:GreenYellow; font-size: 70px;'>正确! </span>","null","","","","","","","","","","","","","","","","","","","","","","","feedback_test",""
"","","","","","psychophysics","289","998469","0.0-18.0-0.0-0.14","1277","","j","","","","","","","","","","","","","key","j","21.22166981132051","720","446","j","true","img/S_28.png","自我","prac_stranger","","朋友"
"","","","","","html-keyboard-response","290","998775","0.0-18.0-0.0-1.14","null","<span style='color:GreenYellow; font-size: 70px;'>正确! </span>","null","","","","","","","","","","","","","","","","","","","","","","","feedback_test",""
"","","","","","psychophysics","291","1001074","0.0-18.0-0.0-0.15","1298","","j","","","","","","","","","","","","","key","j","21.794721153845714","720","446","f","false","img/H_28.png","自我","prac_stranger","","生人"
"","","","","","html-keyboard-response","292","1001382","0.0-18.0-0.0-1.15","null","<span style='color:red; font-size: 70px;'>错误! </span>","null","","","","","","","","","","","","","","","","","","","","","","","feedback_test",""
"","","","","","psychophysics","293","1003610","0.0-18.0-0.0-0.16","1227","","j","","","","","","","","","","","","","key","j","21.518475728154687","720","446","f","false","img/H_28.png","朋友","prac_stranger","","生人"
"","","","","","html-keyboard-response","294","1003926","0.0-18.0-0.0-1.16","null","<span style='color:red; font-size: 70px;'>错误! </span>","null","","","","","","","","","","","","","","","","","","","","","","","feedback_test",""
"","","","","","psychophysics","295","1005865","0.0-18.0-0.0-0.17","931","","d","","","","","","","","","","","","","key","d","21.29230000000033","720","446","d","true","img/H_28.png","生人","prac_stranger","","生人"
"","","","","","html-keyboard-response","296","1006169","0.0-18.0-0.0-1.17","null","<span style='color:GreenYellow; font-size: 70px;'>正确! </span>","null","","","","","","","","","","","","","","","","","","","","","","","feedback_test",""
"","","","","","psychophysics","297","1008096","0.0-18.0-0.0-0.18","912","","j","","","","","","","","","","","","","key","j","20.924499999999533","720","446","k","false","img/S_28.png","朋友","prac_stranger","","朋友"
"","","","","","html-keyboard-response","298","1008403","0.0-18.0-0.0-1.18","null","<span style='color:red; font-size: 70px;'>错误! </span>","null","","","","","","","","","","","","","","","","","","","","","","","feedback_test",""
"","","","","","psychophysics","299","1010200","0.0-18.0-0.0-0.19","785","","k","","","","","","","","","","","","","key","k","21.28112048192752","720","446","k","true","img/C_28.png","自我","prac_stranger","","自我"
"","","","","","html-keyboard-response","300","1010504","0.0-18.0-0.0-1.19","null","<span style='color:GreenYellow; font-size: 70px;'>正确! </span>","null","","","","","","","","","","","","","","","","","","","","","","","feedback_test",""
"","","","","","psychophysics","301","1012328","0.0-18.0-0.0-0.20","822","","k","","","","","","","","","","","","","key","k","21.1737529411775","720","446","k","true","img/C_28.png","自我","prac_stranger","","自我"
"","","","","","html-keyboard-response","302","1012640","0.0-18.0-0.0-1.20","null","<span style='color:GreenYellow; font-size: 70px;'>正确! </span>","null","","","","","","","","","","","","","","","","","","","","","","","feedback_test",""
"","","","","","psychophysics","303","1014573","0.0-18.0-0.0-0.21","932","","d","","","","","","","","","","","","","key","d","21.778534090909737","720","446","d","true","img/H_28.png","生人","prac_stranger","","生人"
"","","","","","html-keyboard-response","304","1014882","0.0-18.0-0.0-1.21","null","<span style='color:GreenYellow; font-size: 70px;'>正确! </span>","null","","","","","","","","","","","","","","","","","","","","","","","feedback_test",""
"","","","","","psychophysics","305","1016773","0.0-18.0-0.0-0.22","876","","j","","","","","","","","","","","","","key","j","20.97007865168604","720","446","j","true","img/C_28.png","朋友","prac_stranger","","自我"
"","","","","","html-keyboard-response","306","1017079","0.0-18.0-0.0-1.22","null","<span style='color:GreenYellow; font-size: 70px;'>正确! </span>","null","","","","","","","","","","","","","","","","","","","","","","","feedback_test",""
"","","","","","psychophysics","307","1019258","0.0-18.0-0.0-0.23","1175","","j","","","","","","","","","","","","","key","j","21.663179999999702","720","446","j","true","img/C_28.png","生人","prac_stranger","","自我"
"","","","","","html-keyboard-response","308","1019574","0.0-18.0-0.0-1.23","null","<span style='color:GreenYellow; font-size: 70px;'>正确! </span>","null","","","","","","","","","","","","","","","","","","","","","","","feedback_test",""
"","","","","","html-keyboard-response","309","1021764","0.0-18.0-1.0-0.0","2188","<style>.context{color:white; font-size: 35px; line-height:40px}</style>                           <div><p class='context'>您正确回答了67% 的试次。</p><p class='context'>您的平均反应时为1037毫秒。</p>","j","","","","","","","","","","","","","","","","","","","","","","","",""
"","","","","","instructions","310","1031345","0.0-18.0-1.0-1.0","9579","","","","","","","","","","","","","","[{""page_index"":0,""viewing_time"":2363},{""page_index"":1,""viewing_time"":5896},{""page_index"":2,""viewing_time"":1319}]","","","","","","","","","","","",""
"","","","","","psychophysics","311","1033293","0.0-18.1-0.1-0.24","945","","d","","","","","","","","","","","","","key","d","21.056450549450417","720","446","d","true","img/H_28.png","生人","prac_stranger","","生人"
"","","","","","html-keyboard-response","312","1033600","0.0-18.1-0.1-1.24","null","<span style='color:GreenYellow; font-size: 70px;'>正确! </span>","null","","","","","","","","","","","","","","","","","","","","","","","feedback_test",""
"","","","","","psychophysics","313","1035692","0.0-18.1-0.1-0.25","1081","","j","","","","","","","","","","","","","key","j","21.08494897959136","720","446","j","true","img/C_28.png","朋友","prac_stranger","","自我"
"","","","","","html-keyboard-response","314","1035999","0.0-18.1-0.1-1.25","null","<span style='color:GreenYellow; font-size: 70px;'>正确! </span>","null","","","","","","","","","","","","","","","","","","","","","","","feedback_test",""
"","","","","","psychophysics","315","1038109","0.0-18.1-0.1-0.26","1108","","f","","","","","","","","","","","","","key","f","21.52486458333321","720","446","f","true","img/H_28.png","自我","prac_stranger","","生人"
"","","","","","html-keyboard-response","316","1038416","0.0-18.1-0.1-1.26","null","<span style='color:GreenYellow; font-size: 70px;'>正确! </span>","null","","","","","","","","","","","","","","","","","","","","","","","feedback_test",""
"","","","","","psychophysics","317","1040293","0.0-18.1-0.1-0.27","865","","j","","","","","","","","","","","","","key","j","21.317593023256766","720","446","j","true","img/S_28.png","自我","prac_stranger","","朋友"
"","","","","","html-keyboard-response","318","1040595","0.0-18.1-0.1-1.27","null","<span style='color:GreenYellow; font-size: 70px;'>正确! </span>","null","","","","","","","","","","","","","","","","","","","","","","","feedback_test",""
"","","","","","psychophysics","319","1042756","0.0-18.1-0.1-0.28","1158","","j","","","","","","","","","","","","","key","j","20.911529411764942","720","446","k","false","img/C_28.png","自我","prac_stranger","","自我"
"","","","","","html-keyboard-response","320","1043071","0.0-18.1-0.1-1.28","null","<span style='color:red; font-size: 70px;'>错误! </span>","null","","","","","","","","","","","","","","","","","","","","","","","feedback_test",""
"","","","","","psychophysics","321","1045441","0.0-18.1-0.1-0.29","1359","","j","","","","","","","","","","","","","key","j","21.602499999999527","720","446","j","true","img/S_28.png","生人","prac_stranger","","朋友"
"","","","","","html-keyboard-response","322","1045743","0.0-18.1-0.1-1.29","null","<span style='color:GreenYellow; font-size: 70px;'>正确! </span>","null","","","","","","","","","","","","","","","","","","","","","","","feedback_test",""
"","","","","","psychophysics","323","1047840","0.0-18.1-0.1-0.30","1086","","j","","","","","","","","","","","","","key","j","21.525145833334438","720","446","k","false","img/S_28.png","朋友","prac_stranger","","朋友"
"","","","","","html-keyboard-response","324","1048156","0.0-18.1-0.1-1.30","null","<span style='color:red; font-size: 70px;'>错误! </span>","null","","","","","","","","","","","","","","","","","","","","","","","feedback_test",""
"","","","","","psychophysics","325","1049890","0.0-18.1-0.1-0.31","721","","d","","","","","","","","","","","","","key","d","21.45908749999944","720","446","d","true","img/H_28.png","生人","prac_stranger","","生人"
"","","","","","html-keyboard-response","326","1050196","0.0-18.1-0.1-1.31","null","<span style='color:GreenYellow; font-size: 70px;'>正确! </span>","null","","","","","","","","","","","","","","","","","","","","","","","feedback_test",""
"","","","","","psychophysics","327","1052024","0.0-18.1-0.1-0.32","826","","j","","","","","","","","","","","","","key","j","20.67809195402239","720","446","k","false","img/S_28.png","朋友","prac_stranger","","朋友"
"","","","","","html-keyboard-response","328","1052345","0.0-18.1-0.1-1.32","null","<span style='color:red; font-size: 70px;'>错误! </span>","null","","","","","","","","","","","","","","","","","","","","","","","feedback_test",""
"","","","","","psychophysics","329","1054494","0.0-18.1-0.1-0.33","1146","","j","","","","","","","","","","","","","key","j","21.425846938775585","720","446","j","true","img/C_28.png","生人","prac_stranger","","自我"
"","","","","","html-keyboard-response","330","1054812","0.0-18.1-0.1-1.33","null","<span style='color:GreenYellow; font-size: 70px;'>正确! </span>","null","","","","","","","","","","","","","","","","","","","","","","","feedback_test",""
"","","","","","psychophysics","331","1056546","0.0-18.1-0.1-0.34","732","","k","","","","","","","","","","","","","key","k","20.985333333335195","720","446","k","true","img/C_28.png","自我","prac_stranger","","自我"
"","","","","","html-keyboard-response","332","1056850","0.0-18.1-0.1-1.34","null","<span style='color:GreenYellow; font-size: 70px;'>正确! </span>","null","","","","","","","","","","","","","","","","","","","","","","","feedback_test",""
"","","","","","psychophysics","333","1058960","0.0-18.1-0.1-0.35","1100","","j","","","","","","","","","","","","","key","j","21.52698958333349","720","446","f","false","img/H_28.png","朋友","prac_stranger","","生人"
"","","","","","html-keyboard-response","334","1059271","0.0-18.1-0.1-1.35","null","<span style='color:red; font-size: 70px;'>错误! </span>","null","","","","","","","","","","","","","","","","","","","","","","","feedback_test",""
"","","","","","psychophysics","335","1061106","0.0-18.1-0.1-0.36","827","","f","","","","","","","","","","","","","key","f","21.42388095238268","720","446","f","true","img/H_28.png","朋友","prac_stranger","","生人"
"","","","","","html-keyboard-response","336","1061409","0.0-18.1-0.1-1.36","null","<span style='color:GreenYellow; font-size: 70px;'>正确! </span>","null","","","","","","","","","","","","","","","","","","","","","","","feedback_test",""
"","","","","","psychophysics","337","1063324","0.0-18.1-0.1-0.37","898","","j","","","","","","","","","","","","","key","j","21.646367816091246","720","446","j","true","img/C_28.png","生人","prac_stranger","","自我"
"","","","","","html-keyboard-response","338","1063638","0.0-18.1-0.1-1.37","null","<span style='color:GreenYellow; font-size: 70px;'>正确! </span>","null","","","","","","","","","","","","","","","","","","","","","","","feedback_test",""
"","","","","","psychophysics","339","1065752","0.0-18.1-0.1-0.38","1112","","d","","","","","","","","","","","","","key","d","21.872145833333587","720","446","d","true","img/H_28.png","生人","prac_stranger","","生人"
"","","","","","html-keyboard-response","340","1066063","0.0-18.1-0.1-1.38","null","<span style='color:GreenYellow; font-size: 70px;'>正确! </span>","null","","","","","","","","","","","","","","","","","","","","","","","feedback_test",""
"","","","","","psychophysics","341","1067969","0.0-18.1-0.1-0.39","892","","k","","","","","","","","","","","","","key","k","21.448735632184338","720","446","k","true","img/C_28.png","自我","prac_stranger","","自我"
"","","","","","html-keyboard-response","342","1068284","0.0-18.1-0.1-1.39","null","<span style='color:GreenYellow; font-size: 70px;'>正确! </span>","null","","","","","","","","","","","","","","","","","","","","","","","feedback_test",""
"","","","","","psychophysics","343","1070153","0.0-18.1-0.1-0.40","862","","j","","","","","","","","","","","","","key","j","20.552822222224332","720","446","j","true","img/S_28.png","自我","prac_stranger","","朋友"
"","","","","","html-keyboard-response","344","1070467","0.0-18.1-0.1-1.40","null","<span style='color:GreenYellow; font-size: 70px;'>正确! </span>","null","","","","","","","","","","","","","","","","","","","","","","","feedback_test",""
"","","","","","psychophysics","345","1072799","0.0-18.1-0.1-0.41","1323","","d","","","","","","","","","","","","","key","d","21.85162264150831","720","446","d","true","img/H_28.png","生人","prac_stranger","","生人"
"","","","","","html-keyboard-response","346","1073113","0.0-18.1-0.1-1.41","null","<span style='color:GreenYellow; font-size: 70px;'>正确! </span>","null","","","","","","","","","","","","","","","","","","","","","","","feedback_test",""
"","","","","","psychophysics","347","1074925","0.0-18.1-0.1-0.42","801","","k","","","","","","","","","","","","","key","k","21.482807228916762","720","446","k","true","img/C_28.png","自我","prac_stranger","","自我"
"","","","","","html-keyboard-response","348","1075235","0.0-18.1-0.1-1.42","null","<span style='color:GreenYellow; font-size: 70px;'>正确! </span>","null","","","","","","","","","","","","","","","","","","","","","","","feedback_test",""
"","","","","","psychophysics","349","1077010","0.0-18.1-0.1-0.43","774","","j","","","","","","","","","","","","","key","j","21.334292682926964","720","446","k","false","img/S_28.png","朋友","prac_stranger","","朋友"
"","","","","","html-keyboard-response","350","1077324","0.0-18.1-0.1-1.43","null","<span style='color:red; font-size: 70px;'>错误! </span>","null","","","","","","","","","","","","","","","","","","","","","","","feedback_test",""
"","","","","","psychophysics","351","1079776","0.0-18.1-0.1-0.44","1451","","f","","","","","","","","","","","","","key","f","21.383592920353124","720","446","f","true","img/H_28.png","自我","prac_stranger","","生人"
"","","","","","html-keyboard-response","352","1080084","0.0-18.1-0.1-1.44","null","<span style='color:GreenYellow; font-size: 70px;'>正确! </span>","null","","","","","","","","","","","","","","","","","","","","","","","feedback_test",""
"","","","","","psychophysics","353","1082139","0.0-18.1-0.1-0.45","1050","","k","","","","","","","","","","","","","key","k","22.098771739131063","720","446","k","true","img/S_28.png","朋友","prac_stranger","","朋友"
"","","","","","html-keyboard-response","354","1082455","0.0-18.1-0.1-1.45","null","<span style='color:GreenYellow; font-size: 70px;'>正确! </span>","null","","","","","","","","","","","","","","","","","","","","","","","feedback_test",""
"","","","","","psychophysics","355","1084457","0.0-18.1-0.1-0.46","999","","j","","","","","","","","","","","","","key","j","21.374358695650816","720","446","j","true","img/C_28.png","朋友","prac_stranger","","自我"
"","","","","","html-keyboard-response","356","1084766","0.0-18.1-0.1-1.46","null","<span style='color:GreenYellow; font-size: 70px;'>正确! </span>","null","","","","","","","","","","","","","","","","","","","","","","","feedback_test",""
"","","","","","psychophysics","357","1086981","0.0-18.1-0.1-0.47","1210","","f","","","","","","","","","","","","","key","f","21.829520000000485","720","446","j","false","img/S_28.png","生人","prac_stranger","","朋友"
"","","","","","html-keyboard-response","358","1087295","0.0-18.1-0.1-1.47","null","<span style='color:red; font-size: 70px;'>错误! </span>","null","","","","","","","","","","","","","","","","","","","","","","","feedback_test",""
"","","","","","html-keyboard-response","359","1153684","0.0-19.0","66388","[""<style>.context{color:white; font-size: 35px; line-height:40px}</style>                                     <div><p class='context'>您正确回答了75% 的试次。</p><p class='context'>您的平均反应时为1010毫秒。</p><p class='context'>恭喜您完成练习。您可以在此时休息一段时间，准备好后按任意键进入正式实验。</p><p class='footer' style='font-size: 35px; line-height:40px;'>请在进入正式实验实验之前将您的<span style='color: lightgreen;'>食指和中指</span>放在电脑键盘的相应键位上，做好按键准备。</p>""]","j","","","","","","","","","","","","","","","","","","","","","","","",""
"","","","","","html-keyboard-response","360","1172078","0.0-20.0-0.0-0.0","18391","
                 <p>请您将食指和中指放在相应按键上，准备进入<span style='color: yellow;'>重点图形为“自我”对应图形</span>的正式匹配任务</p>
                 <p> <div style = ""color: green""><按任意键开始></div></p>
                 ","f","","","","","","","","","","","","","","","","","","","","","","","",""
"","","","","","psychophysics","361","1174549","0.0-20.0-0.0-1.0-0.0-0.0","1454","","j","","","","","","","","","","","","","key","j","21.12012931034531","720","446","j","true","img/S_28.png","生人","self","","朋友"
"","","","","","html-keyboard-response","362","1174855","0.0-20.0-0.0-1.0-0.0-1.0","null","<span style='color:GreenYellow; font-size: 70px;'>正确! </span>","null","","","","","","","","","","","","","","","","","","","","","","","feedback_test",""
"","","","","","psychophysics","363","1177233","0.0-20.0-0.0-1.0-0.0-0.1","1377","","f","","","","","","","","","","","","","key","f","21.949644859812754","720","446","j","false","img/H_28.png","自我","self","","生人"
"","","","","","html-keyboard-response","364","1177542","0.0-20.0-0.0-1.0-0.0-1.1","null","<span style='color:red; font-size: 70px;'>错误! </span>","null","","","","","","","","","","","","","","","","","","","","","","","feedback_test",""
"","","","","","psychophysics","365","1179661","0.0-20.0-0.0-1.0-0.0-0.2","1118","","k","","","","","","","","","","","","","key","k","21.206696969696857","720","446","k","true","img/H_28.png","生人","self","","生人"
"","","","","","html-keyboard-response","366","1179974","0.0-20.0-0.0-1.0-0.0-1.2","null","<span style='color:GreenYellow; font-size: 70px;'>正确! </span>","null","","","","","","","","","","","","","","","","","","","","","","","feedback_test",""
"","","","","","psychophysics","367","1181813","0.0-20.0-0.0-1.0-0.0-0.3","838","","f","","","","","","","","","","","","","key","f","21.949682926830107","720","446","f","true","img/C_28.png","生人","self","","自我"
"","","","","","html-keyboard-response","368","1182122","0.0-20.0-0.0-1.0-0.0-1.3","null","<span style='color:GreenYellow; font-size: 70px;'>正确! </span>","null","","","","","","","","","","","","","","","","","","","","","","","feedback_test",""
"","","","","","psychophysics","369","1184168","0.0-20.0-0.0-1.0-0.0-0.4","1044","","k","","","","","","","","","","","","","key","k","21.052821052630776","720","446","k","true","img/S_28.png","朋友","self","","朋友"
"","","","","","html-keyboard-response","370","1184481","0.0-20.0-0.0-1.0-0.0-1.4","null","<span style='color:GreenYellow; font-size: 70px;'>正确! </span>","null","","","","","","","","","","","","","","","","","","","","","","","feedback_test",""
"","","","","","psychophysics","371","1186384","0.0-20.0-0.0-1.0-0.0-0.5","889","","d","","","","","","","","","","","","","key","d","21.645022988504056","720","446","d","true","img/C_28.png","自我","self","","自我"
"","","","","","html-keyboard-response","372","1186692","0.0-20.0-0.0-1.0-0.0-1.5","null","<span style='color:GreenYellow; font-size: 70px;'>正确! </span>","null","","","","","","","","","","","","","","","","","","","","","","","feedback_test",""
"","","","","","psychophysics","373","1188837","0.0-20.0-0.0-1.0-0.0-0.6","1144","","j","","","","","","","","","","","","","key","j","21.19736363636471","720","446","j","true","img/S_28.png","自我","self","","朋友"
"","","","","","html-keyboard-response","374","1189142","0.0-20.0-0.0-1.0-0.0-1.6","null","<span style='color:GreenYellow; font-size: 70px;'>正确! </span>","null","","","","","","","","","","","","","","","","","","","","","","","feedback_test",""
"","","","","","psychophysics","375","1191512","0.0-20.0-0.0-1.0-0.0-0.7","1359","","j","","","","","","","","","","","","","key","j","21.020666666666617","720","446","j","true","img/H_28.png","朋友","self","","生人"
"","","","","","html-keyboard-response","376","1191826","0.0-20.0-0.0-1.0-0.0-1.7","null","<span style='color:GreenYellow; font-size: 70px;'>正确! </span>","null","","","","","","","","","","","","","","","","","","","","","","","feedback_test",""
"","","","","","psychophysics","377","1193744","0.0-20.0-0.0-1.0-0.0-0.8","917","","k","","","","","","","","","","","","","key","k","21.109166666666148","720","446","k","true","img/S_28.png","朋友","self","","朋友"
"","","","","","html-keyboard-response","378","1194048","0.0-20.0-0.0-1.0-0.0-1.8","null","<span style='color:GreenYellow; font-size: 70px;'>正确! </span>","null","","","","","","","","","","","","","","","","","","","","","","","feedback_test",""
"","","","","","psychophysics","379","1195886","0.0-20.0-0.0-1.0-0.0-0.9","833","","j","","","","","","","","","","","","","key","j","21.370035294117407","720","446","f","false","img/C_28.png","朋友","self","","自我"
"","","","","","html-keyboard-response","380","1196202","0.0-20.0-0.0-1.0-0.0-1.9","null","<span style='color:red; font-size: 70px;'>错误! </span>","null","","","","","","","","","","","","","","","","","","","","","","","feedback_test",""
"","","","","","psychophysics","381","1198121","0.0-20.0-0.0-1.0-0.0-0.10","917","","k","","","","","","","","","","","","","key","k","20.683637362638756","720","446","k","true","img/H_28.png","生人","self","","生人"
"","","","","","html-keyboard-response","382","1198435","0.0-20.0-0.0-1.0-0.0-1.10","null","<span style='color:GreenYellow; font-size: 70px;'>正确! </span>","null","","","","","","","","","","","","","","","","","","","","","","","feedback_test",""
"","","","","","psychophysics","383","1200166","0.0-20.0-0.0-1.0-0.0-0.11","716","","d","","","","","","","","","","","","","key","d","21.580846153844433","720","446","d","true","img/C_28.png","自我","self","","自我"
"","","","","","html-keyboard-response","384","1200478","0.0-20.0-0.0-1.0-0.0-1.11","null","<span style='color:GreenYellow; font-size: 70px;'>正确! </span>","null","","","","","","","","","","","","","","","","","","","","","","","feedback_test",""
"","","","","","psychophysics","385","1202462","0.0-20.0-0.0-1.0-0.0-0.12","978","","j","","","","","","","","","","","","","key","j","21.849666666666355","720","446","j","true","img/H_28.png","朋友","self","","生人"
"","","","","","html-keyboard-response","386","1202773","0.0-20.0-0.0-1.0-0.0-1.12","null","<span style='color:GreenYellow; font-size: 70px;'>正确! </span>","null","","","","","","","","","","","","","","","","","","","","","","","feedback_test",""
"","","","","","psychophysics","387","1204931","0.0-20.0-0.0-1.0-0.0-0.13","1156","","j","","","","","","","","","","","","","key","j","21.75824489796116","720","446","j","true","img/S_28.png","自我","self","","朋友"
"","","","","","html-keyboard-response","388","1205242","0.0-20.0-0.0-1.0-0.0-1.13","null","<span style='color:GreenYellow; font-size: 70px;'>正确! </span>","null","","","","","","","","","","","","","","","","","","","","","","","feedback_test",""
"","","","","","psychophysics","389","1207122","0.0-20.0-0.0-1.0-0.0-0.14","872","","k","","","","","","","","","","","","","key","k","21.20859090909256","720","446","k","true","img/H_28.png","生人","self","","生人"
"","","","","","html-keyboard-response","390","1207438","0.0-20.0-0.0-1.0-0.0-1.14","null","<span style='color:GreenYellow; font-size: 70px;'>正确! </span>","null","","","","","","","","","","","","","","","","","","","","","","","feedback_test",""
"","","","","","psychophysics","391","1209196","0.0-20.0-0.0-1.0-0.0-0.15","750","","d","","","","","","","","","","","","","key","d","21.399802469133895","720","446","d","true","img/C_28.png","自我","self","","自我"
"","","","","","html-keyboard-response","392","1209511","0.0-20.0-0.0-1.0-0.0-1.15","null","<span style='color:GreenYellow; font-size: 70px;'>正确! </span>","null","","","","","","","","","","","","","","","","","","","","","","","feedback_test",""
"","","","","","psychophysics","393","1211464","0.0-20.0-0.0-1.0-0.0-0.16","942","","k","","","","","","","","","","","","","key","k","21.24315384615489","720","446","j","false","img/S_28.png","生人","self","","朋友"
"","","","","","html-keyboard-response","394","1211771","0.0-20.0-0.0-1.0-0.0-1.16","null","<span style='color:red; font-size: 70px;'>错误! </span>","null","","","","","","","","","","","","","","","","","","","","","","","feedback_test",""
"","","","","","psychophysics","395","1213824","0.0-20.0-0.0-1.0-0.0-0.17","1051","","k","","","","","","","","","","","","","key","k","21.401305263156168","720","446","k","true","img/H_28.png","生人","self","","生人"
"","","","","","html-keyboard-response","396","1214128","0.0-20.0-0.0-1.0-0.0-1.17","null","<span style='color:GreenYellow; font-size: 70px;'>正确! </span>","null","","","","","","","","","","","","","","","","","","","","","","","feedback_test",""
"","","","","","psychophysics","397","1215994","0.0-20.0-0.0-1.0-0.0-0.18","862","","j","","","","","","","","","","","","","key","j","21.315197674419494","720","446","f","false","img/C_28.png","生人","self","","自我"
"","","","","","html-keyboard-response","398","1216307","0.0-20.0-0.0-1.0-0.0-1.18","null","<span style='color:red; font-size: 70px;'>错误! </span>","null","","","","","","","","","","","","","","","","","","","","","","","feedback_test",""
"","","","","","psychophysics","399","1218230","0.0-20.0-0.0-1.0-0.0-0.19","915","","k","","","","","","","","","","","","","key","k","21.11026666666795","720","446","k","true","img/S_28.png","朋友","self","","朋友"
"","","","","","html-keyboard-response","400","1218539","0.0-20.0-0.0-1.0-0.0-1.19","null","<span style='color:GreenYellow; font-size: 70px;'>正确! </span>","null","","","","","","","","","","","","","","","","","","","","","","","feedback_test",""
"","","","","","psychophysics","401","1220463","0.0-20.0-0.0-1.0-0.0-0.20","923","","k","","","","","","","","","","","","","key","k","21.34655056179637","720","446","k","true","img/S_28.png","朋友","self","","朋友"
"","","","","","html-keyboard-response","402","1220783","0.0-20.0-0.0-1.0-0.0-1.20","null","<span style='color:GreenYellow; font-size: 70px;'>正确! </span>","null","","","","","","","","","","","","","","","","","","","","","","","feedback_test",""
"","","","","","psychophysics","403","1222586","0.0-20.0-0.0-1.0-0.0-0.21","789","","d","","","","","","","","","","","","","key","d","21.74541463414718","720","446","d","true","img/C_28.png","自我","self","","自我"
"","","","","","html-keyboard-response","404","1222890","0.0-20.0-0.0-1.0-0.0-1.21","null","<span style='color:GreenYellow; font-size: 70px;'>正确! </span>","null","","","","","","","","","","","","","","","","","","","","","","","feedback_test",""
"","","","","","psychophysics","405","1224922","0.0-20.0-0.0-1.0-0.0-0.22","1031","","j","","","","","","","","","","","","","key","j","21.6827849462373","720","446","j","true","img/H_28.png","自我","self","","生人"
"","","","","","html-keyboard-response","406","1225230","0.0-20.0-0.0-1.0-0.0-1.22","null","<span style='color:GreenYellow; font-size: 70px;'>正确! </span>","null","","","","","","","","","","","","","","","","","","","","","","","feedback_test",""
"","","","","","psychophysics","407","1226947","0.0-20.0-0.0-1.0-0.0-0.23","707","","f","","","","","","","","","","","","","key","f","20.77850617284105","720","446","f","true","img/C_28.png","朋友","self","","自我"
"","","","","","html-keyboard-response","408","1227255","0.0-20.0-0.0-1.0-0.0-1.23","null","<span style='color:GreenYellow; font-size: 70px;'>正确! </span>","null","","","","","","","","","","","","","","","","","","","","","","","feedback_test",""
"","","","","","psychophysics","409","1228903","0.0-20.0-0.0-1.0-0.0-0.24","639","","f","","","","","","","","","","","","","key","f","20.979636363633727","720","446","f","true","img/C_28.png","生人","self","","自我"
"","","","","","html-keyboard-response","410","1229221","0.0-20.0-0.0-1.0-0.0-1.24","null","<span style='color:GreenYellow; font-size: 70px;'>正确! </span>","null","","","","","","","","","","","","","","","","","","","","","","","feedback_test",""
"","","","","","psychophysics","411","1231301","0.0-20.0-0.0-1.0-0.0-0.25","1078","","k","","","","","","","","","","","","","key","k","21.35280208333279","720","446","k","true","img/S_28.png","朋友","self","","朋友"
"","","","","","html-keyboard-response","412","1231616","0.0-20.0-0.0-1.0-0.0-1.25","null","<span style='color:GreenYellow; font-size: 70px;'>正确! </span>","null","","","","","","","","","","","","","","","","","","","","","","","feedback_test",""
"","","","","","psychophysics","413","1233833","0.0-20.0-0.0-1.0-0.0-0.26","1216","","j","","","","","","","","","","","","","key","j","21.983929999999237","720","446","f","false","img/C_28.png","朋友","self","","自我"
"","","","","","html-keyboard-response","414","1234136","0.0-20.0-0.0-1.0-0.0-1.26","null","<span style='color:red; font-size: 70px;'>错误! </span>","null","","","","","","","","","","","","","","","","","","","","","","","feedback_test",""
"","","","","","psychophysics","415","1236366","0.0-20.0-0.0-1.0-0.0-0.27","1220","","j","","","","","","","","","","","","","key","j","21.356135922328125","720","446","j","true","img/H_28.png","朋友","self","","生人"
"","","","","","html-keyboard-response","416","1236667","0.0-20.0-0.0-1.0-0.0-1.27","null","<span style='color:GreenYellow; font-size: 70px;'>正确! </span>","null","","","","","","","","","","","","","","","","","","","","","","","feedback_test",""
"","","","","","psychophysics","417","1238785","0.0-20.0-0.0-1.0-0.0-0.28","1115","","k","","","","","","","","","","","","","key","k","21.20750505050569","720","446","k","true","img/H_28.png","生人","self","","生人"
"","","","","","html-keyboard-response","418","1239102","0.0-20.0-0.0-1.0-0.0-1.28","null","<span style='color:GreenYellow; font-size: 70px;'>正确! </span>","null","","","","","","","","","","","","","","","","","","","","","","","feedback_test",""
"","","","","","psychophysics","419","1241103","0.0-20.0-0.0-1.0-0.0-0.29","988","","d","","","","","","","","","","","","","key","d","21.555989130435552","720","446","d","true","img/C_28.png","自我","self","","自我"
"","","","","","html-keyboard-response","420","1241413","0.0-20.0-0.0-1.0-0.0-1.29","null","<span style='color:GreenYellow; font-size: 70px;'>正确! </span>","null","","","","","","","","","","","","","","","","","","","","","","","feedback_test",""
"","","","","","psychophysics","421","1243350","0.0-20.0-0.0-1.0-0.0-0.30","924","","k","","","","","","","","","","","","","key","k","21.29318888888746","720","446","k","true","img/S_28.png","朋友","self","","朋友"
"","","","","","html-keyboard-response","422","1243660","0.0-20.0-0.0-1.0-0.0-1.30","null","<span style='color:GreenYellow; font-size: 70px;'>正确! </span>","null","","","","","","","","","","","","","","","","","","","","","","","feedback_test",""
