"success","timeout","failed_images","failed_audio","failed_video","trial_type","trial_index","time_elapsed","internal_node_id","rt","stimulus","response","value","item_width_mm","item_height_mm","item_width_px","px2mm","view_dist_mm","item_width_deg","px2deg","scale_factor","win_width_deg","win_height_deg","view_history","response_type","key_press","avg_frame_time","center_x","center_y","correct_response","correct","Image","text","condition","screen_id","label"
"true","false","[]","[]","[]","preload","0","10856","0.0-0.0","","","","","","","","","","","","","","","","","","","","","","","","","","",""
"","","","","","html-keyboard-response","1","91862","0.0-1.0","81004","
  <p>您好，欢迎参加本次实验。</p>
  <p>为充分保障您的权利，请确保您已经知晓并同意《参与实验同意书》以及《数据公开知情同意书》。</p>
  <p>如果您未见过上述内容，请咨询实验员。</p>
  <p>如果您选择继续实验，则表示您已经清楚两份知情同意书的内容并同意。</p>
  <p> <div style = ""color: green""><按任意键至下页></div> </p>
  "," ","","","","","","","","","","","","","","","","","","","","","","","",""
"","","","","","html-keyboard-response","2","94531","0.0-2.0","2669","
  <p>本实验首先需要您填写一些基本个人信息。</p>
  <p> <div style = ""color: green""><按任意键至下页></div></p>
  "," ","","","","","","","","","","","","","","","","","","","","","","","",""
"","","","","","call-function","3","94532","0.0-3.0-0.0","","","","","","","","","","","","","","","","","","","","","","","","","","",""
"","","","","","survey-html-form","4","103124","0.0-3.0-1.0","8590","","{""Q0"":""45""}","","","","","","","","","","","","","","","","","","","","","","","",""
"","","","","","html-button-response","5","104513","0.0-3.0-2.0","1388","<p style = 'color : white'>您的性别</p>","1","","","","","","","","","","","","","","","","","","","","","","","",""
"","","","","","survey-html-form","6","110346","0.0-3.0-3.0","5831","","{""Q0"":""2002""}","","","","","","","","","","","","","","","","","","","","","","","",""
"","","","","","survey-html-form","7","113475","0.0-3.0-4.0","3126","","{""Q0"":""5""}","","","","","","","","","","","","","","","","","","","","","","","",""
"","","","","","virtual-chinrest","8","234661","0.0-4.0","121185","","","","85.6","53.98","452.2323360193089","5.283734946348048","541.13","9.044646720386178","50","0.866811080893744","30.72","14.62","","","","","","","","","","","","",""
"true","","","","","fullscreen","9","240111","0.0-5.0","","","","","","","","","","","","","","","","","","","","","","","","","","",""
"","","","","","instructions","10","390113","0.0-6.0","150001","","","","","","","","","","","","","","[{""page_index"":0,""viewing_time"":9078},{""page_index"":1,""viewing_time"":31323},{""page_index"":2,""viewing_time"":99809},{""page_index"":3,""viewing_time"":2815},{""page_index"":4,""viewing_time"":6976}]","","","","","","","","","","","",""
"","","","","","instructions","11","431076","0.0-7.0","40964","","","","","","","","","","","","","","[{""page_index"":0,""viewing_time"":40964}]","","","","","","","","","","","",""
"","","","","","psychophysics","12","433853","0.0-8.0-0.0-0.0","1755","","f","","","","","","","","","","","","","key","f","8.332469879518086","768","428","d","false","img/S_28.png","朋友","freeprac_self","",""
"","","","","","html-keyboard-response","13","434156","0.0-8.0-0.0-1.0","null","<span style='color:red; font-size: 70px;'>错误! </span>","null","","","","","","","","","","","","","","","","","","","","","","","feedback_test",""
"","","","","","psychophysics","14","436628","0.0-8.0-0.0-0.1","1469","","k","","","","","","","","","","","","","key","k","8.33186440677974","768","428","k","true","img/C_28.png","朋友","freeprac_self","",""
"","","","","","html-keyboard-response","15","436932","0.0-8.0-0.0-1.1","null","<span style='color:GreenYellow; font-size: 70px;'>正确! </span>","null","","","","","","","","","","","","","","","","","","","","","","","feedback_test",""
"","","","","","psychophysics","16","438812","0.0-8.0-0.0-0.2","877","","k","","","","","","","","","","","","","key","k","8.333750000000041","768","428","k","true","img/H_28.png","自我","freeprac_self","",""
"","","","","","html-keyboard-response","17","439115","0.0-8.0-0.0-1.2","null","<span style='color:GreenYellow; font-size: 70px;'>正确! </span>","null","","","","","","","","","","","","","","","","","","","","","","","feedback_test",""
"","","","","","psychophysics","18","441726","0.0-8.0-0.0-0.3","1544","","f","","","","","","","","","","","","","key","f","8.331410256410331","768","428","j","false","img/C_28.png","生人","freeprac_self","",""
"","","","","","html-keyboard-response","19","442040","0.0-8.0-0.0-1.3","null","<span style='color:red; font-size: 70px;'>错误! </span>","null","","","","","","","","","","","","","","","","","","","","","","","feedback_test",""
"","","","","","psychophysics","20","444229","0.0-8.0-0.0-0.4","1184","","k","","","","","","","","","","","","","key","k","8.332337164750923","768","428","k","true","img/C_28.png","自我","freeprac_self","",""
"","","","","","html-keyboard-response","21","444537","0.0-8.0-0.0-1.4","null","<span style='color:GreenYellow; font-size: 70px;'>正确! </span>","null","","","","","","","","","","","","","","","","","","","","","","","feedback_test",""
"","","","","","psychophysics","22","446396","0.0-8.0-0.0-0.5","858","","f","","","","","","","","","","","","","key","f","8.330900900900994","768","428","f","true","img/S_28.png","自我","freeprac_self","",""
"","","","","","html-keyboard-response","23","446709","0.0-8.0-0.0-1.5","null","<span style='color:GreenYellow; font-size: 70px;'>正确! </span>","null","","","","","","","","","","","","","","","","","","","","","","","feedback_test",""
"","","","","","psychophysics","24","448644","0.0-8.0-0.0-0.6","934","","j","","","","","","","","","","","","","key","j","8.32909090909099","768","428","j","true","img/C_28.png","生人","freeprac_self","",""
"","","","","","html-keyboard-response","25","448945","0.0-8.0-0.0-1.6","null","<span style='color:GreenYellow; font-size: 70px;'>正确! </span>","null","","","","","","","","","","","","","","","","","","","","","","","feedback_test",""
"","","","","","psychophysics","26","450624","0.0-8.0-0.0-0.7","668","","f","","","","","","","","","","","","","key","f","8.331900000000024","768","428","f","true","img/S_28.png","自我","freeprac_self","",""
"","","","","","html-keyboard-response","27","450940","0.0-8.0-0.0-1.7","null","<span style='color:GreenYellow; font-size: 70px;'>正确! </span>","null","","","","","","","","","","","","","","","","","","","","","","","feedback_test",""
"","","","","","psychophysics","28","452660","0.0-8.0-0.0-0.8","708","","k","","","","","","","","","","","","","key","k","8.332390243902507","768","428","k","true","img/H_28.png","生人","freeprac_self","",""
"","","","","","html-keyboard-response","29","452972","0.0-8.0-0.0-1.8","null","<span style='color:GreenYellow; font-size: 70px;'>正确! </span>","null","","","","","","","","","","","","","","","","","","","","","","","feedback_test",""
"","","","","","psychophysics","30","454838","0.0-8.0-0.0-0.9","861","","f","","","","","","","","","","","","","key","f","8.332556053811544","768","428","j","false","img/H_28.png","朋友","freeprac_self","",""
"","","","","","html-keyboard-response","31","455145","0.0-8.0-0.0-1.9","null","<span style='color:red; font-size: 70px;'>错误! </span>","null","","","","","","","","","","","","","","","","","","","","","","","feedback_test",""
"","","","","","psychophysics","32","457094","0.0-8.0-0.0-0.10","942","","j","","","","","","","","","","","","","key","j","8.333362068965627","768","428","j","true","img/H_28.png","朋友","freeprac_self","",""
"","","","","","html-keyboard-response","33","457396","0.0-8.0-0.0-1.10","null","<span style='color:GreenYellow; font-size: 70px;'>正确! </span>","null","","","","","","","","","","","","","","","","","","","","","","","feedback_test",""
"","","","","","psychophysics","34","459421","0.0-8.0-0.0-0.11","1002","","d","","","","","","","","","","","","","key","d","8.348347107437968","768","428","d","true","img/S_28.png","生人","freeprac_self","",""
"","","","","","html-keyboard-response","35","459736","0.0-8.0-0.0-1.11","null","<span style='color:GreenYellow; font-size: 70px;'>正确! </span>","null","","","","","","","","","","","","","","","","","","","","","","","feedback_test",""
"","","","","","html-keyboard-response","36","475229","0.0-9.0","15492","[""<style>.context{color:white; font-size: 35px; line-height:40px}</style>           <div><p class='context'>您正确回答了75% 的试次。</p><p class='context'>您的平均反应时为960毫秒。</p><p class='context'>恭喜您完成这一阶段的练习。按任意键进入<span style='color: yellow;'>重点关注图形为“朋友”</span>的练习。</p></div><p class='footer' style='font-size:35px; line-height:30px;'>任务要求：\n           <p class='footer' style='font-size:35px; line-height:35px;'>对于与“朋友”对应的图形：如果 匹配 ，请按 <span style=\""color: lightgreen;\"">f键</span></p><p class='footer' style='font-size:35px'>如果 不匹配 ，请按<span style=\""color: lightgreen;\"">d键</p></span>\n           <p class='footer' style='font-size:35px; line-height:35px;'>对于非“朋友”对应的图形：如果 匹配 ，请按 <span style=\""color: lightgreen;\"">j键</span></p><p class='footer' style='font-size:35px'>如果 不匹配 ，请按<span style=\""color: lightgreen;\"">k键</p></span>\n           <p class='footer' style='font-size:22px; line-height:25px;'>请在实验过程中将您的<span style=\""color: lightgreen;\"">食指和中指</span>放在电脑键盘的相应键位上进行按键。</p></span>""]"," ","","","","","","","","","","","","","","","","","","","","","","","",""
"","","","","","psychophysics","37","477181","0.0-10.0-0.0-0.0","945","","d","","","","","","","","","","","","","key","d","8.332961373390628","768","428","d","true","img/H_28.png","生人","freeprac_friend","",""
"","","","","","html-keyboard-response","38","477487","0.0-10.0-0.0-1.0","null","<span style='color:GreenYellow; font-size: 70px;'>正确! </span>","null","","","","","","","","","","","","","","","","","","","","","","","feedback_test",""
"","","","","","psychophysics","39","479885","0.0-10.0-0.0-0.1","1396","","k","","","","","","","","","","","","","key","k","8.332682926829204","768","428","j","false","img/C_28.png","生人","freeprac_friend","",""
"","","","","","html-keyboard-response","40","480195","0.0-10.0-0.0-1.1","null","<span style='color:red; font-size: 70px;'>错误! </span>","null","","","","","","","","","","","","","","","","","","","","","","","feedback_test",""
"","","","","","psychophysics","41","482109","0.0-10.0-0.0-0.2","908","","f","","","","","","","","","","","","","key","f","8.33222707423588","768","428","f","true","img/H_28.png","朋友","freeprac_friend","",""
"","","","","","html-keyboard-response","42","482424","0.0-10.0-0.0-1.2","null","<span style='color:GreenYellow; font-size: 70px;'>正确! </span>","null","","","","","","","","","","","","","","","","","","","","","","","feedback_test",""
"","","","","","psychophysics","43","484471","0.0-10.0-0.0-0.3","1041","","k","","","","","","","","","","","","","key","k","8.332622950819806","768","428","k","true","img/C_28.png","自我","freeprac_friend","",""
"","","","","","html-keyboard-response","44","484786","0.0-10.0-0.0-1.3","null","<span style='color:GreenYellow; font-size: 70px;'>正确! </span>","null","","","","","","","","","","","","","","","","","","","","","","","feedback_test",""
"","","","","","psychophysics","45","486933","0.0-10.0-0.0-0.4","1143","","k","","","","","","","","","","","","","key","k","8.332187499999918","768","428","k","true","img/C_28.png","朋友","freeprac_friend","",""
"","","","","","html-keyboard-response","46","487237","0.0-10.0-0.0-1.4","null","<span style='color:GreenYellow; font-size: 70px;'>正确! </span>","null","","","","","","","","","","","","","","","","","","","","","","","feedback_test",""
"","","","","","psychophysics","47","489036","0.0-10.0-0.0-0.5","792","","f","","","","","","","","","","","","","key","f","8.332372093023354","768","428","j","false","img/S_28.png","自我","freeprac_friend","",""
"","","","","","html-keyboard-response","48","489344","0.0-10.0-0.0-1.5","null","<span style='color:red; font-size: 70px;'>错误! </span>","null","","","","","","","","","","","","","","","","","","","","","","","feedback_test",""
"","","","","","psychophysics","49","491486","0.0-10.0-0.0-0.6","1132","","j","","","","","","","","","","","","","key","j","8.331953125000155","768","428","d","false","img/H_28.png","自我","freeprac_friend","",""
"","","","","","html-keyboard-response","50","491786","0.0-10.0-0.0-1.6","null","<span style='color:red; font-size: 70px;'>错误! </span>","null","","","","","","","","","","","","","","","","","","","","","","","feedback_test",""
"","","","","","psychophysics","51","493436","0.0-10.0-0.0-0.7","634","","f","","","","","","","","","","","","","key","f","8.332346938775581","768","428","f","true","img/H_28.png","朋友","freeprac_friend","",""
"","","","","","html-keyboard-response","52","493743","0.0-10.0-0.0-1.7","null","<span style='color:GreenYellow; font-size: 70px;'>正确! </span>","null","","","","","","","","","","","","","","","","","","","","","","","feedback_test",""
"","","","","","psychophysics","53","495885","0.0-10.0-0.0-0.8","1136","","k","","","","","","","","","","","","","key","k","8.332392156862781","768","428","k","true","img/S_28.png","朋友","freeprac_friend","",""
"","","","","","html-keyboard-response","54","496187","0.0-10.0-0.0-1.8","null","<span style='color:GreenYellow; font-size: 70px;'>正确! </span>","null","","","","","","","","","","","","","","","","","","","","","","","feedback_test",""
"","","","","","psychophysics","55","498228","0.0-10.0-0.0-0.9","1026","","j","","","","","","","","","","","","","key","j","8.332839506172858","768","428","j","true","img/C_28.png","生人","freeprac_friend","",""
"","","","","","html-keyboard-response","56","498544","0.0-10.0-0.0-1.9","null","<span style='color:GreenYellow; font-size: 70px;'>正确! </span>","null","","","","","","","","","","","","","","","","","","","","","","","feedback_test",""
"","","","","","psychophysics","57","500710","0.0-10.0-0.0-0.10","1160","","j","","","","","","","","","","","","","key","j","8.332093023256013","768","428","j","true","img/S_28.png","自我","freeprac_friend","",""
"","","","","","html-keyboard-response","58","501017","0.0-10.0-0.0-1.10","null","<span style='color:GreenYellow; font-size: 70px;'>正确! </span>","null","","","","","","","","","","","","","","","","","","","","","","","feedback_test",""
"","","","","","psychophysics","59","503029","0.0-10.0-0.0-0.11","1008","","k","","","","","","","","","","","","","key","k","8.33199999999997","768","428","k","true","img/S_28.png","生人","freeprac_friend","",""
"","","","","","html-keyboard-response","60","503341","0.0-10.0-0.0-1.11","null","<span style='color:GreenYellow; font-size: 70px;'>正确! </span>","null","","","","","","","","","","","","","","","","","","","","","","","feedback_test",""
"","","","","","html-keyboard-response","61","511964","0.0-11.0","8621","[""<style>.context{color:white; font-size: 35px; line-height:40px}</style>               <div><p class='context'>您正确回答了75% 的试次。</p><p class='context'>您的平均反应时为1000毫秒。</p><p class='context'>恭喜您完成这一阶段的练习。按任意键进入<span style='color: yellow;'>重点关注图形为“生人”</span>的练习。</p></div><p class='footer' style='font-size:35px; line-height:30px;'>任务要求：\n               <p class='footer' style='font-size:35px; line-height:35px;'>对与“生人”对应的图形，如果 匹配 ，请按 <span style=\""color: lightgreen;\"">f键</span></p><p class='footer' style='font-size:35px'>如果 不匹配 ，请按<span style=\""color: lightgreen;\"">d键</p></span>\n               <p class='footer' style='font-size:35px; line-height:35px;'>对非“生人”对应的图形，如果 匹配 ，请按 <span style=\""color: lightgreen;\"">j键</span></p><p class='footer' style='font-size:35px'>如果 不匹配 ，请按<span style=\""color: lightgreen;\"">k键</p></span>\n               <p class='footer' style='font-size:22px; line-height:25px;'>请在实验过程中将您的<span style=\""color: lightgreen;\"">食指和中指</span>放在电脑键盘的相应键位上进行按键。</p></span>""]"," ","","","","","","","","","","","","","","","","","","","","","","","",""
"","","","","","psychophysics","62","514212","0.0-12.0-0.0-0.0","1241","","j","","","","","","","","","","","","","key","j","8.332416356877047","768","428","j","true","img/H_28.png","朋友","freeprac_stranger","",""
"","","","","","html-keyboard-response","63","514517","0.0-12.0-0.0-1.0","null","<span style='color:GreenYellow; font-size: 70px;'>正确! </span>","null","","","","","","","","","","","","","","","","","","","","","","","feedback_test",""
"","","","","","psychophysics","64","516613","0.0-12.0-0.0-0.1","1090","","j","","","","","","","","","","","","","key","j","8.332111553784804","768","428","k","false","img/S_28.png","朋友","freeprac_stranger","",""
"","","","","","html-keyboard-response","65","516926","0.0-12.0-0.0-1.1","null","<span style='color:red; font-size: 70px;'>错误! </span>","null","","","","","","","","","","","","","","","","","","","","","","","feedback_test",""
"","","","","","psychophysics","66","518942","0.0-12.0-0.0-0.2","1008","","k","","","","","","","","","","","","","key","k","8.332333333333372","768","428","k","true","img/S_28.png","生人","freeprac_stranger","",""
"","","","","","html-keyboard-response","67","519253","0.0-12.0-0.0-1.2","null","<span style='color:GreenYellow; font-size: 70px;'>正确! </span>","null","","","","","","","","","","","","","","","","","","","","","","","feedback_test",""
"","","","","","psychophysics","68","521159","0.0-12.0-0.0-0.3","892","","j","","","","","","","","","","","","","key","j","8.332422907488823","768","428","j","true","img/S_28.png","自我","freeprac_stranger","",""
"","","","","","html-keyboard-response","69","521470","0.0-12.0-0.0-1.3","null","<span style='color:GreenYellow; font-size: 70px;'>正确! </span>","null","","","","","","","","","","","","","","","","","","","","","","","feedback_test",""
"","","","","","psychophysics","70","523029","0.0-12.0-0.0-0.4","542","","f","","","","","","","","","","","","","key","f","8.332043010752738","768","428","f","true","img/C_28.png","生人","freeprac_stranger","",""
"","","","","","html-keyboard-response","71","523335","0.0-12.0-0.0-1.4","null","<span style='color:GreenYellow; font-size: 70px;'>正确! </span>","null","","","","","","","","","","","","","","","","","","","","","","","feedback_test",""
"","","","","","psychophysics","72","525076","0.0-12.0-0.0-0.5","727","","j","","","","","","","","","","","","","key","j","8.332463768116257","768","428","j","true","img/S_28.png","自我","freeprac_stranger","",""
"","","","","","html-keyboard-response","73","525389","0.0-12.0-0.0-1.5","null","<span style='color:GreenYellow; font-size: 70px;'>正确! </span>","null","","","","","","","","","","","","","","","","","","","","","","","feedback_test",""
"","","","","","psychophysics","74","527093","0.0-12.0-0.0-0.6","695","","k","","","","","","","","","","","","","key","k","8.332413793103356","768","428","k","true","img/H_28.png","生人","freeprac_stranger","",""
"","","","","","html-keyboard-response","75","527404","0.0-12.0-0.0-1.6","null","<span style='color:GreenYellow; font-size: 70px;'>正确! </span>","null","","","","","","","","","","","","","","","","","","","","","","","feedback_test",""
"","","","","","psychophysics","76","529131","0.0-12.0-0.0-0.7","726","","k","","","","","","","","","","","","","key","k","8.332330097087198","768","428","d","false","img/C_28.png","朋友","freeprac_stranger","",""
"","","","","","html-keyboard-response","77","529441","0.0-12.0-0.0-1.7","null","<span style='color:red; font-size: 70px;'>错误! </span>","null","","","","","","","","","","","","","","","","","","","","","","","feedback_test",""
"","","","","","psychophysics","78","531164","0.0-12.0-0.0-0.8","720","","j","","","","","","","","","","","","","key","j","8.332390243902507","768","428","j","true","img/H_28.png","朋友","freeprac_stranger","",""
"","","","","","html-keyboard-response","79","531464","0.0-12.0-0.0-1.8","null","<span style='color:GreenYellow; font-size: 70px;'>正确! </span>","null","","","","","","","","","","","","","","","","","","","","","","","feedback_test",""
"","","","","","psychophysics","80","533423","0.0-12.0-0.0-0.9","953","","j","","","","","","","","","","","","","key","j","8.332103004291865","768","428","f","false","img/C_28.png","生人","freeprac_stranger","",""
"","","","","","html-keyboard-response","81","533729","0.0-12.0-0.0-1.9","null","<span style='color:red; font-size: 70px;'>错误! </span>","null","","","","","","","","","","","","","","","","","","","","","","","feedback_test",""
"","","","","","psychophysics","82","535725","0.0-12.0-0.0-0.10","993","","d","","","","","","","","","","","","","key","d","8.33252100840342","768","428","d","true","img/C_28.png","自我","freeprac_stranger","",""
"","","","","","html-keyboard-response","83","536026","0.0-12.0-0.0-1.10","null","<span style='color:GreenYellow; font-size: 70px;'>正确! </span>","null","","","","","","","","","","","","","","","","","","","","","","","feedback_test",""
"","","","","","psychophysics","84","538061","0.0-12.0-0.0-0.11","1033","","k","","","","","","","","","","","","","key","k","8.330946502057786","768","428","k","true","img/H_28.png","自我","freeprac_stranger","",""
"","","","","","html-keyboard-response","85","538363","0.0-12.0-0.0-1.11","null","<span style='color:GreenYellow; font-size: 70px;'>正确! </span>","null","","","","","","","","","","","","","","","","","","","","","","","feedback_test",""
"","","","","","instructions","86","552409","0.0-13.0","14045","","","","","","","","","","","","","","[{""page_index"":0,""viewing_time"":14045}]","","","","","","","","","","","",""
"","","","","","psychophysics","87","554387","0.0-14.0-0.0-0.0","968","","k","","","","","","","","","","","","","key","k","8.33237288135619","768","428","k","true","img/H_28.png","自我","prac_self","","朋友"
"","","","","","html-keyboard-response","88","554693","0.0-14.0-0.0-1.0","null","<span style='color:GreenYellow; font-size: 70px;'>正确! </span>","null","","","","","","","","","","","","","","","","","","","","","","","feedback_test",""
"","","","","","psychophysics","89","556637","0.0-14.0-0.0-0.1","941","","k","","","","","","","","","","","","","key","k","8.330517241379532","768","428","k","true","img/C_28.png","朋友","prac_self","","生人"
"","","","","","html-keyboard-response","90","556948","0.0-14.0-0.0-1.1","null","<span style='color:GreenYellow; font-size: 70px;'>正确! </span>","null","","","","","","","","","","","","","","","","","","","","","","","feedback_test",""
"","","","","","psychophysics","91","559069","0.0-14.0-0.0-0.2","1110","","d","","","","","","","","","","","","","key","d","8.332411067194045","768","428","k","false","img/C_28.png","自我","prac_self","","生人"
"","","","","","html-keyboard-response","92","559384","0.0-14.0-0.0-1.2","null","<span style='color:red; font-size: 70px;'>错误! </span>","null","","","","","","","","","","","","","","","","","","","","","","","feedback_test",""
"","","","","","psychophysics","93","561093","0.0-14.0-0.0-0.3","615","","f","","","","","","","","","","","","","key","f","8.332512315270936","768","428","f","true","img/S_28.png","自我","prac_self","","自我"
"","","","","","html-keyboard-response","94","561406","0.0-14.0-0.0-1.3","null","<span style='color:GreenYellow; font-size: 70px;'>正确! </span>","null","","","","","","","","","","","","","","","","","","","","","","","feedback_test",""
"","","","","","psychophysics","95","563726","0.0-14.0-0.0-0.4","1240","","k","","","","","","","","","","","","","key","k","8.331696750902545","768","428","d","false","img/S_28.png","朋友","prac_self","","自我"
"","","","","","html-keyboard-response","96","564036","0.0-14.0-0.0-1.4","null","<span style='color:red; font-size: 70px;'>错误! </span>","null","","","","","","","","","","","","","","","","","","","","","","","feedback_test",""
"","","","","","psychophysics","97","565843","0.0-14.0-0.0-0.5","806","","f","","","","","","","","","","","","","key","f","8.331574074074053","768","428","f","true","img/S_28.png","自我","prac_self","","自我"
"","","","","","html-keyboard-response","98","566155","0.0-14.0-0.0-1.5","null","<span style='color:GreenYellow; font-size: 70px;'>正确! </span>","null","","","","","","","","","","","","","","","","","","","","","","","feedback_test",""
"","","","","","psychophysics","99","567828","0.0-14.0-0.0-0.6","671","","j","","","","","","","","","","","","","key","j","8.331758793969943","768","428","j","true","img/H_28.png","朋友","prac_self","","朋友"
"","","","","","html-keyboard-response","100","568132","0.0-14.0-0.0-1.6","null","<span style='color:GreenYellow; font-size: 70px;'>正确! </span>","null","","","","","","","","","","","","","","","","","","","","","","","feedback_test",""
"","","","","","psychophysics","101","569893","0.0-14.0-0.0-0.7","757","","k","","","","","","","","","","","","","key","k","8.332000000000422","768","428","k","true","img/H_28.png","生人","prac_self","","朋友"
"","","","","","html-keyboard-response","102","570204","0.0-14.0-0.0-1.7","null","<span style='color:GreenYellow; font-size: 70px;'>正确! </span>","null","","","","","","","","","","","","","","","","","","","","","","","feedback_test",""
"","","","","","psychophysics","103","572029","0.0-14.0-0.0-0.8","819","","j","","","","","","","","","","","","","key","j","8.332258064516022","768","428","j","true","img/H_28.png","朋友","prac_self","","朋友"
"","","","","","html-keyboard-response","104","572343","0.0-14.0-0.0-1.8","null","<span style='color:GreenYellow; font-size: 70px;'>正确! </span>","null","","","","","","","","","","","","","","","","","","","","","","","feedback_test",""
"","","","","","psychophysics","105","574709","0.0-14.0-0.0-0.9","1365","","j","","","","","","","","","","","","","key","j","8.331489361702062","768","428","j","true","img/C_28.png","生人","prac_self","","生人"
"","","","","","html-keyboard-response","106","575016","0.0-14.0-0.0-1.9","null","<span style='color:GreenYellow; font-size: 70px;'>正确! </span>","null","","","","","","","","","","","","","","","","","","","","","","","feedback_test",""
"","","","","","psychophysics","107","577221","0.0-14.0-0.0-0.10","1202","","d","","","","","","","","","","","","","key","d","8.332272727273063","768","428","d","true","img/S_28.png","生人","prac_self","","自我"
"","","","","","html-keyboard-response","108","577537","0.0-14.0-0.0-1.10","null","<span style='color:GreenYellow; font-size: 70px;'>正确! </span>","null","","","","","","","","","","","","","","","","","","","","","","","feedback_test",""
"","","","","","psychophysics","109","579420","0.0-14.0-0.0-0.11","867","","j","","","","","","","","","","","","","key","j","8.332088888888764","768","428","j","true","img/C_28.png","生人","prac_self","","生人"
"","","","","","html-keyboard-response","110","579722","0.0-14.0-0.0-1.11","null","<span style='color:GreenYellow; font-size: 70px;'>正确! </span>","null","","","","","","","","","","","","","","","","","","","","","","","feedback_test",""
"","","","","","psychophysics","111","581460","0.0-14.0-0.0-0.12","726","","j","","","","","","","","","","","","","key","j","8.33111111111129","768","428","j","true","img/H_28.png","朋友","prac_self","","朋友"
"","","","","","html-keyboard-response","112","581774","0.0-14.0-0.0-1.12","null","<span style='color:GreenYellow; font-size: 70px;'>正确! </span>","null","","","","","","","","","","","","","","","","","","","","","","","feedback_test",""
"","","","","","psychophysics","113","583613","0.0-14.0-0.0-0.13","832","","k","","","","","","","","","","","","","key","k","8.332090909091162","768","428","d","false","img/S_28.png","生人","prac_self","","自我"
"","","","","","html-keyboard-response","114","583918","0.0-14.0-0.0-1.13","null","<span style='color:red; font-size: 70px;'>错误! </span>","null","","","","","","","","","","","","","","","","","","","","","","","feedback_test",""
"","","","","","psychophysics","115","586116","0.0-14.0-0.0-0.14","1185","","k","","","","","","","","","","","","","key","k","8.332137404579779","768","428","k","true","img/C_28.png","朋友","prac_self","","生人"
"","","","","","html-keyboard-response","116","586417","0.0-14.0-0.0-1.14","null","<span style='color:GreenYellow; font-size: 70px;'>正确! </span>","null","","","","","","","","","","","","","","","","","","","","","","","feedback_test",""
"","","","","","psychophysics","117","588700","0.0-14.0-0.0-0.15","1280","","k","","","","","","","","","","","","","key","k","8.332279411764723","768","428","k","true","img/C_28.png","自我","prac_self","","生人"
"","","","","","html-keyboard-response","118","589003","0.0-14.0-0.0-1.15","null","<span style='color:GreenYellow; font-size: 70px;'>正确! </span>","null","","","","","","","","","","","","","","","","","","","","","","","feedback_test",""
"","","","","","psychophysics","119","591037","0.0-14.0-0.0-0.16","1032","","j","","","","","","","","","","","","","key","j","8.332510288065556","768","428","j","true","img/C_28.png","生人","prac_self","","生人"
"","","","","","html-keyboard-response","120","591340","0.0-14.0-0.0-1.16","null","<span style='color:GreenYellow; font-size: 70px;'>正确! </span>","null","","","","","","","","","","","","","","","","","","","","","","","feedback_test",""
"","","","","","psychophysics","121","593540","0.0-14.0-0.0-0.17","1194","","j","","","","","","","","","","","","","key","j","8.332471482889964","768","428","j","true","img/C_28.png","生人","prac_self","","生人"
"","","","","","html-keyboard-response","122","593846","0.0-14.0-0.0-1.17","null","<span style='color:GreenYellow; font-size: 70px;'>正确! </span>","null","","","","","","","","","","","","","","","","","","","","","","","feedback_test",""
"","","","","","psychophysics","123","595500","0.0-14.0-0.0-0.18","640","","f","","","","","","","","","","","","","key","f","8.332448979591408","768","428","f","true","img/S_28.png","自我","prac_self","","自我"
"","","","","","html-keyboard-response","124","595808","0.0-14.0-0.0-1.18","null","<span style='color:GreenYellow; font-size: 70px;'>正确! </span>","null","","","","","","","","","","","","","","","","","","","","","","","feedback_test",""
"","","","","","psychophysics","125","597524","0.0-14.0-0.0-0.19","711","","j","","","","","","","","","","","","","key","j","8.33186274509781","768","428","j","true","img/H_28.png","朋友","prac_self","","朋友"
"","","","","","html-keyboard-response","126","597831","0.0-14.0-0.0-1.19","null","<span style='color:GreenYellow; font-size: 70px;'>正确! </span>","null","","","","","","","","","","","","","","","","","","","","","","","feedback_test",""
"","","","","","psychophysics","127","599486","0.0-14.0-0.0-0.20","651","","f","","","","","","","","","","","","","key","f","8.33248730964467","768","428","f","true","img/S_28.png","自我","prac_self","","自我"
"","","","","","html-keyboard-response","128","599795","0.0-14.0-0.0-1.20","null","<span style='color:GreenYellow; font-size: 70px;'>正确! </span>","null","","","","","","","","","","","","","","","","","","","","","","","feedback_test",""
"","","","","","psychophysics","129","601861","0.0-14.0-0.0-0.21","1065","","d","","","","","","","","","","","","","key","d","8.332113821138496","768","428","d","true","img/S_28.png","朋友","prac_self","","自我"
"","","","","","html-keyboard-response","130","602165","0.0-14.0-0.0-1.21","null","<span style='color:GreenYellow; font-size: 70px;'>正确! </span>","null","","","","","","","","","","","","","","","","","","","","","","","feedback_test",""
"","","","","","psychophysics","131","603853","0.0-14.0-0.0-0.22","681","","k","","","","","","","","","","","","","key","k","8.332437810945018","768","428","k","true","img/H_28.png","生人","prac_self","","朋友"
"","","","","","html-keyboard-response","132","604182","0.0-14.0-0.0-1.22","null","<span style='color:GreenYellow; font-size: 70px;'>正确! </span>","null","","","","","","","","","","","","","","","","","","","","","","","feedback_test",""
"","","","","","psychophysics","133","606222","0.0-14.0-0.0-0.23","1025","","k","","","","","","","","","","","","","key","k","8.331769547325084","768","428","k","true","img/H_28.png","自我","prac_self","","朋友"
"","","","","","html-keyboard-response","134","606523","0.0-14.0-0.0-1.23","null","<span style='color:GreenYellow; font-size: 70px;'>正确! </span>","null","","","","","","","","","","","","","","","","","","","","","","","feedback_test",""
"","","","","","html-keyboard-response","135","613749","0.0-15.0","7225","[""<style>.context{color:white; font-size: 35px; line-height:40px}</style>           <div><p class='context'>您正确回答了88% 的试次。</p><p class='context'>您的平均反应时为914毫秒。</p><p class='context'>恭喜您完成这一阶段的练习。按任意键进入<span style='color: yellow;'>重点关注图形为“朋友”</span>的练习。</p></div><p class='footer' style='font-size:35px; line-height:30px;'>任务要求：\n           <p class='footer' style='font-size:35px; line-height:35px;'>对于与“朋友”对应的图形：如果 匹配 ，请按 <span style=\""color: lightgreen;\"">f键</span></p><p class='footer' style='font-size:35px'>如果 不匹配 ，请按<span style=\""color: lightgreen;\"">d键</p></span>\n           <p class='footer' style='font-size:35px; line-height:35px;'>对于非“朋友”对应的图形：如果 匹配 ，请按 <span style=\""color: lightgreen;\"">j键</span></p><p class='footer' style='font-size:35px'>如果 不匹配 ，请按<span style=\""color: lightgreen;\"">k键</p></span>\n           <p class='footer' style='font-size:22px; line-height:25px;'>请在实验过程中将您的<span style=\""color: lightgreen;\"">食指和中指</span>放在电脑键盘的相应键位上进行按键。</p></span>""]"," ","","","","","","","","","","","","","","","","","","","","","","","",""
"","","","","","psychophysics","136","615588","0.0-16.0-0.0-0.0","837","","k","","","","","","","","","","","","","key","k","8.33251141552488","768","428","k","true","img/S_28.png","朋友","prac_friend","","自我"
"","","","","","html-keyboard-response","137","615904","0.0-16.0-0.0-1.0","null","<span style='color:GreenYellow; font-size: 70px;'>正确! </span>","null","","","","","","","","","","","","","","","","","","","","","","","feedback_test",""
"","","","","","psychophysics","138","617853","0.0-16.0-0.0-0.1","946","","k","","","","","","","","","","","","","key","k","8.332274678111268","768","428","k","true","img/C_28.png","自我","prac_friend","","生人"
"","","","","","html-keyboard-response","139","618155","0.0-16.0-0.0-1.1","null","<span style='color:GreenYellow; font-size: 70px;'>正确! </span>","null","","","","","","","","","","","","","","","","","","","","","","","feedback_test",""
"","","","","","psychophysics","140","619885","0.0-16.0-0.0-0.2","726","","j","","","","","","","","","","","","","key","j","8.332233009709032","768","428","f","false","img/H_28.png","朋友","prac_friend","","朋友"
"","","","","","html-keyboard-response","141","620190","0.0-16.0-0.0-1.2","null","<span style='color:red; font-size: 70px;'>错误! </span>","null","","","","","","","","","","","","","","","","","","","","","","","feedback_test",""
"","","","","","psychophysics","142","622101","0.0-16.0-0.0-0.3","900","","k","","","","","","","","","","","","","key","k","8.33122807017552","768","428","j","false","img/S_28.png","自我","prac_friend","","自我"
"","","","","","html-keyboard-response","143","622415","0.0-16.0-0.0-1.3","null","<span style='color:red; font-size: 70px;'>错误! </span>","null","","","","","","","","","","","","","","","","","","","","","","","feedback_test",""
"","","","","","psychophysics","144","624588","0.0-16.0-0.0-0.4","1170","","k","","","","","","","","","","","","","key","k","8.33196911196904","768","428","j","false","img/C_28.png","生人","prac_friend","","生人"
"","","","","","html-keyboard-response","145","624899","0.0-16.0-0.0-1.4","null","<span style='color:red; font-size: 70px;'>错误! </span>","null","","","","","","","","","","","","","","","","","","","","","","","feedback_test",""
"","","","","","psychophysics","146","626973","0.0-16.0-0.0-0.5","1003","","k","","","","","","","","","","","","","key","k","8.332338709677588","768","428","d","false","img/H_28.png","自我","prac_friend","","朋友"
"","","","","","html-keyboard-response","147","627276","0.0-16.0-0.0-1.5","null","<span style='color:red; font-size: 70px;'>错误! </span>","null","","","","","","","","","","","","","","","","","","","","","","","feedback_test",""
"","","","","","psychophysics","148","629381","0.0-16.0-0.0-0.6","1098","","k","","","","","","","","","","","","","key","k","8.332509960159214","768","428","k","true","img/C_28.png","朋友","prac_friend","","生人"
"","","","","","html-keyboard-response","149","629685","0.0-16.0-0.0-1.6","null","<span style='color:GreenYellow; font-size: 70px;'>正确! </span>","null","","","","","","","","","","","","","","","","","","","","","","","feedback_test",""
"","","","","","psychophysics","150","631820","0.0-16.0-0.0-0.7","1133","","d","","","","","","","","","","","","","key","d","8.33244094488167","768","428","d","true","img/H_28.png","生人","prac_friend","","朋友"
"","","","","","html-keyboard-response","151","632136","0.0-16.0-0.0-1.7","null","<span style='color:GreenYellow; font-size: 70px;'>正确! </span>","null","","","","","","","","","","","","","","","","","","","","","","","feedback_test",""
"","","","","","psychophysics","152","633996","0.0-16.0-0.0-0.8","854","","k","","","","","","","","","","","","","key","k","8.332432432432642","768","428","k","true","img/S_28.png","生人","prac_friend","","自我"
"","","","","","html-keyboard-response","153","634308","0.0-16.0-0.0-1.8","null","<span style='color:GreenYellow; font-size: 70px;'>正确! </span>","null","","","","","","","","","","","","","","","","","","","","","","","feedback_test",""
"","","","","","psychophysics","154","636326","0.0-16.0-0.0-0.9","1011","","j","","","","","","","","","","","","","key","j","8.332365145228119","768","428","j","true","img/C_28.png","生人","prac_friend","","生人"
"","","","","","html-keyboard-response","155","636633","0.0-16.0-0.0-1.9","null","<span style='color:GreenYellow; font-size: 70px;'>正确! </span>","null","","","","","","","","","","","","","","","","","","","","","","","feedback_test",""
"","","","","","psychophysics","156","638437","0.0-16.0-0.0-0.10","795","","f","","","","","","","","","","","","","key","f","8.332372093023082","768","428","f","true","img/H_28.png","朋友","prac_friend","","朋友"
"","","","","","html-keyboard-response","157","638739","0.0-16.0-0.0-1.10","null","<span style='color:GreenYellow; font-size: 70px;'>正确! </span>","null","","","","","","","","","","","","","","","","","","","","","","","feedback_test",""
"","","","","","psychophysics","158","640589","0.0-16.0-0.0-0.11","835","","j","","","","","","","","","","","","","key","j","8.330859728506766","768","428","j","true","img/S_28.png","自我","prac_friend","","自我"
"","","","","","html-keyboard-response","159","640892","0.0-16.0-0.0-1.11","null","<span style='color:GreenYellow; font-size: 70px;'>正确! </span>","null","","","","","","","","","","","","","","","","","","","","","","","feedback_test",""
"","","","","","psychophysics","160","642917","0.0-16.0-0.0-0.12","1022","","d","","","","","","","","","","","","","key","d","8.332231404958774","768","428","d","true","img/H_28.png","生人","prac_friend","","朋友"
"","","","","","html-keyboard-response","161","643230","0.0-16.0-0.0-1.12","null","<span style='color:GreenYellow; font-size: 70px;'>正确! </span>","null","","","","","","","","","","","","","","","","","","","","","","","feedback_test",""
"","","","","","psychophysics","162","645582","0.0-16.0-0.0-0.13","1294","","k","","","","","","","","","","","","","key","k","8.332099644127931","768","428","k","true","img/S_28.png","生人","prac_friend","","自我"
"","","","","","html-keyboard-response","163","645895","0.0-16.0-0.0-1.13","null","<span style='color:GreenYellow; font-size: 70px;'>正确! </span>","null","","","","","","","","","","","","","","","","","","","","","","","feedback_test",""
"","","","","","psychophysics","164","647941","0.0-16.0-0.0-0.14","1039","","j","","","","","","","","","","","","","key","j","8.331475409836084","768","428","j","true","img/C_28.png","生人","prac_friend","","生人"
"","","","","","html-keyboard-response","165","648255","0.0-16.0-0.0-1.14","null","<span style='color:GreenYellow; font-size: 70px;'>正确! </span>","null","","","","","","","","","","","","","","","","","","","","","","","feedback_test",""
"","","","","","psychophysics","166","650007","0.0-16.0-0.0-0.15","716","","k","","","","","","","","","","","","","key","k","8.332535885167465","768","428","k","true","img/C_28.png","自我","prac_friend","","生人"
"","","","","","html-keyboard-response","167","650329","0.0-16.0-0.0-1.15","null","<span style='color:GreenYellow; font-size: 70px;'>正确! </span>","null","","","","","","","","","","","","","","","","","","","","","","","feedback_test",""
"","","","","","psychophysics","168","651941","0.0-16.0-0.0-0.16","595","","f","","","","","","","","","","","","","key","f","8.33249999999983","768","428","f","true","img/H_28.png","朋友","prac_friend","","朋友"
"","","","","","html-keyboard-response","169","652253","0.0-16.0-0.0-1.16","null","<span style='color:GreenYellow; font-size: 70px;'>正确! </span>","null","","","","","","","","","","","","","","","","","","","","","","","feedback_test",""
"","","","","","psychophysics","170","654333","0.0-16.0-0.0-0.17","978","","j","","","","","","","","","","","","","key","j","8.332177419354858","768","428","j","true","img/S_28.png","自我","prac_friend","","自我"
"","","","","","html-keyboard-response","171","654634","0.0-16.0-0.0-1.17","null","<span style='color:GreenYellow; font-size: 70px;'>正确! </span>","null","","","","","","","","","","","","","","","","","","","","","","","feedback_test",""
"","","","","","psychophysics","172","656484","0.0-16.0-0.0-0.18","829","","k","","","","","","","","","","","","","key","k","8.33245454545461","768","428","k","true","img/C_28.png","朋友","prac_friend","","生人"
"","","","","","html-keyboard-response","173","656786","0.0-16.0-0.0-1.18","null","<span style='color:GreenYellow; font-size: 70px;'>正确! </span>","null","","","","","","","","","","","","","","","","","","","","","","","feedback_test",""
"","","","","","psychophysics","174","658597","0.0-16.0-0.0-0.19","796","","d","","","","","","","","","","","","","key","d","8.33185185185155","768","428","j","false","img/S_28.png","自我","prac_friend","","自我"
"","","","","","html-keyboard-response","175","658904","0.0-16.0-0.0-1.19","null","<span style='color:red; font-size: 70px;'>错误! </span>","null","","","","","","","","","","","","","","","","","","","","","","","feedback_test",""
"","","","","","psychophysics","176","661076","0.0-16.0-0.0-0.20","1157","","k","","","","","","","","","","","","","key","k","8.331846153845813","768","428","k","true","img/S_28.png","朋友","prac_friend","","自我"
"","","","","","html-keyboard-response","177","661406","0.0-16.0-0.0-1.20","null","<span style='color:GreenYellow; font-size: 70px;'>正确! </span>","null","","","","","","","","","","","","","","","","","","","","","","","feedback_test",""
"","","","","","psychophysics","178","663077","0.0-16.0-0.0-0.21","666","","f","","","","","","","","","","","","","key","f","8.332399999999907","768","428","f","true","img/H_28.png","朋友","prac_friend","","朋友"
"","","","","","html-keyboard-response","179","663417","0.0-16.0-0.0-1.21","null","<span style='color:GreenYellow; font-size: 70px;'>正确! </span>","null","","","","","","","","","","","","","","","","","","","","","","","feedback_test",""
"","","","","","psychophysics","180","665189","0.0-16.0-0.0-0.22","759","","j","","","","","","","","","","","","","key","j","8.332322274881495","768","428","j","true","img/C_28.png","生人","prac_friend","","生人"
"","","","","","html-keyboard-response","181","665503","0.0-16.0-0.0-1.22","null","<span style='color:GreenYellow; font-size: 70px;'>正确! </span>","null","","","","","","","","","","","","","","","","","","","","","","","feedback_test",""
"","","","","","psychophysics","182","667908","0.0-16.0-0.0-0.23","1404","","d","","","","","","","","","","","","","key","d","8.331916376306653","768","428","d","true","img/H_28.png","自我","prac_friend","","朋友"
"","","","","","html-keyboard-response","183","668213","0.0-16.0-0.0-1.23","null","<span style='color:GreenYellow; font-size: 70px;'>正确! </span>","null","","","","","","","","","","","","","","","","","","","","","","","feedback_test",""
"","","","","","html-keyboard-response","184","679845","0.0-17.0","11630","[""<style>.context{color:white; font-size: 35px; line-height:40px}</style>               <div><p class='context'>您正确回答了79% 的试次。</p><p class='context'>您的平均反应时为946毫秒。</p><p class='context'>恭喜您完成这一阶段的练习。按任意键进入<span style='color: yellow;'>重点关注图形为“生人”</span>的练习。</p></div><p class='footer' style='font-size:35px; line-height:30px;'>任务要求：\n               <p class='footer' style='font-size:35px; line-height:35px;'>对与“生人”对应的图形，如果 匹配 ，请按 <span style=\""color: lightgreen;\"">f键</span></p><p class='footer' style='font-size:35px'>如果 不匹配 ，请按<span style=\""color: lightgreen;\"">d键</p></span>\n               <p class='footer' style='font-size:35px; line-height:35px;'>对非“生人”对应的图形，如果 匹配 ，请按 <span style=\""color: lightgreen;\"">j键</span></p><p class='footer' style='font-size:35px'>如果 不匹配 ，请按<span style=\""color: lightgreen;\"">k键</p></span>\n               <p class='footer' style='font-size:22px; line-height:25px;'>请在实验过程中将您的<span style=\""color: lightgreen;\"">食指和中指</span>放在电脑键盘的相应键位上进行按键。</p></span>""]"," ","","","","","","","","","","","","","","","","","","","","","","","",""
"","","","","","psychophysics","185","681693","0.0-18.0-0.0-0.0","839","","k","","","","","","","","","","","","","key","k","8.332328767123416","768","428","k","true","img/S_28.png","朋友","prac_stranger","","自我"
"","","","","","html-keyboard-response","186","682001","0.0-18.0-0.0-1.0","null","<span style='color:GreenYellow; font-size: 70px;'>正确! </span>","null","","","","","","","","","","","","","","","","","","","","","","","feedback_test",""
"","","","","","psychophysics","187","684004","0.0-18.0-0.0-0.1","1002","","k","","","","","","","","","","","","","key","k","8.332217573221854","768","428","k","true","img/H_28.png","生人","prac_stranger","","朋友"
"","","","","","html-keyboard-response","188","684316","0.0-18.0-0.0-1.1","null","<span style='color:GreenYellow; font-size: 70px;'>正确! </span>","null","","","","","","","","","","","","","","","","","","","","","","","feedback_test",""
"","","","","","psychophysics","189","686317","0.0-18.0-0.0-0.2","997","","k","","","","","","","","","","","","","key","k","8.332301255229813","768","428","d","false","img/C_28.png","朋友","prac_stranger","","生人"
"","","","","","html-keyboard-response","190","686628","0.0-18.0-0.0-1.2","null","<span style='color:red; font-size: 70px;'>错误! </span>","null","","","","","","","","","","","","","","","","","","","","","","","feedback_test",""
"","","","","","psychophysics","191","688421","0.0-18.0-0.0-0.3","789","","j","","","","","","","","","","","","","key","j","8.33233644859811","768","428","j","true","img/H_28.png","朋友","prac_stranger","","朋友"
"","","","","","html-keyboard-response","192","688733","0.0-18.0-0.0-1.3","null","<span style='color:GreenYellow; font-size: 70px;'>正确! </span>","null","","","","","","","","","","","","","","","","","","","","","","","feedback_test",""
"","","","","","psychophysics","193","690285","0.0-18.0-0.0-0.4","549","","j","","","","","","","","","","","","","key","j","8.332432432432432","768","428","j","true","img/S_28.png","自我","prac_stranger","","自我"
"","","","","","html-keyboard-response","194","690593","0.0-18.0-0.0-1.4","null","<span style='color:GreenYellow; font-size: 70px;'>正确! </span>","null","","","","","","","","","","","","","","","","","","","","","","","feedback_test",""
"","","","","","psychophysics","195","692693","0.0-18.0-0.0-0.5","1092","","f","","","","","","","","","","","","","key","f","8.332350597609265","768","428","f","true","img/C_28.png","生人","prac_stranger","","生人"
"","","","","","html-keyboard-response","196","693000","0.0-18.0-0.0-1.5","null","<span style='color:GreenYellow; font-size: 70px;'>正确! </span>","null","","","","","","","","","","","","","","","","","","","","","","","feedback_test",""
"","","","","","psychophysics","197","694741","0.0-18.0-0.0-0.6","730","","d","","","","","","","","","","","","","key","d","8.33144230769204","768","428","d","true","img/C_28.png","自我","prac_stranger","","生人"
"","","","","","html-keyboard-response","198","695046","0.0-18.0-0.0-1.6","null","<span style='color:GreenYellow; font-size: 70px;'>正确! </span>","null","","","","","","","","","","","","","","","","","","","","","","","feedback_test",""
"","","","","","psychophysics","199","696621","0.0-18.0-0.0-0.7","571","","j","","","","","","","","","","","","","key","j","8.332406417112473","768","428","j","true","img/S_28.png","自我","prac_stranger","","自我"
"","","","","","html-keyboard-response","200","696927","0.0-18.0-0.0-1.7","null","<span style='color:GreenYellow; font-size: 70px;'>正确! </span>","null","","","","","","","","","","","","","","","","","","","","","","","feedback_test",""
"","","","","","psychophysics","201","698636","0.0-18.0-0.0-0.8","692","","k","","","","","","","","","","","","","key","k","8.332216748768198","768","428","k","true","img/H_28.png","自我","prac_stranger","","朋友"
"","","","","","html-keyboard-response","202","698949","0.0-18.0-0.0-1.8","null","<span style='color:GreenYellow; font-size: 70px;'>正确! </span>","null","","","","","","","","","","","","","","","","","","","","","","","feedback_test",""
"","","","","","psychophysics","203","701045","0.0-18.0-0.0-0.9","964","","k","","","","","","","","","","","","","key","k","8.331919999999926","768","428","k","true","img/S_28.png","生人","prac_stranger","","自我"
"","","","","","html-keyboard-response","204","701358","0.0-18.0-0.0-1.9","null","<span style='color:GreenYellow; font-size: 70px;'>正确! </span>","null","","","","","","","","","","","","","","","","","","","","","","","feedback_test",""
"","","","","","psychophysics","205","703126","0.0-18.0-0.0-0.10","763","","j","","","","","","","","","","","","","key","j","8.332322274881495","768","428","j","true","img/H_28.png","朋友","prac_stranger","","朋友"
"","","","","","html-keyboard-response","206","703431","0.0-18.0-0.0-1.10","null","<span style='color:GreenYellow; font-size: 70px;'>正确! </span>","null","","","","","","","","","","","","","","","","","","","","","","","feedback_test",""
"","","","","","psychophysics","207","705342","0.0-18.0-0.0-0.11","908","","f","","","","","","","","","","","","","key","f","8.332017543859445","768","428","f","true","img/C_28.png","生人","prac_stranger","","生人"
"","","","","","html-keyboard-response","208","705646","0.0-18.0-0.0-1.11","null","<span style='color:GreenYellow; font-size: 70px;'>正确! </span>","null","","","","","","","","","","","","","","","","","","","","","","","feedback_test",""
"","","","","","psychophysics","209","707452","0.0-18.0-0.0-0.12","802","","k","","","","","","","","","","","","","key","k","8.371214953271311","768","428","k","true","img/S_28.png","生人","prac_stranger","","自我"
"","","","","","html-keyboard-response","210","707763","0.0-18.0-0.0-1.12","null","<span style='color:GreenYellow; font-size: 70px;'>正确! </span>","null","","","","","","","","","","","","","","","","","","","","","","","feedback_test",""
"","","","","","psychophysics","211","709341","0.0-18.0-0.0-0.13","568","","j","","","","","","","","","","","","","key","j","8.331808510637703","768","428","j","true","img/H_28.png","朋友","prac_stranger","","朋友"
"","","","","","html-keyboard-response","212","709646","0.0-18.0-0.0-1.13","null","<span style='color:GreenYellow; font-size: 70px;'>正确! </span>","null","","","","","","","","","","","","","","","","","","","","","","","feedback_test",""
"","","","","","psychophysics","213","711300","0.0-18.0-0.0-0.14","646","","k","","","","","","","","","","","","","key","k","8.331573604061244","768","428","k","true","img/H_28.png","生人","prac_stranger","","朋友"
"","","","","","html-keyboard-response","214","711601","0.0-18.0-0.0-1.14","null","<span style='color:GreenYellow; font-size: 70px;'>正确! </span>","null","","","","","","","","","","","","","","","","","","","","","","","feedback_test",""
"","","","","","psychophysics","215","713325","0.0-18.0-0.0-0.15","710","","j","","","","","","","","","","","","","key","j","8.331804878048871","768","428","j","true","img/H_28.png","朋友","prac_stranger","","朋友"
"","","","","","html-keyboard-response","216","713630","0.0-18.0-0.0-1.15","null","<span style='color:GreenYellow; font-size: 70px;'>正确! </span>","null","","","","","","","","","","","","","","","","","","","","","","","feedback_test",""
"","","","","","psychophysics","217","715878","0.0-18.0-0.0-0.16","1245","","k","","","","","","","","","","","","","key","k","8.332936802973753","768","428","d","false","img/C_28.png","朋友","prac_stranger","","生人"
"","","","","","html-keyboard-response","218","716184","0.0-18.0-0.0-1.16","null","<span style='color:red; font-size: 70px;'>错误! </span>","null","","","","","","","","","","","","","","","","","","","","","","","feedback_test",""
"","","","","","psychophysics","219","718229","0.0-18.0-0.0-0.17","1028","","j","","","","","","","","","","","","","key","j","8.332295081967041","768","428","j","true","img/S_28.png","自我","prac_stranger","","自我"
"","","","","","html-keyboard-response","220","718544","0.0-18.0-0.0-1.17","null","<span style='color:GreenYellow; font-size: 70px;'>正确! </span>","null","","","","","","","","","","","","","","","","","","","","","","","feedback_test",""
"","","","","","psychophysics","221","720316","0.0-18.0-0.0-0.18","767","","k","","","","","","","","","","","","","key","k","8.33241706161144","768","428","k","true","img/H_28.png","自我","prac_stranger","","朋友"
"","","","","","html-keyboard-response","222","720630","0.0-18.0-0.0-1.18","null","<span style='color:GreenYellow; font-size: 70px;'>正确! </span>","null","","","","","","","","","","","","","","","","","","","","","","","feedback_test",""
"","","","","","psychophysics","223","722229","0.0-18.0-0.0-0.19","599","","j","","","","","","","","","","","","","key","j","8.33235602094231","768","428","j","true","img/S_28.png","自我","prac_stranger","","自我"
"","","","","","html-keyboard-response","224","722542","0.0-18.0-0.0-1.19","null","<span style='color:GreenYellow; font-size: 70px;'>正确! </span>","null","","","","","","","","","","","","","","","","","","","","","","","feedback_test",""
"","","","","","psychophysics","225","724590","0.0-18.0-0.0-0.20","1042","","d","","","","","","","","","","","","","key","d","8.332295081967041","768","428","d","true","img/C_28.png","自我","prac_stranger","","生人"
"","","","","","html-keyboard-response","226","724905","0.0-18.0-0.0-1.20","null","<span style='color:GreenYellow; font-size: 70px;'>正确! </span>","null","","","","","","","","","","","","","","","","","","","","","","","feedback_test",""
"","","","","","psychophysics","227","726580","0.0-18.0-0.0-0.21","666","","f","","","","","","","","","","","","","key","f","8.332361809044711","768","428","f","true","img/C_28.png","生人","prac_stranger","","生人"
"","","","","","html-keyboard-response","228","726895","0.0-18.0-0.0-1.21","null","<span style='color:GreenYellow; font-size: 70px;'>正确! </span>","null","","","","","","","","","","","","","","","","","","","","","","","feedback_test",""
"","","","","","psychophysics","229","728950","0.0-18.0-0.0-0.22","1048","","k","","","","","","","","","","","","","key","k","8.331918367347205","768","428","k","true","img/S_28.png","朋友","prac_stranger","","自我"
"","","","","","html-keyboard-response","230","729253","0.0-18.0-0.0-1.22","null","<span style='color:GreenYellow; font-size: 70px;'>正确! </span>","null","","","","","","","","","","","","","","","","","","","","","","","feedback_test",""
"","","","","","psychophysics","231","731254","0.0-18.0-0.0-0.23","983","","f","","","","","","","","","","","","","key","f","8.331799163179625","768","428","f","true","img/C_28.png","生人","prac_stranger","","生人"
"","","","","","html-keyboard-response","232","731566","0.0-18.0-0.0-1.23","null","<span style='color:GreenYellow; font-size: 70px;'>正确! </span>","null","","","","","","","","","","","","","","","","","","","","","","","feedback_test",""
"","","","","","html-keyboard-response","233","745308","0.0-19.0","13740","[""<style>.context{color:white; font-size: 35px; line-height:40px}</style>                                     <div><p class='context'>您正确回答了92% 的试次。</p><p class='context'>您的平均反应时为807毫秒。</p><p class='context'>恭喜您完成练习。您可以在此时休息一段时间，准备好后按任意键进入正式实验。</p><p class='footer' style='font-size: 35px; line-height:40px;'>请在进入正式实验实验之前将您的<span style='color: lightgreen;'>食指和中指</span>放在电脑键盘的相应键位上，做好按键准备。</p>""]"," ","","","","","","","","","","","","","","","","","","","","","","","",""
"","","","","","html-keyboard-response","234","753236","0.0-20.0-2.0-0.0","7927","
                 <p>请您将食指和中指放在相应按键上，准备进入<span style='color: yellow;'>重点图形为“生人”对应图形</span>的正式匹配任务</p>
                 <p> <div style = ""color: green""><按任意键开始></div></p>
                 "," ","","","","","","","","","","","","","","","","","","","","","","","",""
"","","","","","psychophysics","235","755133","0.0-20.0-2.0-1.0-0.0-0.0","880","","j","","","","","","","","","","","","","key","j","8.332212389380345","768","428","j","true","img/H_28.png","朋友","stranger","","朋友"
"","","","","","html-keyboard-response","236","755443","0.0-20.0-2.0-1.0-0.0-1.0","null","<span style='color:GreenYellow; font-size: 70px;'>正确! </span>","null","","","","","","","","","","","","","","","","","","","","","","","feedback_test",""
"","","","","","psychophysics","237","757310","0.0-20.0-2.0-1.0-0.0-0.1","858","","k","","","","","","","","","","","","","key","k","8.332197309416852","768","428","k","true","img/H_28.png","自我","stranger","","朋友"
"","","","","","html-keyboard-response","238","757625","0.0-20.0-2.0-1.0-0.0-1.1","null","<span style='color:GreenYellow; font-size: 70px;'>正确! </span>","null","","","","","","","","","","","","","","","","","","","","","","","feedback_test",""
"","","","","","psychophysics","239","759518","0.0-20.0-2.0-1.0-0.0-0.2","887","","d","","","","","","","","","","","","","key","d","8.332389380530953","768","428","d","true","img/C_28.png","朋友","stranger","","生人"
"","","","","","html-keyboard-response","240","759834","0.0-20.0-2.0-1.0-0.0-1.2","null","<span style='color:GreenYellow; font-size: 70px;'>正确! </span>","null","","","","","","","","","","","","","","","","","","","","","","","feedback_test",""
"","","","","","psychophysics","241","761836","0.0-20.0-2.0-1.0-0.0-0.3","989","","k","","","","","","","","","","","","","key","k","8.332050209204963","768","428","j","false","img/S_28.png","自我","stranger","","自我"
"","","","","","html-keyboard-response","242","762141","0.0-20.0-2.0-1.0-0.0-1.3","null","<span style='color:red; font-size: 70px;'>错误! </span>","null","","","","","","","","","","","","","","","","","","","","","","","feedback_test",""
"","","","","","psychophysics","243","763828","0.0-20.0-2.0-1.0-0.0-0.4","685","","j","","","","","","","","","","","","","key","j","8.332437810945597","768","428","j","true","img/H_28.png","朋友","stranger","","朋友"
"","","","","","html-keyboard-response","244","764134","0.0-20.0-2.0-1.0-0.0-1.4","null","<span style='color:GreenYellow; font-size: 70px;'>正确! </span>","null","","","","","","","","","","","","","","","","","","","","","","","feedback_test",""
"","","","","","psychophysics","245","766222","0.0-20.0-2.0-1.0-0.0-0.5","1082","","k","","","","","","","","","","","","","key","k","8.332319999999832","768","428","k","true","img/S_28.png","生人","stranger","","自我"
"","","","","","html-keyboard-response","246","766557","0.0-20.0-2.0-1.0-0.0-1.5","null","<span style='color:GreenYellow; font-size: 70px;'>正确! </span>","null","","","","","","","","","","","","","","","","","","","","","","","feedback_test",""
"","","","","","psychophysics","247","768216","0.0-20.0-2.0-1.0-0.0-0.6","648","","f","","","","","","","","","","","","","key","f","8.33212121212126","768","428","f","true","img/C_28.png","生人","stranger","","生人"
"","","","","","html-keyboard-response","248","768518","0.0-20.0-2.0-1.0-0.0-1.6","null","<span style='color:GreenYellow; font-size: 70px;'>正确! </span>","null","","","","","","","","","","","","","","","","","","","","","","","feedback_test",""
"","","","","","psychophysics","249","770221","0.0-20.0-2.0-1.0-0.0-0.7","650","","k","","","","","","","","","","","","","key","k","8.332549019607683","768","428","k","true","img/S_28.png","朋友","stranger","","自我"
"","","","","","html-keyboard-response","250","770560","0.0-20.0-2.0-1.0-0.0-1.7","null","<span style='color:GreenYellow; font-size: 70px;'>正确! </span>","null","","","","","","","","","","","","","","","","","","","","","","","feedback_test",""
"","","","","","psychophysics","251","772118","0.0-20.0-2.0-1.0-0.0-0.8","521","","f","","","","","","","","","","","","","key","f","8.332432432432432","768","428","d","false","img/C_28.png","自我","stranger","","生人"
"","","","","","html-keyboard-response","252","772426","0.0-20.0-2.0-1.0-0.0-1.8","null","<span style='color:red; font-size: 70px;'>错误! </span>","null","","","","","","","","","","","","","","","","","","","","","","","feedback_test",""
"","","","","","psychophysics","253","774125","0.0-20.0-2.0-1.0-0.0-0.9","695","","k","","","","","","","","","","","","","key","k","8.332178217821667","768","428","k","true","img/H_28.png","生人","stranger","","朋友"
"","","","","","html-keyboard-response","254","774435","0.0-20.0-2.0-1.0-0.0-1.9","null","<span style='color:GreenYellow; font-size: 70px;'>正确! </span>","null","","","","","","","","","","","","","","","","","","","","","","","feedback_test",""
"","","","","","psychophysics","255","776085","0.0-20.0-2.0-1.0-0.0-0.10","633","","j","","","","","","","","","","","","","key","j","8.331734693877053","768","428","j","true","img/S_28.png","自我","stranger","","自我"
"","","","","","html-keyboard-response","256","776397","0.0-20.0-2.0-1.0-0.0-1.10","null","<span style='color:GreenYellow; font-size: 70px;'>正确! </span>","null","","","","","","","","","","","","","","","","","","","","","","","feedback_test",""
"","","","","","psychophysics","257","777998","0.0-20.0-2.0-1.0-0.0-0.11","584","","f","","","","","","","","","","","","","key","f","8.332315789473757","768","428","f","true","img/C_28.png","生人","stranger","","生人"
"","","","","","html-keyboard-response","258","778308","0.0-20.0-2.0-1.0-0.0-1.11","null","<span style='color:GreenYellow; font-size: 70px;'>正确! </span>","null","","","","","","","","","","","","","","","","","","","","","","","feedback_test",""
"","","","","","psychophysics","259","780173","0.0-20.0-2.0-1.0-0.0-0.12","861","","j","","","","","","","","","","","","","key","j","8.332432432432118","768","428","j","true","img/H_28.png","朋友","stranger","","朋友"
"","","","","","html-keyboard-response","260","780476","0.0-20.0-2.0-1.0-0.0-1.12","null","<span style='color:GreenYellow; font-size: 70px;'>正确! </span>","null","","","","","","","","","","","","","","","","","","","","","","","feedback_test",""
"","","","","","psychophysics","261","782030","0.0-20.0-2.0-1.0-0.0-0.13","548","","j","","","","","","","","","","","","","key","j","8.332108108108436","768","428","j","true","img/S_28.png","自我","stranger","","自我"
"","","","","","html-keyboard-response","262","782342","0.0-20.0-2.0-1.0-0.0-1.13","null","<span style='color:GreenYellow; font-size: 70px;'>正确! </span>","null","","","","","","","","","","","","","","","","","","","","","","","feedback_test",""
"","","","","","psychophysics","263","784350","0.0-20.0-2.0-1.0-0.0-0.14","1002","","j","","","","","","","","","","","","","key","j","8.332133891213408","768","428","j","true","img/H_28.png","朋友","stranger","","朋友"
"","","","","","html-keyboard-response","264","784686","0.0-20.0-2.0-1.0-0.0-1.14","null","<span style='color:GreenYellow; font-size: 70px;'>正确! </span>","null","","","","","","","","","","","","","","","","","","","","","","","feedback_test",""
"","","","","","psychophysics","265","786524","0.0-20.0-2.0-1.0-0.0-0.15","724","","k","","","","","","","","","","","","","key","k","8.369082568807169","768","428","k","true","img/H_28.png","自我","stranger","","朋友"
"","","","","","html-keyboard-response","266","786840","0.0-20.0-2.0-1.0-0.0-1.15","null","<span style='color:GreenYellow; font-size: 70px;'>正确! </span>","null","","","","","","","","","","","","","","","","","","","","","","","feedback_test",""
"","","","","","psychophysics","267","788477","0.0-20.0-2.0-1.0-0.0-0.16","633","","j","","","","","","","","","","","","","key","j","8.332615384615313","768","428","j","true","img/S_28.png","自我","stranger","","自我"
"","","","","","html-keyboard-response","268","788815","0.0-20.0-2.0-1.0-0.0-1.16","null","<span style='color:GreenYellow; font-size: 70px;'>正确! </span>","null","","","","","","","","","","","","","","","","","","","","","","","feedback_test",""
"","","","","","psychophysics","269","790573","0.0-20.0-2.0-1.0-0.0-0.17","754","","k","","","","","","","","","","","","","key","k","8.3324761904765","768","428","k","true","img/S_28.png","朋友","stranger","","自我"
"","","","","","html-keyboard-response","270","790885","0.0-20.0-2.0-1.0-0.0-1.17","null","<span style='color:GreenYellow; font-size: 70px;'>正确! </span>","null","","","","","","","","","","","","","","","","","","","","","","","feedback_test",""
"","","","","","psychophysics","271","792564","0.0-20.0-2.0-1.0-0.0-0.18","676","","k","","","","","","","","","","","","","key","k","8.332060301507328","768","428","k","true","img/H_28.png","生人","stranger","","朋友"
"","","","","","html-keyboard-response","272","792892","0.0-20.0-2.0-1.0-0.0-1.18","null","<span style='color:GreenYellow; font-size: 70px;'>正确! </span>","null","","","","","","","","","","","","","","","","","","","","","","","feedback_test",""
"","","","","","psychophysics","273","794557","0.0-20.0-2.0-1.0-0.0-0.19","658","","f","","","","","","","","","","","","","key","f","8.332222222222363","768","428","f","true","img/C_28.png","生人","stranger","","生人"
"","","","","","html-keyboard-response","274","794871","0.0-20.0-2.0-1.0-0.0-1.19","null","<span style='color:GreenYellow; font-size: 70px;'>正确! </span>","null","","","","","","","","","","","","","","","","","","","","","","","feedback_test",""
"","","","","","psychophysics","275","796589","0.0-20.0-2.0-1.0-0.0-0.20","684","","f","","","","","","","","","","","","","key","f","8.331707317073171","768","428","f","true","img/C_28.png","生人","stranger","","生人"
"","","","","","html-keyboard-response","276","796916","0.0-20.0-2.0-1.0-0.0-1.20","null","<span style='color:GreenYellow; font-size: 70px;'>正确! </span>","null","","","","","","","","","","","","","","","","","","","","","","","feedback_test",""
"","","","","","psychophysics","277","798692","0.0-20.0-2.0-1.0-0.0-0.21","773","","k","","","","","","","","","","","","","key","k","8.332358490565863","768","428","k","true","img/S_28.png","生人","stranger","","自我"
"","","","","","html-keyboard-response","278","799002","0.0-20.0-2.0-1.0-0.0-1.21","null","<span style='color:GreenYellow; font-size: 70px;'>正确! </span>","null","","","","","","","","","","","","","","","","","","","","","","","feedback_test",""
"","","","","","psychophysics","279","800910","0.0-20.0-2.0-1.0-0.0-0.22","902","","k","","","","","","","","","","","","","key","k","8.332368421052754","768","428","d","false","img/C_28.png","朋友","stranger","","生人"
"","","","","","html-keyboard-response","280","801219","0.0-20.0-2.0-1.0-0.0-1.22","null","<span style='color:red; font-size: 70px;'>错误! </span>","null","","","","","","","","","","","","","","","","","","","","","","","feedback_test",""
"","","","","","psychophysics","281","802861","0.0-20.0-2.0-1.0-0.0-0.23","626","","f","","","","","","","","","","","","","key","f","8.331530612244803","768","428","d","false","img/C_28.png","自我","stranger","","生人"
"","","","","","html-keyboard-response","282","803165","0.0-20.0-2.0-1.0-0.0-1.23","null","<span style='color:red; font-size: 70px;'>错误! </span>","null","","","","","","","","","","","","","","","","","","","","","","","feedback_test",""
"","","","","","psychophysics","283","804902","0.0-20.0-2.0-1.0-0.0-0.24","734","","k","","","","","","","","","","","","","key","k","8.3322705314011","768","428","k","true","img/H_28.png","自我","stranger","","朋友"
"","","","","","html-keyboard-response","284","805218","0.0-20.0-2.0-1.0-0.0-1.24","null","<span style='color:GreenYellow; font-size: 70px;'>正确! </span>","null","","","","","","","","","","","","","","","","","","","","","","","feedback_test",""
"","","","","","psychophysics","285","806861","0.0-20.0-2.0-1.0-0.0-0.25","641","","j","","","","","","","","","","","","","key","j","8.332512820512653","768","428","j","true","img/H_28.png","朋友","stranger","","朋友"
"","","","","","html-keyboard-response","286","807163","0.0-20.0-2.0-1.0-0.0-1.25","null","<span style='color:GreenYellow; font-size: 70px;'>正确! </span>","null","","","","","","","","","","","","","","","","","","","","","","","feedback_test",""
"","","","","","psychophysics","287","808708","0.0-20.0-2.0-1.0-0.0-0.26","529","","j","","","","","","","","","","","","","key","j","8.332065217391811","768","428","j","true","img/S_28.png","自我","stranger","","自我"
"","","","","","html-keyboard-response","288","809012","0.0-20.0-2.0-1.0-0.0-1.26","null","<span style='color:GreenYellow; font-size: 70px;'>正确! </span>","null","","","","","","","","","","","","","","","","","","","","","","","feedback_test",""
"","","","","","psychophysics","289","810677","0.0-20.0-2.0-1.0-0.0-0.27","662","","f","","","","","","","","","","","","","key","f","8.332525252525087","768","428","f","true","img/C_28.png","生人","stranger","","生人"
"","","","","","html-keyboard-response","290","811025","0.0-20.0-2.0-1.0-0.0-1.27","null","<span style='color:GreenYellow; font-size: 70px;'>正确! </span>","null","","","","","","","","","","","","","","","","","","","","","","","feedback_test",""
"","","","","","psychophysics","291","812887","0.0-20.0-2.0-1.0-0.0-0.28","844","","k","","","","","","","","","","","","","key","k","8.332432432432642","768","428","k","true","img/S_28.png","生人","stranger","","自我"
"","","","","","html-keyboard-response","292","813192","0.0-20.0-2.0-1.0-0.0-1.28","null","<span style='color:GreenYellow; font-size: 70px;'>正确! </span>","null","","","","","","","","","","","","","","","","","","","","","","","feedback_test",""
"","","","","","psychophysics","293","815706","0.0-20.0-2.0-1.0-0.0-0.29","null","","null","","","","","","","","","","","","","key","null","8.331362126245816","768","428","d","false","img/C_28.png","自我","stranger","","生人"
"","","","","","html-keyboard-response","294","816040","0.0-20.0-2.0-1.0-0.0-1.29","null","<span class='add_' style='color:yellow; font-size: 70px;'> 太慢! </span>","null","","","","","","","","","","","","","","","","","","","","","","","feedback_test",""
"","","","","","psychophysics","295","817836","0.0-20.0-2.0-1.0-0.0-0.30","794","","d","","","","","","","","","","","","","key","d","8.33177570093458","768","428","d","true","img/C_28.png","朋友","stranger","","生人"
"","","","","","html-keyboard-response","296","818145","0.0-20.0-2.0-1.0-0.0-1.30","null","<span style='color:GreenYellow; font-size: 70px;'>正确! </span>","null","","","","","","","","","","","","","","","","","","","","","","","feedback_test",""
"","","","","","psychophysics","297","819764","0.0-20.0-2.0-1.0-0.0-0.31","607","","j","","","","","","","","","","","","","key","j","8.332227979274588","768","428","j","true","img/S_28.png","自我","stranger","","自我"
"","","","","","html-keyboard-response","298","820074","0.0-20.0-2.0-1.0-0.0-1.31","null","<span style='color:GreenYellow; font-size: 70px;'>正确! </span>","null","","","","","","","","","","","","","","","","","","","","","","","feedback_test",""
"","","","","","psychophysics","299","821860","0.0-20.0-2.0-1.0-0.0-0.32","732","","f","","","","","","","","","","","","","key","f","8.330892018779256","768","428","f","true","img/C_28.png","生人","stranger","","生人"
"","","","","","html-keyboard-response","300","822164","0.0-20.0-2.0-1.0-0.0-1.32","null","<span style='color:GreenYellow; font-size: 70px;'>正确! </span>","null","","","","","","","","","","","","","","","","","","","","","","","feedback_test",""
"","","","","","psychophysics","301","823788","0.0-20.0-2.0-1.0-0.0-0.33","620","","k","","","","","","","","","","","","","key","k","8.332538860103892","768","428","k","true","img/H_28.png","生人","stranger","","朋友"
"","","","","","html-keyboard-response","302","824093","0.0-20.0-2.0-1.0-0.0-1.33","null","<span style='color:GreenYellow; font-size: 70px;'>正确! </span>","null","","","","","","","","","","","","","","","","","","","","","","","feedback_test",""
"","","","","","psychophysics","303","825836","0.0-20.0-2.0-1.0-0.0-0.34","737","","k","","","","","","","","","","","","","key","k","8.332403846153912","768","428","k","true","img/S_28.png","朋友","stranger","","自我"
"","","","","","html-keyboard-response","304","826151","0.0-20.0-2.0-1.0-0.0-1.34","null","<span style='color:GreenYellow; font-size: 70px;'>正确! </span>","null","","","","","","","","","","","","","","","","","","","","","","","feedback_test",""
"","","","","","psychophysics","305","827764","0.0-20.0-2.0-1.0-0.0-0.35","597","","j","","","","","","","","","","","","","key","j","8.33253886010329","768","428","j","true","img/H_28.png","朋友","stranger","","朋友"
"","","","","","html-keyboard-response","306","828078","0.0-20.0-2.0-1.0-0.0-1.35","null","<span style='color:GreenYellow; font-size: 70px;'>正确! </span>","null","","","","","","","","","","","","","","","","","","","","","","","feedback_test",""
"","","","","","psychophysics","307","830325","0.0-20.0-2.0-1.0-0.0-0.36","1240","","f","","","","","","","","","","","","","key","f","8.331417910448005","768","428","d","false","img/C_28.png","自我","stranger","","生人"
"","","","","","html-keyboard-response","308","830631","0.0-20.0-2.0-1.0-0.0-1.36","null","<span style='color:red; font-size: 70px;'>错误! </span>","null","","","","","","","","","","","","","","","","","","","","","","","feedback_test",""
"","","","","","psychophysics","309","832334","0.0-20.0-2.0-1.0-0.0-0.37","698","","k","","","","","","","","","","","","","key","k","8.332610837437942","768","428","k","true","img/H_28.png","生人","stranger","","朋友"
"","","","","","html-keyboard-response","310","832652","0.0-20.0-2.0-1.0-0.0-1.37","null","<span style='color:GreenYellow; font-size: 70px;'>正确! </span>","null","","","","","","","","","","","","","","","","","","","","","","","feedback_test",""
"","","","","","psychophysics","311","834342","0.0-20.0-2.0-1.0-0.0-0.38","685","","f","","","","","","","","","","","","","key","f","8.332437810945597","768","428","f","true","img/C_28.png","生人","stranger","","生人"
"","","","","","html-keyboard-response","312","834647","0.0-20.0-2.0-1.0-0.0-1.38","null","<span style='color:GreenYellow; font-size: 70px;'>正确! </span>","null","","","","","","","","","","","","","","","","","","","","","","","feedback_test",""
"","","","","","psychophysics","313","836293","0.0-20.0-2.0-1.0-0.0-0.39","645","","j","","","","","","","","","","","","","key","j","8.374769230769612","768","428","j","true","img/S_28.png","自我","stranger","","自我"
"","","","","","html-keyboard-response","314","836608","0.0-20.0-2.0-1.0-0.0-1.39","null","<span style='color:GreenYellow; font-size: 70px;'>正确! </span>","null","","","","","","","","","","","","","","","","","","","","","","","feedback_test",""
"","","","","","psychophysics","315","838260","0.0-20.0-2.0-1.0-0.0-0.40","650","","k","","","","","","","","","","","","","key","k","8.33248730964467","768","428","k","true","img/H_28.png","自我","stranger","","朋友"
"","","","","","html-keyboard-response","316","838571","0.0-20.0-2.0-1.0-0.0-1.40","null","<span style='color:GreenYellow; font-size: 70px;'>正确! </span>","null","","","","","","","","","","","","","","","","","","","","","","","feedback_test",""
"","","","","","psychophysics","317","840541","0.0-20.0-2.0-1.0-0.0-0.41","968","","f","","","","","","","","","","","","","key","f","8.3321702127657","768","428","f","true","img/C_28.png","生人","stranger","","生人"
"","","","","","html-keyboard-response","318","840850","0.0-20.0-2.0-1.0-0.0-1.41","null","<span style='color:GreenYellow; font-size: 70px;'>正确! </span>","null","","","","","","","","","","","","","","","","","","","","","","","feedback_test",""
"","","","","","psychophysics","319","842517","0.0-20.0-2.0-1.0-0.0-0.42","665","","k","","","","","","","","","","","","","key","k","8.33256281407061","768","428","d","false","img/C_28.png","朋友","stranger","","生人"
"","","","","","html-keyboard-response","320","842827","0.0-20.0-2.0-1.0-0.0-1.42","null","<span style='color:red; font-size: 70px;'>错误! </span>","null","","","","","","","","","","","","","","","","","","","","","","","feedback_test",""
"","","","","","psychophysics","321","844605","0.0-20.0-2.0-1.0-0.0-0.43","775","","j","","","","","","","","","","","","","key","j","8.332452830188592","768","428","j","true","img/H_28.png","朋友","stranger","","朋友"
"","","","","","html-keyboard-response","322","844914","0.0-20.0-2.0-1.0-0.0-1.43","null","<span style='color:GreenYellow; font-size: 70px;'>正确! </span>","null","","","","","","","","","","","","","","","","","","","","","","","feedback_test",""
"","","","","","psychophysics","323","846692","0.0-20.0-2.0-1.0-0.0-0.44","778","","j","","","","","","","","","","","","","key","j","8.331603773585126","768","428","j","true","img/S_28.png","自我","stranger","","自我"
"","","","","","html-keyboard-response","324","846999","0.0-20.0-2.0-1.0-0.0-1.44","null","<span style='color:GreenYellow; font-size: 70px;'>正确! </span>","null","","","","","","","","","","","","","","","","","","","","","","","feedback_test",""
"","","","","","psychophysics","325","849052","0.0-20.0-2.0-1.0-0.0-0.45","1052","","j","","","","","","","","","","","","","key","j","8.33227642276419","768","428","j","true","img/H_28.png","朋友","stranger","","朋友"
"","","","","","html-keyboard-response","326","849361","0.0-20.0-2.0-1.0-0.0-1.45","null","<span style='color:GreenYellow; font-size: 70px;'>正确! </span>","null","","","","","","","","","","","","","","","","","","","","","","","feedback_test",""
"","","","","","psychophysics","327","851117","0.0-20.0-2.0-1.0-0.0-0.46","751","","k","","","","","","","","","","","","","key","k","8.332057416267498","768","428","k","true","img/S_28.png","朋友","stranger","","自我"
"","","","","","html-keyboard-response","328","851417","0.0-20.0-2.0-1.0-0.0-1.46","null","<span style='color:GreenYellow; font-size: 70px;'>正确! </span>","null","","","","","","","","","","","","","","","","","","","","","","","feedback_test",""
"","","","","","psychophysics","329","853557","0.0-20.0-2.0-1.0-0.0-0.47","1123","","k","","","","","","","","","","","","","key","k","8.332078431372294","768","428","k","true","img/S_28.png","生人","stranger","","自我"
"","","","","","html-keyboard-response","330","853859","0.0-20.0-2.0-1.0-0.0-1.47","null","<span style='color:GreenYellow; font-size: 70px;'>正确! </span>","null","","","","","","","","","","","","","","","","","","","","","","","feedback_test",""
"","","","","","psychophysics","331","856149","0.0-20.0-2.0-1.0-0.0-0.48","1287","","k","","","","","","","","","","","","","key","k","8.331282051281846","768","428","d","false","img/C_28.png","朋友","stranger","","生人"
"","","","","","html-keyboard-response","332","856456","0.0-20.0-2.0-1.0-0.0-1.48","null","<span style='color:red; font-size: 70px;'>错误! </span>","null","","","","","","","","","","","","","","","","","","","","","","","feedback_test",""
"","","","","","psychophysics","333","858316","0.0-20.0-2.0-1.0-0.0-0.49","857","","f","","","","","","","","","","","","","key","f","8.332432432432642","768","428","f","true","img/C_28.png","生人","stranger","","生人"
"","","","","","html-keyboard-response","334","858622","0.0-20.0-2.0-1.0-0.0-1.49","null","<span style='color:GreenYellow; font-size: 70px;'>正确! </span>","null","","","","","","","","","","","","","","","","","","","","","","","feedback_test",""
"","","","","","psychophysics","335","860413","0.0-20.0-2.0-1.0-0.0-0.50","779","","k","","","","","","","","","","","","","key","k","8.332206572769996","768","428","k","true","img/H_28.png","生人","stranger","","朋友"
"","","","","","html-keyboard-response","336","860714","0.0-20.0-2.0-1.0-0.0-1.50","null","<span style='color:GreenYellow; font-size: 70px;'>正确! </span>","null","","","","","","","","","","","","","","","","","","","","","","","feedback_test",""
"","","","","","psychophysics","337","862397","0.0-20.0-2.0-1.0-0.0-0.51","680","","j","","","","","","","","","","","","","key","j","8.332000000000116","768","428","j","true","img/H_28.png","朋友","stranger","","朋友"
"","","","","","html-keyboard-response","338","862705","0.0-20.0-2.0-1.0-0.0-1.51","null","<span style='color:GreenYellow; font-size: 70px;'>正确! </span>","null","","","","","","","","","","","","","","","","","","","","","","","feedback_test",""
"","","","","","psychophysics","339","864372","0.0-20.0-2.0-1.0-0.0-0.52","662","","k","","","","","","","","","","","","","key","k","8.33045226130658","768","428","k","true","img/H_28.png","自我","stranger","","朋友"
"","","","","","html-keyboard-response","340","864684","0.0-20.0-2.0-1.0-0.0-1.52","null","<span style='color:GreenYellow; font-size: 70px;'>正确! </span>","null","","","","","","","","","","","","","","","","","","","","","","","feedback_test",""
"","","","","","psychophysics","341","866414","0.0-20.0-2.0-1.0-0.0-0.53","714","","j","","","","","","","","","","","","","key","j","8.330970873786656","768","428","j","true","img/S_28.png","自我","stranger","","自我"
"","","","","","html-keyboard-response","342","866718","0.0-20.0-2.0-1.0-0.0-1.53","null","<span style='color:GreenYellow; font-size: 70px;'>正确! </span>","null","","","","","","","","","","","","","","","","","","","","","","","feedback_test",""
"","","","","","psychophysics","343","868717","0.0-20.0-2.0-1.0-0.0-0.54","988","","f","","","","","","","","","","","","","key","f","8.332133891213408","768","428","f","true","img/C_28.png","生人","stranger","","生人"
"","","","","","html-keyboard-response","344","869018","0.0-20.0-2.0-1.0-0.0-1.54","null","<span style='color:GreenYellow; font-size: 70px;'>正确! </span>","null","","","","","","","","","","","","","","","","","","","","","","","feedback_test",""
"","","","","","psychophysics","345","870579","0.0-20.0-2.0-1.0-0.0-0.55","546","","k","","","","","","","","","","","","","key","k","8.332580645161215","768","428","k","true","img/S_28.png","朋友","stranger","","自我"
"","","","","","html-keyboard-response","346","870884","0.0-20.0-2.0-1.0-0.0-1.55","null","<span style='color:GreenYellow; font-size: 70px;'>正确! </span>","null","","","","","","","","","","","","","","","","","","","","","","","feedback_test",""
"","","","","","psychophysics","347","872548","0.0-20.0-2.0-1.0-0.0-0.56","648","","j","","","","","","","","","","","","","key","j","8.332525252525087","768","428","j","true","img/H_28.png","朋友","stranger","","朋友"
"","","","","","html-keyboard-response","348","872860","0.0-20.0-2.0-1.0-0.0-1.56","null","<span style='color:GreenYellow; font-size: 70px;'>正确! </span>","null","","","","","","","","","","","","","","","","","","","","","","","feedback_test",""
"","","","","","psychophysics","349","874540","0.0-20.0-2.0-1.0-0.0-0.57","675","","j","","","","","","","","","","","","","key","j","8.332000000000116","768","428","j","true","img/S_28.png","自我","stranger","","自我"
"","","","","","html-keyboard-response","350","874876","0.0-20.0-2.0-1.0-0.0-1.57","null","<span style='color:GreenYellow; font-size: 70px;'>正确! </span>","null","","","","","","","","","","","","","","","","","","","","","","","feedback_test",""
"","","","","","psychophysics","351","876869","0.0-20.0-2.0-1.0-0.0-0.58","980","","f","","","","","","","","","","","","","key","f","8.331680672269162","768","428","d","false","img/C_28.png","自我","stranger","","生人"
"","","","","","html-keyboard-response","352","877180","0.0-20.0-2.0-1.0-0.0-1.58","null","<span style='color:red; font-size: 70px;'>错误! </span>","null","","","","","","","","","","","","","","","","","","","","","","","feedback_test",""
"","","","","","psychophysics","353","878877","0.0-20.0-2.0-1.0-0.0-0.59","693","","k","","","","","","","","","","","","","key","k","8.332475247524913","768","428","k","true","img/S_28.png","生人","stranger","","自我"
"","","","","","html-keyboard-response","354","879189","0.0-20.0-2.0-1.0-0.0-1.59","null","<span style='color:GreenYellow; font-size: 70px;'>正确! </span>","null","","","","","","","","","","","","","","","","","","","","","","","feedback_test",""
"","","","","","psychophysics","355","880972","0.0-20.0-2.0-1.0-0.0-0.60","779","","d","","","","","","","","","","","","","key","d","8.33254716981132","768","428","d","true","img/C_28.png","朋友","stranger","","生人"
"","","","","","html-keyboard-response","356","881277","0.0-20.0-2.0-1.0-0.0-1.60","null","<span style='color:GreenYellow; font-size: 70px;'>正确! </span>","null","","","","","","","","","","","","","","","","","","","","","","","feedback_test",""
"","","","","","psychophysics","357","882901","0.0-20.0-2.0-1.0-0.0-0.61","618","","j","","","","","","","","","","","","","key","j","8.33216494845332","768","428","j","true","img/H_28.png","朋友","stranger","","朋友"
"","","","","","html-keyboard-response","358","883216","0.0-20.0-2.0-1.0-0.0-1.61","null","<span style='color:GreenYellow; font-size: 70px;'>正确! </span>","null","","","","","","","","","","","","","","","","","","","","","","","feedback_test",""
"","","","","","psychophysics","359","884972","0.0-20.0-2.0-1.0-0.0-0.62","749","","k","","","","","","","","","","","","","key","k","8.331674641148638","768","428","k","true","img/H_28.png","生人","stranger","","朋友"
"","","","","","html-keyboard-response","360","885292","0.0-20.0-2.0-1.0-0.0-1.62","null","<span style='color:GreenYellow; font-size: 70px;'>正确! </span>","null","","","","","","","","","","","","","","","","","","","","","","","feedback_test",""
"","","","","","psychophysics","361","887093","0.0-20.0-2.0-1.0-0.0-0.63","795","","f","","","","","","","","","","","","","key","f","8.331906976744662","768","428","f","true","img/C_28.png","生人","stranger","","生人"
"","","","","","html-keyboard-response","362","887406","0.0-20.0-2.0-1.0-0.0-1.63","null","<span style='color:GreenYellow; font-size: 70px;'>正确! </span>","null","","","","","","","","","","","","","","","","","","","","","","","feedback_test",""
"","","","","","psychophysics","363","889029","0.0-20.0-2.0-1.0-0.0-0.64","610","","f","","","","","","","","","","","","","key","f","8.332435233160188","768","428","f","true","img/C_28.png","生人","stranger","","生人"
"","","","","","html-keyboard-response","364","889331","0.0-20.0-2.0-1.0-0.0-1.64","null","<span style='color:GreenYellow; font-size: 70px;'>正确! </span>","null","","","","","","","","","","","","","","","","","","","","","","","feedback_test",""
"","","","","","psychophysics","365","891052","0.0-20.0-2.0-1.0-0.0-0.65","710","","k","","","","","","","","","","","","","key","k","8.332390243902507","768","428","k","true","img/S_28.png","朋友","stranger","","自我"
"","","","","","html-keyboard-response","366","891354","0.0-20.0-2.0-1.0-0.0-1.65","null","<span style='color:GreenYellow; font-size: 70px;'>正确! </span>","null","","","","","","","","","","","","","","","","","","","","","","","feedback_test",""
"","","","","","psychophysics","367","893117","0.0-20.0-2.0-1.0-0.0-0.66","759","","k","","","","","","","","","","","","","key","k","8.33114285714248","768","428","k","true","img/S_28.png","生人","stranger","","自我"
"","","","","","html-keyboard-response","368","893426","0.0-20.0-2.0-1.0-0.0-1.66","null","<span style='color:GreenYellow; font-size: 70px;'>正确! </span>","null","","","","","","","","","","","","","","","","","","","","","","","feedback_test",""
"","","","","","psychophysics","369","895444","0.0-20.0-2.0-1.0-0.0-0.67","1016","","k","","","","","","","","","","","","","key","k","8.332333333333372","768","428","k","true","img/H_28.png","自我","stranger","","朋友"
"","","","","","html-keyboard-response","370","895756","0.0-20.0-2.0-1.0-0.0-1.67","null","<span style='color:GreenYellow; font-size: 70px;'>正确! </span>","null","","","","","","","","","","","","","","","","","","","","","","","feedback_test",""
"","","","","","psychophysics","371","897460","0.0-20.0-2.0-1.0-0.0-0.68","704","","j","","","","","","","","","","","","","key","j","8.332118226601192","768","428","j","true","img/H_28.png","朋友","stranger","","朋友"
"","","","","","html-keyboard-response","372","897762","0.0-20.0-2.0-1.0-0.0-1.68","null","<span style='color:GreenYellow; font-size: 70px;'>正确! </span>","null","","","","","","","","","","","","","","","","","","","","","","","feedback_test",""
"","","","","","psychophysics","373","899524","0.0-20.0-2.0-1.0-0.0-0.69","758","","k","","","","","","","","","","","","","key","k","8.33142857142846","768","428","j","false","img/S_28.png","自我","stranger","","自我"
"","","","","","html-keyboard-response","374","899834","0.0-20.0-2.0-1.0-0.0-1.69","null","<span style='color:red; font-size: 70px;'>错误! </span>","null","","","","","","","","","","","","","","","","","","","","","","","feedback_test",""
"","","","","","psychophysics","375","901390","0.0-20.0-2.0-1.0-0.0-0.70","539","","j","","","","","","","","","","","","","key","j","8.332108108108436","768","428","j","true","img/S_28.png","自我","stranger","","自我"
"","","","","","html-keyboard-response","376","901701","0.0-20.0-2.0-1.0-0.0-1.70","null","<span style='color:GreenYellow; font-size: 70px;'>正确! </span>","null","","","","","","","","","","","","","","","","","","","","","","","feedback_test",""
"","","","","","psychophysics","377","903366","0.0-20.0-2.0-1.0-0.0-0.71","662","","f","","","","","","","","","","","","","key","f","8.332222222222363","768","428","d","false","img/C_28.png","自我","stranger","","生人"
"","","","","","html-keyboard-response","378","903677","0.0-20.0-2.0-1.0-0.0-1.71","null","<span style='color:red; font-size: 70px;'>错误! </span>","null","","","","","","","","","","","","","","","","","","","","","","","feedback_test",""
"","","","","","html-keyboard-response","379","906812","0.0-20.0-2.0-1.0-1.0","3135","<style>.context{color:white; font-size: 35px; line-height:40px}</style>                                     <div><p class='context'>您正确回答了85% 的试次。</p><p class='context'>您的平均反应时为739毫秒。</p><p class='context'>请按任意键进入休息</p></div>"," ","","","","","","","","","","","","","","","","","","","","","","","",""
"","","","","","html-button-response","380","971769","0.0-20.0-2.0-1.0-2.0","64956","
                             <p>在 优先关注""生人""图形 的要求下，您还剩余4组实验</p>
                             <p>现在是休息时间，当您结束休息后，您可以点击 结束休息 按钮 继续</p>
                             <p>建议休息时间还剩余<span id=""iii"">60</span>秒</p>","0","","","","","","","","","","","","","","","","","","","","","","","",""
"","","","","","psychophysics","381","973741","0.0-20.0-2.0-1.0-0.1-0.72","957","","k","","","","","","","","","","","","","key","k","8.332510638297931","768","428","d","false","img/C_28.png","自我","stranger","","生人"
"","","","","","html-keyboard-response","382","974042","0.0-20.0-2.0-1.0-0.1-1.72","null","<span style='color:red; font-size: 70px;'>错误! </span>","null","","","","","","","","","","","","","","","","","","","","","","","feedback_test",""
"","","","","","psychophysics","383","975708","0.0-20.0-2.0-1.0-0.1-0.73","661","","f","","","","","","","","","","","","","key","f","8.332424242423984","768","428","f","true","img/C_28.png","生人","stranger","","生人"
"","","","","","html-keyboard-response","384","976024","0.0-20.0-2.0-1.0-0.1-1.73","null","<span style='color:GreenYellow; font-size: 70px;'>正确! </span>","null","","","","","","","","","","","","","","","","","","","","","","","feedback_test",""
"","","","","","psychophysics","385","977790","0.0-20.0-2.0-1.0-0.1-0.74","751","","j","","","","","","","","","","","","","key","j","8.332571428571274","768","428","j","true","img/H_28.png","朋友","stranger","","朋友"
"","","","","","html-keyboard-response","386","978095","0.0-20.0-2.0-1.0-0.1-1.74","null","<span style='color:GreenYellow; font-size: 70px;'>正确! </span>","null","","","","","","","","","","","","","","","","","","","","","","","feedback_test",""
"","","","","","psychophysics","387","979853","0.0-20.0-2.0-1.0-0.1-0.75","755","","k","","","","","","","","","","","","","key","k","8.331809523809213","768","428","k","true","img/S_28.png","朋友","stranger","","自我"
"","","","","","html-keyboard-response","388","980166","0.0-20.0-2.0-1.0-0.1-1.75","null","<span style='color:GreenYellow; font-size: 70px;'>正确! </span>","null","","","","","","","","","","","","","","","","","","","","","","","feedback_test",""
"","","","","","psychophysics","389","982046","0.0-20.0-2.0-1.0-0.1-0.76","863","","k","","","","","","","","","","","","","key","k","8.332321428571179","768","428","k","true","img/S_28.png","生人","stranger","","自我"
"","","","","","html-keyboard-response","390","982350","0.0-20.0-2.0-1.0-0.1-1.76","null","<span style='color:GreenYellow; font-size: 70px;'>正确! </span>","null","","","","","","","","","","","","","","","","","","","","","","","feedback_test",""
"","","","","","psychophysics","391","984100","0.0-20.0-2.0-1.0-0.1-0.77","735","","k","","","","","","","","","","","","","key","k","8.331250000000113","768","428","k","true","img/H_28.png","自我","stranger","","朋友"
"","","","","","html-keyboard-response","392","984415","0.0-20.0-2.0-1.0-0.1-1.77","null","<span style='color:GreenYellow; font-size: 70px;'>正确! </span>","null","","","","","","","","","","","","","","","","","","","","","","","feedback_test",""
"","","","","","psychophysics","393","986116","0.0-20.0-2.0-1.0-0.1-0.78","693","","f","","","","","","","","","","","","","key","f","8.332413793103356","768","428","f","true","img/C_28.png","生人","stranger","","生人"
"","","","","","html-keyboard-response","394","986427","0.0-20.0-2.0-1.0-0.1-1.78","null","<span style='color:GreenYellow; font-size: 70px;'>正确! </span>","null","","","","","","","","","","","","","","","","","","","","","","","feedback_test",""
"","","","","","psychophysics","395","988132","0.0-20.0-2.0-1.0-0.1-0.79","696","","k","","","","","","","","","","","","","key","k","8.331724137931447","768","428","d","false","img/C_28.png","朋友","stranger","","生人"
"","","","","","html-keyboard-response","396","988441","0.0-20.0-2.0-1.0-0.1-1.79","null","<span style='color:red; font-size: 70px;'>错误! </span>","null","","","","","","","","","","","","","","","","","","","","","","","feedback_test",""
"","","","","","psychophysics","397","990022","0.0-20.0-2.0-1.0-0.1-0.80","577","","j","","","","","","","","","","","","","key","j","8.332234042552994","768","428","j","true","img/H_28.png","朋友","stranger","","朋友"
"","","","","","html-keyboard-response","398","990337","0.0-20.0-2.0-1.0-0.1-1.80","null","<span style='color:GreenYellow; font-size: 70px;'>正确! </span>","null","","","","","","","","","","","","","","","","","","","","","","","feedback_test",""
"","","","","","psychophysics","399","992062","0.0-20.0-2.0-1.0-0.1-0.81","720","","j","","","","","","","","","","","","","key","j","8.332330097087198","768","428","j","true","img/S_28.png","自我","stranger","","自我"
"","","","","","html-keyboard-response","400","992377","0.0-20.0-2.0-1.0-0.1-1.81","null","<span style='color:GreenYellow; font-size: 70px;'>正确! </span>","null","","","","","","","","","","","","","","","","","","","","","","","feedback_test",""
"","","","","","psychophysics","401","993964","0.0-20.0-2.0-1.0-0.1-0.82","584","","k","","","","","","","","","","","","","key","k","8.332446808510639","768","428","k","true","img/H_28.png","生人","stranger","","朋友"
"","","","","","html-keyboard-response","402","994275","0.0-20.0-2.0-1.0-0.1-1.82","null","<span style='color:GreenYellow; font-size: 70px;'>正确! </span>","null","","","","","","","","","","","","","","","","","","","","","","","feedback_test",""
"","","","","","psychophysics","403","996222","0.0-20.0-2.0-1.0-0.1-0.83","944","","k","","","","","","","","","","","","","key","k","8.332413793103429","768","428","j","false","img/S_28.png","自我","stranger","","自我"
"","","","","","html-keyboard-response","404","996530","0.0-20.0-2.0-1.0-0.1-1.83","null","<span style='color:red; font-size: 70px;'>错误! </span>","null","","","","","","","","","","","","","","","","","","","","","","","feedback_test",""
"","","","","","psychophysics","405","998309","0.0-20.0-2.0-1.0-0.1-0.84","770","","k","","","","","","","","","","","","","key","k","8.332018779342592","768","428","d","false","img/C_28.png","自我","stranger","","生人"
"","","","","","html-keyboard-response","406","998621","0.0-20.0-2.0-1.0-0.1-1.84","null","<span style='color:red; font-size: 70px;'>错误! </span>","null","","","","","","","","","","","","","","","","","","","","","","","feedback_test",""
"","","","","","psychophysics","407","1000470","0.0-20.0-2.0-1.0-0.1-0.85","845","","k","","","","","","","","","","","","","key","k","8.33230769230744","768","428","k","true","img/S_28.png","生人","stranger","","自我"
"","","","","","html-keyboard-response","408","1000774","0.0-20.0-2.0-1.0-0.1-1.85","null","<span style='color:GreenYellow; font-size: 70px;'>正确! </span>","null","","","","","","","","","","","","","","","","","","","","","","","feedback_test",""
"","","","","","psychophysics","409","1002444","0.0-20.0-2.0-1.0-0.1-0.86","663","","j","","","","","","","","","","","","","key","j","8.331658291457286","768","428","j","true","img/S_28.png","自我","stranger","","自我"
"","","","","","html-keyboard-response","410","1002758","0.0-20.0-2.0-1.0-0.1-1.86","null","<span style='color:GreenYellow; font-size: 70px;'>正确! </span>","null","","","","","","","","","","","","","","","","","","","","","","","feedback_test",""
"","","","","","psychophysics","411","1004629","0.0-20.0-2.0-1.0-0.1-0.87","853","","j","","","","","","","","","","","","","key","j","8.330762331838606","768","428","j","true","img/H_28.png","朋友","stranger","","朋友"
"","","","","","html-keyboard-response","412","1004950","0.0-20.0-2.0-1.0-0.1-1.87","null","<span style='color:GreenYellow; font-size: 70px;'>正确! </span>","null","","","","","","","","","","","","","","","","","","","","","","","feedback_test",""
"","","","","","psychophysics","413","1006645","0.0-20.0-2.0-1.0-0.1-0.88","687","","f","","","","","","","","","","","","","key","f","8.332178217821667","768","428","f","true","img/C_28.png","生人","stranger","","生人"
"","","","","","html-keyboard-response","414","1006948","0.0-20.0-2.0-1.0-0.1-1.88","null","<span style='color:GreenYellow; font-size: 70px;'>正确! </span>","null","","","","","","","","","","","","","","","","","","","","","","","feedback_test",""
"","","","","","psychophysics","415","1008436","0.0-20.0-2.0-1.0-0.1-0.89","485","","j","","","","","","","","","","","","","key","j","8.332655367231665","768","428","j","true","img/S_28.png","自我","stranger","","自我"
"","","","","","html-keyboard-response","416","1008749","0.0-20.0-2.0-1.0-0.1-1.89","null","<span style='color:GreenYellow; font-size: 70px;'>正确! </span>","null","","","","","","","","","","","","","","","","","","","","","","","feedback_test",""
"","","","","","psychophysics","417","1010509","0.0-20.0-2.0-1.0-0.1-0.90","749","","k","","","","","","","","","","","","","key","k","8.331619047619114","768","428","k","true","img/H_28.png","自我","stranger","","朋友"
"","","","","","html-keyboard-response","418","1010815","0.0-20.0-2.0-1.0-0.1-1.90","null","<span style='color:GreenYellow; font-size: 70px;'>正确! </span>","null","","","","","","","","","","","","","","","","","","","","","","","feedback_test",""
"","","","","","psychophysics","419","1012612","0.0-20.0-2.0-1.0-0.1-0.91","789","","d","","","","","","","","","","","","","key","d","8.331588785046556","768","428","d","true","img/C_28.png","朋友","stranger","","生人"
"","","","","","html-keyboard-response","420","1012929","0.0-20.0-2.0-1.0-0.1-1.91","null","<span style='color:GreenYellow; font-size: 70px;'>正确! </span>","null","","","","","","","","","","","","","","","","","","","","","","","feedback_test",""
"","","","","","psychophysics","421","1014580","0.0-20.0-2.0-1.0-0.1-0.92","636","","j","","","","","","","","","","","","","key","j","8.33224489795916","768","428","j","true","img/H_28.png","朋友","stranger","","朋友"
