"success","timeout","failed_images","failed_audio","failed_video","trial_type","trial_index","time_elapsed","internal_node_id","rt","stimulus","response","value","item_width_mm","item_height_mm","item_width_px","px2mm","view_dist_mm","item_width_deg","px2deg","scale_factor","win_width_deg","win_height_deg","view_history","response_type","key_press","avg_frame_time","center_x","center_y","correct_response","correct","Image","text","condition","screen_id","label"
"true","false","[]","[]","[]","preload","0","570","0.0-0.0","","","","","","","","","","","","","","","","","","","","","","","","","","",""
"","","","","","html-keyboard-response","1","1820","0.0-1.0","1249","
  <p>您好，欢迎参加本次实验。</p>
  <p>为充分保障您的权利，请确保您已经知晓并同意《参与实验同意书》以及《数据公开知情同意书》。</p>
  <p>如果您未见过上述内容，请咨询实验员。</p>
  <p>如果您选择继续实验，则表示您已经清楚两份知情同意书的内容并同意。</p>
  <p> <div style = ""color: green""><按任意键至下页></div> </p>
  "," ","","","","","","","","","","","","","","","","","","","","","","","",""
"","","","","","html-keyboard-response","2","2654","0.0-2.0","834","
  <p>本实验首先需要您填写一些基本个人信息。</p>
  <p> <div style = ""color: green""><按任意键至下页></div></p>
  "," ","","","","","","","","","","","","","","","","","","","","","","","",""
"","","","","","call-function","3","2655","0.0-3.0-0.0","","","","","","","","","","","","","","","","","","","","","","","","","","",""
"","","","","","survey-html-form","4","5742","0.0-3.0-1.0","3086","","{""Q0"":""40""}","","","","","","","","","","","","","","","","","","","","","","","",""
"","","","","","html-button-response","5","6738","0.0-3.0-2.0","995","<p style = 'color : white'>您的性别</p>","0","","","","","","","","","","","","","","","","","","","","","","","",""
"","","","","","survey-html-form","6","10020","0.0-3.0-3.0","3281","","{""Q0"":""2003""}","","","","","","","","","","","","","","","","","","","","","","","",""
"","","","","","survey-html-form","7","12344","0.0-3.0-4.0","2324","","{""Q0"":""5""}","","","","","","","","","","","","","","","","","","","","","","","",""
"","","","","","virtual-chinrest","8","63138","0.0-4.0","50793","","","","85.6","53.98","399.8297415094343","4.671585839915929","612.33","7.996594830188686","50","0.9654109235165339","30.72","14.14","","","","","","","","","","","","",""
"true","","","","","fullscreen","9","65440","0.0-5.0","","","","","","","","","","","","","","","","","","","","","","","","","","",""
"","","","","","instructions","10","84298","0.0-6.0","18858","","","","","","","","","","","","","","[{""page_index"":0,""viewing_time"":2277},{""page_index"":1,""viewing_time"":2096},{""page_index"":2,""viewing_time"":4458},{""page_index"":3,""viewing_time"":8418},{""page_index"":4,""viewing_time"":1608}]","","","","","","","","","","","",""
"","","","","","instructions","11","92536","0.0-7.0","8237","","","","","","","","","","","","","","[{""page_index"":0,""viewing_time"":8237}]","","","","","","","","","","","",""
"","","","","","psychophysics","12","95338","0.0-8.0-0.0-0.0","1793","","f","","","","","","","","","","","","","key","f","9.491874149659878","768","428","j","false","img/S_28.png","自我","freeprac_self","",""
"","","","","","html-keyboard-response","13","95648","0.0-8.0-0.0-1.0","null","<span style='color:red; font-size: 70px;'>错误! </span>","null","","","","","","","","","","","","","","","","","","","","","","","feedback_test",""
"","","","","","psychophysics","14","99787","0.0-8.0-0.0-0.1","3136","","k","","","","","","","","","","","","","key","k","9.725021226415093","768","428","j","false","img/C_28.png","自我","freeprac_self","",""
"","","","","","html-keyboard-response","15","100088","0.0-8.0-0.0-1.1","null","<span style='color:red; font-size: 70px;'>错误! </span>","null","","","","","","","","","","","","","","","","","","","","","","","feedback_test",""
"","","","","","psychophysics","16","102844","0.0-8.0-0.0-0.2","1753","","k","","","","","","","","","","","","","key","k","9.515857638888873","768","428","f","false","img/H_28.png","朋友","freeprac_self","",""
"","","","","","html-keyboard-response","17","103148","0.0-8.0-0.0-1.2","null","<span style='color:red; font-size: 70px;'>错误! </span>","null","","","","","","","","","","","","","","","","","","","","","","","feedback_test",""
"","","","","","psychophysics","18","105852","0.0-8.0-0.0-0.3","1704","","k","","","","","","","","","","","","","key","k","9.444257042253552","768","428","k","true","img/C_28.png","朋友","freeprac_self","",""
"","","","","","html-keyboard-response","19","106165","0.0-8.0-0.0-1.3","null","<span style='color:GreenYellow; font-size: 70px;'>正确! </span>","null","","","","","","","","","","","","","","","","","","","","","","","feedback_test",""
"","","","","","psychophysics","20","108672","0.0-8.0-0.0-0.4","1501","","j","","","","","","","","","","","","","key","j","9.611353846153808","768","428","j","true","img/S_28.png","朋友","freeprac_self","",""
"","","","","","html-keyboard-response","21","108986","0.0-8.0-0.0-1.4","null","<span style='color:GreenYellow; font-size: 70px;'>正确! </span>","null","","","","","","","","","","","","","","","","","","","","","","","feedback_test",""
"","","","","","psychophysics","22","110967","0.0-8.0-0.0-0.5","979","","k","","","","","","","","","","","","","key","k","9.728321782178213","768","428","k","true","img/S_28.png","生人","freeprac_self","",""
"","","","","","html-keyboard-response","23","111276","0.0-8.0-0.0-1.5","null","<span style='color:GreenYellow; font-size: 70px;'>正确! </span>","null","","","","","","","","","","","","","","","","","","","","","","","feedback_test",""
"","","","","","psychophysics","24","113654","0.0-8.0-0.0-0.6","1376","","j","","","","","","","","","","","","","key","j","9.775743801652936","768","428","j","true","img/C_28.png","生人","freeprac_self","",""
"","","","","","html-keyboard-response","25","113963","0.0-8.0-0.0-1.6","null","<span style='color:GreenYellow; font-size: 70px;'>正确! </span>","null","","","","","","","","","","","","","","","","","","","","","","","feedback_test",""
"","","","","","psychophysics","26","116376","0.0-8.0-0.0-0.7","1409","","k","","","","","","","","","","","","","key","k","9.672955645161334","768","428","k","true","img/C_28.png","朋友","freeprac_self","",""
"","","","","","html-keyboard-response","27","116679","0.0-8.0-0.0-1.7","null","<span style='color:GreenYellow; font-size: 70px;'>正确! </span>","null","","","","","","","","","","","","","","","","","","","","","","","feedback_test",""
"","","","","","psychophysics","28","119847","0.0-8.0-0.0-0.8","2167","","f","","","","","","","","","","","","","key","f","9.59573252279635","768","428","f","true","img/H_28.png","生人","freeprac_self","",""
"","","","","","html-keyboard-response","29","120155","0.0-8.0-0.0-1.8","null","<span style='color:GreenYellow; font-size: 70px;'>正确! </span>","null","","","","","","","","","","","","","","","","","","","","","","","feedback_test",""
"","","","","","psychophysics","30","122829","0.0-8.0-0.0-0.9","1672","","k","","","","","","","","","","","","","key","k","9.588521582733854","768","428","k","true","img/S_28.png","生人","freeprac_self","",""
"","","","","","html-keyboard-response","31","123133","0.0-8.0-0.0-1.9","null","<span style='color:GreenYellow; font-size: 70px;'>正确! </span>","null","","","","","","","","","","","","","","","","","","","","","","","feedback_test",""
"","","","","","psychophysics","32","125287","0.0-8.0-0.0-0.10","1148","","d","","","","","","","","","","","","","key","d","9.864746543778775","768","428","d","true","img/H_28.png","自我","freeprac_self","",""
"","","","","","html-keyboard-response","33","125602","0.0-8.0-0.0-1.10","null","<span style='color:GreenYellow; font-size: 70px;'>正确! </span>","null","","","","","","","","","","","","","","","","","","","","","","","feedback_test",""
"","","","","","psychophysics","34","127376","0.0-8.0-0.0-0.11","771","","d","","","","","","","","","","","","","key","d","9.494629032258086","768","428","d","true","img/H_28.png","自我","freeprac_self","",""
"","","","","","html-keyboard-response","35","127687","0.0-8.0-0.0-1.11","null","<span style='color:GreenYellow; font-size: 70px;'>正确! </span>","null","","","","","","","","","","","","","","","","","","","","","","","feedback_test",""
"","","","","","html-keyboard-response","36","143576","0.0-9.0","15888","[""<style>.context{color:white; font-size: 35px; line-height:40px}</style>           <div><p class='context'>您正确回答了75% 的试次。</p><p class='context'>您的平均反应时为1414毫秒。</p><p class='context'>恭喜您完成这一阶段的练习。按任意键进入<span style='color: yellow;'>重点关注图形为“朋友”</span>的练习。</p></div><p class='footer' style='font-size:35px; line-height:30px;'>任务要求：\n           <p class='footer' style='font-size:35px; line-height:35px;'>对于与“朋友”对应的图形：如果 匹配 ，请按 <span style=\""color: lightgreen;\"">d键</span></p><p class='footer' style='font-size:35px'>如果 不匹配 ，请按<span style=\""color: lightgreen;\"">f键</p></span>\n           <p class='footer' style='font-size:35px; line-height:35px;'>对于非“朋友”对应的图形：如果 匹配 ，请按 <span style=\""color: lightgreen;\"">k键</span></p><p class='footer' style='font-size:35px'>如果 不匹配 ，请按<span style=\""color: lightgreen;\"">j键</p></span>\n           <p class='footer' style='font-size:22px; line-height:25px;'>请在实验过程中将您的<span style=\""color: lightgreen;\"">食指和中指</span>放在电脑键盘的相应键位上进行按键。</p></span>""]"," ","","","","","","","","","","","","","","","","","","","","","","","",""
"","","","","","psychophysics","37","146161","0.0-10.0-0.0-0.0","1579","","j","","","","","","","","","","","","","key","j","9.749719696969722","768","428","j","true","img/S_28.png","自我","freeprac_friend","",""
"","","","","","html-keyboard-response","38","146467","0.0-10.0-0.0-1.0","null","<span style='color:GreenYellow; font-size: 70px;'>正确! </span>","null","","","","","","","","","","","","","","","","","","","","","","","feedback_test",""
"","","","","","psychophysics","39","148991","0.0-10.0-0.0-0.1","1520","","j","","","","","","","","","","","","","key","j","9.05161732851989","768","428","j","true","img/H_28.png","生人","freeprac_friend","",""
"","","","","","html-keyboard-response","40","149298","0.0-10.0-0.0-1.1","null","<span style='color:GreenYellow; font-size: 70px;'>正确! </span>","null","","","","","","","","","","","","","","","","","","","","","","","feedback_test",""
"","","","","","psychophysics","41","151727","0.0-10.0-0.0-0.2","1428","","j","","","","","","","","","","","","","key","j","9.70167871485953","768","428","j","true","img/S_28.png","朋友","freeprac_friend","",""
"","","","","","html-keyboard-response","42","152028","0.0-10.0-0.0-1.2","null","<span style='color:GreenYellow; font-size: 70px;'>正确! </span>","null","","","","","","","","","","","","","","","","","","","","","","","feedback_test",""
"","","","","","psychophysics","43","154355","0.0-10.0-0.0-0.3","1319","","k","","","","","","","","","","","","","key","k","9.854493617021202","768","428","k","true","img/S_28.png","生人","freeprac_friend","",""
"","","","","","html-keyboard-response","44","154663","0.0-10.0-0.0-1.3","null","<span style='color:GreenYellow; font-size: 70px;'>正确! </span>","null","","","","","","","","","","","","","","","","","","","","","","","feedback_test",""
"","","","","","psychophysics","45","156998","0.0-10.0-0.0-0.4","1330","","k","","","","","","","","","","","","","key","k","9.764806722689096","768","428","k","true","img/H_28.png","自我","freeprac_friend","",""
"","","","","","html-keyboard-response","46","157302","0.0-10.0-0.0-1.4","null","<span style='color:GreenYellow; font-size: 70px;'>正确! </span>","null","","","","","","","","","","","","","","","","","","","","","","","feedback_test",""
"","","","","","psychophysics","47","159247","0.0-10.0-0.0-0.5","939","","k","","","","","","","","","","","","","key","k","9.340961165048602","768","428","k","true","img/S_28.png","生人","freeprac_friend","",""
"","","","","","html-keyboard-response","48","159560","0.0-10.0-0.0-1.5","null","<span style='color:GreenYellow; font-size: 70px;'>正确! </span>","null","","","","","","","","","","","","","","","","","","","","","","","feedback_test",""
"","","","","","psychophysics","49","161401","0.0-10.0-0.0-0.6","840","","k","","","","","","","","","","","","","key","k","9.645531578947281","768","428","d","false","img/C_28.png","朋友","freeprac_friend","",""
"","","","","","html-keyboard-response","50","161716","0.0-10.0-0.0-1.6","null","<span style='color:red; font-size: 70px;'>错误! </span>","null","","","","","","","","","","","","","","","","","","","","","","","feedback_test",""
"","","","","","psychophysics","51","163861","0.0-10.0-0.0-0.7","1137","","k","","","","","","","","","","","","","key","k","9.73693607305934","768","428","k","true","img/H_28.png","自我","freeprac_friend","",""
"","","","","","html-keyboard-response","52","164162","0.0-10.0-0.0-1.7","null","<span style='color:GreenYellow; font-size: 70px;'>正确! </span>","null","","","","","","","","","","","","","","","","","","","","","","","feedback_test",""
"","","","","","psychophysics","53","166200","0.0-10.0-0.0-0.8","1036","","k","","","","","","","","","","","","","key","k","9.542300469483475","768","428","j","false","img/H_28.png","朋友","freeprac_friend","",""
"","","","","","html-keyboard-response","54","166504","0.0-10.0-0.0-1.8","null","<span style='color:red; font-size: 70px;'>错误! </span>","null","","","","","","","","","","","","","","","","","","","","","","","feedback_test",""
"","","","","","psychophysics","55","168649","0.0-10.0-0.0-0.9","1136","","d","","","","","","","","","","","","","key","d","9.73371232876721","768","428","d","true","img/C_28.png","朋友","freeprac_friend","",""
"","","","","","html-keyboard-response","56","168957","0.0-10.0-0.0-1.9","null","<span style='color:GreenYellow; font-size: 70px;'>正确! </span>","null","","","","","","","","","","","","","","","","","","","","","","","feedback_test",""
"","","","","","psychophysics","57","171069","0.0-10.0-0.0-0.10","1110","","f","","","","","","","","","","","","","key","f","9.62919724770646","768","428","f","true","img/C_28.png","生人","freeprac_friend","",""
"","","","","","html-keyboard-response","58","171372","0.0-10.0-0.0-1.10","null","<span style='color:GreenYellow; font-size: 70px;'>正确! </span>","null","","","","","","","","","","","","","","","","","","","","","","","feedback_test",""
"","","","","","psychophysics","59","173555","0.0-10.0-0.0-0.11","1183","","f","","","","","","","","","","","","","key","f","9.927310502282998","768","428","f","true","img/C_28.png","自我","freeprac_friend","",""
"","","","","","html-keyboard-response","60","173862","0.0-10.0-0.0-1.11","null","<span style='color:GreenYellow; font-size: 70px;'>正确! </span>","null","","","","","","","","","","","","","","","","","","","","","","","feedback_test",""
"","","","","","html-keyboard-response","61","176001","0.0-11.0","2138","[""<style>.context{color:white; font-size: 35px; line-height:40px}</style>               <div><p class='context'>您正确回答了83% 的试次。</p><p class='context'>您的平均反应时为1268毫秒。</p><p class='context'>恭喜您完成这一阶段的练习。按任意键进入<span style='color: yellow;'>重点关注图形为“生人”</span>的练习。</p></div><p class='footer' style='font-size:35px; line-height:30px;'>任务要求：\n               <p class='footer' style='font-size:35px; line-height:35px;'>对与“生人”对应的图形，如果 匹配 ，请按 <span style=\""color: lightgreen;\"">d键</span></p><p class='footer' style='font-size:35px'>如果 不匹配 ，请按<span style=\""color: lightgreen;\"">f键</p></span>\n               <p class='footer' style='font-size:35px; line-height:35px;'>对非“生人”对应的图形，如果 匹配 ，请按 <span style=\""color: lightgreen;\"">k键</span></p><p class='footer' style='font-size:35px'>如果 不匹配 ，请按<span style=\""color: lightgreen;\"">j键</p></span>\n               <p class='footer' style='font-size:22px; line-height:25px;'>请在实验过程中将您的<span style=\""color: lightgreen;\"">食指和中指</span>放在电脑键盘的相应键位上进行按键。</p></span>""]"," ","","","","","","","","","","","","","","","","","","","","","","","",""
"","","","","","psychophysics","62","179741","0.0-12.0-0.0-0.0","2731","","j","","","","","","","","","","","","","key","j","9.903093085106446","768","428","j","true","img/H_28.png","朋友","freeprac_stranger","",""
"","","","","","html-keyboard-response","63","180044","0.0-12.0-0.0-1.0","null","<span style='color:GreenYellow; font-size: 70px;'>正确! </span>","null","","","","","","","","","","","","","","","","","","","","","","","feedback_test",""
"","","","","","psychophysics","64","183637","0.0-12.0-0.0-0.1","2590","","f","","","","","","","","","","","","","key","f","9.840211538461537","768","428","f","true","img/S_28.png","朋友","freeprac_stranger","",""
"","","","","","html-keyboard-response","65","183945","0.0-12.0-0.0-1.1","null","<span style='color:GreenYellow; font-size: 70px;'>正确! </span>","null","","","","","","","","","","","","","","","","","","","","","","","feedback_test",""
"","","","","","psychophysics","66","186709","0.0-12.0-0.0-0.2","1762","","j","","","","","","","","","","","","","key","j","9.852634408602183","768","428","j","true","img/C_28.png","生人","freeprac_stranger","",""
"","","","","","html-keyboard-response","67","187022","0.0-12.0-0.0-1.2","null","<span style='color:GreenYellow; font-size: 70px;'>正确! </span>","null","","","","","","","","","","","","","","","","","","","","","","","feedback_test",""
"","","","","","psychophysics","68","189854","0.0-12.0-0.0-0.3","1823","","k","","","","","","","","","","","","","key","k","9.77578125000006","768","428","k","true","img/H_28.png","自我","freeprac_stranger","",""
"","","","","","html-keyboard-response","69","190167","0.0-12.0-0.0-1.3","null","<span style='color:GreenYellow; font-size: 70px;'>正确! </span>","null","","","","","","","","","","","","","","","","","","","","","","","feedback_test",""
"","","","","","psychophysics","70","192760","0.0-12.0-0.0-0.4","1590","","j","","","","","","","","","","","","","key","j","9.6708951310862","768","428","j","true","img/H_28.png","生人","freeprac_stranger","",""
"","","","","","html-keyboard-response","71","193073","0.0-12.0-0.0-1.4","null","<span style='color:GreenYellow; font-size: 70px;'>正确! </span>","null","","","","","","","","","","","","","","","","","","","","","","","feedback_test",""
"","","","","","psychophysics","72","195172","0.0-12.0-0.0-0.5","1095","","k","","","","","","","","","","","","","key","k","9.72518139534879","768","428","k","true","img/H_28.png","自我","freeprac_stranger","",""
"","","","","","html-keyboard-response","73","195477","0.0-12.0-0.0-1.5","null","<span style='color:GreenYellow; font-size: 70px;'>正确! </span>","null","","","","","","","","","","","","","","","","","","","","","","","feedback_test",""
"","","","","","psychophysics","74","197651","0.0-12.0-0.0-0.6","1166","","j","","","","","","","","","","","","","key","j","9.594388392857192","768","428","j","true","img/C_28.png","自我","freeprac_stranger","",""
"","","","","","html-keyboard-response","75","197962","0.0-12.0-0.0-1.6","null","<span style='color:GreenYellow; font-size: 70px;'>正确! </span>","null","","","","","","","","","","","","","","","","","","","","","","","feedback_test",""
"","","","","","psychophysics","76","199864","0.0-12.0-0.0-0.7","898","","d","","","","","","","","","","","","","key","d","9.6472857142858","768","428","d","true","img/S_28.png","生人","freeprac_stranger","",""
"","","","","","html-keyboard-response","77","200172","0.0-12.0-0.0-1.7","null","<span style='color:GreenYellow; font-size: 70px;'>正确! </span>","null","","","","","","","","","","","","","","","","","","","","","","","feedback_test",""
"","","","","","psychophysics","78","201760","0.0-12.0-0.0-0.8","586","","d","","","","","","","","","","","","","key","d","9.591915151515137","768","428","d","true","img/S_28.png","生人","freeprac_stranger","",""
"","","","","","html-keyboard-response","79","202063","0.0-12.0-0.0-1.8","null","<span style='color:GreenYellow; font-size: 70px;'>正确! </span>","null","","","","","","","","","","","","","","","","","","","","","","","feedback_test",""
"","","","","","psychophysics","80","204087","0.0-12.0-0.0-0.9","1022","","f","","","","","","","","","","","","","key","f","9.463624413145439","768","428","f","true","img/S_28.png","自我","freeprac_stranger","",""
"","","","","","html-keyboard-response","81","204398","0.0-12.0-0.0-1.9","null","<span style='color:GreenYellow; font-size: 70px;'>正确! </span>","null","","","","","","","","","","","","","","","","","","","","","","","feedback_test",""
"","","","","","psychophysics","82","206674","0.0-12.0-0.0-0.10","1275","","k","","","","","","","","","","","","","key","k","9.850956521739135","768","428","k","true","img/C_28.png","朋友","freeprac_stranger","",""
"","","","","","html-keyboard-response","83","206988","0.0-12.0-0.0-1.10","null","<span style='color:GreenYellow; font-size: 70px;'>正确! </span>","null","","","","","","","","","","","","","","","","","","","","","","","feedback_test",""
"","","","","","psychophysics","84","208706","0.0-12.0-0.0-0.11","716","","k","","","","","","","","","","","","","key","k","9.546955056179653","768","428","k","true","img/C_28.png","朋友","freeprac_stranger","",""
"","","","","","html-keyboard-response","85","209015","0.0-12.0-0.0-1.11","null","<span style='color:GreenYellow; font-size: 70px;'>正确! </span>","null","","","","","","","","","","","","","","","","","","","","","","","feedback_test",""
"","","","","","instructions","86","241761","0.0-13.0","32746","","","","","","","","","","","","","","[{""page_index"":0,""viewing_time"":32746}]","","","","","","","","","","","",""
"","","","","","psychophysics","87","244264","0.0-14.0-0.0-0.0","null","","null","","","","","","","","","","","","","key","null","9.729453124999964","768","428","j","false","img/S_28.png","朋友","prac_self","","生人"
"","","","","","html-keyboard-response","88","244566","0.0-14.0-0.0-1.0","null","<span class='add_' style='color:yellow; font-size: 70px;'> 太慢! </span>","null","","","","","","","","","","","","","","","","","","","","","","","feedback_test",""
"","","","","","psychophysics","89","246609","0.0-14.0-0.0-0.1","1038","","k","","","","","","","","","","","","","key","k","9.54245539906092","768","428","k","true","img/S_28.png","生人","prac_self","","生人"
"","","","","","html-keyboard-response","90","246915","0.0-14.0-0.0-1.1","null","<span style='color:GreenYellow; font-size: 70px;'>正确! </span>","null","","","","","","","","","","","","","","","","","","","","","","","feedback_test",""
"","","","","","psychophysics","91","248640","0.0-14.0-0.0-0.2","718","","k","","","","","","","","","","","","","key","k","9.225591397849575","768","428","k","true","img/C_28.png","朋友","prac_self","","朋友"
"","","","","","html-keyboard-response","92","248949","0.0-14.0-0.0-1.2","null","<span style='color:GreenYellow; font-size: 70px;'>正确! </span>","null","","","","","","","","","","","","","","","","","","","","","","","feedback_test",""
"","","","","","psychophysics","93","251415","0.0-14.0-0.0-0.3","1465","","d","","","","","","","","","","","","","key","d","9.908383064516167","768","428","f","false","img/H_28.png","生人","prac_self","","自我"
"","","","","","html-keyboard-response","94","251724","0.0-14.0-0.0-1.3","null","<span style='color:red; font-size: 70px;'>错误! </span>","null","","","","","","","","","","","","","","","","","","","","","","","feedback_test",""
"","","","","","psychophysics","95","253870","0.0-14.0-0.0-0.4","1143","","k","","","","","","","","","","","","","key","k","10.003205607476575","768","428","f","false","img/H_28.png","朋友","prac_self","","自我"
"","","","","","html-keyboard-response","96","254180","0.0-14.0-0.0-1.4","null","<span style='color:red; font-size: 70px;'>错误! </span>","null","","","","","","","","","","","","","","","","","","","","","","","feedback_test",""
"","","","","","psychophysics","97","256631","0.0-14.0-0.0-0.5","1448","","f","","","","","","","","","","","","","key","f","9.841096774193565","768","428","j","false","img/C_28.png","自我","prac_self","","朋友"
"","","","","","html-keyboard-response","98","256936","0.0-14.0-0.0-1.5","null","<span style='color:red; font-size: 70px;'>错误! </span>","null","","","","","","","","","","","","","","","","","","","","","","","feedback_test",""
"","","","","","psychophysics","99","259438","0.0-14.0-0.0-0.6","null","","null","","","","","","","","","","","","","key","null","9.806106299212557","768","428","d","false","img/H_28.png","自我","prac_self","","自我"
"","","","","","html-keyboard-response","100","259746","0.0-14.0-0.0-1.6","null","<span class='add_' style='color:yellow; font-size: 70px;'> 太慢! </span>","null","","","","","","","","","","","","","","","","","","","","","","","feedback_test",""
"","","","","","psychophysics","101","261859","0.0-14.0-0.0-0.7","1110","","k","","","","","","","","","","","","","key","k","10.149883495145579","768","428","k","true","img/C_28.png","朋友","prac_self","","朋友"
"","","","","","html-keyboard-response","102","262166","0.0-14.0-0.0-1.7","null","<span style='color:GreenYellow; font-size: 70px;'>正确! </span>","null","","","","","","","","","","","","","","","","","","","","","","","feedback_test",""
"","","","","","psychophysics","103","264234","0.0-14.0-0.0-0.8","1064","","j","","","","","","","","","","","","","key","j","9.93986956521746","768","428","j","true","img/C_28.png","生人","prac_self","","朋友"
"","","","","","html-keyboard-response","104","264539","0.0-14.0-0.0-1.8","null","<span style='color:GreenYellow; font-size: 70px;'>正确! </span>","null","","","","","","","","","","","","","","","","","","","","","","","feedback_test",""
"","","","","","psychophysics","105","266790","0.0-14.0-0.0-0.9","1246","","d","","","","","","","","","","","","","key","d","10.326082949308798","768","428","d","true","img/H_28.png","自我","prac_self","","自我"
"","","","","","html-keyboard-response","106","267105","0.0-14.0-0.0-1.9","null","<span style='color:GreenYellow; font-size: 70px;'>正确! </span>","null","","","","","","","","","","","","","","","","","","","","","","","feedback_test",""
"","","","","","psychophysics","107","269580","0.0-14.0-0.0-0.10","1461","","j","","","","","","","","","","","","","key","j","10.813929824561408","768","428","j","true","img/S_28.png","自我","prac_self","","生人"
"","","","","","html-keyboard-response","108","269886","0.0-14.0-0.0-1.10","null","<span style='color:GreenYellow; font-size: 70px;'>正确! </span>","null","","","","","","","","","","","","","","","","","","","","","","","feedback_test",""
"","","","","","psychophysics","109","271763","0.0-14.0-0.0-0.11","876","","k","","","","","","","","","","","","","key","k","10.03160752688149","768","428","k","true","img/S_28.png","生人","prac_self","","生人"
"","","","","","html-keyboard-response","110","272071","0.0-14.0-0.0-1.11","null","<span style='color:GreenYellow; font-size: 70px;'>正确! </span>","null","","","","","","","","","","","","","","","","","","","","","","","feedback_test",""
"","","","","","psychophysics","111","273740","0.0-14.0-0.0-0.12","664","","k","","","","","","","","","","","","","key","k","9.418727272727251","768","428","k","true","img/S_28.png","生人","prac_self","","生人"
"","","","","","html-keyboard-response","112","274042","0.0-14.0-0.0-1.12","null","<span style='color:GreenYellow; font-size: 70px;'>正确! </span>","null","","","","","","","","","","","","","","","","","","","","","","","feedback_test",""
"","","","","","psychophysics","113","276550","0.0-14.0-0.0-0.13","null","","null","","","","","","","","","","","","","key","null","9.616741312741443","768","428","f","false","img/H_28.png","朋友","prac_self","","自我"
"","","","","","html-keyboard-response","114","276866","0.0-14.0-0.0-1.13","null","<span class='add_' style='color:yellow; font-size: 70px;'> 太慢! </span>","null","","","","","","","","","","","","","","","","","","","","","","","feedback_test",""
"","","","","","psychophysics","115","278601","0.0-14.0-0.0-0.14","733","","k","","","","","","","","","","","","","key","k","9.733395480226244","768","428","k","true","img/S_28.png","生人","prac_self","","生人"
"","","","","","html-keyboard-response","116","278905","0.0-14.0-0.0-1.14","null","<span style='color:GreenYellow; font-size: 70px;'>正确! </span>","null","","","","","","","","","","","","","","","","","","","","","","","feedback_test",""
"","","","","","psychophysics","117","280934","0.0-14.0-0.0-0.15","1027","","k","","","","","","","","","","","","","key","k","9.922122549019667","768","428","d","false","img/H_28.png","自我","prac_self","","自我"
"","","","","","html-keyboard-response","118","281236","0.0-14.0-0.0-1.15","null","<span style='color:red; font-size: 70px;'>错误! </span>","null","","","","","","","","","","","","","","","","","","","","","","","feedback_test",""
"","","","","","psychophysics","119","283385","0.0-14.0-0.0-0.16","1145","","j","","","","","","","","","","","","","key","j","9.648742081448109","768","428","j","true","img/C_28.png","生人","prac_self","","朋友"
"","","","","","html-keyboard-response","120","283693","0.0-14.0-0.0-1.16","null","<span style='color:GreenYellow; font-size: 70px;'>正确! </span>","null","","","","","","","","","","","","","","","","","","","","","","","feedback_test",""
"","","","","","psychophysics","121","285527","0.0-14.0-0.0-0.17","830","","d","","","","","","","","","","","","","key","d","9.652169312169054","768","428","d","true","img/H_28.png","自我","prac_self","","自我"
"","","","","","html-keyboard-response","122","285832","0.0-14.0-0.0-1.17","null","<span style='color:GreenYellow; font-size: 70px;'>正确! </span>","null","","","","","","","","","","","","","","","","","","","","","","","feedback_test",""
"","","","","","psychophysics","123","287794","0.0-14.0-0.0-0.18","958","","j","","","","","","","","","","","","","key","j","10.004793814432954","768","428","j","true","img/S_28.png","朋友","prac_self","","生人"
"","","","","","html-keyboard-response","124","288106","0.0-14.0-0.0-1.18","null","<span style='color:GreenYellow; font-size: 70px;'>正确! </span>","null","","","","","","","","","","","","","","","","","","","","","","","feedback_test",""
"","","","","","psychophysics","125","290070","0.0-14.0-0.0-0.19","958","","k","","","","","","","","","","","","","key","k","9.745979999999982","768","428","k","true","img/C_28.png","朋友","prac_self","","朋友"
"","","","","","html-keyboard-response","126","290379","0.0-14.0-0.0-1.19","null","<span style='color:GreenYellow; font-size: 70px;'>正确! </span>","null","","","","","","","","","","","","","","","","","","","","","","","feedback_test",""
"","","","","","psychophysics","127","292319","0.0-14.0-0.0-0.20","934","","j","","","","","","","","","","","","","key","j","9.718338383838235","768","428","j","true","img/S_28.png","自我","prac_self","","生人"
"","","","","","html-keyboard-response","128","292626","0.0-14.0-0.0-1.20","null","<span style='color:GreenYellow; font-size: 70px;'>正确! </span>","null","","","","","","","","","","","","","","","","","","","","","","","feedback_test",""
"","","","","","psychophysics","129","294466","0.0-14.0-0.0-0.21","839","","k","","","","","","","","","","","","","key","k","9.703308510638346","768","428","k","true","img/C_28.png","朋友","prac_self","","朋友"
"","","","","","html-keyboard-response","130","294772","0.0-14.0-0.0-1.21","null","<span style='color:GreenYellow; font-size: 70px;'>正确! </span>","null","","","","","","","","","","","","","","","","","","","","","","","feedback_test",""
"","","","","","psychophysics","131","297023","0.0-14.0-0.0-0.22","1249","","d","","","","","","","","","","","","","key","d","9.914805309734703","768","428","f","false","img/H_28.png","生人","prac_self","","自我"
"","","","","","html-keyboard-response","132","297331","0.0-14.0-0.0-1.22","null","<span style='color:red; font-size: 70px;'>错误! </span>","null","","","","","","","","","","","","","","","","","","","","","","","feedback_test",""
"","","","","","psychophysics","133","299512","0.0-14.0-0.0-0.23","1179","","k","","","","","","","","","","","","","key","k","9.934862385321047","768","428","j","false","img/C_28.png","自我","prac_self","","朋友"
"","","","","","html-keyboard-response","134","299820","0.0-14.0-0.0-1.23","null","<span style='color:red; font-size: 70px;'>错误! </span>","null","","","","","","","","","","","","","","","","","","","","","","","feedback_test",""
"","","","","","html-keyboard-response","135","303565","0.0-14.0-1.0-0.0","3744","<style>.context{color:white; font-size: 35px; line-height:40px}</style>                           <div><p class='context'>您正确回答了63% 的试次。</p><p class='context'>您的平均反应时为972毫秒。</p>"," ","","","","","","","","","","","","","","","","","","","","","","","",""
"","","","","","instructions","136","314653","0.0-14.0-1.0-1.0","11086","","","","","","","","","","","","","","[{""page_index"":0,""viewing_time"":2252},{""page_index"":1,""viewing_time"":4016},{""page_index"":2,""viewing_time"":4818}]","","","","","","","","","","","",""
"","","","","","psychophysics","137","317156","0.0-14.1-0.1-0.24","null","","null","","","","","","","","","","","","","key","null","9.616359073359252","768","428","j","false","img/S_28.png","朋友","prac_self","","生人"
"","","","","","html-keyboard-response","138","317464","0.0-14.1-0.1-1.24","null","<span class='add_' style='color:yellow; font-size: 70px;'> 太慢! </span>","null","","","","","","","","","","","","","","","","","","","","","","","feedback_test",""
"","","","","","psychophysics","139","319186","0.0-14.1-0.1-0.25","720","","k","","","","","","","","","","","","","key","k","9.976360465116327","768","428","k","true","img/C_28.png","朋友","prac_self","","朋友"
"","","","","","html-keyboard-response","140","319502","0.0-14.1-0.1-1.25","null","<span style='color:GreenYellow; font-size: 70px;'>正确! </span>","null","","","","","","","","","","","","","","","","","","","","","","","feedback_test",""
"","","","","","psychophysics","141","321641","0.0-14.1-0.1-0.26","1134","","d","","","","","","","","","","","","","key","d","9.692995454545335","768","428","d","true","img/H_28.png","自我","prac_self","","自我"
"","","","","","html-keyboard-response","142","321954","0.0-14.1-0.1-1.26","null","<span style='color:GreenYellow; font-size: 70px;'>正确! </span>","null","","","","","","","","","","","","","","","","","","","","","","","feedback_test",""
"","","","","","psychophysics","143","323727","0.0-14.1-0.1-0.27","771","","k","","","","","","","","","","","","","key","k","9.810800000000098","768","428","k","true","img/S_28.png","生人","prac_self","","生人"
"","","","","","html-keyboard-response","144","324035","0.0-14.1-0.1-1.27","null","<span style='color:GreenYellow; font-size: 70px;'>正确! </span>","null","","","","","","","","","","","","","","","","","","","","","","","feedback_test",""
"","","","","","psychophysics","145","326538","0.0-14.1-0.1-0.28","null","","null","","","","","","","","","","","","","key","null","9.691093385213911","768","428","f","false","img/H_28.png","朋友","prac_self","","自我"
"","","","","","html-keyboard-response","146","326853","0.0-14.1-0.1-1.28","null","<span class='add_' style='color:yellow; font-size: 70px;'> 太慢! </span>","null","","","","","","","","","","","","","","","","","","","","","","","feedback_test",""
"","","","","","psychophysics","147","329361","0.0-14.1-0.1-0.29","null","","null","","","","","","","","","","","","","key","null","9.878198412698573","768","428","j","false","img/S_28.png","自我","prac_self","","生人"
"","","","","","html-keyboard-response","148","329671","0.0-14.1-0.1-1.29","null","<span class='add_' style='color:yellow; font-size: 70px;'> 太慢! </span>","null","","","","","","","","","","","","","","","","","","","","","","","feedback_test",""
"","","","","","psychophysics","149","331690","0.0-14.1-0.1-0.30","1015","","j","","","","","","","","","","","","","key","j","9.698024154589556","768","428","j","true","img/C_28.png","自我","prac_self","","朋友"
"","","","","","html-keyboard-response","150","332004","0.0-14.1-0.1-1.30","null","<span style='color:GreenYellow; font-size: 70px;'>正确! </span>","null","","","","","","","","","","","","","","","","","","","","","","","feedback_test",""
"","","","","","psychophysics","151","333774","0.0-14.1-0.1-0.31","765","","k","","","","","","","","","","","","","key","k","9.551815217391539","768","428","k","true","img/C_28.png","朋友","prac_self","","朋友"
"","","","","","html-keyboard-response","152","334078","0.0-14.1-0.1-1.31","null","<span style='color:GreenYellow; font-size: 70px;'>正确! </span>","null","","","","","","","","","","","","","","","","","","","","","","","feedback_test",""
"","","","","","psychophysics","153","336140","0.0-14.1-0.1-0.32","1062","","d","","","","","","","","","","","","","key","d","9.620098591549322","768","428","d","true","img/H_28.png","自我","prac_self","","自我"
"","","","","","html-keyboard-response","154","336456","0.0-14.1-0.1-1.32","null","<span style='color:GreenYellow; font-size: 70px;'>正确! </span>","null","","","","","","","","","","","","","","","","","","","","","","","feedback_test",""
"","","","","","psychophysics","155","338211","0.0-14.1-0.1-0.33","753","","k","","","","","","","","","","","","","key","k","9.883141242937805","768","428","k","true","img/S_28.png","生人","prac_self","","生人"
"","","","","","html-keyboard-response","156","338526","0.0-14.1-0.1-1.33","null","<span style='color:GreenYellow; font-size: 70px;'>正确! </span>","null","","","","","","","","","","","","","","","","","","","","","","","feedback_test",""
"","","","","","psychophysics","157","340624","0.0-14.1-0.1-0.34","1092","","k","","","","","","","","","","","","","key","k","9.63506451612907","768","428","f","false","img/H_28.png","生人","prac_self","","自我"
"","","","","","html-keyboard-response","158","340932","0.0-14.1-0.1-1.34","null","<span style='color:red; font-size: 70px;'>错误! </span>","null","","","","","","","","","","","","","","","","","","","","","","","feedback_test",""
"","","","","","psychophysics","159","342817","0.0-14.1-0.1-0.35","882","","j","","","","","","","","","","","","","key","j","9.611646153846195","768","428","j","true","img/C_28.png","生人","prac_self","","朋友"
"","","","","","html-keyboard-response","160","343121","0.0-14.1-0.1-1.35","null","<span style='color:GreenYellow; font-size: 70px;'>正确! </span>","null","","","","","","","","","","","","","","","","","","","","","","","feedback_test",""
"","","","","","psychophysics","161","344861","0.0-14.1-0.1-0.36","738","","k","","","","","","","","","","","","","key","k","9.734988700565264","768","428","k","true","img/S_28.png","生人","prac_self","","生人"
"","","","","","html-keyboard-response","162","345164","0.0-14.1-0.1-1.36","null","<span style='color:GreenYellow; font-size: 70px;'>正确! </span>","null","","","","","","","","","","","","","","","","","","","","","","","feedback_test",""
"","","","","","psychophysics","163","347490","0.0-14.1-0.1-0.37","1321","","f","","","","","","","","","","","","","key","f","9.853936170212716","768","428","f","true","img/H_28.png","朋友","prac_self","","自我"
"","","","","","html-keyboard-response","164","347790","0.0-14.1-0.1-1.37","null","<span style='color:GreenYellow; font-size: 70px;'>正确! </span>","null","","","","","","","","","","","","","","","","","","","","","","","feedback_test",""
"","","","","","psychophysics","165","349635","0.0-14.1-0.1-0.38","840","","k","","","","","","","","","","","","","key","k","9.59475392670156","768","428","k","true","img/C_28.png","朋友","prac_self","","朋友"
"","","","","","html-keyboard-response","166","349938","0.0-14.1-0.1-1.38","null","<span style='color:GreenYellow; font-size: 70px;'>正确! </span>","null","","","","","","","","","","","","","","","","","","","","","","","feedback_test",""
"","","","","","psychophysics","167","351667","0.0-14.1-0.1-0.39","724","","k","","","","","","","","","","","","","key","k","9.428428571428503","768","428","k","true","img/S_28.png","生人","prac_self","","生人"
"","","","","","html-keyboard-response","168","351973","0.0-14.1-0.1-1.39","null","<span style='color:GreenYellow; font-size: 70px;'>正确! </span>","null","","","","","","","","","","","","","","","","","","","","","","","feedback_test",""
"","","","","","psychophysics","169","354125","0.0-14.1-0.1-0.40","1149","","d","","","","","","","","","","","","","key","d","9.64920361990971","768","428","d","true","img/H_28.png","自我","prac_self","","自我"
"","","","","","html-keyboard-response","170","354440","0.0-14.1-0.1-1.40","null","<span style='color:GreenYellow; font-size: 70px;'>正确! </span>","null","","","","","","","","","","","","","","","","","","","","","","","feedback_test",""
"","","","","","psychophysics","171","356252","0.0-14.1-0.1-0.41","809","","f","","","","","","","","","","","","","key","f","9.718440860215079","768","428","f","true","img/H_28.png","生人","prac_self","","自我"
"","","","","","html-keyboard-response","172","356556","0.0-14.1-0.1-1.41","null","<span style='color:GreenYellow; font-size: 70px;'>正确! </span>","null","","","","","","","","","","","","","","","","","","","","","","","feedback_test",""
"","","","","","psychophysics","173","358439","0.0-14.1-0.1-0.42","881","","j","","","","","","","","","","","","","key","j","9.61165641025634","768","428","j","true","img/S_28.png","朋友","prac_self","","生人"
"","","","","","html-keyboard-response","174","358746","0.0-14.1-0.1-1.42","null","<span style='color:GreenYellow; font-size: 70px;'>正确! </span>","null","","","","","","","","","","","","","","","","","","","","","","","feedback_test",""
"","","","","","psychophysics","175","360536","0.0-14.1-0.1-0.43","787","","k","","","","","","","","","","","","","key","k","9.741584699453666","768","428","j","false","img/C_28.png","自我","prac_self","","朋友"
"","","","","","html-keyboard-response","176","360844","0.0-14.1-0.1-1.43","null","<span style='color:red; font-size: 70px;'>错误! </span>","null","","","","","","","","","","","","","","","","","","","","","","","feedback_test",""
"","","","","","psychophysics","177","362942","0.0-14.1-0.1-0.44","1093","","j","","","","","","","","","","","","","key","j","9.770359813083925","768","428","j","true","img/S_28.png","自我","prac_self","","生人"
"","","","","","html-keyboard-response","178","363254","0.0-14.1-0.1-1.44","null","<span style='color:GreenYellow; font-size: 70px;'>正确! </span>","null","","","","","","","","","","","","","","","","","","","","","","","feedback_test",""
"","","","","","psychophysics","179","365405","0.0-14.1-0.1-0.45","1140","","j","","","","","","","","","","","","","key","j","9.867259259259164","768","428","j","true","img/C_28.png","生人","prac_self","","朋友"
"","","","","","html-keyboard-response","180","365718","0.0-14.1-0.1-1.45","null","<span style='color:GreenYellow; font-size: 70px;'>正确! </span>","null","","","","","","","","","","","","","","","","","","","","","","","feedback_test",""
"","","","","","psychophysics","181","367519","0.0-14.1-0.1-0.46","796","","k","","","","","","","","","","","","","key","k","9.376450261780114","768","428","k","true","img/C_28.png","朋友","prac_self","","朋友"
"","","","","","html-keyboard-response","182","367826","0.0-14.1-0.1-1.46","null","<span style='color:GreenYellow; font-size: 70px;'>正确! </span>","null","","","","","","","","","","","","","","","","","","","","","","","feedback_test",""
"","","","","","psychophysics","183","370176","0.0-14.1-0.1-0.47","1347","","f","","","","","","","","","","","","","key","f","9.793527196652683","768","428","d","false","img/H_28.png","自我","prac_self","","自我"
"","","","","","html-keyboard-response","184","370480","0.0-14.1-0.1-1.47","null","<span style='color:red; font-size: 70px;'>错误! </span>","null","","","","","","","","","","","","","","","","","","","","","","","feedback_test",""
"","","","","","html-keyboard-response","185","379292","0.0-15.0","8811","[""<style>.context{color:white; font-size: 35px; line-height:40px}</style>           <div><p class='context'>您正确回答了75% 的试次。</p><p class='context'>您的平均反应时为922毫秒。</p><p class='context'>恭喜您完成这一阶段的练习。按任意键进入<span style='color: yellow;'>重点关注图形为“朋友”</span>的练习。</p></div><p class='footer' style='font-size:35px; line-height:30px;'>任务要求：\n           <p class='footer' style='font-size:35px; line-height:35px;'>对于与“朋友”对应的图形：如果 匹配 ，请按 <span style=\""color: lightgreen;\"">d键</span></p><p class='footer' style='font-size:35px'>如果 不匹配 ，请按<span style=\""color: lightgreen;\"">f键</p></span>\n           <p class='footer' style='font-size:35px; line-height:35px;'>对于非“朋友”对应的图形：如果 匹配 ，请按 <span style=\""color: lightgreen;\"">k键</span></p><p class='footer' style='font-size:35px'>如果 不匹配 ，请按<span style=\""color: lightgreen;\"">j键</p></span>\n           <p class='footer' style='font-size:22px; line-height:25px;'>请在实验过程中将您的<span style=\""color: lightgreen;\"">食指和中指</span>放在电脑键盘的相应键位上进行按键。</p></span>""]"," ","","","","","","","","","","","","","","","","","","","","","","","",""
"","","","","","psychophysics","186","381209","0.0-16.0-0.0-0.0","910","","d","","","","","","","","","","","","","key","d","9.732341836734642","768","428","d","true","img/C_28.png","朋友","prac_friend","","朋友"
"","","","","","html-keyboard-response","187","381522","0.0-16.0-0.0-1.0","null","<span style='color:GreenYellow; font-size: 70px;'>正确! </span>","null","","","","","","","","","","","","","","","","","","","","","","","feedback_test",""
"","","","","","psychophysics","188","384024","0.0-16.0-0.0-0.1","null","","null","","","","","","","","","","","","","key","null","9.087134545454544","768","428","j","false","img/H_28.png","生人","prac_friend","","自我"
"","","","","","html-keyboard-response","189","384328","0.0-16.0-0.0-1.1","null","<span class='add_' style='color:yellow; font-size: 70px;'> 太慢! </span>","null","","","","","","","","","","","","","","","","","","","","","","","feedback_test",""
"","","","","","psychophysics","190","386621","0.0-16.0-0.0-0.2","1291","","j","","","","","","","","","","","","","key","j","9.796313304721144","768","428","j","true","img/H_28.png","朋友","prac_friend","","自我"
"","","","","","html-keyboard-response","191","386931","0.0-16.0-0.0-1.2","null","<span style='color:GreenYellow; font-size: 70px;'>正确! </span>","null","","","","","","","","","","","","","","","","","","","","","","","feedback_test",""
"","","","","","psychophysics","192","388754","0.0-16.0-0.0-0.3","822","","k","","","","","","","","","","","","","key","k","9.666855614973521","768","428","k","true","img/S_28.png","生人","prac_friend","","生人"
"","","","","","html-keyboard-response","193","389059","0.0-16.0-0.0-1.3","null","<span style='color:GreenYellow; font-size: 70px;'>正确! </span>","null","","","","","","","","","","","","","","","","","","","","","","","feedback_test",""
"","","","","","psychophysics","194","391111","0.0-16.0-0.0-0.4","1047","","j","","","","","","","","","","","","","key","j","9.955356097560967","768","428","j","true","img/S_28.png","朋友","prac_friend","","生人"
"","","","","","html-keyboard-response","195","391424","0.0-16.0-0.0-1.4","null","<span style='color:GreenYellow; font-size: 70px;'>正确! </span>","null","","","","","","","","","","","","","","","","","","","","","","","feedback_test",""
"","","","","","psychophysics","196","393330","0.0-16.0-0.0-0.5","902","","j","","","","","","","","","","","","","key","j","9.739728205128072","768","428","k","false","img/H_28.png","自我","prac_friend","","自我"
"","","","","","html-keyboard-response","197","393646","0.0-16.0-0.0-1.5","null","<span style='color:red; font-size: 70px;'>错误! </span>","null","","","","","","","","","","","","","","","","","","","","","","","feedback_test",""
"","","","","","psychophysics","198","395505","0.0-16.0-0.0-0.6","853","","k","","","","","","","","","","","","","key","k","9.996837837837724","768","428","d","false","img/C_28.png","朋友","prac_friend","","朋友"
"","","","","","html-keyboard-response","199","395809","0.0-16.0-0.0-1.6","null","<span style='color:red; font-size: 70px;'>错误! </span>","null","","","","","","","","","","","","","","","","","","","","","","","feedback_test",""
"","","","","","psychophysics","200","397944","0.0-16.0-0.0-0.7","1133","","k","","","","","","","","","","","","","key","k","10.06684834123214","768","428","k","true","img/H_28.png","自我","prac_friend","","自我"
"","","","","","html-keyboard-response","201","398249","0.0-16.0-0.0-1.7","null","<span style='color:GreenYellow; font-size: 70px;'>正确! </span>","null","","","","","","","","","","","","","","","","","","","","","","","feedback_test",""
"","","","","","psychophysics","202","400310","0.0-16.0-0.0-0.8","1060","","j","","","","","","","","","","","","","key","j","9.754519047618876","768","428","f","false","img/C_28.png","生人","prac_friend","","朋友"
"","","","","","html-keyboard-response","203","400616","0.0-16.0-0.0-1.8","null","<span style='color:red; font-size: 70px;'>错误! </span>","null","","","","","","","","","","","","","","","","","","","","","","","feedback_test",""
"","","","","","psychophysics","204","403124","0.0-16.0-0.0-0.9","null","","null","","","","","","","","","","","","","key","null","9.844600790513867","768","428","k","false","img/S_28.png","生人","prac_friend","","生人"
"","","","","","html-keyboard-response","205","403428","0.0-16.0-0.0-1.9","null","<span class='add_' style='color:yellow; font-size: 70px;'> 太慢! </span>","null","","","","","","","","","","","","","","","","","","","","","","","feedback_test",""
"","","","","","psychophysics","206","405375","0.0-16.0-0.0-0.10","944","","k","","","","","","","","","","","","","key","k","9.704544999999925","768","428","f","false","img/C_28.png","自我","prac_friend","","朋友"
"","","","","","html-keyboard-response","207","405677","0.0-16.0-0.0-1.10","null","<span style='color:red; font-size: 70px;'>错误! </span>","null","","","","","","","","","","","","","","","","","","","","","","","feedback_test",""
"","","","","","psychophysics","208","407647","0.0-16.0-0.0-0.11","967","","j","","","","","","","","","","","","","key","j","9.73907462686569","768","428","j","true","img/S_28.png","自我","prac_friend","","生人"
"","","","","","html-keyboard-response","209","407948","0.0-16.0-0.0-1.11","null","<span style='color:GreenYellow; font-size: 70px;'>正确! </span>","null","","","","","","","","","","","","","","","","","","","","","","","feedback_test",""
"","","","","","psychophysics","210","410223","0.0-16.0-0.0-0.12","1269","","k","","","","","","","","","","","","","key","k","9.808411255411327","768","428","k","true","img/H_28.png","自我","prac_friend","","自我"
"","","","","","html-keyboard-response","211","410536","0.0-16.0-0.0-1.12","null","<span style='color:GreenYellow; font-size: 70px;'>正确! </span>","null","","","","","","","","","","","","","","","","","","","","","","","feedback_test",""
"","","","","","psychophysics","212","412453","0.0-16.0-0.0-0.13","916","","k","","","","","","","","","","","","","key","k","9.443202970297039","768","428","d","false","img/C_28.png","朋友","prac_friend","","朋友"
"","","","","","html-keyboard-response","213","412762","0.0-16.0-0.0-1.13","null","<span style='color:red; font-size: 70px;'>错误! </span>","null","","","","","","","","","","","","","","","","","","","","","","","feedback_test",""
"","","","","","psychophysics","214","414588","0.0-16.0-0.0-0.14","819","","f","","","","","","","","","","","","","key","f","10.258367231638582","768","428","f","true","img/C_28.png","自我","prac_friend","","朋友"
"","","","","","html-keyboard-response","215","414904","0.0-16.0-0.0-1.14","null","<span style='color:GreenYellow; font-size: 70px;'>正确! </span>","null","","","","","","","","","","","","","","","","","","","","","","","feedback_test",""
"","","","","","psychophysics","216","416729","0.0-16.0-0.0-0.15","822","","d","","","","","","","","","","","","","key","d","9.710930481283517","768","428","d","true","img/C_28.png","朋友","prac_friend","","朋友"
"","","","","","html-keyboard-response","217","417037","0.0-16.0-0.0-1.15","null","<span style='color:GreenYellow; font-size: 70px;'>正确! </span>","null","","","","","","","","","","","","","","","","","","","","","","","feedback_test",""
"","","","","","psychophysics","218","418755","0.0-16.0-0.0-0.16","713","","k","","","","","","","","","","","","","key","k","9.702545454545378","768","428","k","true","img/S_28.png","生人","prac_friend","","生人"
"","","","","","html-keyboard-response","219","419063","0.0-16.0-0.0-1.16","null","<span style='color:GreenYellow; font-size: 70px;'>正确! </span>","null","","","","","","","","","","","","","","","","","","","","","","","feedback_test",""
"","","","","","psychophysics","220","420897","0.0-16.0-0.0-0.17","831","","k","","","","","","","","","","","","","key","k","9.755433155080231","768","428","k","true","img/H_28.png","自我","prac_friend","","自我"
"","","","","","html-keyboard-response","221","421199","0.0-16.0-0.0-1.17","null","<span style='color:GreenYellow; font-size: 70px;'>正确! </span>","null","","","","","","","","","","","","","","","","","","","","","","","feedback_test",""
"","","","","","psychophysics","222","422976","0.0-16.0-0.0-0.18","769","","j","","","","","","","","","","","","","key","j","9.604579234972553","768","428","j","true","img/H_28.png","生人","prac_friend","","自我"
"","","","","","html-keyboard-response","223","423282","0.0-16.0-0.0-1.18","null","<span style='color:GreenYellow; font-size: 70px;'>正确! </span>","null","","","","","","","","","","","","","","","","","","","","","","","feedback_test",""
"","","","","","psychophysics","224","425208","0.0-16.0-0.0-0.19","922","","d","","","","","","","","","","","","","key","d","9.725329949238649","768","428","f","false","img/C_28.png","生人","prac_friend","","朋友"
"","","","","","html-keyboard-response","225","425521","0.0-16.0-0.0-1.19","null","<span style='color:red; font-size: 70px;'>错误! </span>","null","","","","","","","","","","","","","","","","","","","","","","","feedback_test",""
"","","","","","psychophysics","226","427444","0.0-16.0-0.0-0.20","921","","j","","","","","","","","","","","","","key","j","9.7343846153844","768","428","j","true","img/H_28.png","朋友","prac_friend","","自我"
"","","","","","html-keyboard-response","227","427748","0.0-16.0-0.0-1.20","null","<span style='color:GreenYellow; font-size: 70px;'>正确! </span>","null","","","","","","","","","","","","","","","","","","","","","","","feedback_test",""
"","","","","","psychophysics","228","429881","0.0-16.0-0.0-0.21","1127","","j","","","","","","","","","","","","","key","j","9.568148648648718","768","428","j","true","img/S_28.png","自我","prac_friend","","生人"
"","","","","","html-keyboard-response","229","430185","0.0-16.0-0.0-1.21","null","<span style='color:GreenYellow; font-size: 70px;'>正确! </span>","null","","","","","","","","","","","","","","","","","","","","","","","feedback_test",""
"","","","","","psychophysics","230","432014","0.0-16.0-0.0-0.22","827","","k","","","","","","","","","","","","","key","k","9.355789743589524","768","428","k","true","img/S_28.png","生人","prac_friend","","生人"
"","","","","","html-keyboard-response","231","432329","0.0-16.0-0.0-1.22","null","<span style='color:GreenYellow; font-size: 70px;'>正确! </span>","null","","","","","","","","","","","","","","","","","","","","","","","feedback_test",""
"","","","","","psychophysics","232","434146","0.0-16.0-0.0-0.23","811","","j","","","","","","","","","","","","","key","j","9.615037234042749","768","428","j","true","img/S_28.png","朋友","prac_friend","","生人"
"","","","","","html-keyboard-response","233","434449","0.0-16.0-0.0-1.23","null","<span style='color:GreenYellow; font-size: 70px;'>正确! </span>","null","","","","","","","","","","","","","","","","","","","","","","","feedback_test",""
"","","","","","html-keyboard-response","234","435432","0.0-16.0-1.0-0.0","982","<style>.context{color:white; font-size: 35px; line-height:40px}</style>                           <div><p class='context'>您正确回答了67% 的试次。</p><p class='context'>您的平均反应时为942毫秒。</p>"," ","","","","","","","","","","","","","","","","","","","","","","","",""
"","","","","","instructions","235","440090","0.0-16.0-1.0-1.0","4656","","","","","","","","","","","","","","[{""page_index"":0,""viewing_time"":1422},{""page_index"":1,""viewing_time"":2210},{""page_index"":2,""viewing_time"":1024}]","","","","","","","","","","","",""
"","","","","","psychophysics","236","442261","0.0-16.1-0.1-0.24","1166","","k","","","","","","","","","","","","","key","k","9.801577272727313","768","428","k","true","img/S_28.png","生人","prac_friend","","生人"
"","","","","","html-keyboard-response","237","442573","0.0-16.1-0.1-1.24","null","<span style='color:GreenYellow; font-size: 70px;'>正确! </span>","null","","","","","","","","","","","","","","","","","","","","","","","feedback_test",""
"","","","","","psychophysics","238","444632","0.0-16.1-0.1-0.25","1051","","j","","","","","","","","","","","","","key","j","9.581615023473999","768","428","j","true","img/H_28.png","生人","prac_friend","","自我"
"","","","","","html-keyboard-response","239","444934","0.0-16.1-0.1-1.25","null","<span style='color:GreenYellow; font-size: 70px;'>正确! </span>","null","","","","","","","","","","","","","","","","","","","","","","","feedback_test",""
"","","","","","psychophysics","240","447283","0.0-16.1-0.1-0.26","1348","","k","","","","","","","","","","","","","key","k","9.71266804979264","768","428","k","true","img/H_28.png","自我","prac_friend","","自我"
"","","","","","html-keyboard-response","241","447587","0.0-16.1-0.1-1.26","null","<span style='color:GreenYellow; font-size: 70px;'>正确! </span>","null","","","","","","","","","","","","","","","","","","","","","","","feedback_test",""
"","","","","","psychophysics","242","449406","0.0-16.1-0.1-0.27","809","","j","","","","","","","","","","","","","key","j","9.662117647058778","768","428","j","true","img/S_28.png","朋友","prac_friend","","生人"
"","","","","","html-keyboard-response","243","449711","0.0-16.1-0.1-1.27","null","<span style='color:GreenYellow; font-size: 70px;'>正确! </span>","null","","","","","","","","","","","","","","","","","","","","","","","feedback_test",""
"","","","","","psychophysics","244","451446","0.0-16.1-0.1-0.28","735","","d","","","","","","","","","","","","","key","d","9.735768361582084","768","428","d","true","img/C_28.png","朋友","prac_friend","","朋友"
"","","","","","html-keyboard-response","245","451757","0.0-16.1-0.1-1.28","null","<span style='color:GreenYellow; font-size: 70px;'>正确! </span>","null","","","","","","","","","","","","","","","","","","","","","","","feedback_test",""
"","","","","","psychophysics","246","453856","0.0-16.1-0.1-0.29","1095","","j","","","","","","","","","","","","","key","j","9.552981651376093","768","428","j","true","img/H_28.png","朋友","prac_friend","","自我"
"","","","","","html-keyboard-response","247","454158","0.0-16.1-0.1-1.29","null","<span style='color:GreenYellow; font-size: 70px;'>正确! </span>","null","","","","","","","","","","","","","","","","","","","","","","","feedback_test",""
"","","","","","psychophysics","248","456377","0.0-16.1-0.1-0.30","1217","","k","","","","","","","","","","","","","key","k","9.349375527426021","768","428","f","false","img/C_28.png","自我","prac_friend","","朋友"
"","","","","","html-keyboard-response","249","456689","0.0-16.1-0.1-1.30","null","<span style='color:red; font-size: 70px;'>错误! </span>","null","","","","","","","","","","","","","","","","","","","","","","","feedback_test",""
"","","","","","psychophysics","250","458720","0.0-16.1-0.1-0.31","1027","","f","","","","","","","","","","","","","key","f","9.458691588784927","768","428","f","true","img/C_28.png","生人","prac_friend","","朋友"
"","","","","","html-keyboard-response","251","459025","0.0-16.1-0.1-1.31","null","<span style='color:GreenYellow; font-size: 70px;'>正确! </span>","null","","","","","","","","","","","","","","","","","","","","","","","feedback_test",""
"","","","","","psychophysics","252","460938","0.0-16.1-0.1-0.32","909","","k","","","","","","","","","","","","","key","k","9.789850515463767","768","428","k","true","img/S_28.png","生人","prac_friend","","生人"
"","","","","","html-keyboard-response","253","461250","0.0-16.1-0.1-1.32","null","<span style='color:GreenYellow; font-size: 70px;'>正确! </span>","null","","","","","","","","","","","","","","","","","","","","","","","feedback_test",""
"","","","","","psychophysics","254","463250","0.0-16.1-0.1-0.33","995","","j","","","","","","","","","","","","","key","j","9.052534246575364","768","428","j","true","img/S_28.png","自我","prac_friend","","生人"
"","","","","","html-keyboard-response","255","463566","0.0-16.1-0.1-1.33","null","<span style='color:GreenYellow; font-size: 70px;'>正确! </span>","null","","","","","","","","","","","","","","","","","","","","","","","feedback_test",""
"","","","","","psychophysics","256","465294","0.0-16.1-0.1-0.34","721","","k","","","","","","","","","","","","","key","k","9.480226519337188","768","428","k","true","img/H_28.png","自我","prac_friend","","自我"
"","","","","","html-keyboard-response","257","465600","0.0-16.1-0.1-1.34","null","<span style='color:GreenYellow; font-size: 70px;'>正确! </span>","null","","","","","","","","","","","","","","","","","","","","","","","feedback_test",""
"","","","","","psychophysics","258","467511","0.0-16.1-0.1-0.35","906","","k","","","","","","","","","","","","","key","k","9.591863636363703","768","428","d","false","img/C_28.png","朋友","prac_friend","","朋友"
"","","","","","html-keyboard-response","259","467816","0.0-16.1-0.1-1.35","null","<span style='color:red; font-size: 70px;'>错误! </span>","null","","","","","","","","","","","","","","","","","","","","","","","feedback_test",""
"","","","","","psychophysics","260","469837","0.0-16.1-0.1-0.36","1016","","d","","","","","","","","","","","","","key","d","9.889527093595882","768","428","d","true","img/C_28.png","朋友","prac_friend","","朋友"
"","","","","","html-keyboard-response","261","470138","0.0-16.1-0.1-1.36","null","<span style='color:GreenYellow; font-size: 70px;'>正确! </span>","null","","","","","","","","","","","","","","","","","","","","","","","feedback_test",""
"","","","","","psychophysics","262","471815","0.0-16.1-0.1-0.37","670","","k","","","","","","","","","","","","","key","k","9.68588953488371","768","428","k","true","img/H_28.png","自我","prac_friend","","自我"
"","","","","","html-keyboard-response","263","472121","0.0-16.1-0.1-1.37","null","<span style='color:GreenYellow; font-size: 70px;'>正确! </span>","null","","","","","","","","","","","","","","","","","","","","","","","feedback_test",""
"","","","","","psychophysics","264","473850","0.0-16.1-0.1-0.38","723","","d","","","","","","","","","","","","","key","d","9.702250000000111","768","428","d","true","img/C_28.png","朋友","prac_friend","","朋友"
"","","","","","html-keyboard-response","265","474151","0.0-16.1-0.1-1.38","null","<span style='color:GreenYellow; font-size: 70px;'>正确! </span>","null","","","","","","","","","","","","","","","","","","","","","","","feedback_test",""
"","","","","","psychophysics","266","476460","0.0-16.1-0.1-0.39","1304","","k","","","","","","","","","","","","","key","k","9.741677966101788","768","428","k","true","img/S_28.png","生人","prac_friend","","生人"
"","","","","","html-keyboard-response","267","476762","0.0-16.1-0.1-1.39","null","<span style='color:GreenYellow; font-size: 70px;'>正确! </span>","null","","","","","","","","","","","","","","","","","","","","","","","feedback_test",""
"","","","","","psychophysics","268","478639","0.0-16.1-0.1-0.40","872","","j","","","","","","","","","","","","","key","j","9.624751295336736","768","428","j","true","img/S_28.png","自我","prac_friend","","生人"
"","","","","","html-keyboard-response","269","478945","0.0-16.1-0.1-1.40","null","<span style='color:GreenYellow; font-size: 70px;'>正确! </span>","null","","","","","","","","","","","","","","","","","","","","","","","feedback_test",""
"","","","","","psychophysics","270","480656","0.0-16.1-0.1-0.41","706","","k","","","","","","","","","","","","","key","k","9.710268571428356","768","428","j","false","img/H_28.png","生人","prac_friend","","自我"
"","","","","","html-keyboard-response","271","480957","0.0-16.1-0.1-1.41","null","<span style='color:red; font-size: 70px;'>错误! </span>","null","","","","","","","","","","","","","","","","","","","","","","","feedback_test",""
"","","","","","psychophysics","272","482820","0.0-16.1-0.1-0.42","862","","j","","","","","","","","","","","","","key","j","9.631510416666666","768","428","j","true","img/S_28.png","朋友","prac_friend","","生人"
"","","","","","html-keyboard-response","273","483128","0.0-16.1-0.1-1.42","null","<span style='color:GreenYellow; font-size: 70px;'>正确! </span>","null","","","","","","","","","","","","","","","","","","","","","","","feedback_test",""
"","","","","","psychophysics","274","484820","0.0-16.1-0.1-0.43","689","","d","","","","","","","","","","","","","key","d","9.560301136363375","768","428","f","false","img/C_28.png","自我","prac_friend","","朋友"
"","","","","","html-keyboard-response","275","485125","0.0-16.1-0.1-1.43","null","<span style='color:red; font-size: 70px;'>错误! </span>","null","","","","","","","","","","","","","","","","","","","","","","","feedback_test",""
"","","","","","psychophysics","276","487098","0.0-16.1-0.1-0.44","967","","j","","","","","","","","","","","","","key","j","9.543300970873707","768","428","j","true","img/H_28.png","朋友","prac_friend","","自我"
"","","","","","html-keyboard-response","277","487402","0.0-16.1-0.1-1.44","null","<span style='color:GreenYellow; font-size: 70px;'>正确! </span>","null","","","","","","","","","","","","","","","","","","","","","","","feedback_test",""
"","","","","","psychophysics","278","489207","0.0-16.1-0.1-0.45","803","","k","","","","","","","","","","","","","key","k","9.469968421052602","768","428","k","true","img/H_28.png","自我","prac_friend","","自我"
"","","","","","html-keyboard-response","279","489518","0.0-16.1-0.1-1.45","null","<span style='color:GreenYellow; font-size: 70px;'>正确! </span>","null","","","","","","","","","","","","","","","","","","","","","","","feedback_test",""
"","","","","","psychophysics","280","491509","0.0-16.1-0.1-0.46","989","","k","","","","","","","","","","","","","key","k","9.821920398009977","768","428","k","true","img/S_28.png","生人","prac_friend","","生人"
"","","","","","html-keyboard-response","281","491824","0.0-16.1-0.1-1.46","null","<span style='color:GreenYellow; font-size: 70px;'>正确! </span>","null","","","","","","","","","","","","","","","","","","","","","","","feedback_test",""
"","","","","","psychophysics","282","493682","0.0-16.1-0.1-0.47","855","","f","","","","","","","","","","","","","key","f","9.631661458333232","768","428","f","true","img/C_28.png","生人","prac_friend","","朋友"
"","","","","","html-keyboard-response","283","493986","0.0-16.1-0.1-1.47","null","<span style='color:GreenYellow; font-size: 70px;'>正确! </span>","null","","","","","","","","","","","","","","","","","","","","","","","feedback_test",""
"","","","","","html-keyboard-response","284","503908","0.0-17.0","9919","[""<style>.context{color:white; font-size: 35px; line-height:40px}</style>               <div><p class='context'>您正确回答了83% 的试次。</p><p class='context'>您的平均反应时为946毫秒。</p><p class='context'>恭喜您完成这一阶段的练习。按任意键进入<span style='color: yellow;'>重点关注图形为“生人”</span>的练习。</p></div><p class='footer' style='font-size:35px; line-height:30px;'>任务要求：\n               <p class='footer' style='font-size:35px; line-height:35px;'>对与“生人”对应的图形，如果 匹配 ，请按 <span style=\""color: lightgreen;\"">d键</span></p><p class='footer' style='font-size:35px'>如果 不匹配 ，请按<span style=\""color: lightgreen;\"">f键</p></span>\n               <p class='footer' style='font-size:35px; line-height:35px;'>对非“生人”对应的图形，如果 匹配 ，请按 <span style=\""color: lightgreen;\"">k键</span></p><p class='footer' style='font-size:35px'>如果 不匹配 ，请按<span style=\""color: lightgreen;\"">j键</p></span>\n               <p class='footer' style='font-size:22px; line-height:25px;'>请在实验过程中将您的<span style=\""color: lightgreen;\"">食指和中指</span>放在电脑键盘的相应键位上进行按键。</p></span>""]"," ","","","","","","","","","","","","","","","","","","","","","","","",""
"","","","","","psychophysics","285","506275","0.0-18.0-0.0-0.0","1363","","k","","","","","","","","","","","","","key","k","9.863112970711235","768","428","k","true","img/H_28.png","自我","prac_stranger","","自我"
"","","","","","html-keyboard-response","286","506584","0.0-18.0-0.0-1.0","null","<span style='color:GreenYellow; font-size: 70px;'>正确! </span>","null","","","","","","","","","","","","","","","","","","","","","","","feedback_test",""
"","","","","","psychophysics","287","508281","0.0-18.0-0.0-0.1","692","","k","","","","","","","","","","","","","key","k","9.553615819209316","768","428","k","true","img/H_28.png","自我","prac_stranger","","自我"
"","","","","","html-keyboard-response","288","508595","0.0-18.0-0.0-1.1","null","<span style='color:GreenYellow; font-size: 70px;'>正确! </span>","null","","","","","","","","","","","","","","","","","","","","","","","feedback_test",""
"","","","","","psychophysics","289","510605","0.0-18.0-0.0-0.2","1009","","j","","","","","","","","","","","","","key","j","9.799872549019604","768","428","f","false","img/S_28.png","朋友","prac_stranger","","生人"
"","","","","","html-keyboard-response","290","510916","0.0-18.0-0.0-1.2","null","<span style='color:red; font-size: 70px;'>错误! </span>","null","","","","","","","","","","","","","","","","","","","","","","","feedback_test",""
"","","","","","psychophysics","291","512910","0.0-18.0-0.0-0.3","991","","j","","","","","","","","","","","","","key","j","9.718107843137284","768","428","j","true","img/H_28.png","朋友","prac_stranger","","自我"
"","","","","","html-keyboard-response","292","513218","0.0-18.0-0.0-1.3","null","<span style='color:GreenYellow; font-size: 70px;'>正确! </span>","null","","","","","","","","","","","","","","","","","","","","","","","feedback_test",""
"","","","","","psychophysics","293","515463","0.0-18.0-0.0-0.4","1244","","j","","","","","","","","","","","","","key","j","9.575489270386171","768","428","k","false","img/C_28.png","朋友","prac_stranger","","朋友"
"","","","","","html-keyboard-response","294","515765","0.0-18.0-0.0-1.4","null","<span style='color:red; font-size: 70px;'>错误! </span>","null","","","","","","","","","","","","","","","","","","","","","","","feedback_test",""
"","","","","","psychophysics","295","518268","0.0-18.0-0.0-0.5","null","","null","","","","","","","","","","","","","key","null","9.611576923076958","768","428","j","false","img/H_28.png","生人","prac_stranger","","自我"
"","","","","","html-keyboard-response","296","518582","0.0-18.0-0.0-1.5","null","<span class='add_' style='color:yellow; font-size: 70px;'> 太慢! </span>","null","","","","","","","","","","","","","","","","","","","","","","","feedback_test",""
"","","","","","psychophysics","297","520513","0.0-18.0-0.0-0.6","931","","d","","","","","","","","","","","","","key","d","9.671555555555523","768","428","d","true","img/S_28.png","生人","prac_stranger","","生人"
"","","","","","html-keyboard-response","298","520822","0.0-18.0-0.0-1.6","null","<span style='color:GreenYellow; font-size: 70px;'>正确! </span>","null","","","","","","","","","","","","","","","","","","","","","","","feedback_test",""
"","","","","","psychophysics","299","523076","0.0-18.0-0.0-0.7","1253","","j","","","","","","","","","","","","","key","j","9.652725321888251","768","428","j","true","img/C_28.png","自我","prac_stranger","","朋友"
"","","","","","html-keyboard-response","300","523382","0.0-18.0-0.0-1.7","null","<span style='color:GreenYellow; font-size: 70px;'>正确! </span>","null","","","","","","","","","","","","","","","","","","","","","","","feedback_test",""
"","","","","","psychophysics","301","525432","0.0-18.0-0.0-0.8","1043","","k","","","","","","","","","","","","","key","k","9.859004830917938","768","428","f","false","img/S_28.png","自我","prac_stranger","","生人"
"","","","","","html-keyboard-response","302","525742","0.0-18.0-0.0-1.8","null","<span style='color:red; font-size: 70px;'>错误! </span>","null","","","","","","","","","","","","","","","","","","","","","","","feedback_test",""
"","","","","","psychophysics","303","528183","0.0-18.0-0.0-0.9","1436","","j","","","","","","","","","","","","","key","j","9.619043650793925","768","428","k","false","img/C_28.png","朋友","prac_stranger","","朋友"
"","","","","","html-keyboard-response","304","528489","0.0-18.0-0.0-1.9","null","<span style='color:red; font-size: 70px;'>错误! </span>","null","","","","","","","","","","","","","","","","","","","","","","","feedback_test",""
"","","","","","psychophysics","305","530996","0.0-18.0-0.0-0.10","null","","null","","","","","","","","","","","","","key","null","9.611299999999867","768","428","j","false","img/C_28.png","生人","prac_stranger","","朋友"
"","","","","","html-keyboard-response","306","531304","0.0-18.0-0.0-1.10","null","<span class='add_' style='color:yellow; font-size: 70px;'> 太慢! </span>","null","","","","","","","","","","","","","","","","","","","","","","","feedback_test",""
"","","","","","psychophysics","307","533811","0.0-18.0-0.0-0.11","null","","null","","","","","","","","","","","","","key","null","9.883559523809089","768","428","d","false","img/S_28.png","生人","prac_stranger","","生人"
"","","","","","html-keyboard-response","308","534127","0.0-18.0-0.0-1.11","null","<span class='add_' style='color:yellow; font-size: 70px;'> 太慢! </span>","null","","","","","","","","","","","","","","","","","","","","","","","feedback_test",""
"","","","","","psychophysics","309","535898","0.0-18.0-0.0-0.12","770","","k","","","","","","","","","","","","","key","k","9.604322404371667","768","428","f","false","img/S_28.png","自我","prac_stranger","","生人"
"","","","","","html-keyboard-response","310","536202","0.0-18.0-0.0-1.12","null","<span style='color:red; font-size: 70px;'>错误! </span>","null","","","","","","","","","","","","","","","","","","","","","","","feedback_test",""
"","","","","","psychophysics","311","538036","0.0-18.0-0.0-0.13","830","","j","","","","","","","","","","","","","key","j","9.755358288769939","768","428","j","true","img/H_28.png","朋友","prac_stranger","","自我"
"","","","","","html-keyboard-response","312","538349","0.0-18.0-0.0-1.13","null","<span style='color:GreenYellow; font-size: 70px;'>正确! </span>","null","","","","","","","","","","","","","","","","","","","","","","","feedback_test",""
"","","","","","psychophysics","313","540579","0.0-18.0-0.0-0.14","1227","","d","","","","","","","","","","","","","key","d","9.672117903930294","768","428","j","false","img/C_28.png","自我","prac_stranger","","朋友"
"","","","","","html-keyboard-response","314","540887","0.0-18.0-0.0-1.14","null","<span style='color:red; font-size: 70px;'>错误! </span>","null","","","","","","","","","","","","","","","","","","","","","","","feedback_test",""
"","","","","","psychophysics","315","542819","0.0-18.0-0.0-0.15","928","","k","","","","","","","","","","","","","key","k","9.621224999999976","768","428","d","false","img/S_28.png","生人","prac_stranger","","生人"
"","","","","","html-keyboard-response","316","543131","0.0-18.0-0.0-1.15","null","<span style='color:red; font-size: 70px;'>错误! </span>","null","","","","","","","","","","","","","","","","","","","","","","","feedback_test",""
"","","","","","psychophysics","317","545024","0.0-18.0-0.0-0.16","891","","k","","","","","","","","","","","","","key","k","9.75441450777179","768","428","k","true","img/H_28.png","自我","prac_stranger","","自我"
"","","","","","html-keyboard-response","318","545338","0.0-18.0-0.0-1.16","null","<span style='color:GreenYellow; font-size: 70px;'>正确! </span>","null","","","","","","","","","","","","","","","","","","","","","","","feedback_test",""
"","","","","","psychophysics","319","547439","0.0-18.0-0.0-0.17","1099","","k","","","","","","","","","","","","","key","k","9.774042253521328","768","428","f","false","img/S_28.png","朋友","prac_stranger","","生人"
"","","","","","html-keyboard-response","320","547745","0.0-18.0-0.0-1.17","null","<span style='color:red; font-size: 70px;'>错误! </span>","null","","","","","","","","","","","","","","","","","","","","","","","feedback_test",""
"","","","","","psychophysics","321","549737","0.0-18.0-0.0-0.18","983","","j","","","","","","","","","","","","","key","j","9.721699507389186","768","428","j","true","img/C_28.png","生人","prac_stranger","","朋友"
"","","","","","html-keyboard-response","322","550042","0.0-18.0-0.0-1.18","null","<span style='color:GreenYellow; font-size: 70px;'>正确! </span>","null","","","","","","","","","","","","","","","","","","","","","","","feedback_test",""
"","","","","","psychophysics","323","552013","0.0-18.0-0.0-0.19","968","","k","","","","","","","","","","","","","key","k","9.683763546798048","768","428","k","true","img/H_28.png","自我","prac_stranger","","自我"
"","","","","","html-keyboard-response","324","552327","0.0-18.0-0.0-1.19","null","<span style='color:GreenYellow; font-size: 70px;'>正确! </span>","null","","","","","","","","","","","","","","","","","","","","","","","feedback_test",""
"","","","","","psychophysics","325","554315","0.0-18.0-0.0-0.20","987","","k","","","","","","","","","","","","","key","k","9.630249999999982","768","428","d","false","img/S_28.png","生人","prac_stranger","","生人"
"","","","","","html-keyboard-response","326","554618","0.0-18.0-0.0-1.20","null","<span style='color:red; font-size: 70px;'>错误! </span>","null","","","","","","","","","","","","","","","","","","","","","","","feedback_test",""
"","","","","","psychophysics","327","556529","0.0-18.0-0.0-0.21","909","","j","","","","","","","","","","","","","key","j","9.690086734693793","768","428","k","false","img/C_28.png","朋友","prac_stranger","","朋友"
"","","","","","html-keyboard-response","328","556838","0.0-18.0-0.0-1.21","null","<span style='color:red; font-size: 70px;'>错误! </span>","null","","","","","","","","","","","","","","","","","","","","","","","feedback_test",""
"","","","","","psychophysics","329","558432","0.0-18.0-0.0-0.22","590","","k","","","","","","","","","","","","","key","k","9.650615853658543","768","428","k","true","img/C_28.png","朋友","prac_stranger","","朋友"
"","","","","","html-keyboard-response","330","558738","0.0-18.0-0.0-1.22","null","<span style='color:GreenYellow; font-size: 70px;'>正确! </span>","null","","","","","","","","","","","","","","","","","","","","","","","feedback_test",""
"","","","","","psychophysics","331","560649","0.0-18.0-0.0-0.23","908","","k","","","","","","","","","","","","","key","k","9.54340201005019","768","428","j","false","img/H_28.png","生人","prac_stranger","","自我"
"","","","","","html-keyboard-response","332","560959","0.0-18.0-0.0-1.23","null","<span style='color:red; font-size: 70px;'>错误! </span>","null","","","","","","","","","","","","","","","","","","","","","","","feedback_test",""
"","","","","","html-keyboard-response","333","562684","0.0-18.0-1.0-0.0","1722","<style>.context{color:white; font-size: 35px; line-height:40px}</style>                           <div><p class='context'>您正确回答了42% 的试次。</p><p class='context'>您的平均反应时为949毫秒。</p>"," ","","","","","","","","","","","","","","","","","","","","","","","",""
"","","","","","instructions","334","581122","0.0-18.0-1.0-1.0","18436","","","","","","","","","","","","","","[{""page_index"":0,""viewing_time"":1396},{""page_index"":1,""viewing_time"":11346},{""page_index"":2,""viewing_time"":5694}]","","","","","","","","","","","",""
"","","","","","psychophysics","335","583631","0.0-18.1-0.1-0.24","null","","null","","","","","","","","","","","","","key","null","9.729777343749902","768","428","d","false","img/S_28.png","生人","prac_stranger","","生人"
"","","","","","html-keyboard-response","336","583932","0.0-18.1-0.1-1.24","null","<span class='add_' style='color:yellow; font-size: 70px;'> 太慢! </span>","null","","","","","","","","","","","","","","","","","","","","","","","feedback_test",""
"","","","","","psychophysics","337","585653","0.0-18.1-0.1-0.25","719","","k","","","","","","","","","","","","","key","k","9.546926966292151","768","428","k","true","img/H_28.png","自我","prac_stranger","","自我"
"","","","","","html-keyboard-response","338","585957","0.0-18.1-0.1-1.25","null","<span style='color:GreenYellow; font-size: 70px;'>正确! </span>","null","","","","","","","","","","","","","","","","","","","","","","","feedback_test",""
"","","","","","psychophysics","339","587842","0.0-18.1-0.1-0.26","879","","k","","","","","","","","","","","","","key","k","9.761484374999782","768","428","k","true","img/H_28.png","自我","prac_stranger","","自我"
"","","","","","html-keyboard-response","340","588152","0.0-18.1-0.1-1.26","null","<span style='color:GreenYellow; font-size: 70px;'>正确! </span>","null","","","","","","","","","","","","","","","","","","","","","","","feedback_test",""
"","","","","","psychophysics","341","590121","0.0-18.1-0.1-0.27","967","","j","","","","","","","","","","","","","key","j","9.637225490196393","768","428","j","true","img/C_28.png","生人","prac_stranger","","朋友"
"","","","","","html-keyboard-response","342","590427","0.0-18.1-0.1-1.27","null","<span style='color:GreenYellow; font-size: 70px;'>正确! </span>","null","","","","","","","","","","","","","","","","","","","","","","","feedback_test",""
"","","","","","psychophysics","343","592563","0.0-18.1-0.1-0.28","1134","","f","","","","","","","","","","","","","key","f","9.830768518518502","768","428","d","false","img/S_28.png","生人","prac_stranger","","生人"
"","","","","","html-keyboard-response","344","592877","0.0-18.1-0.1-1.28","null","<span style='color:red; font-size: 70px;'>错误! </span>","null","","","","","","","","","","","","","","","","","","","","","","","feedback_test",""
"","","","","","psychophysics","345","594491","0.0-18.1-0.1-0.29","614","","d","","","","","","","","","","","","","key","d","9.520232142857","768","428","f","false","img/S_28.png","自我","prac_stranger","","生人"
"","","","","","html-keyboard-response","346","594801","0.0-18.1-0.1-1.29","null","<span style='color:red; font-size: 70px;'>错误! </span>","null","","","","","","","","","","","","","","","","","","","","","","","feedback_test",""
"","","","","","psychophysics","347","596753","0.0-18.1-0.1-0.30","951","","j","","","","","","","","","","","","","key","j","9.608391089109004","768","428","j","true","img/C_28.png","自我","prac_stranger","","朋友"
"","","","","","html-keyboard-response","348","597067","0.0-18.1-0.1-1.30","null","<span style='color:GreenYellow; font-size: 70px;'>正确! </span>","null","","","","","","","","","","","","","","","","","","","","","","","feedback_test",""
"","","","","","psychophysics","349","599306","0.0-18.1-0.1-0.31","1237","","j","","","","","","","","","","","","","key","j","9.754684210526696","768","428","j","true","img/H_28.png","朋友","prac_stranger","","自我"
"","","","","","html-keyboard-response","350","599612","0.0-18.1-0.1-1.31","null","<span style='color:GreenYellow; font-size: 70px;'>正确! </span>","null","","","","","","","","","","","","","","","","","","","","","","","feedback_test",""
"","","","","","psychophysics","351","601496","0.0-18.1-0.1-0.32","881","","k","","","","","","","","","","","","","key","k","9.612082051281602","768","428","k","true","img/C_28.png","朋友","prac_stranger","","朋友"
"","","","","","html-keyboard-response","352","601808","0.0-18.1-0.1-1.32","null","<span style='color:GreenYellow; font-size: 70px;'>正确! </span>","null","","","","","","","","","","","","","","","","","","","","","","","feedback_test",""
"","","","","","psychophysics","353","603483","0.0-18.1-0.1-0.33","669","","k","","","","","","","","","","","","","key","k","9.465846590909429","768","428","k","true","img/C_28.png","朋友","prac_stranger","","朋友"
"","","","","","html-keyboard-response","354","603796","0.0-18.1-0.1-1.33","null","<span style='color:GreenYellow; font-size: 70px;'>正确! </span>","null","","","","","","","","","","","","","","","","","","","","","","","feedback_test",""
"","","","","","psychophysics","355","606165","0.0-18.1-0.1-0.34","1367","","j","","","","","","","","","","","","","key","j","9.778074688796453","768","428","j","true","img/H_28.png","生人","prac_stranger","","自我"
"","","","","","html-keyboard-response","356","606481","0.0-18.1-0.1-1.34","null","<span style='color:GreenYellow; font-size: 70px;'>正确! </span>","null","","","","","","","","","","","","","","","","","","","","","","","feedback_test",""
"","","","","","psychophysics","357","608436","0.0-18.1-0.1-0.35","954","","j","","","","","","","","","","","","","key","j","9.663200000000069","768","428","f","false","img/S_28.png","朋友","prac_stranger","","生人"
"","","","","","html-keyboard-response","358","608742","0.0-18.1-0.1-1.35","null","<span style='color:red; font-size: 70px;'>错误! </span>","null","","","","","","","","","","","","","","","","","","","","","","","feedback_test",""
"","","","","","psychophysics","359","610766","0.0-18.1-0.1-0.36","1021","","k","","","","","","","","","","","","","key","k","9.691764423076865","768","428","k","true","img/C_28.png","朋友","prac_stranger","","朋友"
"","","","","","html-keyboard-response","360","611081","0.0-18.1-0.1-1.36","null","<span style='color:GreenYellow; font-size: 70px;'>正确! </span>","null","","","","","","","","","","","","","","","","","","","","","","","feedback_test",""
"","","","","","psychophysics","361","613163","0.0-18.1-0.1-0.37","1080","","j","","","","","","","","","","","","","key","j","9.514302752293656","768","428","j","true","img/C_28.png","生人","prac_stranger","","朋友"
"","","","","","html-keyboard-response","362","613471","0.0-18.1-0.1-1.37","null","<span style='color:GreenYellow; font-size: 70px;'>正确! </span>","null","","","","","","","","","","","","","","","","","","","","","","","feedback_test",""
"","","","","","psychophysics","363","615838","0.0-18.1-0.1-0.38","1362","","f","","","","","","","","","","","","","key","f","9.396148000000045","768","428","f","true","img/S_28.png","自我","prac_stranger","","生人"
"","","","","","html-keyboard-response","364","616143","0.0-18.1-0.1-1.38","null","<span style='color:GreenYellow; font-size: 70px;'>正确! </span>","null","","","","","","","","","","","","","","","","","","","","","","","feedback_test",""
"","","","","","psychophysics","365","618433","0.0-18.1-0.1-0.39","1283","","j","","","","","","","","","","","","","key","j","9.676940425531939","768","428","j","true","img/H_28.png","朋友","prac_stranger","","自我"
"","","","","","html-keyboard-response","366","618746","0.0-18.1-0.1-1.39","null","<span style='color:GreenYellow; font-size: 70px;'>正确! </span>","null","","","","","","","","","","","","","","","","","","","","","","","feedback_test",""
"","","","","","psychophysics","367","620684","0.0-18.1-0.1-0.40","935","","j","","","","","","","","","","","","","key","j","10.013062176165542","768","428","j","true","img/C_28.png","自我","prac_stranger","","朋友"
"","","","","","html-keyboard-response","368","620998","0.0-18.1-0.1-1.40","null","<span style='color:GreenYellow; font-size: 70px;'>正确! </span>","null","","","","","","","","","","","","","","","","","","","","","","","feedback_test",""
"","","","","","psychophysics","369","623103","0.0-18.1-0.1-0.41","1104","","f","","","","","","","","","","","","","key","f","9.768051643192903","768","428","f","true","img/S_28.png","朋友","prac_stranger","","生人"
"","","","","","html-keyboard-response","370","623408","0.0-18.1-0.1-1.41","null","<span style='color:GreenYellow; font-size: 70px;'>正确! </span>","null","","","","","","","","","","","","","","","","","","","","","","","feedback_test",""
"","","","","","psychophysics","371","625445","0.0-18.1-0.1-0.42","1030","","k","","","","","","","","","","","","","key","k","9.371185185185082","768","428","k","true","img/H_28.png","自我","prac_stranger","","自我"
"","","","","","html-keyboard-response","372","625758","0.0-18.1-0.1-1.42","null","<span style='color:GreenYellow; font-size: 70px;'>正确! </span>","null","","","","","","","","","","","","","","","","","","","","","","","feedback_test",""
"","","","","","psychophysics","373","627528","0.0-18.1-0.1-0.43","768","","d","","","","","","","","","","","","","key","d","9.657219780220109","768","428","d","true","img/S_28.png","生人","prac_stranger","","生人"
"","","","","","html-keyboard-response","374","627835","0.0-18.1-0.1-1.43","null","<span style='color:GreenYellow; font-size: 70px;'>正确! </span>","null","","","","","","","","","","","","","","","","","","","","","","","feedback_test",""
"","","","","","psychophysics","375","629614","0.0-18.1-0.1-0.44","777","","k","","","","","","","","","","","","","key","k","9.802784530386761","768","428","k","true","img/C_28.png","朋友","prac_stranger","","朋友"
"","","","","","html-keyboard-response","376","629926","0.0-18.1-0.1-1.44","null","<span style='color:GreenYellow; font-size: 70px;'>正确! </span>","null","","","","","","","","","","","","","","","","","","","","","","","feedback_test",""
"","","","","","psychophysics","377","632354","0.0-18.1-0.1-0.45","1426","","d","","","","","","","","","","","","","key","d","9.657290836653312","768","428","j","false","img/H_28.png","生人","prac_stranger","","自我"
"","","","","","html-keyboard-response","378","632666","0.0-18.1-0.1-1.45","null","<span style='color:red; font-size: 70px;'>错误! </span>","null","","","","","","","","","","","","","","","","","","","","","","","feedback_test",""
"","","","","","psychophysics","379","634482","0.0-18.1-0.1-0.46","814","","d","","","","","","","","","","","","","key","d","9.414682291667","768","428","d","true","img/S_28.png","生人","prac_stranger","","生人"
"","","","","","html-keyboard-response","380","634788","0.0-18.1-0.1-1.46","null","<span style='color:GreenYellow; font-size: 70px;'>正确! </span>","null","","","","","","","","","","","","","","","","","","","","","","","feedback_test",""
"","","","","","psychophysics","381","636557","0.0-18.1-0.1-0.47","767","","k","","","","","","","","","","","","","key","k","9.404844086021384","768","428","k","true","img/H_28.png","自我","prac_stranger","","自我"
"","","","","","html-keyboard-response","382","636858","0.0-18.1-0.1-1.47","null","<span style='color:GreenYellow; font-size: 70px;'>正确! </span>","null","","","","","","","","","","","","","","","","","","","","","","","feedback_test",""
"","","","","","html-keyboard-response","383","671346","0.0-19.0","34486","[""<style>.context{color:white; font-size: 35px; line-height:40px}</style>                                     <div><p class='context'>您正确回答了79% 的试次。</p><p class='context'>您的平均反应时为980毫秒。</p><p class='context'>恭喜您完成练习。您可以在此时休息一段时间，准备好后按任意键进入正式实验。</p><p class='footer' style='font-size: 35px; line-height:40px;'>请在进入正式实验实验之前将您的<span style='color: lightgreen;'>食指和中指</span>放在电脑键盘的相应键位上，做好按键准备。</p>""]"," ","","","","","","","","","","","","","","","","","","","","","","","",""
"","","","","","html-keyboard-response","384","690085","0.0-20.0-1.0-0.0","18736","
                 <p>请您将食指和中指放在相应按键上，准备进入<span style='color: yellow;'>重点图形为“朋友”对应图形</span>的正式匹配任务</p>
                 <p> <div style = ""color: green""><按任意键开始></div></p>
                 "," ","","","","","","","","","","","","","","","","","","","","","","","",""
"","","","","","psychophysics","385","692304","0.0-20.0-1.0-1.0-0.0-0.0","1218","","k","","","","","","","","","","","","","key","k","9.768079999999868","768","428","j","false","img/S_28.png","朋友","friend","","生人"
"","","","","","html-keyboard-response","386","692613","0.0-20.0-1.0-1.0-0.0-1.0","null","<span style='color:red; font-size: 70px;'>错误! </span>","null","","","","","","","","","","","","","","","","","","","","","","","feedback_test",""
"","","","","","psychophysics","387","694803","0.0-20.0-1.0-1.0-0.0-0.1","1184","","j","","","","","","","","","","","","","key","j","9.488713043478176","768","428","j","true","img/S_28.png","自我","friend","","生人"
"","","","","","html-keyboard-response","388","695119","0.0-20.0-1.0-1.0-0.0-1.1","null","<span style='color:GreenYellow; font-size: 70px;'>正确! </span>","null","","","","","","","","","","","","","","","","","","","","","","","feedback_test",""
"","","","","","psychophysics","389","696965","0.0-20.0-1.0-1.0-0.0-0.2","838","","d","","","","","","","","","","","","","key","d","9.350112244897826","768","428","d","true","img/C_28.png","朋友","friend","","朋友"
"","","","","","html-keyboard-response","390","697270","0.0-20.0-1.0-1.0-0.0-1.2","null","<span style='color:GreenYellow; font-size: 70px;'>正确! </span>","null","","","","","","","","","","","","","","","","","","","","","","","feedback_test",""
"","","","","","psychophysics","391","699280","0.0-20.0-1.0-1.0-0.0-0.3","1005","","j","","","","","","","","","","","","","key","j","9.658434782608564","768","428","j","true","img/H_28.png","生人","friend","","自我"
"","","","","","html-keyboard-response","392","699588","0.0-20.0-1.0-1.0-0.0-1.3","null","<span style='color:GreenYellow; font-size: 70px;'>正确! </span>","null","","","","","","","","","","","","","","","","","","","","","","","feedback_test",""
"","","","","","psychophysics","393","701362","0.0-20.0-1.0-1.0-0.0-0.4","773","","k","","","","","","","","","","","","","key","k","9.65044808743173","768","428","k","true","img/H_28.png","自我","friend","","自我"
"","","","","","html-keyboard-response","394","701667","0.0-20.0-1.0-1.0-0.0-1.4","null","<span style='color:GreenYellow; font-size: 70px;'>正确! </span>","null","","","","","","","","","","","","","","","","","","","","","","","feedback_test",""
"","","","","","psychophysics","395","703745","0.0-20.0-1.0-1.0-0.0-0.5","1073","","d","","","","","","","","","","","","","key","d","9.608786046511472","768","428","f","false","img/C_28.png","生人","friend","","朋友"
"","","","","","html-keyboard-response","396","704048","0.0-20.0-1.0-1.0-0.0-1.5","null","<span style='color:red; font-size: 70px;'>错误! </span>","null","","","","","","","","","","","","","","","","","","","","","","","feedback_test",""
"","","","","","psychophysics","397","706182","0.0-20.0-1.0-1.0-0.0-0.6","1134","","k","","","","","","","","","","","","","key","k","9.573420814479748","768","428","k","true","img/S_28.png","生人","friend","","生人"
"","","","","","html-keyboard-response","398","706483","0.0-20.0-1.0-1.0-0.0-1.6","null","<span style='color:GreenYellow; font-size: 70px;'>正确! </span>","null","","","","","","","","","","","","","","","","","","","","","","","feedback_test",""
"","","","","","psychophysics","399","708245","0.0-20.0-1.0-1.0-0.0-0.7","758","","k","","","","","","","","","","","","","key","k","9.304760638298095","768","428","k","true","img/H_28.png","自我","friend","","自我"
"","","","","","html-keyboard-response","400","708551","0.0-20.0-1.0-1.0-0.0-1.7","null","<span style='color:GreenYellow; font-size: 70px;'>正确! </span>","null","","","","","","","","","","","","","","","","","","","","","","","feedback_test",""
"","","","","","psychophysics","401","710492","0.0-20.0-1.0-1.0-0.0-0.8","938","","d","","","","","","","","","","","","","key","d","9.71122110552791","768","428","d","true","img/C_28.png","朋友","friend","","朋友"
"","","","","","html-keyboard-response","402","710798","0.0-20.0-1.0-1.0-0.0-1.8","null","<span style='color:GreenYellow; font-size: 70px;'>正确! </span>","null","","","","","","","","","","","","","","","","","","","","","","","feedback_test",""
"","","","","","psychophysics","403","712761","0.0-20.0-1.0-1.0-0.0-0.9","962","","j","","","","","","","","","","","","","key","j","9.739164179104117","768","428","j","true","img/H_28.png","朋友","friend","","自我"
"","","","","","html-keyboard-response","404","713074","0.0-20.0-1.0-1.0-0.0-1.9","null","<span style='color:GreenYellow; font-size: 70px;'>正确! </span>","null","","","","","","","","","","","","","","","","","","","","","","","feedback_test",""
"","","","","","psychophysics","405","715220","0.0-20.0-1.0-1.0-0.0-0.10","1143","","f","","","","","","","","","","","","","key","f","9.865354838709708","768","428","f","true","img/C_28.png","自我","friend","","朋友"
"","","","","","html-keyboard-response","406","715522","0.0-20.0-1.0-1.0-0.0-1.10","null","<span style='color:GreenYellow; font-size: 70px;'>正确! </span>","null","","","","","","","","","","","","","","","","","","","","","","","feedback_test",""
"","","","","","psychophysics","407","717618","0.0-20.0-1.0-1.0-0.0-0.11","1090","","k","","","","","","","","","","","","","key","k","9.686237209302178","768","428","k","true","img/S_28.png","生人","friend","","生人"
"","","","","","html-keyboard-response","408","717927","0.0-20.0-1.0-1.0-0.0-1.11","null","<span style='color:GreenYellow; font-size: 70px;'>正确! </span>","null","","","","","","","","","","","","","","","","","","","","","","","feedback_test",""
"","","","","","psychophysics","409","719776","0.0-20.0-1.0-1.0-0.0-0.12","845","","j","","","","","","","","","","","","","key","j","9.689500000000024","768","428","j","true","img/S_28.png","朋友","friend","","生人"
"","","","","","html-keyboard-response","410","720078","0.0-20.0-1.0-1.0-0.0-1.12","null","<span style='color:GreenYellow; font-size: 70px;'>正确! </span>","null","","","","","","","","","","","","","","","","","","","","","","","feedback_test",""
"","","","","","psychophysics","411","721753","0.0-20.0-1.0-1.0-0.0-0.13","673","","d","","","","","","","","","","","","","key","d","9.307368715083637","768","428","d","true","img/C_28.png","朋友","friend","","朋友"
"","","","","","html-keyboard-response","412","722056","0.0-20.0-1.0-1.0-0.0-1.13","null","<span style='color:GreenYellow; font-size: 70px;'>正确! </span>","null","","","","","","","","","","","","","","","","","","","","","","","feedback_test",""
"","","","","","psychophysics","413","723790","0.0-20.0-1.0-1.0-0.0-0.14","733","","d","","","","","","","","","","","","","key","d","9.698744318182104","768","428","d","true","img/C_28.png","朋友","friend","","朋友"
"","","","","","html-keyboard-response","414","724093","0.0-20.0-1.0-1.0-0.0-1.14","null","<span style='color:GreenYellow; font-size: 70px;'>正确! </span>","null","","","","","","","","","","","","","","","","","","","","","","","feedback_test",""
"","","","","","psychophysics","415","725998","0.0-20.0-1.0-1.0-0.0-0.15","902","","f","","","","","","","","","","","","","key","f","9.840663212435345","768","428","f","true","img/C_28.png","生人","friend","","朋友"
"","","","","","html-keyboard-response","416","726314","0.0-20.0-1.0-1.0-0.0-1.15","null","<span style='color:GreenYellow; font-size: 70px;'>正确! </span>","null","","","","","","","","","","","","","","","","","","","","","","","feedback_test",""
"","","","","","psychophysics","417","728242","0.0-20.0-1.0-1.0-0.0-0.16","922","","k","","","","","","","","","","","","","key","k","9.437788177340112","768","428","k","true","img/S_28.png","生人","friend","","生人"
"","","","","","html-keyboard-response","418","728552","0.0-20.0-1.0-1.0-0.0-1.16","null","<span style='color:GreenYellow; font-size: 70px;'>正确! </span>","null","","","","","","","","","","","","","","","","","","","","","","","feedback_test",""
"","","","","","psychophysics","419","730250","0.0-20.0-1.0-1.0-0.0-0.17","697","","j","","","","","","","","","","","","","key","j","9.607738636363964","768","428","k","false","img/S_28.png","生人","friend","","生人"
"","","","","","html-keyboard-response","420","730560","0.0-20.0-1.0-1.0-0.0-1.17","null","<span style='color:red; font-size: 70px;'>错误! </span>","null","","","","","","","","","","","","","","","","","","","","","","","feedback_test",""
"","","","","","psychophysics","421","732621","0.0-20.0-1.0-1.0-0.0-0.18","1060","","j","","","","","","","","","","","","","key","j","9.796516746411804","768","428","f","false","img/C_28.png","自我","friend","","朋友"
"","","","","","html-keyboard-response","422","732934","0.0-20.0-1.0-1.0-0.0-1.18","null","<span style='color:red; font-size: 70px;'>错误! </span>","null","","","","","","","","","","","","","","","","","","","","","","","feedback_test",""
"","","","","","psychophysics","423","734965","0.0-20.0-1.0-1.0-0.0-0.19","1029","","j","","","","","","","","","","","","","key","j","9.735217391304078","768","428","j","true","img/H_28.png","生人","friend","","自我"
"","","","","","html-keyboard-response","424","735269","0.0-20.0-1.0-1.0-0.0-1.19","null","<span style='color:GreenYellow; font-size: 70px;'>正确! </span>","null","","","","","","","","","","","","","","","","","","","","","","","feedback_test",""
