"success","timeout","failed_images","failed_audio","failed_video","trial_type","trial_index","time_elapsed","internal_node_id","rt","stimulus","response","value","item_width_mm","item_height_mm","item_width_px","px2mm","view_dist_mm","item_width_deg","px2deg","scale_factor","win_width_deg","win_height_deg","view_history","response_type","key_press","avg_frame_time","center_x","center_y","correct_response","correct","Image","text","condition","screen_id","label"
"true","false","[]","[]","[]","preload","0","442","0.0-0.0","","","","","","","","","","","","","","","","","","","","","","","","","","",""
"","","","","","html-keyboard-response","1","72355","0.0-1.0","71913","
  <p>您好，欢迎参加本次实验。</p>
  <p>为充分保障您的权利，请确保您已经知晓并同意《参与实验同意书》以及《数据公开知情同意书》。</p>
  <p>如果您未见过上述内容，请咨询实验员。</p>
  <p>如果您选择继续实验，则表示您已经清楚两份知情同意书的内容并同意。</p>
  <p> <div style = ""color: green""><按任意键至下页></div> </p>
  "," ","","","","","","","","","","","","","","","","","","","","","","","",""
"","","","","","html-keyboard-response","2","74141","0.0-2.0","1785","
  <p>本实验首先需要您填写一些基本个人信息。</p>
  <p> <div style = ""color: green""><按任意键至下页></div></p>
  "," ","","","","","","","","","","","","","","","","","","","","","","","",""
"","","","","","call-function","3","74142","0.0-3.0-0.0","","","","","","","","","","","","","","","","","","","","","","","","","","",""
"","","","","","survey-html-form","4","82463","0.0-3.0-1.0","8313","","{""Q0"":""37""}","","","","","","","","","","","","","","","","","","","","","","","",""
"","","","","","html-button-response","5","83998","0.0-3.0-2.0","1532","<p style = 'color : white'>您的性别</p>","0","","","","","","","","","","","","","","","","","","","","","","","",""
"","","","","","survey-html-form","6","88133","0.0-3.0-3.0","4134","","{""Q0"":""2003""}","","","","","","","","","","","","","","","","","","","","","","","",""
"","","","","","survey-html-form","7","91605","0.0-3.0-4.0","3471","","{""Q0"":""5""}","","","","","","","","","","","","","","","","","","","","","","","",""
"","","","","","virtual-chinrest","8","484961","0.0-4.0","393353","","","","85.6","53.98","442.8833484694511","5.170100106073464","552.6","8.857666969389022","49.99999999999999","1.0657433873528377","38.400000000000006","18.540000000000003","","","","","","","","","","","","",""
"true","","","","","fullscreen","9","488754","0.0-5.0","","","","","","","","","","","","","","","","","","","","","","","","","","",""
"","","","","","instructions","10","660338","0.0-6.0","171583","","","","","","","","","","","","","","[{""page_index"":0,""viewing_time"":20007},{""page_index"":1,""viewing_time"":21642},{""page_index"":2,""viewing_time"":36934},{""page_index"":1,""viewing_time"":20790},{""page_index"":2,""viewing_time"":59030},{""page_index"":3,""viewing_time"":9120},{""page_index"":4,""viewing_time"":4060}]","","","","","","","","","","","",""
"","","","","","instructions","11","699108","0.0-7.0","38770","","","","","","","","","","","","","","[{""page_index"":0,""viewing_time"":38769}]","","","","","","","","","","","",""
"","","","","","psychophysics","12","708350","0.0-8.0-0.0-0.0","8237","","f","","","","","","","","","","","","","key","f","16.66613743218798","960","536","k","false","img/H_28.png","生人","freeprac_self","",""
"","","","","","html-keyboard-response","13","708658","0.0-8.0-0.0-1.0","null","<span style='color:red; font-size: 70px;'>错误! </span>","null","","","","","","","","","","","","","","","","","","","","","","","feedback_test",""
"","","","","","psychophysics","14","714587","0.0-8.0-0.0-0.1","4928","","d","","","","","","","","","","","","","key","d","16.666129943502654","960","536","d","true","img/C_28.png","朋友","freeprac_self","",""
"","","","","","html-keyboard-response","15","714898","0.0-8.0-0.0-1.1","null","<span style='color:GreenYellow; font-size: 70px;'>正确! </span>","null","","","","","","","","","","","","","","","","","","","","","","","feedback_test",""
"","","","","","psychophysics","16","718565","0.0-8.0-0.0-0.2","2665","","f","","","","","","","","","","","","","key","f","16.66605022831046","960","536","j","false","img/H_28.png","朋友","freeprac_self","",""
"","","","","","html-keyboard-response","17","718872","0.0-8.0-0.0-1.2","null","<span style='color:red; font-size: 70px;'>错误! </span>","null","","","","","","","","","","","","","","","","","","","","","","","feedback_test",""
"","","","","","psychophysics","18","723605","0.0-8.0-0.0-0.3","3733","","d","","","","","","","","","","","","","key","d","16.620333333333363","960","536","j","false","img/S_28.png","生人","freeprac_self","",""
"","","","","","html-keyboard-response","19","723911","0.0-8.0-0.0-1.3","null","<span style='color:red; font-size: 70px;'>错误! </span>","null","","","","","","","","","","","","","","","","","","","","","","","feedback_test",""
"","","","","","psychophysics","20","730691","0.0-8.0-0.0-0.4","5778","","k","","","","","","","","","","","","","key","k","16.66614285714264","960","536","k","true","img/S_28.png","自我","freeprac_self","",""
"","","","","","html-keyboard-response","21","731000","0.0-8.0-0.0-1.4","null","<span style='color:GreenYellow; font-size: 70px;'>正确! </span>","null","","","","","","","","","","","","","","","","","","","","","","","feedback_test",""
"","","","","","psychophysics","22","734549","0.0-8.0-0.0-0.5","2549","","k","","","","","","","","","","","","","key","k","16.666070754717232","960","536","k","true","img/H_28.png","自我","freeprac_self","",""
"","","","","","html-keyboard-response","23","734864","0.0-8.0-0.0-1.5","null","<span style='color:GreenYellow; font-size: 70px;'>正确! </span>","null","","","","","","","","","","","","","","","","","","","","","","","feedback_test",""
"","","","","","psychophysics","24","738492","0.0-8.0-0.0-0.6","2626","","j","","","","","","","","","","","","","key","j","16.66612442396313","960","536","j","true","img/S_28.png","生人","freeprac_self","",""
"","","","","","html-keyboard-response","25","738796","0.0-8.0-0.0-1.6","null","<span style='color:GreenYellow; font-size: 70px;'>正确! </span>","null","","","","","","","","","","","","","","","","","","","","","","","feedback_test",""
"","","","","","psychophysics","26","743090","0.0-8.0-0.0-0.7","3292","","f","","","","","","","","","","","","","key","f","16.666167315174935","960","536","f","true","img/C_28.png","自我","freeprac_self","",""
"","","","","","html-keyboard-response","27","743391","0.0-8.0-0.0-1.7","null","<span style='color:GreenYellow; font-size: 70px;'>正确! </span>","null","","","","","","","","","","","","","","","","","","","","","","","feedback_test",""
"","","","","","psychophysics","28","747223","0.0-8.0-0.0-0.8","2830","","k","","","","","","","","","","","","","key","k","16.666213973799483","960","536","d","false","img/C_28.png","生人","freeprac_self","",""
"","","","","","html-keyboard-response","29","747529","0.0-8.0-0.0-1.8","null","<span style='color:red; font-size: 70px;'>错误! </span>","null","","","","","","","","","","","","","","","","","","","","","","","feedback_test",""
"","","","","","psychophysics","30","751561","0.0-8.0-0.0-0.9","3031","","j","","","","","","","","","","","","","key","j","16.666157676348526","960","536","f","false","img/C_28.png","自我","freeprac_self","",""
"","","","","","html-keyboard-response","31","751864","0.0-8.0-0.0-1.9","null","<span style='color:red; font-size: 70px;'>错误! </span>","null","","","","","","","","","","","","","","","","","","","","","","","feedback_test",""
"","","","","","psychophysics","32","756180","0.0-8.0-0.0-0.10","3314","","f","","","","","","","","","","","","","key","f","16.66615116279058","960","536","j","false","img/H_28.png","朋友","freeprac_self","",""
"","","","","","html-keyboard-response","33","756491","0.0-8.0-0.0-1.10","null","<span style='color:red; font-size: 70px;'>错误! </span>","null","","","","","","","","","","","","","","","","","","","","","","","feedback_test",""
"","","","","","psychophysics","34","761493","0.0-8.0-0.0-0.11","4001","","d","","","","","","","","","","","","","key","d","16.66608695652185","960","536","k","false","img/S_28.png","朋友","freeprac_self","",""
"","","","","","html-keyboard-response","35","761806","0.0-8.0-0.0-1.11","null","<span style='color:red; font-size: 70px;'>错误! </span>","null","","","","","","","","","","","","","","","","","","","","","","","feedback_test",""
"","","","","","html-keyboard-response","36","776359","0.0-8.0-1.0-0.0","14552","<style>.context{color:white; font-size: 35px; line-height:40px}</style>                           <div><p class='context'>您正确回答了42% 的试次。</p><p class='context'>您的平均反应时为3835毫秒。</p>"," ","","","","","","","","","","","","","","","","","","","","","","","",""
"","","","","","instructions","37","829784","0.0-8.0-1.0-1.0","53421","","","","","","","","","","","","","","[{""page_index"":0,""viewing_time"":2996},{""page_index"":1,""viewing_time"":42721},{""page_index"":2,""viewing_time"":7704}]","","","","","","","","","","","",""
"","","","","","psychophysics","38","832583","0.0-8.1-0.1-0.12","1795","","f","","","","","","","","","","","","","key","f","16.66604191616727","960","536","f","true","img/C_28.png","自我","freeprac_self","",""
"","","","","","html-keyboard-response","39","832888","0.0-8.1-0.1-1.12","null","<span style='color:GreenYellow; font-size: 70px;'>正确! </span>","null","","","","","","","","","","","","","","","","","","","","","","","feedback_test",""
"","","","","","psychophysics","40","835173","0.0-8.1-0.1-0.13","1284","","d","","","","","","","","","","","","","key","d","16.666198529411787","960","536","k","false","img/H_28.png","自我","freeprac_self","",""
"","","","","","html-keyboard-response","41","835474","0.0-8.1-0.1-1.13","null","<span style='color:red; font-size: 70px;'>错误! </span>","null","","","","","","","","","","","","","","","","","","","","","","","feedback_test",""
"","","","","","psychophysics","42","838363","0.0-8.1-0.1-0.14","1887","","d","","","","","","","","","","","","","key","d","16.66624418604675","960","536","d","true","img/C_28.png","朋友","freeprac_self","",""
"","","","","","html-keyboard-response","43","838668","0.0-8.1-0.1-1.14","null","<span style='color:GreenYellow; font-size: 70px;'>正确! </span>","null","","","","","","","","","","","","","","","","","","","","","","","feedback_test",""
"","","","","","psychophysics","44","843825","0.0-8.1-0.1-0.15","4156","","j","","","","","","","","","","","","","key","j","16.666090909090777","960","536","j","true","img/S_28.png","生人","freeprac_self","",""
"","","","","","html-keyboard-response","45","844138","0.0-8.1-0.1-1.15","null","<span style='color:GreenYellow; font-size: 70px;'>正确! </span>","null","","","","","","","","","","","","","","","","","","","","","","","feedback_test",""
"","","","","","psychophysics","46","847665","0.0-8.1-0.1-0.16","2525","","d","","","","","","","","","","","","","key","d","16.66629999999977","960","536","k","false","img/H_28.png","生人","freeprac_self","",""
"","","","","","html-keyboard-response","47","847967","0.0-8.1-0.1-1.16","null","<span style='color:red; font-size: 70px;'>错误! </span>","null","","","","","","","","","","","","","","","","","","","","","","","feedback_test",""
"","","","","","psychophysics","48","851509","0.0-8.1-0.1-0.17","2541","","k","","","","","","","","","","","","","key","k","16.603687203791594","960","536","j","false","img/S_28.png","生人","freeprac_self","",""
"","","","","","html-keyboard-response","49","851811","0.0-8.1-0.1-1.17","null","<span style='color:red; font-size: 70px;'>错误! </span>","null","","","","","","","","","","","","","","","","","","","","","","","feedback_test",""
"","","","","","psychophysics","50","854841","0.0-8.1-0.1-0.18","2029","","f","","","","","","","","","","","","","key","f","16.66627071823189","960","536","f","true","img/C_28.png","自我","freeprac_self","",""
"","","","","","html-keyboard-response","51","855150","0.0-8.1-0.1-1.18","null","<span style='color:GreenYellow; font-size: 70px;'>正确! </span>","null","","","","","","","","","","","","","","","","","","","","","","","feedback_test",""
"","","","","","psychophysics","52","860013","0.0-8.1-0.1-0.19","3861","","j","","","","","","","","","","","","","key","j","16.617217241378967","960","536","k","false","img/S_28.png","自我","freeprac_self","",""
"","","","","","html-keyboard-response","53","860318","0.0-8.1-0.1-1.19","null","<span style='color:red; font-size: 70px;'>错误! </span>","null","","","","","","","","","","","","","","","","","","","","","","","feedback_test",""
"","","","","","psychophysics","54","865415","0.0-8.1-0.1-0.20","4096","","j","","","","","","","","","","","","","key","j","16.666131578947226","960","536","j","true","img/H_28.png","朋友","freeprac_self","",""
"","","","","","html-keyboard-response","55","865724","0.0-8.1-0.1-1.20","null","<span style='color:GreenYellow; font-size: 70px;'>正确! </span>","null","","","","","","","","","","","","","","","","","","","","","","","feedback_test",""
"","","","","","psychophysics","56","870017","0.0-8.1-0.1-0.21","3292","","j","","","","","","","","","","","","","key","j","16.665996093749982","960","536","j","true","img/H_28.png","朋友","freeprac_self","",""
"","","","","","html-keyboard-response","57","870328","0.0-8.1-0.1-1.21","null","<span style='color:GreenYellow; font-size: 70px;'>正确! </span>","null","","","","","","","","","","","","","","","","","","","","","","","feedback_test",""
"","","","","","psychophysics","58","874147","0.0-8.1-0.1-0.22","2817","","d","","","","","","","","","","","","","key","d","16.666127192982362","960","536","d","true","img/C_28.png","生人","freeprac_self","",""
"","","","","","html-keyboard-response","59","874451","0.0-8.1-0.1-1.22","null","<span style='color:GreenYellow; font-size: 70px;'>正确! </span>","null","","","","","","","","","","","","","","","","","","","","","","","feedback_test",""
"","","","","","psychophysics","60","879849","0.0-8.1-0.1-0.23","4398","","j","","","","","","","","","","","","","key","j","16.666055900621032","960","536","k","false","img/S_28.png","朋友","freeprac_self","",""
"","","","","","html-keyboard-response","61","880158","0.0-8.1-0.1-1.23","null","<span style='color:red; font-size: 70px;'>错误! </span>","null","","","","","","","","","","","","","","","","","","","","","","","feedback_test",""
"","","","","","html-keyboard-response","62","888377","0.0-8.1-1.1-0.1","8218","<style>.context{color:white; font-size: 35px; line-height:40px}</style>                           <div><p class='context'>您正确回答了58% 的试次。</p><p class='context'>您的平均反应时为2867毫秒。</p>"," ","","","","","","","","","","","","","","","","","","","","","","","",""
"","","","","","instructions","63","985992","0.0-8.1-1.1-1.1","97612","","","","","","","","","","","","","","[{""page_index"":0,""viewing_time"":7513},{""page_index"":1,""viewing_time"":80328},{""page_index"":2,""viewing_time"":9770}]","","","","","","","","","","","",""
"","","","","","psychophysics","64","990867","0.0-8.2-0.2-0.24","3872","","j","","","","","","","","","","","","","key","j","16.666116438356344","960","536","k","false","img/S_28.png","朋友","freeprac_self","",""
"","","","","","html-keyboard-response","65","991172","0.0-8.2-0.2-1.24","null","<span style='color:red; font-size: 70px;'>错误! </span>","null","","","","","","","","","","","","","","","","","","","","","","","feedback_test",""
"","","","","","psychophysics","66","993863","0.0-8.2-0.2-0.25","1690","","f","","","","","","","","","","","","","key","f","16.666049689441333","960","536","f","true","img/C_28.png","自我","freeprac_self","",""
"","","","","","html-keyboard-response","67","994174","0.0-8.2-0.2-1.25","null","<span style='color:GreenYellow; font-size: 70px;'>正确! </span>","null","","","","","","","","","","","","","","","","","","","","","","","feedback_test",""
"","","","","","psychophysics","68","1000483","0.0-8.2-0.2-0.26","5308","","k","","","","","","","","","","","","","key","k","16.666134920634917","960","536","j","false","img/S_28.png","生人","freeprac_self","",""
"","","","","","html-keyboard-response","69","1000785","0.0-8.2-0.2-1.26","null","<span style='color:red; font-size: 70px;'>错误! </span>","null","","","","","","","","","","","","","","","","","","","","","","","feedback_test",""
"","","","","","psychophysics","70","1004287","0.0-8.2-0.2-0.27","2500","","d","","","","","","","","","","","","","key","d","16.666196172248736","960","536","d","true","img/C_28.png","朋友","freeprac_self","",""
"","","","","","html-keyboard-response","71","1004601","0.0-8.2-0.2-1.27","null","<span style='color:GreenYellow; font-size: 70px;'>正确! </span>","null","","","","","","","","","","","","","","","","","","","","","","","feedback_test",""
"","","","","","psychophysics","72","1008191","0.0-8.2-0.2-0.28","2589","","f","","","","","","","","","","","","","key","f","16.666144859813322","960","536","j","false","img/H_28.png","朋友","freeprac_self","",""
"","","","","","html-keyboard-response","73","1008497","0.0-8.2-0.2-1.28","null","<span style='color:red; font-size: 70px;'>错误! </span>","null","","","","","","","","","","","","","","","","","","","","","","","feedback_test",""
"","","","","","psychophysics","74","1015219","0.0-8.2-0.2-0.29","5721","","k","","","","","","","","","","","","","key","k","16.666099502487555","960","536","k","true","img/H_28.png","自我","freeprac_self","",""
"","","","","","html-keyboard-response","75","1015521","0.0-8.2-0.2-1.29","null","<span style='color:GreenYellow; font-size: 70px;'>正确! </span>","null","","","","","","","","","","","","","","","","","","","","","","","feedback_test",""
"","","","","","psychophysics","76","1018131","0.0-8.2-0.2-0.30","1609","","f","","","","","","","","","","","","","key","f","16.665897435897467","960","536","f","true","img/C_28.png","自我","freeprac_self","",""
"","","","","","html-keyboard-response","77","1018435","0.0-8.2-0.2-1.30","null","<span style='color:GreenYellow; font-size: 70px;'>正确! </span>","null","","","","","","","","","","","","","","","","","","","","","","","feedback_test",""
"","","","","","psychophysics","78","1022359","0.0-8.2-0.2-0.31","2922","","d","","","","","","","","","","","","","key","d","16.66619658119664","960","536","d","true","img/C_28.png","生人","freeprac_self","",""
"","","","","","html-keyboard-response","79","1022660","0.0-8.2-0.2-1.31","null","<span style='color:GreenYellow; font-size: 70px;'>正确! </span>","null","","","","","","","","","","","","","","","","","","","","","","","feedback_test",""
"","","","","","psychophysics","80","1027040","0.0-8.2-0.2-0.32","3378","","k","","","","","","","","","","","","","key","k","16.66621374045783","960","536","k","true","img/H_28.png","生人","freeprac_self","",""
"","","","","","html-keyboard-response","81","1027350","0.0-8.2-0.2-1.32","null","<span style='color:GreenYellow; font-size: 70px;'>正确! </span>","null","","","","","","","","","","","","","","","","","","","","","","","feedback_test",""
"","","","","","psychophysics","82","1032814","0.0-8.2-0.2-0.33","4463","","j","","","","","","","","","","","","","key","j","16.666162079510947","960","536","j","true","img/H_28.png","朋友","freeprac_self","",""
"","","","","","html-keyboard-response","83","1033126","0.0-8.2-0.2-1.33","null","<span style='color:GreenYellow; font-size: 70px;'>正确! </span>","null","","","","","","","","","","","","","","","","","","","","","","","feedback_test",""
"","","","","","psychophysics","84","1038484","0.0-8.2-0.2-0.34","4357","","j","","","","","","","","","","","","","key","j","16.66609657320848","960","536","j","true","img/S_28.png","生人","freeprac_self","",""
"","","","","","html-keyboard-response","85","1038793","0.0-8.2-0.2-1.34","null","<span style='color:GreenYellow; font-size: 70px;'>正确! </span>","null","","","","","","","","","","","","","","","","","","","","","","","feedback_test",""
"","","","","","psychophysics","86","1042400","0.0-8.2-0.2-0.35","2604","","d","","","","","","","","","","","","","key","d","16.666050925926324","960","536","k","false","img/S_28.png","自我","freeprac_self","",""
"","","","","","html-keyboard-response","87","1042702","0.0-8.2-0.2-1.35","null","<span style='color:red; font-size: 70px;'>错误! </span>","null","","","","","","","","","","","","","","","","","","","","","","","feedback_test",""
"","","","","","html-keyboard-response","88","1046520","0.0-8.2-1.2-0.2","3817","<style>.context{color:white; font-size: 35px; line-height:40px}</style>                           <div><p class='context'>您正确回答了67% 的试次。</p><p class='context'>您的平均反应时为3330毫秒。</p>"," ","","","","","","","","","","","","","","","","","","","","","","","",""
"","","","","","instructions","89","1053253","0.0-8.2-1.2-1.2","6730","","","","","","","","","","","","","","[{""page_index"":0,""viewing_time"":2448},{""page_index"":1,""viewing_time"":1517},{""page_index"":2,""viewing_time"":2764}]","","","","","","","","","","","",""
"","","","","","psychophysics","90","1057058","0.0-8.3-0.3-0.36","2801","","d","","","","","","","","","","","","","key","d","16.666118942731416","960","536","d","true","img/C_28.png","生人","freeprac_self","",""
"","","","","","html-keyboard-response","91","1057373","0.0-8.3-0.3-1.36","null","<span style='color:GreenYellow; font-size: 70px;'>正确! </span>","null","","","","","","","","","","","","","","","","","","","","","","","feedback_test",""
"","","","","","psychophysics","92","1062672","0.0-8.3-0.3-0.37","4297","","k","","","","","","","","","","","","","key","k","16.6660851735015","960","536","k","true","img/S_28.png","朋友","freeprac_self","",""
"","","","","","html-keyboard-response","93","1062987","0.0-8.3-0.3-1.37","null","<span style='color:GreenYellow; font-size: 70px;'>正确! </span>","null","","","","","","","","","","","","","","","","","","","","","","","feedback_test",""
"","","","","","psychophysics","94","1067304","0.0-8.3-0.3-0.38","3316","","d","","","","","","","","","","","","","key","d","16.666108527132344","960","536","k","false","img/H_28.png","自我","freeprac_self","",""
"","","","","","html-keyboard-response","95","1067613","0.0-8.3-0.3-1.38","null","<span style='color:red; font-size: 70px;'>错误! </span>","null","","","","","","","","","","","","","","","","","","","","","","","feedback_test",""
"","","","","","psychophysics","96","1070272","0.0-8.3-0.3-0.39","1657","","f","","","","","","","","","","","","","key","f","16.66606962025354","960","536","f","true","img/C_28.png","自我","freeprac_self","",""
"","","","","","html-keyboard-response","97","1070580","0.0-8.3-0.3-1.39","null","<span style='color:GreenYellow; font-size: 70px;'>正确! </span>","null","","","","","","","","","","","","","","","","","","","","","","","feedback_test",""
"","","","","","psychophysics","98","1076020","0.0-8.3-0.3-0.40","4438","","k","","","","","","","","","","","","","key","k","16.66609230769225","960","536","k","true","img/H_28.png","生人","freeprac_self","",""
"","","","","","html-keyboard-response","99","1076324","0.0-8.3-0.3-1.40","null","<span style='color:GreenYellow; font-size: 70px;'>正确! </span>","null","","","","","","","","","","","","","","","","","","","","","","","feedback_test",""
"","","","","","psychophysics","100","1082714","0.0-8.3-0.3-0.41","5387","","j","","","","","","","","","","","","","key","j","16.666057441253507","960","536","j","true","img/H_28.png","朋友","freeprac_self","",""
"","","","","","html-keyboard-response","101","1083015","0.0-8.3-0.3-1.41","null","<span style='color:GreenYellow; font-size: 70px;'>正确! </span>","null","","","","","","","","","","","","","","","","","","","","","","","feedback_test",""
"","","","","","psychophysics","102","1087462","0.0-8.3-0.3-0.42","3445","","d","","","","","","","","","","","","","key","d","16.666187969924835","960","536","d","true","img/C_28.png","朋友","freeprac_self","",""
"","","","","","html-keyboard-response","103","1087774","0.0-8.3-0.3-1.42","null","<span style='color:GreenYellow; font-size: 70px;'>正确! </span>","null","","","","","","","","","","","","","","","","","","","","","","","feedback_test",""
"","","","","","psychophysics","104","1094859","0.0-8.3-0.3-0.43","6084","","j","","","","","","","","","","","","","key","j","16.66604716981155","960","536","j","true","img/S_28.png","生人","freeprac_self","",""
"","","","","","html-keyboard-response","105","1095163","0.0-8.3-0.3-1.43","null","<span style='color:GreenYellow; font-size: 70px;'>正确! </span>","null","","","","","","","","","","","","","","","","","","","","","","","feedback_test",""
"","","","","","psychophysics","106","1097541","0.0-8.3-0.3-0.44","1377","","f","","","","","","","","","","","","","key","f","16.666106382979358","960","536","f","true","img/C_28.png","自我","freeprac_self","",""
"","","","","","html-keyboard-response","107","1097844","0.0-8.3-0.3-1.44","null","<span style='color:GreenYellow; font-size: 70px;'>正确! </span>","null","","","","","","","","","","","","","","","","","","","","","","","feedback_test",""
"","","","","","psychophysics","108","1103205","0.0-8.3-0.3-0.45","4359","","j","","","","","","","","","","","","","key","j","16.666068749999976","960","536","j","true","img/H_28.png","朋友","freeprac_self","",""
"","","","","","html-keyboard-response","109","1103519","0.0-8.3-0.3-1.45","null","<span style='color:GreenYellow; font-size: 70px;'>正确! </span>","null","","","","","","","","","","","","","","","","","","","","","","","feedback_test",""
"","","","","","psychophysics","110","1108429","0.0-8.3-0.3-0.46","3909","","k","","","","","","","","","","","","","key","k","16.66609863945533","960","536","k","true","img/S_28.png","自我","freeprac_self","",""
"","","","","","html-keyboard-response","111","1108740","0.0-8.3-0.3-1.46","null","<span style='color:GreenYellow; font-size: 70px;'>正确! </span>","null","","","","","","","","","","","","","","","","","","","","","","","feedback_test",""
"","","","","","psychophysics","112","1113601","0.0-8.3-0.3-0.47","3859","","j","","","","","","","","","","","","","key","j","16.6661099656365","960","536","j","true","img/S_28.png","生人","freeprac_self","",""
"","","","","","html-keyboard-response","113","1113904","0.0-8.3-0.3-1.47","null","<span style='color:GreenYellow; font-size: 70px;'>正确! </span>","null","","","","","","","","","","","","","","","","","","","","","","","feedback_test",""
"","","","","","html-keyboard-response","114","1149362","0.0-9.0","35456","[""<style>.context{color:white; font-size: 35px; line-height:40px}</style>           <div><p class='context'>您正确回答了92% 的试次。</p><p class='context'>您的平均反应时为3783毫秒。</p><p class='context'>恭喜您完成这一阶段的练习。按任意键进入<span style='color: yellow;'>重点关注图形为“朋友”</span>的练习。</p></div><p class='footer' style='font-size:35px; line-height:30px;'>任务要求：\n           <p class='footer' style='font-size:35px; line-height:35px;'>对于与“朋友”对应的图形：如果 匹配 ，请按 <span style=\""color: lightgreen;\"">f键</span></p><p class='footer' style='font-size:35px'>如果 不匹配 ，请按<span style=\""color: lightgreen;\"">d键</p></span>\n           <p class='footer' style='font-size:35px; line-height:35px;'>对于非“朋友”对应的图形：如果 匹配 ，请按 <span style=\""color: lightgreen;\"">j键</span></p><p class='footer' style='font-size:35px'>如果 不匹配 ，请按<span style=\""color: lightgreen;\"">k键</p></span>\n           <p class='footer' style='font-size:22px; line-height:25px;'>请在实验过程中将您的<span style=\""color: lightgreen;\"">食指和中指</span>放在电脑键盘的相应键位上进行按键。</p></span>""]"," ","","","","","","","","","","","","","","","","","","","","","","","",""
"","","","","","psychophysics","115","1154638","0.0-10.0-0.0-0.0","4270","","j","","","","","","","","","","","","","key","j","16.666215873015897","960","536","j","true","img/S_28.png","生人","freeprac_friend","",""
"","","","","","html-keyboard-response","116","1154947","0.0-10.0-0.0-1.0","null","<span style='color:GreenYellow; font-size: 70px;'>正确! </span>","null","","","","","","","","","","","","","","","","","","","","","","","feedback_test",""
"","","","","","psychophysics","117","1157866","0.0-10.0-0.0-0.1","1917","","f","","","","","","","","","","","","","key","f","16.666160919540292","960","536","f","true","img/H_28.png","朋友","freeprac_friend","",""
"","","","","","html-keyboard-response","118","1158167","0.0-10.0-0.0-1.1","null","<span style='color:GreenYellow; font-size: 70px;'>正确! </span>","null","","","","","","","","","","","","","","","","","","","","","","","feedback_test",""
"","","","","","psychophysics","119","1161820","0.0-10.0-0.0-0.2","2652","","d","","","","","","","","","","","","","key","d","16.66619724770709","960","536","d","true","img/H_28.png","自我","freeprac_friend","",""
"","","","","","html-keyboard-response","120","1162129","0.0-10.0-0.0-1.2","null","<span style='color:GreenYellow; font-size: 70px;'>正确! </span>","null","","","","","","","","","","","","","","","","","","","","","","","feedback_test",""
"","","","","","psychophysics","121","1165322","0.0-10.0-0.0-0.3","2191","","j","","","","","","","","","","","","","key","j","16.666184210526072","960","536","j","true","img/S_28.png","生人","freeprac_friend","",""
"","","","","","html-keyboard-response","122","1165624","0.0-10.0-0.0-1.3","null","<span style='color:GreenYellow; font-size: 70px;'>正确! </span>","null","","","","","","","","","","","","","","","","","","","","","","","feedback_test",""
"","","","","","psychophysics","123","1169040","0.0-10.0-0.0-0.4","2415","","j","","","","","","","","","","","","","key","j","16.666152709359853","960","536","j","true","img/C_28.png","自我","freeprac_friend","",""
"","","","","","html-keyboard-response","124","1169341","0.0-10.0-0.0-1.4","null","<span style='color:GreenYellow; font-size: 70px;'>正确! </span>","null","","","","","","","","","","","","","","","","","","","","","","","feedback_test",""
"","","","","","psychophysics","125","1172844","0.0-10.0-0.0-0.5","2500","","k","","","","","","","","","","","","","key","k","16.666124401914857","960","536","k","true","img/C_28.png","生人","freeprac_friend","",""
"","","","","","html-keyboard-response","126","1173146","0.0-10.0-0.0-1.5","null","<span style='color:GreenYellow; font-size: 70px;'>正确! </span>","null","","","","","","","","","","","","","","","","","","","","","","","feedback_test",""
"","","","","","psychophysics","127","1177208","0.0-10.0-0.0-0.6","3061","","d","","","","","","","","","","","","","key","d","16.666176954731768","960","536","d","true","img/H_28.png","生人","freeprac_friend","",""
"","","","","","html-keyboard-response","128","1177522","0.0-10.0-0.0-1.6","null","<span style='color:GreenYellow; font-size: 70px;'>正确! </span>","null","","","","","","","","","","","","","","","","","","","","","","","feedback_test",""
"","","","","","psychophysics","129","1180986","0.0-10.0-0.0-0.7","2462","","f","","","","","","","","","","","","","key","f","16.666096618357408","960","536","k","false","img/C_28.png","朋友","freeprac_friend","",""
"","","","","","html-keyboard-response","130","1181295","0.0-10.0-0.0-1.7","null","<span style='color:red; font-size: 70px;'>错误! </span>","null","","","","","","","","","","","","","","","","","","","","","","","feedback_test",""
"","","","","","psychophysics","131","1186240","0.0-10.0-0.0-0.8","3944","","d","","","","","","","","","","","","","key","d","16.666172881355763","960","536","k","false","img/S_28.png","朋友","freeprac_friend","",""
"","","","","","html-keyboard-response","132","1186554","0.0-10.0-0.0-1.8","null","<span style='color:red; font-size: 70px;'>错误! </span>","null","","","","","","","","","","","","","","","","","","","","","","","feedback_test",""
"","","","","","psychophysics","133","1190078","0.0-10.0-0.0-0.9","2522","","j","","","","","","","","","","","","","key","j","16.666109004739884","960","536","j","true","img/C_28.png","自我","freeprac_friend","",""
"","","","","","html-keyboard-response","134","1190390","0.0-10.0-0.0-1.9","null","<span style='color:GreenYellow; font-size: 70px;'>正确! </span>","null","","","","","","","","","","","","","","","","","","","","","","","feedback_test",""
"","","","","","psychophysics","135","1193934","0.0-10.0-0.0-0.10","2542","","f","","","","","","","","","","","","","key","f","16.666260663507135","960","536","f","true","img/H_28.png","朋友","freeprac_friend","",""
"","","","","","html-keyboard-response","136","1194239","0.0-10.0-0.0-1.10","null","<span style='color:GreenYellow; font-size: 70px;'>正确! </span>","null","","","","","","","","","","","","","","","","","","","","","","","feedback_test",""
"","","","","","psychophysics","137","1198674","0.0-10.0-0.0-0.11","3434","","k","","","","","","","","","","","","","key","k","16.61356981132039","960","536","k","true","img/S_28.png","自我","freeprac_friend","",""
"","","","","","html-keyboard-response","138","1198986","0.0-10.0-0.0-1.11","null","<span style='color:GreenYellow; font-size: 70px;'>正确! </span>","null","","","","","","","","","","","","","","","","","","","","","","","feedback_test",""
"","","","","","html-keyboard-response","139","1208724","0.0-11.0","9737","[""<style>.context{color:white; font-size: 35px; line-height:40px}</style>               <div><p class='context'>您正确回答了83% 的试次。</p><p class='context'>您的平均反应时为2750毫秒。</p><p class='context'>恭喜您完成这一阶段的练习。按任意键进入<span style='color: yellow;'>重点关注图形为“生人”</span>的练习。</p></div><p class='footer' style='font-size:35px; line-height:30px;'>任务要求：\n               <p class='footer' style='font-size:35px; line-height:35px;'>对与“生人”对应的图形，如果 匹配 ，请按 <span style=\""color: lightgreen;\"">f键</span></p><p class='footer' style='font-size:35px'>如果 不匹配 ，请按<span style=\""color: lightgreen;\"">d键</p></span>\n               <p class='footer' style='font-size:35px; line-height:35px;'>对非“生人”对应的图形，如果 匹配 ，请按 <span style=\""color: lightgreen;\"">j键</span></p><p class='footer' style='font-size:35px'>如果 不匹配 ，请按<span style=\""color: lightgreen;\"">k键</p></span>\n               <p class='footer' style='font-size:22px; line-height:25px;'>请在实验过程中将您的<span style=\""color: lightgreen;\"">食指和中指</span>放在电脑键盘的相应键位上进行按键。</p></span>""]"," ","","","","","","","","","","","","","","","","","","","","","","","",""
"","","","","","psychophysics","140","1211912","0.0-12.0-0.0-0.0","2183","","d","","","","","","","","","","","","","key","d","16.666131578947073","960","536","k","false","img/C_28.png","生人","freeprac_stranger","",""
"","","","","","html-keyboard-response","141","1212221","0.0-12.0-0.0-1.0","null","<span style='color:red; font-size: 70px;'>错误! </span>","null","","","","","","","","","","","","","","","","","","","","","","","feedback_test",""
"","","","","","psychophysics","142","1217128","0.0-12.0-0.0-0.1","3905","","k","","","","","","","","","","","","","key","k","16.622815699658258","960","536","k","true","img/H_28.png","生人","freeprac_stranger","",""
"","","","","","html-keyboard-response","143","1217443","0.0-12.0-0.0-1.1","null","<span style='color:GreenYellow; font-size: 70px;'>正确! </span>","null","","","","","","","","","","","","","","","","","","","","","","","feedback_test",""
"","","","","","psychophysics","144","1221146","0.0-12.0-0.0-0.2","2701","","j","","","","","","","","","","","","","key","j","16.666099547510715","960","536","f","false","img/S_28.png","生人","freeprac_stranger","",""
"","","","","","html-keyboard-response","145","1221459","0.0-12.0-0.0-1.2","null","<span style='color:red; font-size: 70px;'>错误! </span>","null","","","","","","","","","","","","","","","","","","","","","","","feedback_test",""
"","","","","","psychophysics","146","1224634","0.0-12.0-0.0-0.3","2173","","k","","","","","","","","","","","","","key","k","16.666105820106285","960","536","d","false","img/S_28.png","朋友","freeprac_stranger","",""
"","","","","","html-keyboard-response","147","1224940","0.0-12.0-0.0-1.3","null","<span style='color:red; font-size: 70px;'>错误! </span>","null","","","","","","","","","","","","","","","","","","","","","","","feedback_test",""
"","","","","","psychophysics","148","1228370","0.0-12.0-0.0-0.4","2429","","j","","","","","","","","","","","","","key","j","16.666117647058996","960","536","j","true","img/C_28.png","自我","freeprac_stranger","",""
"","","","","","html-keyboard-response","149","1228682","0.0-12.0-0.0-1.4","null","<span style='color:GreenYellow; font-size: 70px;'>正确! </span>","null","","","","","","","","","","","","","","","","","","","","","","","feedback_test",""
"","","","","","psychophysics","150","1231194","0.0-12.0-0.0-0.5","1510","","j","","","","","","","","","","","","","key","j","16.666206666667325","960","536","j","true","img/C_28.png","自我","freeprac_stranger","",""
"","","","","","html-keyboard-response","151","1231499","0.0-12.0-0.0-1.5","null","<span style='color:GreenYellow; font-size: 70px;'>正确! </span>","null","","","","","","","","","","","","","","","","","","","","","","","feedback_test",""
"","","","","","psychophysics","152","1235928","0.0-12.0-0.0-0.6","3428","","j","","","","","","","","","","","","","key","j","16.666162264151147","960","536","j","true","img/H_28.png","朋友","freeprac_stranger","",""
"","","","","","html-keyboard-response","153","1236234","0.0-12.0-0.0-1.6","null","<span style='color:GreenYellow; font-size: 70px;'>正确! </span>","null","","","","","","","","","","","","","","","","","","","","","","","feedback_test",""
"","","","","","psychophysics","154","1240714","0.0-12.0-0.0-0.7","3475","","d","","","","","","","","","","","","","key","d","16.666074626865353","960","536","d","true","img/S_28.png","自我","freeprac_stranger","",""
"","","","","","html-keyboard-response","155","1241025","0.0-12.0-0.0-1.7","null","<span style='color:GreenYellow; font-size: 70px;'>正确! </span>","null","","","","","","","","","","","","","","","","","","","","","","","feedback_test",""
"","","","","","psychophysics","156","1244626","0.0-12.0-0.0-0.8","2599","","j","","","","","","","","","","","","","key","j","16.666297674418406","960","536","j","true","img/H_28.png","朋友","freeprac_stranger","",""
"","","","","","html-keyboard-response","157","1244937","0.0-12.0-0.0-1.8","null","<span style='color:GreenYellow; font-size: 70px;'>正确! </span>","null","","","","","","","","","","","","","","","","","","","","","","","feedback_test",""
"","","","","","psychophysics","158","1249508","0.0-12.0-0.0-0.9","3569","","k","","","","","","","","","","","","","key","k","16.615758241758076","960","536","k","true","img/H_28.png","自我","freeprac_stranger","",""
"","","","","","html-keyboard-response","159","1249813","0.0-12.0-0.0-1.9","null","<span style='color:GreenYellow; font-size: 70px;'>正确! </span>","null","","","","","","","","","","","","","","","","","","","","","","","feedback_test",""
"","","","","","psychophysics","160","1255392","0.0-12.0-0.0-0.10","4577","","k","","","","","","","","","","","","","key","k","16.66608982035907","960","536","k","true","img/C_28.png","朋友","freeprac_stranger","",""
"","","","","","html-keyboard-response","161","1255695","0.0-12.0-0.0-1.10","null","<span style='color:GreenYellow; font-size: 70px;'>正确! </span>","null","","","","","","","","","","","","","","","","","","","","","","","feedback_test",""
"","","","","","psychophysics","162","1258994","0.0-12.0-0.0-0.11","2296","","f","","","","","","","","","","","","","key","f","16.666279187818354","960","536","f","true","img/S_28.png","生人","freeprac_stranger","",""
"","","","","","html-keyboard-response","163","1259305","0.0-12.0-0.0-1.11","null","<span style='color:GreenYellow; font-size: 70px;'>正确! </span>","null","","","","","","","","","","","","","","","","","","","","","","","feedback_test",""
"","","","","","instructions","164","1305700","0.0-13.0","46394","","","","","","","","","","","","","","[{""page_index"":0,""viewing_time"":46394}]","","","","","","","","","","","",""
"","","","","","psychophysics","165","1308203","0.0-14.0-0.0-0.0","null","","null","","","","","","","","","","","","","key","null","16.66602013422795","960","536","j","false","img/S_28.png","生人","prac_self","","生人"
"","","","","","html-keyboard-response","166","1308505","0.0-14.0-0.0-1.0","null","<span class='add_' style='color:yellow; font-size: 70px;'> 太慢! </span>","null","","","","","","","","","","","","","","","","","","","","","","","feedback_test",""
"","","","","","psychophysics","167","1310695","0.0-14.0-0.0-0.1","1187","","f","","","","","","","","","","","","","key","f","16.66611538461517","960","536","f","true","img/C_28.png","自我","prac_self","","自我"
"","","","","","html-keyboard-response","168","1311003","0.0-14.0-0.0-1.1","null","<span style='color:GreenYellow; font-size: 70px;'>正确! </span>","null","","","","","","","","","","","","","","","","","","","","","","","feedback_test",""
"","","","","","psychophysics","169","1312959","0.0-14.0-0.0-0.2","955","","k","","","","","","","","","","","","","key","k","16.666155172413585","960","536","j","false","img/S_28.png","生人","prac_self","","生人"
"","","","","","html-keyboard-response","170","1313275","0.0-14.0-0.0-1.2","null","<span style='color:red; font-size: 70px;'>错误! </span>","null","","","","","","","","","","","","","","","","","","","","","","","feedback_test",""
"","","","","","psychophysics","171","1315660","0.0-14.0-0.0-0.3","1384","","f","","","","","","","","","","","","","key","f","16.665992957746454","960","536","f","true","img/C_28.png","自我","prac_self","","自我"
"","","","","","html-keyboard-response","172","1315972","0.0-14.0-0.0-1.3","null","<span style='color:GreenYellow; font-size: 70px;'>正确! </span>","null","","","","","","","","","","","","","","","","","","","","","","","feedback_test",""
"","","","","","psychophysics","173","1318474","0.0-14.0-0.0-0.4","null","","null","","","","","","","","","","","","","key","null","16.66616107382649","960","536","d","false","img/C_28.png","朋友","prac_self","","自我"
"","","","","","html-keyboard-response","174","1318777","0.0-14.0-0.0-1.4","null","<span class='add_' style='color:yellow; font-size: 70px;'> 太慢! </span>","null","","","","","","","","","","","","","","","","","","","","","","","feedback_test",""
"","","","","","psychophysics","175","1320923","0.0-14.0-0.0-0.5","1145","","k","","","","","","","","","","","","","key","k","16.666218749998734","960","536","k","true","img/H_28.png","生人","prac_self","","朋友"
"","","","","","html-keyboard-response","176","1321233","0.0-14.0-0.0-1.5","null","<span style='color:GreenYellow; font-size: 70px;'>正确! </span>","null","","","","","","","","","","","","","","","","","","","","","","","feedback_test",""
"","","","","","psychophysics","177","1323711","0.0-14.0-0.0-0.6","1476","","j","","","","","","","","","","","","","key","j","16.666040540540692","960","536","j","true","img/H_28.png","朋友","prac_self","","朋友"
"","","","","","html-keyboard-response","178","1324020","0.0-14.0-0.0-1.6","null","<span style='color:GreenYellow; font-size: 70px;'>正确! </span>","null","","","","","","","","","","","","","","","","","","","","","","","feedback_test",""
"","","","","","psychophysics","179","1326522","0.0-14.0-0.0-0.7","null","","null","","","","","","","","","","","","","key","null","16.666221476510017","960","536","k","false","img/H_28.png","自我","prac_self","","朋友"
"","","","","","html-keyboard-response","180","1326836","0.0-14.0-0.0-1.7","null","<span class='add_' style='color:yellow; font-size: 70px;'> 太慢! </span>","null","","","","","","","","","","","","","","","","","","","","","","","feedback_test",""
"","","","","","psychophysics","181","1329150","0.0-14.0-0.0-0.8","1311","","k","","","","","","","","","","","","","key","k","16.666124087590113","960","536","j","false","img/H_28.png","朋友","prac_self","","朋友"
"","","","","","html-keyboard-response","182","1329454","0.0-14.0-0.0-1.8","null","<span style='color:red; font-size: 70px;'>错误! </span>","null","","","","","","","","","","","","","","","","","","","","","","","feedback_test",""
"","","","","","psychophysics","183","1331787","0.0-14.0-0.0-0.9","1332","","k","","","","","","","","","","","","","key","k","16.66602877697827","960","536","d","false","img/C_28.png","生人","prac_self","","自我"
"","","","","","html-keyboard-response","184","1332095","0.0-14.0-0.0-1.9","null","<span style='color:red; font-size: 70px;'>错误! </span>","null","","","","","","","","","","","","","","","","","","","","","","","feedback_test",""
"","","","","","psychophysics","185","1334319","0.0-14.0-0.0-0.10","1222","","f","","","","","","","","","","","","","key","f","16.666451127819816","960","536","k","false","img/S_28.png","自我","prac_self","","生人"
"","","","","","html-keyboard-response","186","1334634","0.0-14.0-0.0-1.10","null","<span style='color:red; font-size: 70px;'>错误! </span>","null","","","","","","","","","","","","","","","","","","","","","","","feedback_test",""
"","","","","","psychophysics","187","1336942","0.0-14.0-0.0-0.11","1307","","k","","","","","","","","","","","","","key","k","16.666014598539764","960","536","k","true","img/S_28.png","朋友","prac_self","","生人"
"","","","","","html-keyboard-response","188","1337248","0.0-14.0-0.0-1.11","null","<span style='color:GreenYellow; font-size: 70px;'>正确! </span>","null","","","","","","","","","","","","","","","","","","","","","","","feedback_test",""
"","","","","","psychophysics","189","1339751","0.0-14.0-0.0-0.12","null","","null","","","","","","","","","","","","","key","null","16.666060810809565","960","536","k","false","img/S_28.png","朋友","prac_self","","生人"
"","","","","","html-keyboard-response","190","1340065","0.0-14.0-0.0-1.12","null","<span class='add_' style='color:yellow; font-size: 70px;'> 太慢! </span>","null","","","","","","","","","","","","","","","","","","","","","","","feedback_test",""
"","","","","","psychophysics","191","1341485","0.0-14.0-0.0-0.13","420","","k","","","","","","","","","","","","","key","k","16.66550588235259","960","536","j","false","img/S_28.png","生人","prac_self","","生人"
"","","","","","html-keyboard-response","192","1341799","0.0-14.0-0.0-1.13","null","<span style='color:red; font-size: 70px;'>错误! </span>","null","","","","","","","","","","","","","","","","","","","","","","","feedback_test",""
"","","","","","psychophysics","193","1343961","0.0-14.0-0.0-0.14","1160","","j","","","","","","","","","","","","","key","j","16.666015503875723","960","536","k","false","img/S_28.png","自我","prac_self","","生人"
"","","","","","html-keyboard-response","194","1344272","0.0-14.0-0.0-1.14","null","<span style='color:red; font-size: 70px;'>错误! </span>","null","","","","","","","","","","","","","","","","","","","","","","","feedback_test",""
"","","","","","psychophysics","195","1346639","0.0-14.0-0.0-0.15","1366","","k","","","","","","","","","","","","","key","k","16.666056737589404","960","536","k","true","img/H_28.png","自我","prac_self","","朋友"
"","","","","","html-keyboard-response","196","1346948","0.0-14.0-0.0-1.15","null","<span style='color:GreenYellow; font-size: 70px;'>正确! </span>","null","","","","","","","","","","","","","","","","","","","","","","","feedback_test",""
"","","","","","psychophysics","197","1348972","0.0-14.0-0.0-0.16","1022","","f","","","","","","","","","","","","","key","f","16.666264462810055","960","536","f","true","img/C_28.png","自我","prac_self","","自我"
"","","","","","html-keyboard-response","198","1349273","0.0-14.0-0.0-1.16","null","<span style='color:GreenYellow; font-size: 70px;'>正确! </span>","null","","","","","","","","","","","","","","","","","","","","","","","feedback_test",""
"","","","","","psychophysics","199","1351473","0.0-14.0-0.0-0.17","1200","","k","","","","","","","","","","","","","key","k","16.666244274808648","960","536","k","true","img/H_28.png","生人","prac_self","","朋友"
"","","","","","html-keyboard-response","200","1351783","0.0-14.0-0.0-1.17","null","<span style='color:GreenYellow; font-size: 70px;'>正确! </span>","null","","","","","","","","","","","","","","","","","","","","","","","feedback_test",""
"","","","","","psychophysics","201","1354028","0.0-14.0-0.0-0.18","1243","","k","","","","","","","","","","","","","key","k","16.559052631579327","960","536","j","false","img/H_28.png","朋友","prac_self","","朋友"
"","","","","","html-keyboard-response","202","1354336","0.0-14.0-0.0-1.18","null","<span style='color:red; font-size: 70px;'>错误! </span>","null","","","","","","","","","","","","","","","","","","","","","","","feedback_test",""
"","","","","","psychophysics","203","1356528","0.0-14.0-0.0-0.19","1190","","j","","","","","","","","","","","","","key","j","16.665946153846857","960","536","d","false","img/C_28.png","生人","prac_self","","自我"
"","","","","","html-keyboard-response","204","1356842","0.0-14.0-0.0-1.19","null","<span style='color:red; font-size: 70px;'>错误! </span>","null","","","","","","","","","","","","","","","","","","","","","","","feedback_test",""
"","","","","","psychophysics","205","1358764","0.0-14.0-0.0-0.20","920","","f","","","","","","","","","","","","","key","f","16.66623684210425","960","536","d","false","img/C_28.png","朋友","prac_self","","自我"
"","","","","","html-keyboard-response","206","1359071","0.0-14.0-0.0-1.20","null","<span style='color:red; font-size: 70px;'>错误! </span>","null","","","","","","","","","","","","","","","","","","","","","","","feedback_test",""
"","","","","","psychophysics","207","1361160","0.0-14.0-0.0-0.21","1087","","f","","","","","","","","","","","","","key","f","16.66613709677439","960","536","f","true","img/C_28.png","自我","prac_self","","自我"
"","","","","","html-keyboard-response","208","1361476","0.0-14.0-0.0-1.21","null","<span style='color:GreenYellow; font-size: 70px;'>正确! </span>","null","","","","","","","","","","","","","","","","","","","","","","","feedback_test",""
"","","","","","psychophysics","209","1363704","0.0-14.0-0.0-0.22","1227","","d","","","","","","","","","","","","","key","d","16.666406015037467","960","536","j","false","img/H_28.png","朋友","prac_self","","朋友"
"","","","","","html-keyboard-response","210","1364020","0.0-14.0-0.0-1.22","null","<span style='color:red; font-size: 70px;'>错误! </span>","null","","","","","","","","","","","","","","","","","","","","","","","feedback_test",""
"","","","","","psychophysics","211","1366292","0.0-14.0-0.0-0.23","1271","","k","","","","","","","","","","","","","key","k","16.666259259259743","960","536","j","false","img/S_28.png","生人","prac_self","","生人"
"","","","","","html-keyboard-response","212","1366604","0.0-14.0-0.0-1.23","null","<span style='color:red; font-size: 70px;'>错误! </span>","null","","","","","","","","","","","","","","","","","","","","","","","feedback_test",""
"","","","","","html-keyboard-response","213","1374314","0.0-14.0-1.0-0.0","7708","<style>.context{color:white; font-size: 35px; line-height:40px}</style>                           <div><p class='context'>您正确回答了38% 的试次。</p><p class='context'>您的平均反应时为1242毫秒。</p>"," ","","","","","","","","","","","","","","","","","","","","","","","",""
"","","","","","instructions","214","1385581","0.0-14.0-1.0-1.0","11263","","","","","","","","","","","","","","[{""page_index"":0,""viewing_time"":4060},{""page_index"":1,""viewing_time"":4685},{""page_index"":2,""viewing_time"":2518}]","","","","","","","","","","","",""
"","","","","","psychophysics","215","1387990","0.0-14.1-0.1-0.24","1407","","f","","","","","","","","","","","","","key","f","16.665979166667157","960","536","d","false","img/C_28.png","朋友","prac_self","","自我"
"","","","","","html-keyboard-response","216","1388292","0.0-14.1-0.1-1.24","null","<span style='color:red; font-size: 70px;'>错误! </span>","null","","","","","","","","","","","","","","","","","","","","","","","feedback_test",""
"","","","","","psychophysics","217","1390606","0.0-14.1-0.1-0.25","1312","","f","","","","","","","","","","","","","key","f","16.666181159420006","960","536","f","true","img/C_28.png","自我","prac_self","","自我"
"","","","","","html-keyboard-response","218","1390915","0.0-14.1-0.1-1.25","null","<span style='color:GreenYellow; font-size: 70px;'>正确! </span>","null","","","","","","","","","","","","","","","","","","","","","","","feedback_test",""
"","","","","","psychophysics","219","1393346","0.0-14.1-0.1-0.26","1430","","k","","","","","","","","","","","","","key","k","16.66615172413756","960","536","k","true","img/S_28.png","自我","prac_self","","生人"
"","","","","","html-keyboard-response","220","1393659","0.0-14.1-0.1-1.26","null","<span style='color:GreenYellow; font-size: 70px;'>正确! </span>","null","","","","","","","","","","","","","","","","","","","","","","","feedback_test",""
"","","","","","psychophysics","221","1396162","0.0-14.1-0.1-0.27","null","","null","","","","","","","","","","","","","key","null","16.66599999999959","960","536","j","false","img/S_28.png","生人","prac_self","","生人"
"","","","","","html-keyboard-response","222","1396464","0.0-14.1-0.1-1.27","null","<span class='add_' style='color:yellow; font-size: 70px;'> 太慢! </span>","null","","","","","","","","","","","","","","","","","","","","","","","feedback_test",""
"","","","","","psychophysics","223","1398468","0.0-14.1-0.1-0.28","1002","","d","","","","","","","","","","","","","key","d","16.666049999999814","960","536","d","true","img/C_28.png","生人","prac_self","","自我"
"","","","","","html-keyboard-response","224","1398778","0.0-14.1-0.1-1.28","null","<span style='color:GreenYellow; font-size: 70px;'>正确! </span>","null","","","","","","","","","","","","","","","","","","","","","","","feedback_test",""
"","","","","","psychophysics","225","1401010","0.0-14.1-0.1-0.29","1229","","k","","","","","","","","","","","","","key","k","16.666112781955714","960","536","j","false","img/H_28.png","朋友","prac_self","","朋友"
"","","","","","html-keyboard-response","226","1401325","0.0-14.1-0.1-1.29","null","<span style='color:red; font-size: 70px;'>错误! </span>","null","","","","","","","","","","","","","","","","","","","","","","","feedback_test",""
"","","","","","psychophysics","227","1403510","0.0-14.1-0.1-0.30","1184","","k","","","","","","","","","","","","","key","k","16.666315384615714","960","536","k","true","img/S_28.png","朋友","prac_self","","生人"
"","","","","","html-keyboard-response","228","1403822","0.0-14.1-0.1-1.30","null","<span style='color:GreenYellow; font-size: 70px;'>正确! </span>","null","","","","","","","","","","","","","","","","","","","","","","","feedback_test",""
"","","","","","psychophysics","229","1405750","0.0-14.1-0.1-0.31","927","","j","","","","","","","","","","","","","key","j","16.666199999999094","960","536","j","true","img/S_28.png","生人","prac_self","","生人"
"","","","","","html-keyboard-response","230","1406052","0.0-14.1-0.1-1.31","null","<span style='color:GreenYellow; font-size: 70px;'>正确! </span>","null","","","","","","","","","","","","","","","","","","","","","","","feedback_test",""
"","","","","","psychophysics","231","1407754","0.0-14.1-0.1-0.32","701","","f","","","","","","","","","","","","","key","f","16.666326732672104","960","536","f","true","img/C_28.png","自我","prac_self","","自我"
"","","","","","html-keyboard-response","232","1408066","0.0-14.1-0.1-1.32","null","<span style='color:GreenYellow; font-size: 70px;'>正确! </span>","null","","","","","","","","","","","","","","","","","","","","","","","feedback_test",""
"","","","","","psychophysics","233","1410314","0.0-14.1-0.1-0.33","1247","","j","","","","","","","","","","","","","key","j","16.66603759398572","960","536","j","true","img/H_28.png","朋友","prac_self","","朋友"
"","","","","","html-keyboard-response","234","1410621","0.0-14.1-0.1-1.33","null","<span style='color:GreenYellow; font-size: 70px;'>正确! </span>","null","","","","","","","","","","","","","","","","","","","","","","","feedback_test",""
"","","","","","psychophysics","235","1412568","0.0-14.1-0.1-0.34","946","","k","","","","","","","","","","","","","key","k","16.666051724136825","960","536","k","true","img/H_28.png","自我","prac_self","","朋友"
"","","","","","html-keyboard-response","236","1412878","0.0-14.1-0.1-1.34","null","<span style='color:GreenYellow; font-size: 70px;'>正确! </span>","null","","","","","","","","","","","","","","","","","","","","","","","feedback_test",""
"","","","","","psychophysics","237","1414932","0.0-14.1-0.1-0.35","1052","","j","","","","","","","","","","","","","key","j","16.6662704918045","960","536","k","false","img/H_28.png","生人","prac_self","","朋友"
"","","","","","html-keyboard-response","238","1415248","0.0-14.1-0.1-1.35","null","<span style='color:red; font-size: 70px;'>错误! </span>","null","","","","","","","","","","","","","","","","","","","","","","","feedback_test",""
"","","","","","psychophysics","239","1417676","0.0-14.1-0.1-0.36","1427","","k","","","","","","","","","","","","","key","k","16.666055172413653","960","536","j","false","img/S_28.png","生人","prac_self","","生人"
"","","","","","html-keyboard-response","240","1417986","0.0-14.1-0.1-1.36","null","<span style='color:red; font-size: 70px;'>错误! </span>","null","","","","","","","","","","","","","","","","","","","","","","","feedback_test",""
"","","","","","psychophysics","241","1419835","0.0-14.1-0.1-0.37","848","","f","","","","","","","","","","","","","key","f","16.66628181818153","960","536","f","true","img/C_28.png","自我","prac_self","","自我"
"","","","","","html-keyboard-response","242","1420150","0.0-14.1-0.1-1.37","null","<span style='color:GreenYellow; font-size: 70px;'>正确! </span>","null","","","","","","","","","","","","","","","","","","","","","","","feedback_test",""
"","","","","","psychophysics","243","1422308","0.0-14.1-0.1-0.38","1156","","j","","","","","","","","","","","","","key","j","16.66602343749946","960","536","j","true","img/H_28.png","朋友","prac_self","","朋友"
"","","","","","html-keyboard-response","244","1422613","0.0-14.1-0.1-1.38","null","<span style='color:GreenYellow; font-size: 70px;'>正确! </span>","null","","","","","","","","","","","","","","","","","","","","","","","feedback_test",""
"","","","","","psychophysics","245","1424620","0.0-14.1-0.1-0.39","1005","","k","","","","","","","","","","","","","key","k","16.666149999998744","960","536","k","true","img/H_28.png","自我","prac_self","","朋友"
"","","","","","html-keyboard-response","246","1424931","0.0-14.1-0.1-1.39","null","<span style='color:GreenYellow; font-size: 70px;'>正确! </span>","null","","","","","","","","","","","","","","","","","","","","","","","feedback_test",""
"","","","","","psychophysics","247","1427114","0.0-14.1-0.1-0.40","1182","","d","","","","","","","","","","","","","key","d","16.66603875968988","960","536","d","true","img/C_28.png","生人","prac_self","","自我"
"","","","","","html-keyboard-response","248","1427422","0.0-14.1-0.1-1.40","null","<span style='color:GreenYellow; font-size: 70px;'>正确! </span>","null","","","","","","","","","","","","","","","","","","","","","","","feedback_test",""
"","","","","","psychophysics","249","1429830","0.0-14.1-0.1-0.41","1406","","k","","","","","","","","","","","","","key","k","16.666321678321573","960","536","j","false","img/S_28.png","生人","prac_self","","生人"
"","","","","","html-keyboard-response","250","1430144","0.0-14.1-0.1-1.41","null","<span style='color:red; font-size: 70px;'>错误! </span>","null","","","","","","","","","","","","","","","","","","","","","","","feedback_test",""
"","","","","","psychophysics","251","1432354","0.0-14.1-0.1-0.42","1208","","k","","","","","","","","","","","","","key","k","16.66612121212","960","536","k","true","img/H_28.png","生人","prac_self","","朋友"
"","","","","","html-keyboard-response","252","1432657","0.0-14.1-0.1-1.42","null","<span style='color:GreenYellow; font-size: 70px;'>正确! </span>","null","","","","","","","","","","","","","","","","","","","","","","","feedback_test",""
"","","","","","psychophysics","253","1434714","0.0-14.1-0.1-0.43","1055","","d","","","","","","","","","","","","","key","d","16.666172131147906","960","536","d","true","img/C_28.png","朋友","prac_self","","自我"
"","","","","","html-keyboard-response","254","1435024","0.0-14.1-0.1-1.43","null","<span style='color:GreenYellow; font-size: 70px;'>正确! </span>","null","","","","","","","","","","","","","","","","","","","","","","","feedback_test",""
"","","","","","psychophysics","255","1437244","0.0-14.1-0.1-0.44","1218","","j","","","","","","","","","","","","","key","j","16.66634090909043","960","536","j","true","img/H_28.png","朋友","prac_self","","朋友"
"","","","","","html-keyboard-response","256","1437553","0.0-14.1-0.1-1.44","null","<span style='color:GreenYellow; font-size: 70px;'>正确! </span>","null","","","","","","","","","","","","","","","","","","","","","","","feedback_test",""
"","","","","","psychophysics","257","1439538","0.0-14.1-0.1-0.45","983","","f","","","","","","","","","","","","","key","f","16.666228813559243","960","536","f","true","img/C_28.png","自我","prac_self","","自我"
"","","","","","html-keyboard-response","258","1439852","0.0-14.1-0.1-1.45","null","<span style='color:GreenYellow; font-size: 70px;'>正确! </span>","null","","","","","","","","","","","","","","","","","","","","","","","feedback_test",""
"","","","","","psychophysics","259","1441644","0.0-14.1-0.1-0.46","790","","d","","","","","","","","","","","","","key","d","16.6662264150932","960","536","k","false","img/S_28.png","自我","prac_self","","生人"
"","","","","","html-keyboard-response","260","1441951","0.0-14.1-0.1-1.46","null","<span style='color:red; font-size: 70px;'>错误! </span>","null","","","","","","","","","","","","","","","","","","","","","","","feedback_test",""
"","","","","","psychophysics","261","1444442","0.0-14.1-0.1-0.47","1489","","j","","","","","","","","","","","","","key","j","16.666114864864614","960","536","k","false","img/S_28.png","朋友","prac_self","","生人"
"","","","","","html-keyboard-response","262","1444752","0.0-14.1-0.1-1.47","null","<span style='color:red; font-size: 70px;'>错误! </span>","null","","","","","","","","","","","","","","","","","","","","","","","feedback_test",""
"","","","","","html-keyboard-response","263","1451492","0.0-14.1-1.1-0.1","6738","<style>.context{color:white; font-size: 35px; line-height:40px}</style>                           <div><p class='context'>您正确回答了67% 的试次。</p><p class='context'>您的平均反应时为1088毫秒。</p>"," ","","","","","","","","","","","","","","","","","","","","","","","",""
"","","","","","instructions","264","1460320","0.0-14.1-1.1-1.1","8825","","","","","","","","","","","","","","[{""page_index"":0,""viewing_time"":1831},{""page_index"":1,""viewing_time"":5002},{""page_index"":2,""viewing_time"":1992}]","","","","","","","","","","","",""
"","","","","","psychophysics","265","1462299","0.0-14.2-0.2-0.48","977","","d","","","","","","","","","","","","","key","d","16.66612711864508","960","536","k","false","img/H_28.png","自我","prac_self","","朋友"
"","","","","","html-keyboard-response","266","1462609","0.0-14.2-0.2-1.48","null","<span style='color:red; font-size: 70px;'>错误! </span>","null","","","","","","","","","","","","","","","","","","","","","","","feedback_test",""
"","","","","","psychophysics","267","1464764","0.0-14.2-0.2-0.49","1153","","k","","","","","","","","","","","","","key","k","16.666234374999476","960","536","j","false","img/H_28.png","朋友","prac_self","","朋友"
"","","","","","html-keyboard-response","268","1465068","0.0-14.2-0.2-1.49","null","<span style='color:red; font-size: 70px;'>错误! </span>","null","","","","","","","","","","","","","","","","","","","","","","","feedback_test",""
"","","","","","psychophysics","269","1467374","0.0-14.2-0.2-0.50","1304","","j","","","","","","","","","","","","","key","j","16.66615328467009","960","536","j","true","img/S_28.png","生人","prac_self","","生人"
"","","","","","html-keyboard-response","270","1467689","0.0-14.2-0.2-1.50","null","<span style='color:GreenYellow; font-size: 70px;'>正确! </span>","null","","","","","","","","","","","","","","","","","","","","","","","feedback_test",""
"","","","","","psychophysics","271","1469286","0.0-14.2-0.2-0.51","596","","f","","","","","","","","","","","","","key","f","16.66608421052561","960","536","f","true","img/C_28.png","自我","prac_self","","自我"
"","","","","","html-keyboard-response","272","1469590","0.0-14.2-0.2-1.51","null","<span style='color:GreenYellow; font-size: 70px;'>正确! </span>","null","","","","","","","","","","","","","","","","","","","","","","","feedback_test",""
"","","","","","psychophysics","273","1471259","0.0-14.2-0.2-0.52","668","","d","","","","","","","","","","","","","key","d","16.666363636363354","960","536","d","true","img/C_28.png","生人","prac_self","","自我"
"","","","","","html-keyboard-response","274","1471566","0.0-14.2-0.2-1.52","null","<span style='color:GreenYellow; font-size: 70px;'>正确! </span>","null","","","","","","","","","","","","","","","","","","","","","","","feedback_test",""
"","","","","","psychophysics","275","1473779","0.0-14.2-0.2-0.53","1213","","d","","","","","","","","","","","","","key","d","16.66608396946552","960","536","k","false","img/S_28.png","自我","prac_self","","生人"
"","","","","","html-keyboard-response","276","1474089","0.0-14.2-0.2-1.53","null","<span style='color:red; font-size: 70px;'>错误! </span>","null","","","","","","","","","","","","","","","","","","","","","","","feedback_test",""
"","","","","","psychophysics","277","1476139","0.0-14.2-0.2-0.54","1048","","d","","","","","","","","","","","","","key","d","16.666237704917698","960","536","d","true","img/C_28.png","朋友","prac_self","","自我"
"","","","","","html-keyboard-response","278","1476454","0.0-14.2-0.2-1.54","null","<span style='color:GreenYellow; font-size: 70px;'>正确! </span>","null","","","","","","","","","","","","","","","","","","","","","","","feedback_test",""
"","","","","","psychophysics","279","1478645","0.0-14.2-0.2-0.55","1191","","j","","","","","","","","","","","","","key","j","16.6660538461525","960","536","j","true","img/S_28.png","生人","prac_self","","生人"
"","","","","","html-keyboard-response","280","1478956","0.0-14.2-0.2-1.55","null","<span style='color:GreenYellow; font-size: 70px;'>正确! </span>","null","","","","","","","","","","","","","","","","","","","","","","","feedback_test",""
"","","","","","psychophysics","281","1481141","0.0-14.2-0.2-0.56","1183","","k","","","","","","","","","","","","","key","k","16.666123076924123","960","536","k","true","img/H_28.png","生人","prac_self","","朋友"
"","","","","","html-keyboard-response","282","1481456","0.0-14.2-0.2-1.56","null","<span style='color:GreenYellow; font-size: 70px;'>正确! </span>","null","","","","","","","","","","","","","","","","","","","","","","","feedback_test",""
"","","","","","psychophysics","283","1483913","0.0-14.2-0.2-0.57","1455","","k","","","","","","","","","","","","","key","k","16.666312925169105","960","536","k","true","img/S_28.png","朋友","prac_self","","生人"
"","","","","","html-keyboard-response","284","1484228","0.0-14.2-0.2-1.57","null","<span style='color:GreenYellow; font-size: 70px;'>正确! </span>","null","","","","","","","","","","","","","","","","","","","","","","","feedback_test",""
"","","","","","psychophysics","285","1485849","0.0-14.2-0.2-0.58","620","","f","","","","","","","","","","","","","key","f","16.529135416664456","960","536","f","true","img/C_28.png","自我","prac_self","","自我"
"","","","","","html-keyboard-response","286","1486157","0.0-14.2-0.2-1.58","null","<span style='color:GreenYellow; font-size: 70px;'>正确! </span>","null","","","","","","","","","","","","","","","","","","","","","","","feedback_test",""
"","","","","","psychophysics","287","1488331","0.0-14.2-0.2-0.59","1172","","j","","","","","","","","","","","","","key","j","16.666161538461726","960","536","j","true","img/H_28.png","朋友","prac_self","","朋友"
"","","","","","html-keyboard-response","288","1488638","0.0-14.2-0.2-1.59","null","<span style='color:GreenYellow; font-size: 70px;'>正确! </span>","null","","","","","","","","","","","","","","","","","","","","","","","feedback_test",""
"","","","","","psychophysics","289","1490913","0.0-14.2-0.2-0.60","1274","","k","","","","","","","","","","","","","key","k","16.666000000000864","960","536","j","false","img/S_28.png","生人","prac_self","","生人"
"","","","","","html-keyboard-response","290","1491220","0.0-14.2-0.2-1.60","null","<span style='color:red; font-size: 70px;'>错误! </span>","null","","","","","","","","","","","","","","","","","","","","","","","feedback_test",""
"","","","","","psychophysics","291","1493237","0.0-14.2-0.2-0.61","1016","","d","","","","","","","","","","","","","key","d","16.666300000000046","960","536","d","true","img/C_28.png","朋友","prac_self","","自我"
"","","","","","html-keyboard-response","292","1493541","0.0-14.2-0.2-1.61","null","<span style='color:GreenYellow; font-size: 70px;'>正确! </span>","null","","","","","","","","","","","","","","","","","","","","","","","feedback_test",""
"","","","","","psychophysics","293","1496039","0.0-14.2-0.2-0.62","1498","","j","","","","","","","","","","","","","key","j","16.666127516778698","960","536","k","false","img/H_28.png","自我","prac_self","","朋友"
"","","","","","html-keyboard-response","294","1496348","0.0-14.2-0.2-1.62","null","<span style='color:red; font-size: 70px;'>错误! </span>","null","","","","","","","","","","","","","","","","","","","","","","","feedback_test",""
"","","","","","psychophysics","295","1498833","0.0-14.2-0.2-0.63","1483","","j","","","","","","","","","","","","","key","j","16.666168918919663","960","536","j","true","img/H_28.png","朋友","prac_self","","朋友"
"","","","","","html-keyboard-response","296","1499137","0.0-14.2-0.2-1.63","null","<span style='color:GreenYellow; font-size: 70px;'>正确! </span>","null","","","","","","","","","","","","","","","","","","","","","","","feedback_test",""
"","","","","","psychophysics","297","1500839","0.0-14.2-0.2-0.64","701","","f","","","","","","","","","","","","","key","f","16.666178217821635","960","536","f","true","img/C_28.png","自我","prac_self","","自我"
"","","","","","html-keyboard-response","298","1501140","0.0-14.2-0.2-1.64","null","<span style='color:GreenYellow; font-size: 70px;'>正确! </span>","null","","","","","","","","","","","","","","","","","","","","","","","feedback_test",""
"","","","","","psychophysics","299","1503644","0.0-14.2-0.2-0.65","null","","null","","","","","","","","","","","","","key","null","16.66619463087272","960","536","k","false","img/S_28.png","朋友","prac_self","","生人"
"","","","","","html-keyboard-response","300","1503953","0.0-14.2-0.2-1.65","null","<span class='add_' style='color:yellow; font-size: 70px;'> 太慢! </span>","null","","","","","","","","","","","","","","","","","","","","","","","feedback_test",""
"","","","","","psychophysics","301","1505727","0.0-14.2-0.2-0.66","773","","f","","","","","","","","","","","","","key","f","16.66621904762107","960","536","f","true","img/C_28.png","自我","prac_self","","自我"
"","","","","","html-keyboard-response","302","1506039","0.0-14.2-0.2-1.66","null","<span style='color:GreenYellow; font-size: 70px;'>正确! </span>","null","","","","","","","","","","","","","","","","","","","","","","","feedback_test",""
"","","","","","psychophysics","303","1507783","0.0-14.2-0.2-0.67","743","","d","","","","","","","","","","","","","key","d","16.666192307692164","960","536","d","true","img/C_28.png","生人","prac_self","","自我"
"","","","","","html-keyboard-response","304","1508088","0.0-14.2-0.2-1.67","null","<span style='color:GreenYellow; font-size: 70px;'>正确! </span>","null","","","","","","","","","","","","","","","","","","","","","","","feedback_test",""
"","","","","","psychophysics","305","1510385","0.0-14.2-0.2-0.68","1295","","j","","","","","","","","","","","","","key","j","16.666087591242263","960","536","j","true","img/S_28.png","生人","prac_self","","生人"
"","","","","","html-keyboard-response","306","1510694","0.0-14.2-0.2-1.68","null","<span style='color:GreenYellow; font-size: 70px;'>正确! </span>","null","","","","","","","","","","","","","","","","","","","","","","","feedback_test",""
"","","","","","psychophysics","307","1513081","0.0-14.2-0.2-0.69","1386","","j","","","","","","","","","","","","","key","j","16.564253521125607","960","536","j","true","img/H_28.png","朋友","prac_self","","朋友"
"","","","","","html-keyboard-response","308","1513384","0.0-14.2-0.2-1.69","null","<span style='color:GreenYellow; font-size: 70px;'>正确! </span>","null","","","","","","","","","","","","","","","","","","","","","","","feedback_test",""
"","","","","","psychophysics","309","1515607","0.0-14.2-0.2-0.70","1222","","d","","","","","","","","","","","","","key","d","16.66604545454417","960","536","k","false","img/S_28.png","自我","prac_self","","生人"
"","","","","","html-keyboard-response","310","1515916","0.0-14.2-0.2-1.70","null","<span style='color:red; font-size: 70px;'>错误! </span>","null","","","","","","","","","","","","","","","","","","","","","","","feedback_test",""
"","","","","","psychophysics","311","1518319","0.0-14.2-0.2-0.71","1403","","k","","","","","","","","","","","","","key","k","16.6661468531474","960","536","k","true","img/H_28.png","生人","prac_self","","朋友"
"","","","","","html-keyboard-response","312","1518620","0.0-14.2-0.2-1.71","null","<span style='color:GreenYellow; font-size: 70px;'>正确! </span>","null","","","","","","","","","","","","","","","","","","","","","","","feedback_test",""
"","","","","","html-keyboard-response","313","1536726","0.0-15.0","18103","[""<style>.context{color:white; font-size: 35px; line-height:40px}</style>           <div><p class='context'>您正确回答了71% 的试次。</p><p class='context'>您的平均反应时为1061毫秒。</p><p class='context'>恭喜您完成这一阶段的练习。按任意键进入<span style='color: yellow;'>重点关注图形为“朋友”</span>的练习。</p></div><p class='footer' style='font-size:35px; line-height:30px;'>任务要求：\n           <p class='footer' style='font-size:35px; line-height:35px;'>对于与“朋友”对应的图形：如果 匹配 ，请按 <span style=\""color: lightgreen;\"">f键</span></p><p class='footer' style='font-size:35px'>如果 不匹配 ，请按<span style=\""color: lightgreen;\"">d键</p></span>\n           <p class='footer' style='font-size:35px; line-height:35px;'>对于非“朋友”对应的图形：如果 匹配 ，请按 <span style=\""color: lightgreen;\"">j键</span></p><p class='footer' style='font-size:35px'>如果 不匹配 ，请按<span style=\""color: lightgreen;\"">k键</p></span>\n           <p class='footer' style='font-size:22px; line-height:25px;'>请在实验过程中将您的<span style=\""color: lightgreen;\"">食指和中指</span>放在电脑键盘的相应键位上进行按键。</p></span>""]"," ","","","","","","","","","","","","","","","","","","","","","","","",""
"","","","","","psychophysics","314","1539022","0.0-16.0-0.0-0.0","1290","","d","","","","","","","","","","","","","key","d","16.66616788321093","960","536","k","false","img/S_28.png","朋友","prac_friend","","生人"
"","","","","","html-keyboard-response","315","1539328","0.0-16.0-0.0-1.0","null","<span style='color:red; font-size: 70px;'>错误! </span>","null","","","","","","","","","","","","","","","","","","","","","","","feedback_test",""
"","","","","","psychophysics","316","1541830","0.0-16.0-0.0-0.1","null","","null","","","","","","","","","","","","","key","null","16.666261744966743","960","536","j","false","img/S_28.png","生人","prac_friend","","生人"
"","","","","","html-keyboard-response","317","1542137","0.0-16.0-0.0-1.1","null","<span class='add_' style='color:yellow; font-size: 70px;'> 太慢! </span>","null","","","","","","","","","","","","","","","","","","","","","","","feedback_test",""
"","","","","","psychophysics","318","1544240","0.0-16.0-0.0-0.2","1102","","k","","","","","","","","","","","","","key","k","16.666232000000775","960","536","k","true","img/C_28.png","生人","prac_friend","","自我"
"","","","","","html-keyboard-response","319","1544548","0.0-16.0-0.0-1.2","null","<span style='color:GreenYellow; font-size: 70px;'>正确! </span>","null","","","","","","","","","","","","","","","","","","","","","","","feedback_test",""
"","","","","","psychophysics","320","1546704","0.0-16.0-0.0-0.3","1155","","j","","","","","","","","","","","","","key","j","16.66595312499885","960","536","j","true","img/S_28.png","生人","prac_friend","","生人"
"","","","","","html-keyboard-response","321","1547011","0.0-16.0-0.0-1.3","null","<span style='color:GreenYellow; font-size: 70px;'>正确! </span>","null","","","","","","","","","","","","","","","","","","","","","","","feedback_test",""
"","","","","","psychophysics","322","1549092","0.0-16.0-0.0-0.4","1080","","f","","","","","","","","","","","","","key","f","16.666252032520507","960","536","f","true","img/H_28.png","朋友","prac_friend","","朋友"
"","","","","","html-keyboard-response","323","1549402","0.0-16.0-0.0-1.4","null","<span style='color:GreenYellow; font-size: 70px;'>正确! </span>","null","","","","","","","","","","","","","","","","","","","","","","","feedback_test",""
"","","","","","psychophysics","324","1551130","0.0-16.0-0.0-0.5","727","","d","","","","","","","","","","","","","key","d","16.666252427185135","960","536","k","false","img/C_28.png","朋友","prac_friend","","自我"
"","","","","","html-keyboard-response","325","1551440","0.0-16.0-0.0-1.5","null","<span style='color:red; font-size: 70px;'>错误! </span>","null","","","","","","","","","","","","","","","","","","","","","","","feedback_test",""
"","","","","","psychophysics","326","1553860","0.0-16.0-0.0-0.6","1418","","j","","","","","","","","","","","","","key","j","16.66614583333366","960","536","j","true","img/C_28.png","自我","prac_friend","","自我"
"","","","","","html-keyboard-response","327","1554174","0.0-16.0-0.0-1.6","null","<span style='color:GreenYellow; font-size: 70px;'>正确! </span>","null","","","","","","","","","","","","","","","","","","","","","","","feedback_test",""
"","","","","","psychophysics","328","1556352","0.0-16.0-0.0-0.7","1176","","k","","","","","","","","","","","","","key","k","16.666100000000846","960","536","k","true","img/S_28.png","自我","prac_friend","","生人"
"","","","","","html-keyboard-response","329","1556664","0.0-16.0-0.0-1.7","null","<span style='color:GreenYellow; font-size: 70px;'>正确! </span>","null","","","","","","","","","","","","","","","","","","","","","","","feedback_test",""
"","","","","","psychophysics","330","1559166","0.0-16.0-0.0-0.8","1500","","k","","","","","","","","","","","","","key","k","16.66599999999959","960","536","d","false","img/H_28.png","自我","prac_friend","","朋友"
"","","","","","html-keyboard-response","331","1559468","0.0-16.0-0.0-1.8","null","<span style='color:red; font-size: 70px;'>错误! </span>","null","","","","","","","","","","","","","","","","","","","","","","","feedback_test",""
"","","","","","psychophysics","332","1561556","0.0-16.0-0.0-0.9","1087","","f","","","","","","","","","","","","","key","f","16.66620161290273","960","536","f","true","img/H_28.png","朋友","prac_friend","","朋友"
"","","","","","html-keyboard-response","333","1561866","0.0-16.0-0.0-1.9","null","<span style='color:GreenYellow; font-size: 70px;'>正确! </span>","null","","","","","","","","","","","","","","","","","","","","","","","feedback_test",""
"","","","","","psychophysics","334","1564024","0.0-16.0-0.0-0.10","1156","","j","","","","","","","","","","","","","key","j","16.666281249999884","960","536","j","true","img/C_28.png","自我","prac_friend","","自我"
"","","","","","html-keyboard-response","335","1564330","0.0-16.0-0.0-1.10","null","<span style='color:GreenYellow; font-size: 70px;'>正确! </span>","null","","","","","","","","","","","","","","","","","","","","","","","feedback_test",""
"","","","","","psychophysics","336","1566588","0.0-16.0-0.0-0.11","1257","","k","","","","","","","","","","","","","key","k","16.66624626865673","960","536","d","false","img/H_28.png","生人","prac_friend","","朋友"
"","","","","","html-keyboard-response","337","1566891","0.0-16.0-0.0-1.11","null","<span style='color:red; font-size: 70px;'>错误! </span>","null","","","","","","","","","","","","","","","","","","","","","","","feedback_test",""
"","","","","","psychophysics","338","1569206","0.0-16.0-0.0-0.12","1313","","k","","","","","","","","","","","","","key","k","16.665992753624078","960","536","k","true","img/C_28.png","生人","prac_friend","","自我"
"","","","","","html-keyboard-response","339","1569513","0.0-16.0-0.0-1.12","null","<span style='color:GreenYellow; font-size: 70px;'>正确! </span>","null","","","","","","","","","","","","","","","","","","","","","","","feedback_test",""
"","","","","","psychophysics","340","1571898","0.0-16.0-0.0-0.13","1383","","j","","","","","","","","","","","","","key","j","16.666183098591535","960","536","k","false","img/C_28.png","朋友","prac_friend","","自我"
"","","","","","html-keyboard-response","341","1572202","0.0-16.0-0.0-1.13","null","<span style='color:red; font-size: 70px;'>错误! </span>","null","","","","","","","","","","","","","","","","","","","","","","","feedback_test",""
"","","","","","psychophysics","342","1574612","0.0-16.0-0.0-0.14","1408","","k","","","","","","","","","","","","","key","k","16.666326388888088","960","536","k","true","img/S_28.png","朋友","prac_friend","","生人"
"","","","","","html-keyboard-response","343","1574913","0.0-16.0-0.0-1.14","null","<span style='color:GreenYellow; font-size: 70px;'>正确! </span>","null","","","","","","","","","","","","","","","","","","","","","","","feedback_test",""
"","","","","","psychophysics","344","1577156","0.0-16.0-0.0-0.15","1241","","k","","","","","","","","","","","","","key","k","16.666150375939836","960","536","j","false","img/S_28.png","生人","prac_friend","","生人"
"","","","","","html-keyboard-response","345","1577459","0.0-16.0-0.0-1.15","null","<span style='color:red; font-size: 70px;'>错误! </span>","null","","","","","","","","","","","","","","","","","","","","","","","feedback_test",""
"","","","","","psychophysics","346","1579746","0.0-16.0-0.0-0.16","1286","","d","","","","","","","","","","","","","key","d","16.57052941176431","960","536","k","false","img/S_28.png","自我","prac_friend","","生人"
"","","","","","html-keyboard-response","347","1580060","0.0-16.0-0.0-1.16","null","<span style='color:red; font-size: 70px;'>错误! </span>","null","","","","","","","","","","","","","","","","","","","","","","","feedback_test",""
"","","","","","psychophysics","348","1582538","0.0-16.0-0.0-0.17","1476","","j","","","","","","","","","","","","","key","j","16.665959183673127","960","536","d","false","img/H_28.png","生人","prac_friend","","朋友"
"","","","","","html-keyboard-response","349","1582851","0.0-16.0-0.0-1.17","null","<span style='color:red; font-size: 70px;'>错误! </span>","null","","","","","","","","","","","","","","","","","","","","","","","feedback_test",""
"","","","","","psychophysics","350","1585292","0.0-16.0-0.0-0.18","1439","","j","","","","","","","","","","","","","key","j","16.666144827586308","960","536","f","false","img/H_28.png","朋友","prac_friend","","朋友"
"","","","","","html-keyboard-response","351","1585606","0.0-16.0-0.0-1.18","null","<span style='color:red; font-size: 70px;'>错误! </span>","null","","","","","","","","","","","","","","","","","","","","","","","feedback_test",""
"","","","","","psychophysics","352","1587794","0.0-16.0-0.0-0.19","1187","","k","","","","","","","","","","","","","key","k","16.666152671756194","960","536","j","false","img/C_28.png","自我","prac_friend","","自我"
"","","","","","html-keyboard-response","353","1588106","0.0-16.0-0.0-1.19","null","<span style='color:red; font-size: 70px;'>错误! </span>","null","","","","","","","","","","","","","","","","","","","","","","","feedback_test",""
"","","","","","psychophysics","354","1590252","0.0-16.0-0.0-0.20","1144","","j","","","","","","","","","","","","","key","j","16.66643750000003","960","536","j","true","img/C_28.png","自我","prac_friend","","自我"
"","","","","","html-keyboard-response","355","1590562","0.0-16.0-0.0-1.20","null","<span style='color:GreenYellow; font-size: 70px;'>正确! </span>","null","","","","","","","","","","","","","","","","","","","","","","","feedback_test",""
"","","","","","psychophysics","356","1593006","0.0-16.0-0.0-0.21","1442","","k","","","","","","","","","","","","","key","k","16.66586206896584","960","536","f","false","img/H_28.png","朋友","prac_friend","","朋友"
"","","","","","html-keyboard-response","357","1593318","0.0-16.0-0.0-1.21","null","<span style='color:red; font-size: 70px;'>错误! </span>","null","","","","","","","","","","","","","","","","","","","","","","","feedback_test",""
"","","","","","psychophysics","358","1595820","0.0-16.0-0.0-0.22","null","","null","","","","","","","","","","","","","key","null","16.66636912751749","960","536","d","false","img/H_28.png","自我","prac_friend","","朋友"
"","","","","","html-keyboard-response","359","1596127","0.0-16.0-0.0-1.22","null","<span class='add_' style='color:yellow; font-size: 70px;'> 太慢! </span>","null","","","","","","","","","","","","","","","","","","","","","","","feedback_test",""
"","","","","","psychophysics","360","1598118","0.0-16.0-0.0-0.23","990","","d","","","","","","","","","","","","","key","d","16.66598305084656","960","536","j","false","img/S_28.png","生人","prac_friend","","生人"
"","","","","","html-keyboard-response","361","1598421","0.0-16.0-0.0-1.23","null","<span style='color:red; font-size: 70px;'>错误! </span>","null","","","","","","","","","","","","","","","","","","","","","","","feedback_test",""
"","","","","","html-keyboard-response","362","1602156","0.0-16.0-1.0-0.0","3733","<style>.context{color:white; font-size: 35px; line-height:40px}</style>                           <div><p class='context'>您正确回答了42% 的试次。</p><p class='context'>您的平均反应时为1204毫秒。</p>"," ","","","","","","","","","","","","","","","","","","","","","","","",""
"","","","","","instructions","363","1644797","0.0-16.0-1.0-1.0","42638","","","","","","","","","","","","","","[{""page_index"":0,""viewing_time"":2144},{""page_index"":1,""viewing_time"":33462},{""page_index"":2,""viewing_time"":7032}]","","","","","","","","","","","",""
"","","","","","psychophysics","364","1646932","0.0-16.1-0.1-0.24","1133","","j","","","","","","","","","","","","","key","j","16.665905511809704","960","536","j","true","img/C_28.png","自我","prac_friend","","自我"
"","","","","","html-keyboard-response","365","1647238","0.0-16.1-0.1-1.24","null","<span style='color:GreenYellow; font-size: 70px;'>正确! </span>","null","","","","","","","","","","","","","","","","","","","","","","","feedback_test",""
"","","","","","psychophysics","366","1649570","0.0-16.1-0.1-0.25","1330","","k","","","","","","","","","","","","","key","k","16.66571223021572","960","536","k","true","img/C_28.png","生人","prac_friend","","自我"
"","","","","","html-keyboard-response","367","1649876","0.0-16.1-0.1-1.25","null","<span style='color:GreenYellow; font-size: 70px;'>正确! </span>","null","","","","","","","","","","","","","","","","","","","","","","","feedback_test",""
"","","","","","psychophysics","368","1652354","0.0-16.1-0.1-0.26","1476","","k","","","","","","","","","","","","","key","k","16.666115646258465","960","536","k","true","img/S_28.png","自我","prac_friend","","生人"
"","","","","","html-keyboard-response","369","1652664","0.0-16.1-0.1-1.26","null","<span style='color:GreenYellow; font-size: 70px;'>正确! </span>","null","","","","","","","","","","","","","","","","","","","","","","","feedback_test",""
"","","","","","psychophysics","370","1655165","0.0-16.1-0.1-0.27","null","","null","","","","","","","","","","","","","key","null","16.66620805369215","960","536","d","false","img/H_28.png","生人","prac_friend","","朋友"
"","","","","","html-keyboard-response","371","1655475","0.0-16.1-0.1-1.27","null","<span class='add_' style='color:yellow; font-size: 70px;'> 太慢! </span>","null","","","","","","","","","","","","","","","","","","","","","","","feedback_test",""
"","","","","","psychophysics","372","1657733","0.0-16.1-0.1-0.28","1256","","d","","","","","","","","","","","","","key","d","16.666022388059506","960","536","d","true","img/H_28.png","自我","prac_friend","","朋友"
"","","","","","html-keyboard-response","373","1658034","0.0-16.1-0.1-1.28","null","<span style='color:GreenYellow; font-size: 70px;'>正确! </span>","null","","","","","","","","","","","","","","","","","","","","","","","feedback_test",""
"","","","","","psychophysics","374","1659711","0.0-16.1-0.1-0.29","675","","f","","","","","","","","","","","","","key","f","16.666419999999924","960","536","f","true","img/H_28.png","朋友","prac_friend","","朋友"
"","","","","","html-keyboard-response","375","1660024","0.0-16.1-0.1-1.29","null","<span style='color:GreenYellow; font-size: 70px;'>正确! </span>","null","","","","","","","","","","","","","","","","","","","","","","","feedback_test",""
"","","","","","psychophysics","376","1662117","0.0-16.1-0.1-0.30","1092","","k","","","","","","","","","","","","","key","k","16.666153225807413","960","536","j","false","img/S_28.png","生人","prac_friend","","生人"
"","","","","","html-keyboard-response","377","1662426","0.0-16.1-0.1-1.30","null","<span style='color:red; font-size: 70px;'>错误! </span>","null","","","","","","","","","","","","","","","","","","","","","","","feedback_test",""
"","","","","","psychophysics","378","1664442","0.0-16.1-0.1-0.31","1015","","f","","","","","","","","","","","","","key","f","16.6661666666662","960","536","f","true","img/H_28.png","朋友","prac_friend","","朋友"
"","","","","","html-keyboard-response","379","1664748","0.0-16.1-0.1-1.31","null","<span style='color:GreenYellow; font-size: 70px;'>正确! </span>","null","","","","","","","","","","","","","","","","","","","","","","","feedback_test",""
"","","","","","psychophysics","380","1666630","0.0-16.1-0.1-0.32","880","","j","","","","","","","","","","","","","key","j","16.666303571430035","960","536","j","true","img/C_28.png","自我","prac_friend","","自我"
"","","","","","html-keyboard-response","381","1666936","0.0-16.1-0.1-1.32","null","<span style='color:GreenYellow; font-size: 70px;'>正确! </span>","null","","","","","","","","","","","","","","","","","","","","","","","feedback_test",""
"","","","","","psychophysics","382","1668769","0.0-16.1-0.1-0.33","828","","d","","","","","","","","","","","","","key","d","16.666183486239078","960","536","k","false","img/S_28.png","朋友","prac_friend","","生人"
"","","","","","html-keyboard-response","383","1669070","0.0-16.1-0.1-1.33","null","<span style='color:red; font-size: 70px;'>错误! </span>","null","","","","","","","","","","","","","","","","","","","","","","","feedback_test",""
"","","","","","psychophysics","384","1671387","0.0-16.1-0.1-0.34","1316","","f","","","","","","","","","","","","","key","f","16.666282608695127","960","536","k","false","img/C_28.png","朋友","prac_friend","","自我"
"","","","","","html-keyboard-response","385","1671694","0.0-16.1-0.1-1.34","null","<span style='color:red; font-size: 70px;'>错误! </span>","null","","","","","","","","","","","","","","","","","","","","","","","feedback_test",""
"","","","","","psychophysics","386","1674012","0.0-16.1-0.1-0.35","1317","","j","","","","","","","","","","","","","key","j","16.666166666665696","960","536","j","true","img/S_28.png","生人","prac_friend","","生人"
"","","","","","html-keyboard-response","387","1674320","0.0-16.1-0.1-1.35","null","<span style='color:GreenYellow; font-size: 70px;'>正确! </span>","null","","","","","","","","","","","","","","","","","","","","","","","feedback_test",""
"","","","","","psychophysics","388","1676389","0.0-16.1-0.1-0.36","1066","","k","","","","","","","","","","","","","key","k","16.66608943089434","960","536","k","true","img/C_28.png","朋友","prac_friend","","自我"
"","","","","","html-keyboard-response","389","1676702","0.0-16.1-0.1-1.36","null","<span style='color:GreenYellow; font-size: 70px;'>正确! </span>","null","","","","","","","","","","","","","","","","","","","","","","","feedback_test",""
"","","","","","psychophysics","390","1678645","0.0-16.1-0.1-0.37","940","","f","","","","","","","","","","","","","key","f","16.666327586206847","960","536","f","true","img/H_28.png","朋友","prac_friend","","朋友"
"","","","","","html-keyboard-response","391","1678955","0.0-16.1-0.1-1.37","null","<span style='color:GreenYellow; font-size: 70px;'>正确! </span>","null","","","","","","","","","","","","","","","","","","","","","","","feedback_test",""
"","","","","","psychophysics","392","1680921","0.0-16.1-0.1-0.38","964","","d","","","","","","","","","","","","","key","d","16.66601709401808","960","536","d","true","img/H_28.png","生人","prac_friend","","朋友"
"","","","","","html-keyboard-response","393","1681227","0.0-16.1-0.1-1.38","null","<span style='color:GreenYellow; font-size: 70px;'>正确! </span>","null","","","","","","","","","","","","","","","","","","","","","","","feedback_test",""
"","","","","","psychophysics","394","1683729","0.0-16.1-0.1-0.39","1501","","k","","","","","","","","","","","","","key","k","16.666107382550337","960","536","d","false","img/H_28.png","自我","prac_friend","","朋友"
"","","","","","html-keyboard-response","395","1684037","0.0-16.1-0.1-1.39","null","<span class='add_' style='color:yellow; font-size: 70px;'> 太慢! </span>","null","","","","","","","","","","","","","","","","","","","","","","","feedback_test",""
"","","","","","psychophysics","396","1685783","0.0-16.1-0.1-0.40","743","","f","","","","","","","","","","","","","key","f","16.665855769229193","960","536","f","true","img/H_28.png","朋友","prac_friend","","朋友"
"","","","","","html-keyboard-response","397","1686097","0.0-16.1-0.1-1.40","null","<span style='color:GreenYellow; font-size: 70px;'>正确! </span>","null","","","","","","","","","","","","","","","","","","","","","","","feedback_test",""
"","","","","","psychophysics","398","1688428","0.0-16.1-0.1-0.41","1329","","k","","","","","","","","","","","","","key","k","16.6661582733806","960","536","k","true","img/C_28.png","生人","prac_friend","","自我"
"","","","","","html-keyboard-response","399","1688730","0.0-16.1-0.1-1.41","null","<span style='color:GreenYellow; font-size: 70px;'>正确! </span>","null","","","","","","","","","","","","","","","","","","","","","","","feedback_test",""
"","","","","","psychophysics","400","1690671","0.0-16.1-0.1-0.42","939","","j","","","","","","","","","","","","","key","j","16.66626086956619","960","536","j","true","img/C_28.png","自我","prac_friend","","自我"
"","","","","","html-keyboard-response","401","1690985","0.0-16.1-0.1-1.42","null","<span style='color:GreenYellow; font-size: 70px;'>正确! </span>","null","","","","","","","","","","","","","","","","","","","","","","","feedback_test",""
"","","","","","psychophysics","402","1692935","0.0-16.1-0.1-0.43","948","","k","","","","","","","","","","","","","key","k","16.666043103447763","960","536","k","true","img/S_28.png","自我","prac_friend","","生人"
"","","","","","html-keyboard-response","403","1693248","0.0-16.1-0.1-1.43","null","<span style='color:GreenYellow; font-size: 70px;'>正确! </span>","null","","","","","","","","","","","","","","","","","","","","","","","feedback_test",""
"","","","","","psychophysics","404","1695523","0.0-16.1-0.1-0.44","1273","","j","","","","","","","","","","","","","key","j","16.666170370370082","960","536","j","true","img/S_28.png","生人","prac_friend","","生人"
"","","","","","html-keyboard-response","405","1695828","0.0-16.1-0.1-1.44","null","<span style='color:GreenYellow; font-size: 70px;'>正确! </span>","null","","","","","","","","","","","","","","","","","","","","","","","feedback_test",""
"","","","","","psychophysics","406","1697561","0.0-16.1-0.1-0.45","731","","d","","","","","","","","","","","","","key","d","16.66626213592233","960","536","k","false","img/S_28.png","朋友","prac_friend","","生人"
"","","","","","html-keyboard-response","407","1697866","0.0-16.1-0.1-1.45","null","<span style='color:red; font-size: 70px;'>错误! </span>","null","","","","","","","","","","","","","","","","","","","","","","","feedback_test",""
"","","","","","psychophysics","408","1699969","0.0-16.1-0.1-0.46","1102","","j","","","","","","","","","","","","","key","j","16.666175999999048","960","536","j","true","img/S_28.png","生人","prac_friend","","生人"
"","","","","","html-keyboard-response","409","1700277","0.0-16.1-0.1-1.46","null","<span style='color:GreenYellow; font-size: 70px;'>正确! </span>","null","","","","","","","","","","","","","","","","","","","","","","","feedback_test",""
"","","","","","psychophysics","410","1702335","0.0-16.1-0.1-0.47","1056","","j","","","","","","","","","","","","","key","j","16.66602459016302","960","536","j","true","img/C_28.png","自我","prac_friend","","自我"
"","","","","","html-keyboard-response","411","1702649","0.0-16.1-0.1-1.47","null","<span style='color:GreenYellow; font-size: 70px;'>正确! </span>","null","","","","","","","","","","","","","","","","","","","","","","","feedback_test",""
"","","","","","html-keyboard-response","412","1723778","0.0-17.0","21128","[""<style>.context{color:white; font-size: 35px; line-height:40px}</style>               <div><p class='context'>您正确回答了75% 的试次。</p><p class='context'>您的平均反应时为1080毫秒。</p><p class='context'>恭喜您完成这一阶段的练习。按任意键进入<span style='color: yellow;'>重点关注图形为“生人”</span>的练习。</p></div><p class='footer' style='font-size:35px; line-height:30px;'>任务要求：\n               <p class='footer' style='font-size:35px; line-height:35px;'>对与“生人”对应的图形，如果 匹配 ，请按 <span style=\""color: lightgreen;\"">f键</span></p><p class='footer' style='font-size:35px'>如果 不匹配 ，请按<span style=\""color: lightgreen;\"">d键</p></span>\n               <p class='footer' style='font-size:35px; line-height:35px;'>对非“生人”对应的图形，如果 匹配 ，请按 <span style=\""color: lightgreen;\"">j键</span></p><p class='footer' style='font-size:35px'>如果 不匹配 ，请按<span style=\""color: lightgreen;\"">k键</p></span>\n               <p class='footer' style='font-size:22px; line-height:25px;'>请在实验过程中将您的<span style=\""color: lightgreen;\"">食指和中指</span>放在电脑键盘的相应键位上进行按键。</p></span>""]"," ","","","","","","","","","","","","","","","","","","","","","","","",""
"","","","","","psychophysics","413","1725564","0.0-18.0-0.0-0.0","781","","j","","","","","","","","","","","","","key","j","16.666075471698587","960","536","j","true","img/C_28.png","自我","prac_stranger","","自我"
"","","","","","html-keyboard-response","414","1725867","0.0-18.0-0.0-1.0","null","<span style='color:GreenYellow; font-size: 70px;'>正确! </span>","null","","","","","","","","","","","","","","","","","","","","","","","feedback_test",""
"","","","","","psychophysics","415","1727980","0.0-18.0-0.0-0.1","1111","","j","","","","","","","","","","","","","key","j","16.666222222223286","960","536","j","true","img/C_28.png","自我","prac_stranger","","自我"
"","","","","","html-keyboard-response","416","1728281","0.0-18.0-0.0-1.1","null","<span style='color:GreenYellow; font-size: 70px;'>正确! </span>","null","","","","","","","","","","","","","","","","","","","","","","","feedback_test",""
"","","","","","psychophysics","417","1730336","0.0-18.0-0.0-0.2","1053","","k","","","","","","","","","","","","","key","k","16.666163934425253","960","536","j","false","img/H_28.png","朋友","prac_stranger","","朋友"
"","","","","","html-keyboard-response","418","1730650","0.0-18.0-0.0-1.2","null","<span style='color:red; font-size: 70px;'>错误! </span>","null","","","","","","","","","","","","","","","","","","","","","","","feedback_test",""
"","","","","","psychophysics","419","1732838","0.0-18.0-0.0-0.3","1186","","j","","","","","","","","","","","","","key","j","16.666175572517975","960","536","k","false","img/H_28.png","自我","prac_stranger","","朋友"
"","","","","","html-keyboard-response","420","1733143","0.0-18.0-0.0-1.3","null","<span style='color:red; font-size: 70px;'>错误! </span>","null","","","","","","","","","","","","","","","","","","","","","","","feedback_test",""
"","","","","","psychophysics","421","1735118","0.0-18.0-0.0-0.4","974","","d","","","","","","","","","","","","","key","d","16.665957264956404","960","536","d","true","img/S_28.png","自我","prac_stranger","","生人"
"","","","","","html-keyboard-response","422","1735433","0.0-18.0-0.0-1.4","null","<span style='color:GreenYellow; font-size: 70px;'>正确! </span>","null","","","","","","","","","","","","","","","","","","","","","","","feedback_test",""
"","","","","","psychophysics","423","1737176","0.0-18.0-0.0-0.5","741","","d","","","","","","","","","","","","","key","d","16.6657211538449","960","536","d","true","img/S_28.png","朋友","prac_stranger","","生人"
