"success","timeout","failed_images","failed_audio","failed_video","trial_type","trial_index","time_elapsed","internal_node_id","rt","stimulus","response","value","item_width_mm","item_height_mm","item_width_px","px2mm","view_dist_mm","item_width_deg","px2deg","scale_factor","win_width_deg","win_height_deg","view_history","response_type","key_press","avg_frame_time","center_x","center_y","correct_response","correct","Image","text","condition","screen_id","label"
"true","false","[]","[]","[]","preload","0","1285","0.0-0.0","","","","","","","","","","","","","","","","","","","","","","","","","","",""
"","","","","","html-keyboard-response","1","74161","0.0-1.0","72875","
     <p>您好，欢迎参加本次实验。</p>
     <p>为充分保障您的权利，请确保您已经知晓并同意《参与实验同意书》以及《数据公开知情同意书》。</p>
     <p>如果您未见过上述内容，请咨询实验员。</p>
     <p>如果您选择继续实验，则表示您已经清楚两份知情同意书的内容并同意。</p>
     <p> <div style = ""color: green""><按任意键至下页></div> </p>
     ","enter","","","","","","","","","","","","","","","","","","","","","","","",""
"","","","","","html-keyboard-response","2","76161","0.0-2.0","2000","
     <p>本实验首先需要您填写一些基本个人信息。</p>
     <p> <div style = ""color: green""><按任意键至下页></div></p>
     ","enter","","","","","","","","","","","","","","","","","","","","","","","",""
"","","","","","call-function","3","76163","0.0-3.0-0.0","","","","","","","","","","","","","","","","","","","","","","","","","","",""
"","","","","","survey-html-form","4","81031","0.0-3.0-1.0","4868","","{""Q0"":""30""}","","","","","","","","","","","","","","","","","","","","","","","",""
"","","","","","html-button-response","5","82058","0.0-3.0-2.0","1025","<p style = 'color : white'>您的性别</p>","0","","","","","","","","","","","","","","","","","","","","","","","",""
"","","","","","survey-html-form","6","87849","0.0-3.0-3.0","5789","","{""Q0"":""2000""}","","","","","","","","","","","","","","","","","","","","","","","",""
"","","","","","survey-html-form","7","90452","0.0-3.0-4.0","2603","","{""Q0"":""6""}","","","","","","","","","","","","","","","","","","","","","","","",""
"","","","","","virtual-chinrest","8","270449","0.0-4.0","179995","","","","85.6","53.98","460.47747423638424","5.37625532747192","531.4","9.209549484727685","50","0.8295736955069856","29.64","14.44","","","","","","","","","","","","",""
"true","","","","","fullscreen","9","279529","0.0-5.0","","","","","","","","","","","","","","","","","","","","","","","","","","",""
"","","","","","instructions","10","363446","0.0-6.0","83916","","","","","","","","","","","","","","[{""page_index"":0,""viewing_time"":11663},{""page_index"":1,""viewing_time"":6206},{""page_index"":2,""viewing_time"":52390},{""page_index"":3,""viewing_time"":10275},{""page_index"":4,""viewing_time"":3382}]","","","","","","","","","","","",""
"","","","","","instructions","11","382473","0.0-7.0","19026","","","","","","","","","","","","","","[{""page_index"":0,""viewing_time"":19026}]","","","","","","","","","","","",""
"","","","","","psychophysics","12","389318","0.0-8.0-0.0-0.0","5841","","f","","","","","","","","","","","","","key","f","16.733281862745105","768","428","f","true","img/S_28.png","生人","freeprac_self","",""
"","","","","","html-keyboard-response","13","389620","0.0-8.0-0.0-1.0","null","<span style='color:GreenYellow; font-size: 70px;'>正确! </span>","null","","","","","","","","","","","","","","","","","","","","","","","feedback_test",""
"","","","","","psychophysics","14","392502","0.0-8.0-0.0-0.1","1878","","f","","","","","","","","","","","","","key","f","16.652354651162884","768","428","j","false","img/C_28.png","朋友","freeprac_self","",""
"","","","","","html-keyboard-response","15","392803","0.0-8.0-0.0-1.1","null","<span style='color:red; font-size: 70px;'>错误! </span>","null","","","","","","","","","","","","","","","","","","","","","","","feedback_test",""
"","","","","","psychophysics","16","417815","0.0-8.0-0.0-0.2","null","","null","","","","","","","","","","","","","key","null","16.650680879413738","768","428","d","false","img/S_28.png","朋友","freeprac_self","",""
"","","","","","html-keyboard-response","17","418127","0.0-8.0-0.0-1.2","null","<span style='color:red; font-size: 70px;'>错误! </span>","null","","","","","","","","","","","","","","","","","","","","","","","feedback_test",""
"","","","","","psychophysics","18","424900","0.0-8.0-0.0-0.3","5773","","f","","","","","","","","","","","","","key","f","16.651480295566476","768","428","f","true","img/S_28.png","自我","freeprac_self","",""
"","","","","","html-keyboard-response","19","425207","0.0-8.0-0.0-1.3","null","<span style='color:GreenYellow; font-size: 70px;'>正确! </span>","null","","","","","","","","","","","","","","","","","","","","","","","feedback_test",""
"","","","","","psychophysics","20","428500","0.0-8.0-0.0-0.4","2282","","j","","","","","","","","","","","","","key","j","16.652137755101833","768","428","k","false","img/C_28.png","自我","freeprac_self","",""
"","","","","","html-keyboard-response","21","428804","0.0-8.0-0.0-1.4","null","<span style='color:red; font-size: 70px;'>错误! </span>","null","","","","","","","","","","","","","","","","","","","","","","","feedback_test",""
"","","","","","psychophysics","22","453813","0.0-8.0-0.0-0.5","null","","null","","","","","","","","","","","","","key","null","16.65116066666665","768","428","f","false","img/H_28.png","自我","freeprac_self","",""
"","","","","","html-keyboard-response","23","454115","0.0-8.0-0.0-1.5","null","<span style='color:red; font-size: 70px;'>错误! </span>","null","","","","","","","","","","","","","","","","","","","","","","","feedback_test",""
"","","","","","psychophysics","24","479228","0.0-8.0-0.0-0.6","null","","null","","","","","","","","","","","","","key","null","16.651240174672473","740.8","356.8","j","false","img/C_28.png","生人","freeprac_self","",""
"","","","","","html-keyboard-response","25","480238","0.0-8.0-0.0-1.6","null","<span style='color:red; font-size: 70px;'>错误! </span>","null","","","","","","","","","","","","","","","","","","","","","","","feedback_test",""
"","","","","","psychophysics","26","489485","0.0-8.0-0.0-0.7","7254","","d","","","","","","","","","","","","","key","d","16.65195564516128","740.8","356.8","f","false","img/H_28.png","朋友","freeprac_self","",""
"","","","","","html-keyboard-response","27","489791","0.0-8.0-0.0-1.7","null","<span style='color:red; font-size: 70px;'>错误! </span>","null","","","","","","","","","","","","","","","","","","","","","","","feedback_test",""
"","","","","","psychophysics","28","514802","0.0-8.0-0.0-0.8","null","","null","","","","","","","","","","","","","key","null","16.65124317121915","740.8","356.8","k","false","img/C_28.png","自我","freeprac_self","",""
"","","","","","html-keyboard-response","29","515104","0.0-8.0-0.0-1.8","null","<span style='color:red; font-size: 70px;'>错误! </span>","null","","","","","","","","","","","","","","","","","","","","","","","feedback_test",""
"","","","","","psychophysics","30","521753","0.0-8.0-0.0-0.9","5647","","d","","","","","","","","","","","","","key","d","16.651701754385915","740.8","356.8","d","true","img/H_28.png","生人","freeprac_self","",""
"","","","","","html-keyboard-response","31","522061","0.0-8.0-0.0-1.9","null","<span style='color:GreenYellow; font-size: 70px;'>正确! </span>","null","","","","","","","","","","","","","","","","","","","","","","","feedback_test",""
"","","","","","psychophysics","32","524625","0.0-8.0-0.0-0.10","1559","","d","","","","","","","","","","","","","key","d","16.65092810457481","740.8","356.8","d","true","img/H_28.png","生人","freeprac_self","",""
"","","","","","html-keyboard-response","33","524939","0.0-8.0-0.0-1.10","null","<span style='color:GreenYellow; font-size: 70px;'>正确! </span>","null","","","","","","","","","","","","","","","","","","","","","","","feedback_test",""
"","","","","","psychophysics","34","527724","0.0-8.0-0.0-0.11","1780","","d","","","","","","","","","","","","","key","d","16.651030120481906","740.8","356.8","d","true","img/S_28.png","朋友","freeprac_self","",""
"","","","","","html-keyboard-response","35","528027","0.0-8.0-0.0-1.11","null","<span style='color:GreenYellow; font-size: 70px;'>正确! </span>","null","","","","","","","","","","","","","","","","","","","","","","","feedback_test",""
"","","","","","html-keyboard-response","36","538665","0.0-8.0-1.0-0.0","10636","<style>.context{color:white; font-size: 35px; line-height:40px}</style>                              <div><p class='context'>您正确回答了42% 的试次。</p><p class='context'>您的平均反应时为4120毫秒。</p>","escape","","","","","","","","","","","","","","","","","","","","","","","",""
"","","","","","instructions","37","603464","0.0-8.0-1.0-1.0","64797","","","","","","","","","","","","","","[{""page_index"":0,""viewing_time"":46353},{""page_index"":1,""viewing_time"":12897},{""page_index"":2,""viewing_time"":5548}]","","","","","","","","","","","",""
"","","","","","psychophysics","38","607031","0.0-8.1-0.1-0.12","2562","","d","","","","","","","","","","","","","key","d","16.651140845070284","768","428","d","true","img/S_28.png","朋友","freeprac_self","",""
"","","","","","html-keyboard-response","39","607332","0.0-8.1-0.1-1.12","null","<span style='color:GreenYellow; font-size: 70px;'>正确! </span>","null","","","","","","","","","","","","","","","","","","","","","","","feedback_test",""
"","","","","","psychophysics","40","609333","0.0-8.1-0.1-0.13","996","","d","","","","","","","","","","","","","key","d","16.65210084033594","768","428","d","true","img/H_28.png","生人","freeprac_self","",""
"","","","","","html-keyboard-response","41","609639","0.0-8.1-0.1-1.13","null","<span style='color:GreenYellow; font-size: 70px;'>正确! </span>","null","","","","","","","","","","","","","","","","","","","","","","","feedback_test",""
"","","","","","psychophysics","42","611361","0.0-8.1-0.1-0.14","711","","k","","","","","","","","","","","","","key","k","16.650460784313243","768","428","k","true","img/C_28.png","自我","freeprac_self","",""
"","","","","","html-keyboard-response","43","611673","0.0-8.1-0.1-1.14","null","<span style='color:GreenYellow; font-size: 70px;'>正确! </span>","null","","","","","","","","","","","","","","","","","","","","","","","feedback_test",""
"","","","","","psychophysics","44","614900","0.0-8.1-0.1-0.15","2217","","d","","","","","","","","","","","","","key","d","16.652041450777414","768","428","d","true","img/H_28.png","生人","freeprac_self","",""
"","","","","","html-keyboard-response","45","615209","0.0-8.1-0.1-1.15","null","<span style='color:GreenYellow; font-size: 70px;'>正确! </span>","null","","","","","","","","","","","","","","","","","","","","","","","feedback_test",""
"","","","","","psychophysics","46","616919","0.0-8.1-0.1-0.16","706","","d","","","","","","","","","","","","","key","d","16.651176470588645","768","428","d","true","img/S_28.png","朋友","freeprac_self","",""
"","","","","","html-keyboard-response","47","617228","0.0-8.1-0.1-1.16","null","<span style='color:GreenYellow; font-size: 70px;'>正确! </span>","null","","","","","","","","","","","","","","","","","","","","","","","feedback_test",""
"","","","","","psychophysics","48","620508","0.0-8.1-0.1-0.17","2273","","f","","","","","","","","","","","","","key","f","16.651800000000126","768","428","f","true","img/H_28.png","自我","freeprac_self","",""
"","","","","","html-keyboard-response","49","620814","0.0-8.1-0.1-1.17","null","<span style='color:GreenYellow; font-size: 70px;'>正确! </span>","null","","","","","","","","","","","","","","","","","","","","","","","feedback_test",""
"","","","","","psychophysics","50","623094","0.0-8.1-0.1-0.18","1272","","j","","","","","","","","","","","","","key","j","16.64992647058748","768","428","j","true","img/C_28.png","朋友","freeprac_self","",""
"","","","","","html-keyboard-response","51","623405","0.0-8.1-0.1-1.18","null","<span style='color:GreenYellow; font-size: 70px;'>正确! </span>","null","","","","","","","","","","","","","","","","","","","","","","","feedback_test",""
"","","","","","psychophysics","52","625704","0.0-8.1-0.1-0.19","1298","","j","","","","","","","","","","","","","key","j","16.651635036497023","768","428","j","true","img/C_28.png","生人","freeprac_self","",""
"","","","","","html-keyboard-response","53","626010","0.0-8.1-0.1-1.19","null","<span style='color:GreenYellow; font-size: 70px;'>正确! </span>","null","","","","","","","","","","","","","","","","","","","","","","","feedback_test",""
"","","","","","psychophysics","54","628798","0.0-8.1-0.1-0.20","1778","","f","","","","","","","","","","","","","key","f","16.65201807228907","768","428","f","true","img/S_28.png","自我","freeprac_self","",""
"","","","","","html-keyboard-response","55","629109","0.0-8.1-0.1-1.20","null","<span style='color:GreenYellow; font-size: 70px;'>正确! </span>","null","","","","","","","","","","","","","","","","","","","","","","","feedback_test",""
"","","","","","psychophysics","56","631822","0.0-8.1-0.1-0.21","1705","","f","","","","","","","","","","","","","key","f","16.650228395061365","768","428","f","true","img/S_28.png","生人","freeprac_self","",""
"","","","","","html-keyboard-response","57","632126","0.0-8.1-0.1-1.21","null","<span style='color:GreenYellow; font-size: 70px;'>正确! </span>","null","","","","","","","","","","","","","","","","","","","","","","","feedback_test",""
"","","","","","psychophysics","58","634658","0.0-8.1-0.1-0.22","1527","","k","","","","","","","","","","","","","key","k","16.65168874172204","768","428","k","true","img/C_28.png","自我","freeprac_self","",""
"","","","","","html-keyboard-response","59","634966","0.0-8.1-0.1-1.22","null","<span style='color:GreenYellow; font-size: 70px;'>正确! </span>","null","","","","","","","","","","","","","","","","","","","","","","","feedback_test",""
"","","","","","psychophysics","60","637728","0.0-8.1-0.1-0.23","1752","","f","","","","","","","","","","","","","key","f","16.64956363636337","768","428","f","true","img/H_28.png","朋友","freeprac_self","",""
"","","","","","html-keyboard-response","61","638029","0.0-8.1-0.1-1.23","null","<span style='color:GreenYellow; font-size: 70px;'>正确! </span>","null","","","","","","","","","","","","","","","","","","","","","","","feedback_test",""
"","","","","","html-keyboard-response","62","659571","0.0-9.0","21540","[""<style>.context{color:white; font-size: 35px; line-height:40px}</style>              <div><p class='context'>您正确回答了100% 的试次。</p><p class='context'>您的平均反应时为1566毫秒。</p><p class='context'>恭喜您完成这一阶段的练习。按任意键进入<span style='color: yellow;'>重点关注图形为“朋友”</span>的练习。</p></div><p class='footer' style='font-size:35px; line-height:30px;'>任务要求：\n              <p class='footer' style='font-size:35px; line-height:35px;'>对于与“朋友”对应的图形：如果 匹配 ，请按 <span style=\""color: lightgreen;\"">k键</span></p><p class='footer' style='font-size:35px'>如果 不匹配 ，请按<span style=\""color: lightgreen;\"">j键</p></span>\n              <p class='footer' style='font-size:35px; line-height:35px;'>对于非“朋友”对应的图形：如果 匹配 ，请按 <span style=\""color: lightgreen;\"">d键</span></p><p class='footer' style='font-size:35px'>如果 不匹配 ，请按<span style=\""color: lightgreen;\"">f键</p></span>\n              <p class='footer' style='font-size:22px; line-height:25px;'>请在实验过程中将您的<span style=\""color: lightgreen;\"">食指和中指</span>放在电脑键盘的相应键位上进行按键。</p></span>""]","f","","","","","","","","","","","","","","","","","","","","","","","",""
"","","","","","psychophysics","63","663716","0.0-10.0-0.0-0.0","3138","","f","","","","","","","","","","","","","key","f","16.651407258064513","768","428","f","true","img/C_28.png","朋友","freeprac_friend","",""
"","","","","","html-keyboard-response","64","664018","0.0-10.0-0.0-1.0","null","<span style='color:GreenYellow; font-size: 70px;'>正确! </span>","null","","","","","","","","","","","","","","","","","","","","","","","feedback_test",""
"","","","","","psychophysics","65","666156","0.0-10.0-0.0-0.1","1129","","j","","","","","","","","","","","","","key","j","16.652661417323113","768","428","j","true","img/S_28.png","生人","freeprac_friend","",""
"","","","","","html-keyboard-response","66","666459","0.0-10.0-0.0-1.1","null","<span style='color:GreenYellow; font-size: 70px;'>正确! </span>","null","","","","","","","","","","","","","","","","","","","","","","","feedback_test",""
"","","","","","psychophysics","67","669041","0.0-10.0-0.0-0.2","1575","","f","","","","","","","","","","","","","key","f","16.649805194804863","768","428","d","false","img/C_28.png","自我","freeprac_friend","",""
"","","","","","html-keyboard-response","68","669351","0.0-10.0-0.0-1.2","null","<span style='color:red; font-size: 70px;'>错误! </span>","null","","","","","","","","","","","","","","","","","","","","","","","feedback_test",""
"","","","","","psychophysics","69","671801","0.0-10.0-0.0-0.3","1442","","d","","","","","","","","","","","","","key","d","16.651493150685045","768","428","d","true","img/H_28.png","生人","freeprac_friend","",""
"","","","","","html-keyboard-response","70","672113","0.0-10.0-0.0-1.3","null","<span style='color:GreenYellow; font-size: 70px;'>正确! </span>","null","","","","","","","","","","","","","","","","","","","","","","","feedback_test",""
"","","","","","psychophysics","71","675248","0.0-10.0-0.0-0.4","2125","","d","","","","","","","","","","","","","key","d","16.650342245989624","768","428","d","true","img/C_28.png","自我","freeprac_friend","",""
"","","","","","html-keyboard-response","72","675562","0.0-10.0-0.0-1.4","null","<span style='color:GreenYellow; font-size: 70px;'>正确! </span>","null","","","","","","","","","","","","","","","","","","","","","","","feedback_test",""
"","","","","","psychophysics","73","678566","0.0-10.0-0.0-0.5","2003","","f","","","","","","","","","","","","","key","f","16.651240223463933","768","428","f","true","img/C_28.png","生人","freeprac_friend","",""
"","","","","","html-keyboard-response","74","678868","0.0-10.0-0.0-1.5","null","<span style='color:GreenYellow; font-size: 70px;'>正确! </span>","null","","","","","","","","","","","","","","","","","","","","","","","feedback_test",""
"","","","","","psychophysics","75","680713","0.0-10.0-0.0-0.6","842","","j","","","","","","","","","","","","","key","j","16.65147272727283","768","428","k","false","img/S_28.png","朋友","freeprac_friend","",""
"","","","","","html-keyboard-response","76","681016","0.0-10.0-0.0-1.6","null","<span style='color:red; font-size: 70px;'>错误! </span>","null","","","","","","","","","","","","","","","","","","","","","","","feedback_test",""
"","","","","","psychophysics","77","687036","0.0-10.0-0.0-0.7","5017","","k","","","","","","","","","","","","","key","k","16.65138504155131","768","428","j","false","img/S_28.png","自我","freeprac_friend","",""
"","","","","","html-keyboard-response","78","687343","0.0-10.0-0.0-1.7","null","<span style='color:red; font-size: 70px;'>错误! </span>","null","","","","","","","","","","","","","","","","","","","","","","","feedback_test",""
"","","","","","psychophysics","79","691510","0.0-10.0-0.0-0.8","3163","","d","","","","","","","","","","","","","key","d","16.652148594377547","768","428","d","true","img/H_28.png","生人","freeprac_friend","",""
"","","","","","html-keyboard-response","80","691818","0.0-10.0-0.0-1.8","null","<span style='color:GreenYellow; font-size: 70px;'>正确! </span>","null","","","","","","","","","","","","","","","","","","","","","","","feedback_test",""
"","","","","","psychophysics","81","694496","0.0-10.0-0.0-0.9","1670","","k","","","","","","","","","","","","","key","k","16.65188124999986","768","428","k","true","img/S_28.png","朋友","freeprac_friend","",""
"","","","","","html-keyboard-response","82","694809","0.0-10.0-0.0-1.9","null","<span style='color:GreenYellow; font-size: 70px;'>正确! </span>","null","","","","","","","","","","","","","","","","","","","","","","","feedback_test",""
"","","","","","psychophysics","83","697726","0.0-10.0-0.0-0.10","1907","","f","","","","","","","","","","","","","key","f","16.6510919540232","768","428","f","true","img/H_28.png","朋友","freeprac_friend","",""
"","","","","","html-keyboard-response","84","698033","0.0-10.0-0.0-1.10","null","<span style='color:GreenYellow; font-size: 70px;'>正确! </span>","null","","","","","","","","","","","","","","","","","","","","","","","feedback_test",""
"","","","","","psychophysics","85","701073","0.0-10.0-0.0-0.11","2037","","f","","","","","","","","","","","","","key","f","16.65185164835158","768","428","f","true","img/H_28.png","自我","freeprac_friend","",""
"","","","","","html-keyboard-response","86","701377","0.0-10.0-0.0-1.11","null","<span style='color:GreenYellow; font-size: 70px;'>正确! </span>","null","","","","","","","","","","","","","","","","","","","","","","","feedback_test",""
"","","","","","html-keyboard-response","87","719946","0.0-11.0","18568","[""<style>.context{color:white; font-size: 35px; line-height:40px}</style>                  <div><p class='context'>您正确回答了75% 的试次。</p><p class='context'>您的平均反应时为2068毫秒。</p><p class='context'>恭喜您完成这一阶段的练习。按任意键进入<span style='color: yellow;'>重点关注图形为“生人”</span>的练习。</p></div><p class='footer' style='font-size:35px; line-height:30px;'>任务要求：\n                  <p class='footer' style='font-size:35px; line-height:35px;'>对与“生人”对应的图形，如果 匹配 ，请按 <span style=\""color: lightgreen;\"">k键</span></p><p class='footer' style='font-size:35px'>如果 不匹配 ，请按<span style=\""color: lightgreen;\"">j键</p></span>\n                  <p class='footer' style='font-size:35px; line-height:35px;'>对非“生人”对应的图形，如果 匹配 ，请按 <span style=\""color: lightgreen;\"">d键</span></p><p class='footer' style='font-size:35px'>如果 不匹配 ，请按<span style=\""color: lightgreen;\"">f键</p></span>\n                  <p class='footer' style='font-size:22px; line-height:25px;'>请在实验过程中将您的<span style=\""color: lightgreen;\"">食指和中指</span>放在电脑键盘的相应键位上进行按键。</p></span>""]","f","","","","","","","","","","","","","","","","","","","","","","","",""
"","","","","","psychophysics","88","725087","0.0-12.0-0.0-0.0","4138","","f","","","","","","","","","","","","","key","f","16.651840909090886","768","428","f","true","img/C_28.png","朋友","freeprac_stranger","",""
"","","","","","html-keyboard-response","89","725394","0.0-12.0-0.0-1.0","null","<span style='color:GreenYellow; font-size: 70px;'>正确! </span>","null","","","","","","","","","","","","","","","","","","","","","","","feedback_test",""
"","","","","","psychophysics","90","728391","0.0-12.0-0.0-0.1","1996","","d","","","","","","","","","","","","","key","d","16.64615168539334","768","428","d","true","img/C_28.png","自我","freeprac_stranger","",""
"","","","","","html-keyboard-response","91","728696","0.0-12.0-0.0-1.1","null","<span style='color:GreenYellow; font-size: 70px;'>正确! </span>","null","","","","","","","","","","","","","","","","","","","","","","","feedback_test",""
"","","","","","psychophysics","92","730717","0.0-12.0-0.0-0.2","1009","","d","","","","","","","","","","","","","key","d","16.651308333333386","768","428","d","true","img/C_28.png","自我","freeprac_stranger","",""
"","","","","","html-keyboard-response","93","731028","0.0-12.0-0.0-1.2","null","<span style='color:GreenYellow; font-size: 70px;'>正确! </span>","null","","","","","","","","","","","","","","","","","","","","","","","feedback_test",""
"","","","","","psychophysics","94","733581","0.0-12.0-0.0-0.3","1542","","d","","","","","","","","","","","","","key","d","16.651013157894916","768","428","d","true","img/S_28.png","朋友","freeprac_stranger","",""
"","","","","","html-keyboard-response","95","733894","0.0-12.0-0.0-1.3","null","<span style='color:GreenYellow; font-size: 70px;'>正确! </span>","null","","","","","","","","","","","","","","","","","","","","","","","feedback_test",""
"","","","","","psychophysics","96","736394","0.0-12.0-0.0-0.4","1490","","j","","","","","","","","","","","","","key","j","16.651322147651143","768","428","k","false","img/H_28.png","生人","freeprac_stranger","",""
"","","","","","html-keyboard-response","97","736706","0.0-12.0-0.0-1.4","null","<span style='color:red; font-size: 70px;'>错误! </span>","null","","","","","","","","","","","","","","","","","","","","","","","feedback_test",""
"","","","","","psychophysics","98","739951","0.0-12.0-0.0-0.5","2235","","j","","","","","","","","","","","","","key","j","16.651479381443238","768","428","j","true","img/H_28.png","朋友","freeprac_stranger","",""
"","","","","","html-keyboard-response","99","740266","0.0-12.0-0.0-1.5","null","<span style='color:GreenYellow; font-size: 70px;'>正确! </span>","null","","","","","","","","","","","","","","","","","","","","","","","feedback_test",""
"","","","","","psychophysics","100","744580","0.0-12.0-0.0-0.6","3304","","f","","","","","","","","","","","","","key","f","16.651201550387633","768","428","f","true","img/C_28.png","生人","freeprac_stranger","",""
"","","","","","html-keyboard-response","101","744882","0.0-12.0-0.0-1.6","null","<span style='color:GreenYellow; font-size: 70px;'>正确! </span>","null","","","","","","","","","","","","","","","","","","","","","","","feedback_test",""
"","","","","","psychophysics","102","749404","0.0-12.0-0.0-0.7","3516","","f","","","","","","","","","","","","","key","f","16.651144444444476","768","428","f","true","img/S_28.png","生人","freeprac_stranger","",""
"","","","","","html-keyboard-response","103","749712","0.0-12.0-0.0-1.7","null","<span style='color:GreenYellow; font-size: 70px;'>正确! </span>","null","","","","","","","","","","","","","","","","","","","","","","","feedback_test",""
"","","","","","psychophysics","104","752306","0.0-12.0-0.0-0.8","1584","","d","","","","","","","","","","","","","key","d","16.65148387096762","768","428","d","true","img/S_28.png","朋友","freeprac_stranger","",""
"","","","","","html-keyboard-response","105","752620","0.0-12.0-0.0-1.8","null","<span style='color:GreenYellow; font-size: 70px;'>正确! </span>","null","","","","","","","","","","","","","","","","","","","","","","","feedback_test",""
"","","","","","psychophysics","106","755833","0.0-12.0-0.0-0.9","2200","","f","","","","","","","","","","","","","key","f","16.651397905759246","768","428","f","true","img/S_28.png","自我","freeprac_stranger","",""
"","","","","","html-keyboard-response","107","756135","0.0-12.0-0.0-1.9","null","<span style='color:GreenYellow; font-size: 70px;'>正确! </span>","null","","","","","","","","","","","","","","","","","","","","","","","feedback_test",""
"","","","","","psychophysics","108","762401","0.0-12.0-0.0-0.10","5256","","j","","","","","","","","","","","","","key","j","16.650775999999915","768","428","j","true","img/H_28.png","自我","freeprac_stranger","",""
"","","","","","html-keyboard-response","109","762712","0.0-12.0-0.0-1.10","null","<span style='color:GreenYellow; font-size: 70px;'>正确! </span>","null","","","","","","","","","","","","","","","","","","","","","","","feedback_test",""
"","","","","","psychophysics","110","764929","0.0-12.0-0.0-0.11","1207","","k","","","","","","","","","","","","","key","k","16.650053030303255","768","428","k","true","img/H_28.png","生人","freeprac_stranger","",""
"","","","","","html-keyboard-response","111","765233","0.0-12.0-0.0-1.11","null","<span style='color:GreenYellow; font-size: 70px;'>正确! </span>","null","","","","","","","","","","","","","","","","","","","","","","","feedback_test",""
"","","","","","instructions","112","800982","0.0-13.0","35747","","","","","","","","","","","","","","[{""page_index"":0,""viewing_time"":35747}]","","","","","","","","","","","",""
"","","","","","psychophysics","113","803490","0.0-14.0-0.0-0.0","null","","null","","","","","","","","","","","","","key","null","16.651180000000167","768","428","f","false","img/H_28.png","自我","prac_self","","生人"
"","","","","","html-keyboard-response","114","803791","0.0-14.0-0.0-1.0","null","<span class='add_' style='color:yellow; font-size: 70px;'> 太慢! </span>","null","","","","","","","","","","","","","","","","","","","","","","","feedback_test",""
"","","","","","psychophysics","115","806296","0.0-14.0-0.0-0.1","null","","null","","","","","","","","","","","","","key","null","16.65006040268415","768","428","d","false","img/H_28.png","生人","prac_self","","生人"
"","","","","","html-keyboard-response","116","806608","0.0-14.0-0.0-1.1","null","<span class='add_' style='color:yellow; font-size: 70px;'> 太慢! </span>","null","","","","","","","","","","","","","","","","","","","","","","","feedback_test",""
"","","","","","psychophysics","117","808645","0.0-14.0-0.0-0.2","1027","","d","","","","","","","","","","","","","key","d","16.651421487603667","768","428","d","true","img/S_28.png","朋友","prac_self","","朋友"
"","","","","","html-keyboard-response","118","808961","0.0-14.0-0.0-1.2","null","<span style='color:GreenYellow; font-size: 70px;'>正确! </span>","null","","","","","","","","","","","","","","","","","","","","","","","feedback_test",""
"","","","","","psychophysics","119","810831","0.0-14.0-0.0-0.3","864","","f","","","","","","","","","","","","","key","f","16.651144144144162","768","428","f","true","img/S_28.png","生人","prac_self","","朋友"
"","","","","","html-keyboard-response","120","811140","0.0-14.0-0.0-1.3","null","<span style='color:GreenYellow; font-size: 70px;'>正确! </span>","null","","","","","","","","","","","","","","","","","","","","","","","feedback_test",""
"","","","","","psychophysics","121","813646","0.0-14.0-0.0-0.4","null","","null","","","","","","","","","","","","","key","null","16.6523020134234","768","428","j","false","img/C_28.png","生人","prac_self","","自我"
"","","","","","html-keyboard-response","122","813958","0.0-14.0-0.0-1.4","null","<span class='add_' style='color:yellow; font-size: 70px;'> 太慢! </span>","null","","","","","","","","","","","","","","","","","","","","","","","feedback_test",""
"","","","","","psychophysics","123","816294","0.0-14.0-0.0-0.5","1332","","j","","","","","","","","","","","","","key","j","16.652884892085837","768","428","j","true","img/C_28.png","朋友","prac_self","","自我"
"","","","","","html-keyboard-response","124","816597","0.0-14.0-0.0-1.5","null","<span style='color:GreenYellow; font-size: 70px;'>正确! </span>","null","","","","","","","","","","","","","","","","","","","","","","","feedback_test",""
"","","","","","psychophysics","125","818483","0.0-14.0-0.0-0.6","873","","k","","","","","","","","","","","","","key","k","16.65145535714276","768","428","k","true","img/C_28.png","自我","prac_self","","自我"
"","","","","","html-keyboard-response","126","818794","0.0-14.0-0.0-1.6","null","<span style='color:GreenYellow; font-size: 70px;'>正确! </span>","null","","","","","","","","","","","","","","","","","","","","","","","feedback_test",""
"","","","","","psychophysics","127","821306","0.0-14.0-0.0-0.7","null","","null","","","","","","","","","","","","","key","null","16.651113333333438","768","428","d","false","img/S_28.png","朋友","prac_self","","朋友"
"","","","","","html-keyboard-response","128","821619","0.0-14.0-0.0-1.7","null","<span class='add_' style='color:yellow; font-size: 70px;'> 太慢! </span>","null","","","","","","","","","","","","","","","","","","","","","","","feedback_test",""
"","","","","","psychophysics","129","824121","0.0-14.0-0.0-0.8","null","","null","","","","","","","","","","","","","key","null","16.65241333333387","768","428","k","false","img/C_28.png","自我","prac_self","","自我"
"","","","","","html-keyboard-response","130","824422","0.0-14.0-0.0-1.8","null","<span class='add_' style='color:yellow; font-size: 70px;'> 太慢! </span>","null","","","","","","","","","","","","","","","","","","","","","","","feedback_test",""
"","","","","","psychophysics","131","826429","0.0-14.0-0.0-0.9","995","","d","","","","","","","","","","","","","key","d","16.651554621849012","768","428","f","false","img/H_28.png","朋友","prac_self","","生人"
"","","","","","html-keyboard-response","132","826740","0.0-14.0-0.0-1.9","null","<span style='color:red; font-size: 70px;'>错误! </span>","null","","","","","","","","","","","","","","","","","","","","","","","feedback_test",""
"","","","","","psychophysics","133","829206","0.0-14.0-0.0-0.10","1456","","f","","","","","","","","","","","","","key","f","16.651292517006738","768","428","f","true","img/S_28.png","自我","prac_self","","朋友"
"","","","","","html-keyboard-response","134","829509","0.0-14.0-0.0-1.10","null","<span style='color:GreenYellow; font-size: 70px;'>正确! </span>","null","","","","","","","","","","","","","","","","","","","","","","","feedback_test",""
"","","","","","psychophysics","135","832016","0.0-14.0-0.0-0.11","null","","null","","","","","","","","","","","","","key","null","16.651406666666734","768","428","d","false","img/H_28.png","生人","prac_self","","生人"
"","","","","","html-keyboard-response","136","832326","0.0-14.0-0.0-1.11","null","<span class='add_' style='color:yellow; font-size: 70px;'> 太慢! </span>","null","","","","","","","","","","","","","","","","","","","","","","","feedback_test",""
"","","","","","psychophysics","137","834563","0.0-14.0-0.0-0.12","1235","","k","","","","","","","","","","","","","key","k","16.652552238806262","768","428","k","true","img/C_28.png","自我","prac_self","","自我"
"","","","","","html-keyboard-response","138","834875","0.0-14.0-0.0-1.12","null","<span style='color:GreenYellow; font-size: 70px;'>正确! </span>","null","","","","","","","","","","","","","","","","","","","","","","","feedback_test",""
"","","","","","psychophysics","139","836620","0.0-14.0-0.0-0.13","745","","k","","","","","","","","","","","","","key","k","16.653240384614598","768","428","k","true","img/C_28.png","自我","prac_self","","自我"
"","","","","","html-keyboard-response","140","836932","0.0-14.0-0.0-1.13","null","<span style='color:GreenYellow; font-size: 70px;'>正确! </span>","null","","","","","","","","","","","","","","","","","","","","","","","feedback_test",""
"","","","","","psychophysics","141","839234","0.0-14.0-0.0-0.14","1293","","d","","","","","","","","","","","","","key","d","16.651255474452196","768","428","d","true","img/H_28.png","生人","prac_self","","生人"
"","","","","","html-keyboard-response","142","839549","0.0-14.0-0.0-1.14","null","<span style='color:GreenYellow; font-size: 70px;'>正确! </span>","null","","","","","","","","","","","","","","","","","","","","","","","feedback_test",""
"","","","","","psychophysics","143","841915","0.0-14.0-0.0-0.15","1361","","j","","","","","","","","","","","","","key","j","16.651475177305016","768","428","j","true","img/C_28.png","朋友","prac_self","","自我"
"","","","","","html-keyboard-response","144","842222","0.0-14.0-0.0-1.15","null","<span style='color:GreenYellow; font-size: 70px;'>正确! </span>","null","","","","","","","","","","","","","","","","","","","","","","","feedback_test",""
"","","","","","psychophysics","145","844725","0.0-14.0-0.0-0.16","null","","null","","","","","","","","","","","","","key","null","16.651852348993607","768","428","f","false","img/S_28.png","自我","prac_self","","朋友"
"","","","","","html-keyboard-response","146","845039","0.0-14.0-0.0-1.16","null","<span class='add_' style='color:yellow; font-size: 70px;'> 太慢! </span>","null","","","","","","","","","","","","","","","","","","","","","","","feedback_test",""
"","","","","","psychophysics","147","847146","0.0-14.0-0.0-0.17","1097","","d","","","","","","","","","","","","","key","d","16.650071999999696","768","428","d","true","img/S_28.png","朋友","prac_self","","朋友"
"","","","","","html-keyboard-response","148","847454","0.0-14.0-0.0-1.17","null","<span style='color:GreenYellow; font-size: 70px;'>正确! </span>","null","","","","","","","","","","","","","","","","","","","","","","","feedback_test",""
"","","","","","psychophysics","149","849443","0.0-14.0-0.0-0.18","979","","d","","","","","","","","","","","","","key","d","16.65274576271166","768","428","d","true","img/H_28.png","生人","prac_self","","生人"
"","","","","","html-keyboard-response","150","849758","0.0-14.0-0.0-1.18","null","<span style='color:GreenYellow; font-size: 70px;'>正确! </span>","null","","","","","","","","","","","","","","","","","","","","","","","feedback_test",""
"","","","","","psychophysics","151","851721","0.0-14.0-0.0-0.19","959","","f","","","","","","","","","","","","","key","f","16.652923076923013","768","428","f","true","img/H_28.png","朋友","prac_self","","生人"
"","","","","","html-keyboard-response","152","852035","0.0-14.0-0.0-1.19","null","<span style='color:GreenYellow; font-size: 70px;'>正确! </span>","null","","","","","","","","","","","","","","","","","","","","","","","feedback_test",""
"","","","","","psychophysics","153","854102","0.0-14.0-0.0-0.20","1060","","j","","","","","","","","","","","","","key","j","16.651593495935497","768","428","j","true","img/C_28.png","生人","prac_self","","自我"
"","","","","","html-keyboard-response","154","854413","0.0-14.0-0.0-1.20","null","<span style='color:GreenYellow; font-size: 70px;'>正确! </span>","null","","","","","","","","","","","","","","","","","","","","","","","feedback_test",""
"","","","","","psychophysics","155","856842","0.0-14.0-0.0-0.21","1418","","d","","","","","","","","","","","","","key","d","16.65127586206935","768","428","f","false","img/S_28.png","生人","prac_self","","朋友"
"","","","","","html-keyboard-response","156","857155","0.0-14.0-0.0-1.21","null","<span style='color:red; font-size: 70px;'>错误! </span>","null","","","","","","","","","","","","","","","","","","","","","","","feedback_test",""
"","","","","","psychophysics","157","859667","0.0-14.0-0.0-0.22","null","","null","","","","","","","","","","","","","key","null","16.652483221476324","768","428","d","false","img/S_28.png","朋友","prac_self","","朋友"
"","","","","","html-keyboard-response","158","859978","0.0-14.0-0.0-1.22","null","<span class='add_' style='color:yellow; font-size: 70px;'> 太慢! </span>","null","","","","","","","","","","","","","","","","","","","","","","","feedback_test",""
"","","","","","psychophysics","159","861996","0.0-14.0-0.0-0.23","1010","","f","","","","","","","","","","","","","key","f","16.65228333333313","768","428","f","true","img/H_28.png","自我","prac_self","","生人"
"","","","","","html-keyboard-response","160","862298","0.0-14.0-0.0-1.23","null","<span style='color:GreenYellow; font-size: 70px;'>正确! </span>","null","","","","","","","","","","","","","","","","","","","","","","","feedback_test",""
"","","","","","html-keyboard-response","161","875518","0.0-14.0-1.0-0.0","13216","<style>.context{color:white; font-size: 35px; line-height:40px}</style>                              <div><p class='context'>您正确回答了58% 的试次。</p><p class='context'>您的平均反应时为1092毫秒。</p>","f","","","","","","","","","","","","","","","","","","","","","","","",""
"","","","","","instructions","162","910927","0.0-14.0-1.0-1.0","35407","","","","","","","","","","","","","","[{""page_index"":0,""viewing_time"":3747},{""page_index"":1,""viewing_time"":29581},{""page_index"":2,""viewing_time"":2078}]","","","","","","","","","","","",""
"","","","","","psychophysics","163","913437","0.0-14.1-0.1-0.24","null","","null","","","","","","","","","","","","","key","null","16.65177999999995","768","428","f","false","img/S_28.png","生人","prac_self","","朋友"
"","","","","","html-keyboard-response","164","913752","0.0-14.1-0.1-1.24","null","<span class='add_' style='color:yellow; font-size: 70px;'> 太慢! </span>","null","","","","","","","","","","","","","","","","","","","","","","","feedback_test",""
"","","","","","psychophysics","165","915921","0.0-14.1-0.1-0.25","1162","","f","","","","","","","","","","","","","key","f","16.649434108527146","768","428","d","false","img/H_28.png","生人","prac_self","","生人"
"","","","","","html-keyboard-response","166","916224","0.0-14.1-0.1-1.25","null","<span style='color:red; font-size: 70px;'>错误! </span>","null","","","","","","","","","","","","","","","","","","","","","","","feedback_test",""
"","","","","","psychophysics","167","918729","0.0-14.1-0.1-0.26","null","","null","","","","","","","","","","","","","key","null","16.65120805369068","768","428","j","false","img/C_28.png","朋友","prac_self","","自我"
"","","","","","html-keyboard-response","168","919041","0.0-14.1-0.1-1.26","null","<span class='add_' style='color:yellow; font-size: 70px;'> 太慢! </span>","null","","","","","","","","","","","","","","","","","","","","","","","feedback_test",""
"","","","","","psychophysics","169","920325","0.0-14.1-0.1-0.27","278","","j","","","","","","","","","","","","","key","j","16.652421052631997","768","428","j","true","img/C_28.png","生人","prac_self","","自我"
"","","","","","html-keyboard-response","170","920628","0.0-14.1-0.1-1.27","null","<span style='color:GreenYellow; font-size: 70px;'>正确! </span>","null","","","","","","","","","","","","","","","","","","","","","","","feedback_test",""
"","","","","","psychophysics","171","923130","0.0-14.1-0.1-0.28","null","","null","","","","","","","","","","","","","key","null","16.65236666666654","768","428","f","false","img/H_28.png","自我","prac_self","","生人"
"","","","","","html-keyboard-response","172","923440","0.0-14.1-0.1-1.28","null","<span class='add_' style='color:yellow; font-size: 70px;'> 太慢! </span>","null","","","","","","","","","","","","","","","","","","","","","","","feedback_test",""
"","","","","","psychophysics","173","925354","0.0-14.1-0.1-0.29","911","","f","","","","","","","","","","","","","key","f","16.651771929824783","768","428","f","true","img/H_28.png","朋友","prac_self","","生人"
"","","","","","html-keyboard-response","174","925659","0.0-14.1-0.1-1.29","null","<span style='color:GreenYellow; font-size: 70px;'>正确! </span>","null","","","","","","","","","","","","","","","","","","","","","","","feedback_test",""
"","","","","","psychophysics","175","927592","0.0-14.1-0.1-0.30","921","","d","","","","","","","","","","","","","key","d","16.652704347825974","768","428","f","false","img/S_28.png","自我","prac_self","","朋友"
"","","","","","html-keyboard-response","176","927897","0.0-14.1-0.1-1.30","null","<span style='color:red; font-size: 70px;'>错误! </span>","null","","","","","","","","","","","","","","","","","","","","","","","feedback_test",""
"","","","","","psychophysics","177","929816","0.0-14.1-0.1-0.31","911","","f","","","","","","","","","","","","","key","f","16.6512631578953","768","428","d","false","img/H_28.png","生人","prac_self","","生人"
"","","","","","html-keyboard-response","178","930122","0.0-14.1-0.1-1.31","null","<span style='color:red; font-size: 70px;'>错误! </span>","null","","","","","","","","","","","","","","","","","","","","","","","feedback_test",""
"","","","","","psychophysics","179","931988","0.0-14.1-0.1-0.32","853","","d","","","","","","","","","","","","","key","d","16.651261261261595","768","428","d","true","img/S_28.png","朋友","prac_self","","朋友"
"","","","","","html-keyboard-response","180","932299","0.0-14.1-0.1-1.32","null","<span style='color:GreenYellow; font-size: 70px;'>正确! </span>","null","","","","","","","","","","","","","","","","","","","","","","","feedback_test",""
"","","","","","psychophysics","181","934454","0.0-14.1-0.1-0.33","1153","","j","","","","","","","","","","","","","key","j","16.651604651163023","768","428","k","false","img/C_28.png","自我","prac_self","","自我"
"","","","","","html-keyboard-response","182","934759","0.0-14.1-0.1-1.33","null","<span style='color:red; font-size: 70px;'>错误! </span>","null","","","","","","","","","","","","","","","","","","","","","","","feedback_test",""
"","","","","","psychophysics","183","936526","0.0-14.1-0.1-0.34","760","","d","","","","","","","","","","","","","key","d","16.650952380953267","768","428","d","true","img/S_28.png","朋友","prac_self","","朋友"
"","","","","","html-keyboard-response","184","936842","0.0-14.1-0.1-1.34","null","<span style='color:GreenYellow; font-size: 70px;'>正确! </span>","null","","","","","","","","","","","","","","","","","","","","","","","feedback_test",""
"","","","","","psychophysics","185","938666","0.0-14.1-0.1-0.35","819","","k","","","","","","","","","","","","","key","k","16.650596330275572","768","428","k","true","img/C_28.png","自我","prac_self","","自我"
"","","","","","html-keyboard-response","186","938978","0.0-14.1-0.1-1.35","null","<span style='color:GreenYellow; font-size: 70px;'>正确! </span>","null","","","","","","","","","","","","","","","","","","","","","","","feedback_test",""
"","","","","","psychophysics","187","940951","0.0-14.1-0.1-0.36","958","","k","","","","","","","","","","","","","key","k","16.638521367520827","768","428","k","true","img/C_28.png","自我","prac_self","","自我"
"","","","","","html-keyboard-response","188","941253","0.0-14.1-0.1-1.36","null","<span style='color:GreenYellow; font-size: 70px;'>正确! </span>","null","","","","","","","","","","","","","","","","","","","","","","","feedback_test",""
"","","","","","psychophysics","189","943019","0.0-14.1-0.1-0.37","759","","f","","","","","","","","","","","","","key","f","16.651257142856984","768","428","d","false","img/H_28.png","生人","prac_self","","生人"
"","","","","","html-keyboard-response","190","943321","0.0-14.1-0.1-1.37","null","<span style='color:red; font-size: 70px;'>错误! </span>","null","","","","","","","","","","","","","","","","","","","","","","","feedback_test",""
"","","","","","psychophysics","191","945034","0.0-14.1-0.1-0.38","710","","d","","","","","","","","","","","","","key","d","16.65096078431302","768","428","d","true","img/S_28.png","朋友","prac_self","","朋友"
"","","","","","html-keyboard-response","192","945335","0.0-14.1-0.1-1.38","null","<span style='color:GreenYellow; font-size: 70px;'>正确! </span>","null","","","","","","","","","","","","","","","","","","","","","","","feedback_test",""
"","","","","","psychophysics","193","947597","0.0-14.1-0.1-0.39","1258","","f","","","","","","","","","","","","","key","f","16.651149253731024","768","428","f","true","img/S_28.png","自我","prac_self","","朋友"
"","","","","","html-keyboard-response","194","947898","0.0-14.1-0.1-1.39","null","<span style='color:GreenYellow; font-size: 70px;'>正确! </span>","null","","","","","","","","","","","","","","","","","","","","","","","feedback_test",""
"","","","","","psychophysics","195","949700","0.0-14.1-0.1-0.40","797","","k","","","","","","","","","","","","","key","k","16.651112149532658","768","428","k","true","img/C_28.png","自我","prac_self","","自我"
"","","","","","html-keyboard-response","196","950012","0.0-14.1-0.1-1.40","null","<span style='color:GreenYellow; font-size: 70px;'>正确! </span>","null","","","","","","","","","","","","","","","","","","","","","","","feedback_test",""
"","","","","","psychophysics","197","952265","0.0-14.1-0.1-0.41","1246","","d","","","","","","","","","","","","","key","d","16.65260447761211","768","428","d","true","img/S_28.png","朋友","prac_self","","朋友"
"","","","","","html-keyboard-response","198","952566","0.0-14.1-0.1-1.41","null","<span style='color:GreenYellow; font-size: 70px;'>正确! </span>","null","","","","","","","","","","","","","","","","","","","","","","","feedback_test",""
"","","","","","psychophysics","199","954409","0.0-14.1-0.1-0.42","836","","f","","","","","","","","","","","","","key","f","16.651128440366957","768","428","f","true","img/H_28.png","朋友","prac_self","","生人"
"","","","","","html-keyboard-response","200","954720","0.0-14.1-0.1-1.42","null","<span style='color:GreenYellow; font-size: 70px;'>正确! </span>","null","","","","","","","","","","","","","","","","","","","","","","","feedback_test",""
"","","","","","psychophysics","201","956670","0.0-14.1-0.1-0.43","939","","d","","","","","","","","","","","","","key","d","16.651362068966183","768","428","f","false","img/S_28.png","生人","prac_self","","朋友"
"","","","","","html-keyboard-response","202","956977","0.0-14.1-0.1-1.43","null","<span style='color:red; font-size: 70px;'>错误! </span>","null","","","","","","","","","","","","","","","","","","","","","","","feedback_test",""
"","","","","","psychophysics","203","959051","0.0-14.1-0.1-0.44","1073","","d","","","","","","","","","","","","","key","d","16.652532258064433","768","428","d","true","img/H_28.png","生人","prac_self","","生人"
"","","","","","html-keyboard-response","204","959359","0.0-14.1-0.1-1.44","null","<span style='color:GreenYellow; font-size: 70px;'>正确! </span>","null","","","","","","","","","","","","","","","","","","","","","","","feedback_test",""
"","","","","","psychophysics","205","961689","0.0-14.1-0.1-0.45","1315","","j","","","","","","","","","","","","","key","j","16.64823913043517","768","428","j","true","img/C_28.png","朋友","prac_self","","自我"
"","","","","","html-keyboard-response","206","962006","0.0-14.1-0.1-1.45","null","<span style='color:GreenYellow; font-size: 70px;'>正确! </span>","null","","","","","","","","","","","","","","","","","","","","","","","feedback_test",""
"","","","","","psychophysics","207","964296","0.0-14.1-0.1-0.46","1289","","j","","","","","","","","","","","","","key","j","16.65240875912412","768","428","j","true","img/C_28.png","生人","prac_self","","自我"
"","","","","","html-keyboard-response","208","964604","0.0-14.1-0.1-1.46","null","<span style='color:GreenYellow; font-size: 70px;'>正确! </span>","null","","","","","","","","","","","","","","","","","","","","","","","feedback_test",""
"","","","","","psychophysics","209","966765","0.0-14.1-0.1-0.47","1160","","f","","","","","","","","","","","","","key","f","16.644421874999352","768","428","f","true","img/H_28.png","自我","prac_self","","生人"
"","","","","","html-keyboard-response","210","967079","0.0-14.1-0.1-1.47","null","<span style='color:GreenYellow; font-size: 70px;'>正确! </span>","null","","","","","","","","","","","","","","","","","","","","","","","feedback_test",""
"","","","","","html-keyboard-response","211","974178","0.0-14.1-1.1-0.1","7097","<style>.context{color:white; font-size: 35px; line-height:40px}</style>                              <div><p class='context'>您正确回答了63% 的试次。</p><p class='context'>您的平均反应时为951毫秒。</p>","j","","","","","","","","","","","","","","","","","","","","","","","",""
"","","","","","instructions","212","998614","0.0-14.1-1.1-1.1","24434","","","","","","","","","","","","","","[{""page_index"":0,""viewing_time"":1428},{""page_index"":1,""viewing_time"":20239},{""page_index"":2,""viewing_time"":2767}]","","","","","","","","","","","",""
"","","","","","psychophysics","213","1000704","0.0-14.2-0.2-0.48","1083","","f","","","","","","","","","","","","","key","f","16.652564516128603","768","428","f","true","img/H_28.png","朋友","prac_self","","生人"
"","","","","","html-keyboard-response","214","1001015","0.0-14.2-0.2-1.48","null","<span style='color:GreenYellow; font-size: 70px;'>正确! </span>","null","","","","","","","","","","","","","","","","","","","","","","","feedback_test",""
"","","","","","psychophysics","215","1002905","0.0-14.2-0.2-0.49","885","","d","","","","","","","","","","","","","key","d","16.65164601769859","768","428","f","false","img/H_28.png","自我","prac_self","","生人"
"","","","","","html-keyboard-response","216","1003211","0.0-14.2-0.2-1.49","null","<span style='color:red; font-size: 70px;'>错误! </span>","null","","","","","","","","","","","","","","","","","","","","","","","feedback_test",""
"","","","","","psychophysics","217","1004919","0.0-14.2-0.2-0.50","701","","d","","","","","","","","","","","","","key","d","16.650264705881686","768","428","d","true","img/H_28.png","生人","prac_self","","生人"
"","","","","","html-keyboard-response","218","1005233","0.0-14.2-0.2-1.50","null","<span style='color:GreenYellow; font-size: 70px;'>正确! </span>","null","","","","","","","","","","","","","","","","","","","","","","","feedback_test",""
"","","","","","psychophysics","219","1007195","0.0-14.2-0.2-0.51","961","","d","","","","","","","","","","","","","key","d","16.640879310344364","768","428","d","true","img/S_28.png","朋友","prac_self","","朋友"
"","","","","","html-keyboard-response","220","1007497","0.0-14.2-0.2-1.51","null","<span style='color:GreenYellow; font-size: 70px;'>正确! </span>","null","","","","","","","","","","","","","","","","","","","","","","","feedback_test",""
"","","","","","psychophysics","221","1009307","0.0-14.2-0.2-0.52","809","","d","","","","","","","","","","","","","key","d","16.64618691588778","768","428","d","true","img/H_28.png","生人","prac_self","","生人"
"","","","","","html-keyboard-response","222","1009611","0.0-14.2-0.2-1.52","null","<span style='color:GreenYellow; font-size: 70px;'>正确! </span>","null","","","","","","","","","","","","","","","","","","","","","","","feedback_test",""
"","","","","","psychophysics","223","1011839","0.0-14.2-0.2-0.53","1227","","j","","","","","","","","","","","","","key","j","16.652097744360404","768","428","j","true","img/C_28.png","生人","prac_self","","自我"
"","","","","","html-keyboard-response","224","1012146","0.0-14.2-0.2-1.53","null","<span style='color:GreenYellow; font-size: 70px;'>正确! </span>","null","","","","","","","","","","","","","","","","","","","","","","","feedback_test",""
"","","","","","psychophysics","225","1014095","0.0-14.2-0.2-0.54","937","","d","","","","","","","","","","","","","key","d","16.651974137930665","768","428","d","true","img/S_28.png","朋友","prac_self","","朋友"
"","","","","","html-keyboard-response","226","1014401","0.0-14.2-0.2-1.54","null","<span style='color:GreenYellow; font-size: 70px;'>正确! </span>","null","","","","","","","","","","","","","","","","","","","","","","","feedback_test",""
"","","","","","psychophysics","227","1016457","0.0-14.2-0.2-0.55","1049","","j","","","","","","","","","","","","","key","j","16.651442622951016","768","428","f","false","img/S_28.png","自我","prac_self","","朋友"
"","","","","","html-keyboard-response","228","1016769","0.0-14.2-0.2-1.55","null","<span style='color:red; font-size: 70px;'>错误! </span>","null","","","","","","","","","","","","","","","","","","","","","","","feedback_test",""
"","","","","","psychophysics","229","1018926","0.0-14.2-0.2-0.56","1153","","j","","","","","","","","","","","","","key","j","16.65163565891463","768","428","j","true","img/C_28.png","朋友","prac_self","","自我"
"","","","","","html-keyboard-response","230","1019227","0.0-14.2-0.2-1.56","null","<span style='color:GreenYellow; font-size: 70px;'>正确! </span>","null","","","","","","","","","","","","","","","","","","","","","","","feedback_test",""
"","","","","","psychophysics","231","1021736","0.0-14.2-0.2-0.57","null","","null","","","","","","","","","","","","","key","null","16.651960000000738","768","428","f","false","img/S_28.png","生人","prac_self","","朋友"
"","","","","","html-keyboard-response","232","1022048","0.0-14.2-0.2-1.57","null","<span class='add_' style='color:yellow; font-size: 70px;'> 太慢! </span>","null","","","","","","","","","","","","","","","","","","","","","","","feedback_test",""
"","","","","","psychophysics","233","1023965","0.0-14.2-0.2-0.58","913","","k","","","","","","","","","","","","","key","k","16.652394736842293","768","428","k","true","img/C_28.png","自我","prac_self","","自我"
"","","","","","html-keyboard-response","234","1024271","0.0-14.2-0.2-1.58","null","<span style='color:GreenYellow; font-size: 70px;'>正确! </span>","null","","","","","","","","","","","","","","","","","","","","","","","feedback_test",""
"","","","","","psychophysics","235","1025849","0.0-14.2-0.2-0.59","569","","k","","","","","","","","","","","","","key","k","16.652612903225485","768","428","k","true","img/C_28.png","自我","prac_self","","自我"
"","","","","","html-keyboard-response","236","1026164","0.0-14.2-0.2-1.59","null","<span style='color:GreenYellow; font-size: 70px;'>正确! </span>","null","","","","","","","","","","","","","","","","","","","","","","","feedback_test",""
"","","","","","psychophysics","237","1027949","0.0-14.2-0.2-0.60","772","","j","","","","","","","","","","","","","key","j","16.638566037736624","768","428","f","false","img/S_28.png","自我","prac_self","","朋友"
"","","","","","html-keyboard-response","238","1028250","0.0-14.2-0.2-1.60","null","<span style='color:red; font-size: 70px;'>错误! </span>","null","","","","","","","","","","","","","","","","","","","","","","","feedback_test",""
"","","","","","psychophysics","239","1030328","0.0-14.2-0.2-0.61","1066","","d","","","","","","","","","","","","","key","d","16.65209756097643","768","428","d","true","img/S_28.png","朋友","prac_self","","朋友"
"","","","","","html-keyboard-response","240","1030631","0.0-14.2-0.2-1.61","null","<span style='color:GreenYellow; font-size: 70px;'>正确! </span>","null","","","","","","","","","","","","","","","","","","","","","","","feedback_test",""
"","","","","","psychophysics","241","1032374","0.0-14.2-0.2-0.62","732","","d","","","","","","","","","","","","","key","d","16.651553398056986","768","428","d","true","img/H_28.png","生人","prac_self","","生人"
"","","","","","html-keyboard-response","242","1032683","0.0-14.2-0.2-1.62","null","<span style='color:GreenYellow; font-size: 70px;'>正确! </span>","null","","","","","","","","","","","","","","","","","","","","","","","feedback_test",""
"","","","","","psychophysics","243","1034444","0.0-14.2-0.2-0.63","753","","f","","","","","","","","","","","","","key","f","16.651228571428163","768","428","f","true","img/H_28.png","朋友","prac_self","","生人"
"","","","","","html-keyboard-response","244","1034753","0.0-14.2-0.2-1.63","null","<span style='color:GreenYellow; font-size: 70px;'>正确! </span>","null","","","","","","","","","","","","","","","","","","","","","","","feedback_test",""
"","","","","","psychophysics","245","1036481","0.0-14.2-0.2-0.64","715","","k","","","","","","","","","","","","","key","k","16.652951456310262","768","428","k","true","img/C_28.png","自我","prac_self","","自我"
"","","","","","html-keyboard-response","246","1036793","0.0-14.2-0.2-1.64","null","<span style='color:GreenYellow; font-size: 70px;'>正确! </span>","null","","","","","","","","","","","","","","","","","","","","","","","feedback_test",""
"","","","","","psychophysics","247","1038801","0.0-14.2-0.2-0.65","997","","d","","","","","","","","","","","","","key","d","16.650252100841353","768","428","f","false","img/S_28.png","生人","prac_self","","朋友"
"","","","","","html-keyboard-response","248","1039110","0.0-14.2-0.2-1.65","null","<span style='color:red; font-size: 70px;'>错误! </span>","null","","","","","","","","","","","","","","","","","","","","","","","feedback_test",""
"","","","","","psychophysics","249","1040849","0.0-14.2-0.2-0.66","730","","k","","","","","","","","","","","","","key","k","16.649747572816654","768","428","k","true","img/C_28.png","自我","prac_self","","自我"
"","","","","","html-keyboard-response","250","1041162","0.0-14.2-0.2-1.66","null","<span style='color:GreenYellow; font-size: 70px;'>正确! </span>","null","","","","","","","","","","","","","","","","","","","","","","","feedback_test",""
"","","","","","psychophysics","251","1042966","0.0-14.2-0.2-0.67","798","","f","","","","","","","","","","","","","key","f","16.651532710279625","768","428","f","true","img/H_28.png","自我","prac_self","","生人"
"","","","","","html-keyboard-response","252","1043279","0.0-14.2-0.2-1.67","null","<span style='color:GreenYellow; font-size: 70px;'>正确! </span>","null","","","","","","","","","","","","","","","","","","","","","","","feedback_test",""
"","","","","","psychophysics","253","1045002","0.0-14.2-0.2-0.68","721","","d","","","","","","","","","","","","","key","d","16.652174757282676","768","428","d","true","img/S_28.png","朋友","prac_self","","朋友"
"","","","","","html-keyboard-response","254","1045316","0.0-14.2-0.2-1.68","null","<span style='color:GreenYellow; font-size: 70px;'>正确! </span>","null","","","","","","","","","","","","","","","","","","","","","","","feedback_test",""
"","","","","","psychophysics","255","1047369","0.0-14.2-0.2-0.69","1041","","j","","","","","","","","","","","","","key","j","16.651385245900066","768","428","j","true","img/C_28.png","生人","prac_self","","自我"
"","","","","","html-keyboard-response","256","1047679","0.0-14.2-0.2-1.69","null","<span style='color:GreenYellow; font-size: 70px;'>正确! </span>","null","","","","","","","","","","","","","","","","","","","","","","","feedback_test",""
"","","","","","psychophysics","257","1049909","0.0-14.2-0.2-0.70","1220","","f","","","","","","","","","","","","","key","f","16.652325757576335","768","428","d","false","img/H_28.png","生人","prac_self","","生人"
"","","","","","html-keyboard-response","258","1050215","0.0-14.2-0.2-1.70","null","<span style='color:red; font-size: 70px;'>错误! </span>","null","","","","","","","","","","","","","","","","","","","","","","","feedback_test",""
"","","","","","psychophysics","259","1052258","0.0-14.2-0.2-0.71","1032","","j","","","","","","","","","","","","","key","j","16.651140495867292","768","428","j","true","img/C_28.png","朋友","prac_self","","自我"
"","","","","","html-keyboard-response","260","1052565","0.0-14.2-0.2-1.71","null","<span style='color:GreenYellow; font-size: 70px;'>正确! </span>","null","","","","","","","","","","","","","","","","","","","","","","","feedback_test",""
"","","","","","html-keyboard-response","261","1071288","0.0-15.0","18721","[""<style>.context{color:white; font-size: 35px; line-height:40px}</style>              <div><p class='context'>您正确回答了75% 的试次。</p><p class='context'>您的平均反应时为886毫秒。</p><p class='context'>恭喜您完成这一阶段的练习。按任意键进入<span style='color: yellow;'>重点关注图形为“朋友”</span>的练习。</p></div><p class='footer' style='font-size:35px; line-height:30px;'>任务要求：\n              <p class='footer' style='font-size:35px; line-height:35px;'>对于与“朋友”对应的图形：如果 匹配 ，请按 <span style=\""color: lightgreen;\"">k键</span></p><p class='footer' style='font-size:35px'>如果 不匹配 ，请按<span style=\""color: lightgreen;\"">j键</p></span>\n              <p class='footer' style='font-size:35px; line-height:35px;'>对于非“朋友”对应的图形：如果 匹配 ，请按 <span style=\""color: lightgreen;\"">d键</span></p><p class='footer' style='font-size:35px'>如果 不匹配 ，请按<span style=\""color: lightgreen;\"">f键</p></span>\n              <p class='footer' style='font-size:22px; line-height:25px;'>请在实验过程中将您的<span style=\""color: lightgreen;\"">食指和中指</span>放在电脑键盘的相应键位上进行按键。</p></span>""]","j","","","","","","","","","","","","","","","","","","","","","","","",""
"","","","","","psychophysics","262","1073411","0.0-16.0-0.0-0.0","1107","","d","","","","","","","","","","","","","key","d","16.644579365078936","768","428","d","true","img/H_28.png","生人","prac_friend","","生人"
"","","","","","html-keyboard-response","263","1073723","0.0-16.0-0.0-1.0","null","<span style='color:GreenYellow; font-size: 70px;'>正确! </span>","null","","","","","","","","","","","","","","","","","","","","","","","feedback_test",""
"","","","","","psychophysics","264","1075885","0.0-16.0-0.0-0.1","1150","","d","","","","","","","","","","","","","key","d","16.652570312500757","768","428","d","true","img/C_28.png","自我","prac_friend","","自我"
"","","","","","html-keyboard-response","265","1076197","0.0-16.0-0.0-1.1","null","<span style='color:GreenYellow; font-size: 70px;'>正确! </span>","null","","","","","","","","","","","","","","","","","","","","","","","feedback_test",""
"","","","","","psychophysics","266","1078096","0.0-16.0-0.0-0.2","895","","k","","","","","","","","","","","","","key","k","16.651707964601094","768","428","k","true","img/S_28.png","朋友","prac_friend","","朋友"
"","","","","","html-keyboard-response","267","1078402","0.0-16.0-0.0-1.2","null","<span style='color:GreenYellow; font-size: 70px;'>正确! </span>","null","","","","","","","","","","","","","","","","","","","","","","","feedback_test",""
"","","","","","psychophysics","268","1080376","0.0-16.0-0.0-0.3","964","","f","","","","","","","","","","","","","key","f","16.651128205128458","768","428","f","true","img/C_28.png","生人","prac_friend","","自我"
"","","","","","html-keyboard-response","269","1080691","0.0-16.0-0.0-1.3","null","<span style='color:GreenYellow; font-size: 70px;'>正确! </span>","null","","","","","","","","","","","","","","","","","","","","","","","feedback_test",""
"","","","","","psychophysics","270","1082820","0.0-16.0-0.0-0.4","1123","","f","","","","","","","","","","","","","key","f","16.652157480315136","768","428","f","true","img/H_28.png","朋友","prac_friend","","生人"
"","","","","","html-keyboard-response","271","1083132","0.0-16.0-0.0-1.4","null","<span style='color:GreenYellow; font-size: 70px;'>正确! </span>","null","","","","","","","","","","","","","","","","","","","","","","","feedback_test",""
"","","","","","psychophysics","272","1085031","0.0-16.0-0.0-0.5","889","","f","","","","","","","","","","","","","key","f","16.65153982300946","768","428","j","false","img/S_28.png","自我","prac_friend","","朋友"
"","","","","","html-keyboard-response","273","1085343","0.0-16.0-0.0-1.5","null","<span style='color:red; font-size: 70px;'>错误! </span>","null","","","","","","","","","","","","","","","","","","","","","","","feedback_test",""
"","","","","","psychophysics","274","1087450","0.0-16.0-0.0-0.6","1091","","d","","","","","","","","","","","","","key","d","16.65175200000033","768","428","f","false","img/H_28.png","自我","prac_friend","","生人"
"","","","","","html-keyboard-response","275","1087760","0.0-16.0-0.0-1.6","null","<span style='color:red; font-size: 70px;'>错误! </span>","null","","","","","","","","","","","","","","","","","","","","","","","feedback_test",""
"","","","","","psychophysics","276","1089634","0.0-16.0-0.0-0.7","864","","d","","","","","","","","","","","","","key","d","16.651225225225947","768","428","d","true","img/H_28.png","生人","prac_friend","","生人"
"","","","","","html-keyboard-response","277","1089937","0.0-16.0-0.0-1.7","null","<span style='color:GreenYellow; font-size: 70px;'>正确! </span>","null","","","","","","","","","","","","","","","","","","","","","","","feedback_test",""
"","","","","","psychophysics","278","1091780","0.0-16.0-0.0-0.8","842","","f","","","","","","","","","","","","","key","f","16.65221818181771","768","428","j","false","img/S_28.png","生人","prac_friend","","朋友"
"","","","","","html-keyboard-response","279","1092084","0.0-16.0-0.0-1.8","null","<span style='color:red; font-size: 70px;'>错误! </span>","null","","","","","","","","","","","","","","","","","","","","","","","feedback_test",""
"","","","","","psychophysics","280","1094199","0.0-16.0-0.0-0.9","1112","","d","","","","","","","","","","","","","key","d","16.652007936507406","768","428","d","true","img/C_28.png","自我","prac_friend","","自我"
"","","","","","html-keyboard-response","281","1094508","0.0-16.0-0.0-1.9","null","<span style='color:GreenYellow; font-size: 70px;'>正确! </span>","null","","","","","","","","","","","","","","","","","","","","","","","feedback_test",""
"","","","","","psychophysics","282","1096577","0.0-16.0-0.0-0.10","1059","","j","","","","","","","","","","","","","key","j","16.651333333333817","768","428","k","false","img/S_28.png","朋友","prac_friend","","朋友"
"","","","","","html-keyboard-response","283","1096889","0.0-16.0-0.0-1.10","null","<span style='color:red; font-size: 70px;'>错误! </span>","null","","","","","","","","","","","","","","","","","","","","","","","feedback_test",""
"","","","","","psychophysics","284","1099361","0.0-16.0-0.0-0.11","1468","","f","","","","","","","","","","","","","key","f","16.65247619047533","768","428","f","true","img/C_28.png","朋友","prac_friend","","自我"
"","","","","","html-keyboard-response","285","1099662","0.0-16.0-0.0-1.11","null","<span style='color:GreenYellow; font-size: 70px;'>正确! </span>","null","","","","","","","","","","","","","","","","","","","","","","","feedback_test",""
"","","","","","psychophysics","286","1101889","0.0-16.0-0.0-0.12","1215","","f","","","","","","","","","","","","","key","f","16.643469696968555","768","428","f","true","img/C_28.png","朋友","prac_friend","","自我"
"","","","","","html-keyboard-response","287","1102197","0.0-16.0-0.0-1.12","null","<span style='color:GreenYellow; font-size: 70px;'>正确! </span>","null","","","","","","","","","","","","","","","","","","","","","","","feedback_test",""
"","","","","","psychophysics","288","1104474","0.0-16.0-0.0-0.13","1265","","j","","","","","","","","","","","","","key","j","16.650118518518973","768","428","k","false","img/S_28.png","朋友","prac_friend","","朋友"
"","","","","","html-keyboard-response","289","1104779","0.0-16.0-0.0-1.13","null","<span style='color:red; font-size: 70px;'>错误! </span>","null","","","","","","","","","","","","","","","","","","","","","","","feedback_test",""
"","","","","","psychophysics","290","1106529","0.0-16.0-0.0-0.14","738","","k","","","","","","","","","","","","","key","k","16.651509615384455","768","428","k","true","img/S_28.png","朋友","prac_friend","","朋友"
"","","","","","html-keyboard-response","291","1106838","0.0-16.0-0.0-1.14","null","<span style='color:GreenYellow; font-size: 70px;'>正确! </span>","null","","","","","","","","","","","","","","","","","","","","","","","feedback_test",""
"","","","","","psychophysics","292","1108705","0.0-16.0-0.0-0.15","866","","f","","","","","","","","","","","","","key","f","16.641600000001066","768","428","f","true","img/C_28.png","生人","prac_friend","","自我"
"","","","","","html-keyboard-response","293","1109019","0.0-16.0-0.0-1.15","null","<span style='color:GreenYellow; font-size: 70px;'>正确! </span>","null","","","","","","","","","","","","","","","","","","","","","","","feedback_test",""
"","","","","","psychophysics","294","1111359","0.0-16.0-0.0-0.16","1338","","d","","","","","","","","","","","","","key","d","16.65230714285613","768","428","d","true","img/C_28.png","自我","prac_friend","","自我"
"","","","","","html-keyboard-response","295","1111672","0.0-16.0-0.0-1.16","null","<span style='color:GreenYellow; font-size: 70px;'>正确! </span>","null","","","","","","","","","","","","","","","","","","","","","","","feedback_test",""
"","","","","","psychophysics","296","1113809","0.0-16.0-0.0-0.17","1121","","k","","","","","","","","","","","","","key","k","16.650645669291208","768","428","j","false","img/S_28.png","自我","prac_friend","","朋友"
"","","","","","html-keyboard-response","297","1114117","0.0-16.0-0.0-1.17","null","<span style='color:red; font-size: 70px;'>错误! </span>","null","","","","","","","","","","","","","","","","","","","","","","","feedback_test",""
"","","","","","psychophysics","298","1116461","0.0-16.0-0.0-0.18","1331","","d","","","","","","","","","","","","","key","d","16.65102877697854","768","428","j","false","img/S_28.png","生人","prac_friend","","朋友"
"","","","","","html-keyboard-response","299","1116768","0.0-16.0-0.0-1.18","null","<span style='color:red; font-size: 70px;'>错误! </span>","null","","","","","","","","","","","","","","","","","","","","","","","feedback_test",""
"","","","","","psychophysics","300","1118581","0.0-16.0-0.0-0.19","804","","d","","","","","","","","","","","","","key","d","16.650935185184977","768","428","d","true","img/H_28.png","生人","prac_friend","","生人"
"","","","","","html-keyboard-response","301","1118897","0.0-16.0-0.0-1.19","null","<span style='color:GreenYellow; font-size: 70px;'>正确! </span>","null","","","","","","","","","","","","","","","","","","","","","","","feedback_test",""
"","","","","","psychophysics","302","1121247","0.0-16.0-0.0-0.20","1345","","d","","","","","","","","","","","","","key","d","16.651300000000212","768","428","d","true","img/C_28.png","自我","prac_friend","","自我"
"","","","","","html-keyboard-response","303","1121553","0.0-16.0-0.0-1.20","null","<span style='color:GreenYellow; font-size: 70px;'>正确! </span>","null","","","","","","","","","","","","","","","","","","","","","","","feedback_test",""
"","","","","","psychophysics","304","1123358","0.0-16.0-0.0-0.21","798","","d","","","","","","","","","","","","","key","d","16.650971962617728","768","428","d","true","img/H_28.png","生人","prac_friend","","生人"
"","","","","","html-keyboard-response","305","1123668","0.0-16.0-0.0-1.21","null","<span style='color:GreenYellow; font-size: 70px;'>正确! </span>","null","","","","","","","","","","","","","","","","","","","","","","","feedback_test",""
"","","","","","psychophysics","306","1125905","0.0-16.0-0.0-0.22","1231","","f","","","","","","","","","","","","","key","f","16.652639097744192","768","428","f","true","img/H_28.png","朋友","prac_friend","","生人"
"","","","","","html-keyboard-response","307","1126219","0.0-16.0-0.0-1.22","null","<span style='color:GreenYellow; font-size: 70px;'>正确! </span>","null","","","","","","","","","","","","","","","","","","","","","","","feedback_test",""
"","","","","","psychophysics","308","1128264","0.0-16.0-0.0-0.23","1042","","f","","","","","","","","","","","","","key","f","16.65154098360761","768","428","f","true","img/H_28.png","自我","prac_friend","","生人"
"","","","","","html-keyboard-response","309","1128571","0.0-16.0-0.0-1.23","null","<span style='color:GreenYellow; font-size: 70px;'>正确! </span>","null","","","","","","","","","","","","","","","","","","","","","","","feedback_test",""
"","","","","","html-keyboard-response","310","1142158","0.0-17.0","13585","[""<style>.context{color:white; font-size: 35px; line-height:40px}</style>                  <div><p class='context'>您正确回答了71% 的试次。</p><p class='context'>您的平均反应时为1062毫秒。</p><p class='context'>恭喜您完成这一阶段的练习。按任意键进入<span style='color: yellow;'>重点关注图形为“生人”</span>的练习。</p></div><p class='footer' style='font-size:35px; line-height:30px;'>任务要求：\n                  <p class='footer' style='font-size:35px; line-height:35px;'>对与“生人”对应的图形，如果 匹配 ，请按 <span style=\""color: lightgreen;\"">k键</span></p><p class='footer' style='font-size:35px'>如果 不匹配 ，请按<span style=\""color: lightgreen;\"">j键</p></span>\n                  <p class='footer' style='font-size:35px; line-height:35px;'>对非“生人”对应的图形，如果 匹配 ，请按 <span style=\""color: lightgreen;\"">d键</span></p><p class='footer' style='font-size:35px'>如果 不匹配 ，请按<span style=\""color: lightgreen;\"">f键</p></span>\n                  <p class='footer' style='font-size:22px; line-height:25px;'>请在实验过程中将您的<span style=\""color: lightgreen;\"">食指和中指</span>放在电脑键盘的相应键位上进行按键。</p></span>""]","j","","","","","","","","","","","","","","","","","","","","","","","",""
"","","","","","psychophysics","311","1144598","0.0-18.0-0.0-0.0","1433","","d","","","","","","","","","","","","","key","d","16.651496551725373","768","428","d","true","img/C_28.png","自我","prac_stranger","","自我"
"","","","","","html-keyboard-response","312","1144900","0.0-18.0-0.0-1.0","null","<span style='color:GreenYellow; font-size: 70px;'>正确! </span>","null","","","","","","","","","","","","","","","","","","","","","","","feedback_test",""
"","","","","","psychophysics","313","1147292","0.0-18.0-0.0-0.1","1389","","f","","","","","","","","","","","","","key","f","16.65339860139851","768","428","f","true","img/S_28.png","生人","prac_stranger","","朋友"
"","","","","","html-keyboard-response","314","1147608","0.0-18.0-0.0-1.1","null","<span style='color:GreenYellow; font-size: 70px;'>正确! </span>","null","","","","","","","","","","","","","","","","","","","","","","","feedback_test",""
"","","","","","psychophysics","315","1149726","0.0-18.0-0.0-0.2","1112","","j","","","","","","","","","","","","","key","j","16.6524047619046","768","428","k","false","img/H_28.png","生人","prac_stranger","","生人"
"","","","","","html-keyboard-response","316","1150028","0.0-18.0-0.0-1.2","null","<span style='color:red; font-size: 70px;'>错误! </span>","null","","","","","","","","","","","","","","","","","","","","","","","feedback_test",""
"","","","","","psychophysics","317","1152367","0.0-18.0-0.0-0.3","1335","","f","","","","","","","","","","","","","key","f","16.650699999999986","768","428","f","true","img/C_28.png","生人","prac_stranger","","自我"
"","","","","","html-keyboard-response","318","1152675","0.0-18.0-0.0-1.3","null","<span style='color:GreenYellow; font-size: 70px;'>正确! </span>","null","","","","","","","","","","","","","","","","","","","","","","","feedback_test",""
"","","","","","psychophysics","319","1155179","0.0-18.0-0.0-0.4","null","","null","","","","","","","","","","","","","key","null","16.650920000000237","768","428","f","false","img/S_28.png","自我","prac_stranger","","朋友"
"","","","","","html-keyboard-response","320","1155482","0.0-18.0-0.0-1.4","null","<span class='add_' style='color:yellow; font-size: 70px;'> 太慢! </span>","null","","","","","","","","","","","","","","","","","","","","","","","feedback_test",""
"","","","","","psychophysics","321","1157366","0.0-18.0-0.0-0.5","875","","k","","","","","","","","","","","","","key","k","16.652285714284517","768","428","k","true","img/H_28.png","生人","prac_stranger","","生人"
"","","","","","html-keyboard-response","322","1157672","0.0-18.0-0.0-1.5","null","<span style='color:GreenYellow; font-size: 70px;'>正确! </span>","null","","","","","","","","","","","","","","","","","","","","","","","feedback_test",""
"","","","","","psychophysics","323","1159736","0.0-18.0-0.0-0.6","1062","","d","","","","","","","","","","","","","key","d","16.6509268292684","768","428","d","true","img/C_28.png","自我","prac_stranger","","自我"
"","","","","","html-keyboard-response","324","1160041","0.0-18.0-0.0-1.6","null","<span style='color:GreenYellow; font-size: 70px;'>正确! </span>","null","","","","","","","","","","","","","","","","","","","","","","","feedback_test",""
"","","","","","psychophysics","325","1161837","0.0-18.0-0.0-0.7","781","","f","","","","","","","","","","","","","key","f","16.64986792452774","768","428","f","true","img/C_28.png","朋友","prac_stranger","","自我"
"","","","","","html-keyboard-response","326","1162143","0.0-18.0-0.0-1.7","null","<span style='color:GreenYellow; font-size: 70px;'>正确! </span>","null","","","","","","","","","","","","","","","","","","","","","","","feedback_test",""
"","","","","","psychophysics","327","1164273","0.0-18.0-0.0-0.8","1119","","j","","","","","","","","","","","","","key","j","16.652614173228216","768","428","j","true","img/H_28.png","朋友","prac_stranger","","生人"
"","","","","","html-keyboard-response","328","1164589","0.0-18.0-0.0-1.8","null","<span style='color:GreenYellow; font-size: 70px;'>正确! </span>","null","","","","","","","","","","","","","","","","","","","","","","","feedback_test",""
"","","","","","psychophysics","329","1166778","0.0-18.0-0.0-0.9","1182","","d","","","","","","","","","","","","","key","d","16.652538461539034","768","428","d","true","img/S_28.png","朋友","prac_stranger","","朋友"
"","","","","","html-keyboard-response","330","1167084","0.0-18.0-0.0-1.9","null","<span style='color:GreenYellow; font-size: 70px;'>正确! </span>","null","","","","","","","","","","","","","","","","","","","","","","","feedback_test",""
"","","","","","psychophysics","331","1168843","0.0-18.0-0.0-0.10","753","","d","","","","","","","","","","","","","key","d","16.651259615383772","768","428","d","true","img/S_28.png","朋友","prac_stranger","","朋友"
"","","","","","html-keyboard-response","332","1169151","0.0-18.0-0.0-1.10","null","<span style='color:GreenYellow; font-size: 70px;'>正确! </span>","null","","","","","","","","","","","","","","","","","","","","","","","feedback_test",""
"","","","","","psychophysics","333","1171291","0.0-18.0-0.0-0.11","1129","","j","","","","","","","","","","","","","key","j","16.655330708661065","768","428","j","true","img/H_28.png","自我","prac_stranger","","生人"
"","","","","","html-keyboard-response","334","1171592","0.0-18.0-0.0-1.11","null","<span style='color:GreenYellow; font-size: 70px;'>正确! </span>","null","","","","","","","","","","","","","","","","","","","","","","","feedback_test",""
"","","","","","psychophysics","335","1173670","0.0-18.0-0.0-0.12","1074","","d","","","","","","","","","","","","","key","d","16.65227419354825","768","428","d","true","img/C_28.png","自我","prac_stranger","","自我"
"","","","","","html-keyboard-response","336","1173977","0.0-18.0-0.0-1.12","null","<span style='color:GreenYellow; font-size: 70px;'>正确! </span>","null","","","","","","","","","","","","","","","","","","","","","","","feedback_test",""
"","","","","","psychophysics","337","1175849","0.0-18.0-0.0-0.13","869","","k","","","","","","","","","","","","","key","k","16.640135135134546","768","428","k","true","img/H_28.png","生人","prac_stranger","","生人"
"","","","","","html-keyboard-response","338","1176157","0.0-18.0-0.0-1.13","null","<span style='color:GreenYellow; font-size: 70px;'>正确! </span>","null","","","","","","","","","","","","","","","","","","","","","","","feedback_test",""
"","","","","","psychophysics","339","1178157","0.0-18.0-0.0-0.14","1000","","f","","","","","","","","","","","","","key","f","16.653512605041374","768","428","f","true","img/S_28.png","自我","prac_stranger","","朋友"
"","","","","","html-keyboard-response","340","1178466","0.0-18.0-0.0-1.14","null","<span style='color:GreenYellow; font-size: 70px;'>正确! </span>","null","","","","","","","","","","","","","","","","","","","","","","","feedback_test",""
"","","","","","psychophysics","341","1180431","0.0-18.0-0.0-0.15","958","","f","","","","","","","","","","","","","key","f","16.651102564102597","768","428","f","true","img/C_28.png","朋友","prac_stranger","","自我"
"","","","","","html-keyboard-response","342","1180736","0.0-18.0-0.0-1.15","null","<span style='color:GreenYellow; font-size: 70px;'>正确! </span>","null","","","","","","","","","","","","","","","","","","","","","","","feedback_test",""
"","","","","","psychophysics","343","1182771","0.0-18.0-0.0-0.16","1034","","d","","","","","","","","","","","","","key","d","16.646330578512444","768","428","d","true","img/C_28.png","自我","prac_stranger","","自我"
"","","","","","html-keyboard-response","344","1183086","0.0-18.0-0.0-1.16","null","<span style='color:GreenYellow; font-size: 70px;'>正确! </span>","null","","","","","","","","","","","","","","","","","","","","","","","feedback_test",""
"","","","","","psychophysics","345","1185198","0.0-18.0-0.0-0.17","1099","","f","","","","","","","","","","","","","key","f","16.651696000000463","768","428","f","true","img/S_28.png","生人","prac_stranger","","朋友"
"","","","","","html-keyboard-response","346","1185510","0.0-18.0-0.0-1.17","null","<span style='color:GreenYellow; font-size: 70px;'>正确! </span>","null","","","","","","","","","","","","","","","","","","","","","","","feedback_test",""
"","","","","","psychophysics","347","1187442","0.0-18.0-0.0-0.18","926","","k","","","","","","","","","","","","","key","k","16.65071304347771","768","428","k","true","img/H_28.png","生人","prac_stranger","","生人"
"","","","","","html-keyboard-response","348","1187749","0.0-18.0-0.0-1.18","null","<span style='color:GreenYellow; font-size: 70px;'>正确! </span>","null","","","","","","","","","","","","","","","","","","","","","","","feedback_test",""
"","","","","","psychophysics","349","1189816","0.0-18.0-0.0-0.19","1053","","d","","","","","","","","","","","","","key","d","16.65287804878052","768","428","d","true","img/S_28.png","朋友","prac_stranger","","朋友"
"","","","","","html-keyboard-response","350","1190119","0.0-18.0-0.0-1.19","null","<span style='color:GreenYellow; font-size: 70px;'>正确! </span>","null","","","","","","","","","","","","","","","","","","","","","","","feedback_test",""
"","","","","","psychophysics","351","1192273","0.0-18.0-0.0-0.20","1144","","j","","","","","","","","","","","","","key","j","16.651171875000728","768","428","j","true","img/H_28.png","自我","prac_stranger","","生人"
"","","","","","html-keyboard-response","352","1192581","0.0-18.0-0.0-1.20","null","<span style='color:GreenYellow; font-size: 70px;'>正确! </span>","null","","","","","","","","","","","","","","","","","","","","","","","feedback_test",""
"","","","","","psychophysics","353","1194379","0.0-18.0-0.0-0.21","786","","d","","","","","","","","","","","","","key","d","16.650813084113125","768","428","d","true","img/S_28.png","朋友","prac_stranger","","朋友"
"","","","","","html-keyboard-response","354","1194685","0.0-18.0-0.0-1.21","null","<span style='color:GreenYellow; font-size: 70px;'>正确! </span>","null","","","","","","","","","","","","","","","","","","","","","","","feedback_test",""
"","","","","","psychophysics","355","1196616","0.0-18.0-0.0-0.22","925","","j","","","","","","","","","","","","","key","j","16.653000000001782","768","428","j","true","img/H_28.png","朋友","prac_stranger","","生人"
"","","","","","html-keyboard-response","356","1196920","0.0-18.0-0.0-1.22","null","<span style='color:GreenYellow; font-size: 70px;'>正确! </span>","null","","","","","","","","","","","","","","","","","","","","","","","feedback_test",""
"","","","","","psychophysics","357","1198906","0.0-18.0-0.0-0.23","984","","f","","","","","","","","","","","","","key","f","16.651596638655775","768","428","f","true","img/C_28.png","生人","prac_stranger","","自我"
"","","","","","html-keyboard-response","358","1199210","0.0-18.0-0.0-1.23","null","<span style='color:GreenYellow; font-size: 70px;'>正确! </span>","null","","","","","","","","","","","","","","","","","","","","","","","feedback_test",""
"","","","","","html-keyboard-response","359","1217535","0.0-19.0","18323","[""<style>.context{color:white; font-size: 35px; line-height:40px}</style>                                        <div><p class='context'>您正确回答了92% 的试次。</p><p class='context'>您的平均反应时为1041毫秒。</p><p class='context'>恭喜您完成练习。您可以在此时休息一段时间，准备好后按任意键进入正式实验。</p><p class='footer' style='font-size: 35px; line-height:40px;'>请在进入正式实验实验之前将您的<span style='color: lightgreen;'>食指和中指</span>放在电脑键盘的相应键位上，做好按键准备。</p>""]","j","","","","","","","","","","","","","","","","","","","","","","","",""
"","","","","","html-keyboard-response","360","1232519","0.0-20.0-1.0-0.0","14981","
                    <p>请您将食指和中指放在相应按键上，准备进入<span style='color: yellow;'>重点图形为“朋友”对应图形</span>的正式匹配任务</p>
                    <p> <div style = ""color: green""><按任意键开始></div></p>
                    ","j","","","","","","","","","","","","","","","","","","","","","","","",""
"","","","","","psychophysics","361","1234152","0.0-20.0-1.0-1.0-0.0-0.0","629","","j","","","","","","","","","","","","","key","j","16.652226804124346","768","428","k","false","img/S_28.png","朋友","friend","","朋友"
"","","","","","html-keyboard-response","362","1234462","0.0-20.0-1.0-1.0-0.0-1.0","null","<span style='color:red; font-size: 70px;'>错误! </span>","null","","","","","","","","","","","","","","","","","","","","","","","feedback_test",""
"","","","","","psychophysics","363","1236099","0.0-20.0-1.0-1.0-0.0-0.1","628","","k","","","","","","","","","","","","","key","k","16.65279381443295","768","428","k","true","img/S_28.png","朋友","friend","","朋友"
"","","","","","html-keyboard-response","364","1236409","0.0-20.0-1.0-1.0-0.0-1.1","null","<span style='color:GreenYellow; font-size: 70px;'>正确! </span>","null","","","","","","","","","","","","","","","","","","","","","","","feedback_test",""
"","","","","","psychophysics","365","1238260","0.0-20.0-1.0-1.0-0.0-0.2","844","","f","","","","","","","","","","","","","key","f","16.651563636361708","768","428","f","true","img/C_28.png","朋友","friend","","自我"
"","","","","","html-keyboard-response","366","1238566","0.0-20.0-1.0-1.0-0.0-1.2","null","<span style='color:GreenYellow; font-size: 70px;'>正确! </span>","null","","","","","","","","","","","","","","","","","","","","","","","feedback_test",""
"","","","","","psychophysics","367","1240470","0.0-20.0-1.0-1.0-0.0-0.3","903","","f","","","","","","","","","","","","","key","f","16.648539823008107","768","428","f","true","img/H_28.png","自我","friend","","生人"
"","","","","","html-keyboard-response","368","1240781","0.0-20.0-1.0-1.0-0.0-1.3","null","<span style='color:GreenYellow; font-size: 70px;'>正确! </span>","null","","","","","","","","","","","","","","","","","","","","","","","feedback_test",""
"","","","","","psychophysics","369","1242614","0.0-20.0-1.0-1.0-0.0-0.4","832","","d","","","","","","","","","","","","","key","d","16.648953703704237","768","428","d","true","img/H_28.png","生人","friend","","生人"
"","","","","","html-keyboard-response","370","1242930","0.0-20.0-1.0-1.0-0.0-1.4","null","<span style='color:GreenYellow; font-size: 70px;'>正确! </span>","null","","","","","","","","","","","","","","","","","","","","","","","feedback_test",""
"","","","","","psychophysics","371","1245050","0.0-20.0-1.0-1.0-0.0-0.5","1104","","d","","","","","","","","","","","","","key","d","16.651206349205626","768","428","d","true","img/C_28.png","自我","friend","","自我"
"","","","","","html-keyboard-response","372","1245366","0.0-20.0-1.0-1.0-0.0-1.5","null","<span style='color:GreenYellow; font-size: 70px;'>正确! </span>","null","","","","","","","","","","","","","","","","","","","","","","","feedback_test",""
"","","","","","psychophysics","373","1247535","0.0-20.0-1.0-1.0-0.0-0.6","1163","","f","","","","","","","","","","","","","key","f","16.651286821704097","768","428","f","true","img/H_28.png","朋友","friend","","生人"
"","","","","","html-keyboard-response","374","1247841","0.0-20.0-1.0-1.0-0.0-1.6","null","<span style='color:GreenYellow; font-size: 70px;'>正确! </span>","null","","","","","","","","","","","","","","","","","","","","","","","feedback_test",""
"","","","","","psychophysics","375","1250020","0.0-20.0-1.0-1.0-0.0-0.7","1179","","j","","","","","","","","","","","","","key","j","16.64927131782986","768","428","j","true","img/S_28.png","自我","friend","","朋友"
"","","","","","html-keyboard-response","376","1250326","0.0-20.0-1.0-1.0-0.0-1.7","null","<span style='color:GreenYellow; font-size: 70px;'>正确! </span>","null","","","","","","","","","","","","","","","","","","","","","","","feedback_test",""
"","","","","","psychophysics","377","1252093","0.0-20.0-1.0-1.0-0.0-0.8","756","","j","","","","","","","","","","","","","key","j","16.6520476190462","768","428","j","true","img/S_28.png","生人","friend","","朋友"
"","","","","","html-keyboard-response","378","1252394","0.0-20.0-1.0-1.0-0.0-1.8","null","<span style='color:GreenYellow; font-size: 70px;'>正确! </span>","null","","","","","","","","","","","","","","","","","","","","","","","feedback_test",""
"","","","","","psychophysics","379","1254341","0.0-20.0-1.0-1.0-0.0-0.9","937","","f","","","","","","","","","","","","","key","f","16.65104310344985","768","428","f","true","img/C_28.png","生人","friend","","自我"
"","","","","","html-keyboard-response","380","1254642","0.0-20.0-1.0-1.0-0.0-1.9","null","<span style='color:GreenYellow; font-size: 70px;'>正确! </span>","null","","","","","","","","","","","","","","","","","","","","","","","feedback_test",""
"","","","","","psychophysics","381","1256488","0.0-20.0-1.0-1.0-0.0-0.10","839","","d","","","","","","","","","","","","","key","d","16.650472727271897","768","428","d","true","img/H_28.png","生人","friend","","生人"
"","","","","","html-keyboard-response","382","1256789","0.0-20.0-1.0-1.0-0.0-1.10","null","<span style='color:GreenYellow; font-size: 70px;'>正确! </span>","null","","","","","","","","","","","","","","","","","","","","","","","feedback_test",""
"","","","","","psychophysics","383","1258675","0.0-20.0-1.0-1.0-0.0-0.11","876","","d","","","","","","","","","","","","","key","d","16.651267857143207","768","428","d","true","img/C_28.png","自我","friend","","自我"
"","","","","","html-keyboard-response","384","1258984","0.0-20.0-1.0-1.0-0.0-1.11","null","<span style='color:GreenYellow; font-size: 70px;'>正确! </span>","null","","","","","","","","","","","","","","","","","","","","","","","feedback_test",""
"","","","","","psychophysics","385","1260789","0.0-20.0-1.0-1.0-0.0-0.12","803","","j","","","","","","","","","","","","","key","j","16.650616822429175","768","428","j","true","img/S_28.png","自我","friend","","朋友"
"","","","","","html-keyboard-response","386","1261104","0.0-20.0-1.0-1.0-0.0-1.12","null","<span style='color:GreenYellow; font-size: 70px;'>正确! </span>","null","","","","","","","","","","","","","","","","","","","","","","","feedback_test",""
"","","","","","psychophysics","387","1262889","0.0-20.0-1.0-1.0-0.0-0.13","777","","k","","","","","","","","","","","","","key","k","16.651490566037367","768","428","k","true","img/S_28.png","朋友","friend","","朋友"
"","","","","","html-keyboard-response","388","1263193","0.0-20.0-1.0-1.0-0.0-1.13","null","<span style='color:GreenYellow; font-size: 70px;'>正确! </span>","null","","","","","","","","","","","","","","","","","","","","","","","feedback_test",""
"","","","","","psychophysics","389","1265198","0.0-20.0-1.0-1.0-0.0-0.14","1004","","f","","","","","","","","","","","","","key","f","16.64457142857068","768","428","f","true","img/C_28.png","生人","friend","","自我"
"","","","","","html-keyboard-response","390","1265500","0.0-20.0-1.0-1.0-0.0-1.14","null","<span style='color:GreenYellow; font-size: 70px;'>正确! </span>","null","","","","","","","","","","","","","","","","","","","","","","","feedback_test",""
"","","","","","psychophysics","391","1267961","0.0-20.0-1.0-1.0-0.0-0.15","1452","","j","","","","","","","","","","","","","key","j","16.651149659864224","768","428","k","false","img/S_28.png","朋友","friend","","朋友"
"","","","","","html-keyboard-response","392","1268273","0.0-20.0-1.0-1.0-0.0-1.15","null","<span style='color:red; font-size: 70px;'>错误! </span>","null","","","","","","","","","","","","","","","","","","","","","","","feedback_test",""
"","","","","","psychophysics","393","1270310","0.0-20.0-1.0-1.0-0.0-0.16","1037","","d","","","","","","","","","","","","","key","d","16.641247933884422","768","428","d","true","img/H_28.png","生人","friend","","生人"
"","","","","","html-keyboard-response","394","1270622","0.0-20.0-1.0-1.0-0.0-1.16","null","<span style='color:GreenYellow; font-size: 70px;'>正确! </span>","null","","","","","","","","","","","","","","","","","","","","","","","feedback_test",""
"","","","","","psychophysics","395","1272967","0.0-20.0-1.0-1.0-0.0-0.17","1336","","f","","","","","","","","","","","","","key","f","16.651892086330186","768","428","f","true","img/H_28.png","自我","friend","","生人"
"","","","","","html-keyboard-response","396","1273283","0.0-20.0-1.0-1.0-0.0-1.17","null","<span style='color:GreenYellow; font-size: 70px;'>正确! </span>","null","","","","","","","","","","","","","","","","","","","","","","","feedback_test",""
"","","","","","psychophysics","397","1275294","0.0-20.0-1.0-1.0-0.0-0.18","1009","","d","","","","","","","","","","","","","key","d","16.651999999999923","768","428","d","true","img/H_28.png","生人","friend","","生人"
"","","","","","html-keyboard-response","398","1275603","0.0-20.0-1.0-1.0-0.0-1.18","null","<span style='color:GreenYellow; font-size: 70px;'>正确! </span>","null","","","","","","","","","","","","","","","","","","","","","","","feedback_test",""
"","","","","","psychophysics","399","1277756","0.0-20.0-1.0-1.0-0.0-0.19","1140","","d","","","","","","","","","","","","","key","d","16.64928906249952","768","428","d","true","img/C_28.png","自我","friend","","自我"
"","","","","","html-keyboard-response","400","1278064","0.0-20.0-1.0-1.0-0.0-1.19","null","<span style='color:GreenYellow; font-size: 70px;'>正确! </span>","null","","","","","","","","","","","","","","","","","","","","","","","feedback_test",""
"","","","","","psychophysics","401","1280074","0.0-20.0-1.0-1.0-0.0-0.20","1003","","j","","","","","","","","","","","","","key","j","16.65170588235355","768","428","f","false","img/C_28.png","朋友","friend","","自我"
"","","","","","html-keyboard-response","402","1280380","0.0-20.0-1.0-1.0-0.0-1.20","null","<span style='color:red; font-size: 70px;'>错误! </span>","null","","","","","","","","","","","","","","","","","","","","","","","feedback_test",""
"","","","","","psychophysics","403","1282616","0.0-20.0-1.0-1.0-0.0-0.21","1228","","f","","","","","","","","","","","","","key","f","16.652037593984232","768","428","f","true","img/H_28.png","朋友","friend","","生人"
"","","","","","html-keyboard-response","404","1282924","0.0-20.0-1.0-1.0-0.0-1.21","null","<span style='color:GreenYellow; font-size: 70px;'>正确! </span>","null","","","","","","","","","","","","","","","","","","","","","","","feedback_test",""
"","","","","","psychophysics","405","1285133","0.0-20.0-1.0-1.0-0.0-0.22","1208","","d","","","","","","","","","","","","","key","d","16.652287878789306","768","428","d","true","img/C_28.png","自我","friend","","自我"
"","","","","","html-keyboard-response","406","1285449","0.0-20.0-1.0-1.0-0.0-1.22","null","<span style='color:GreenYellow; font-size: 70px;'>正确! </span>","null","","","","","","","","","","","","","","","","","","","","","","","feedback_test",""
"","","","","","psychophysics","407","1287406","0.0-20.0-1.0-1.0-0.0-0.23","949","","j","","","","","","","","","","","","","key","j","16.651862068964842","768","428","j","true","img/S_28.png","生人","friend","","朋友"
"","","","","","html-keyboard-response","408","1287706","0.0-20.0-1.0-1.0-0.0-1.23","null","<span style='color:GreenYellow; font-size: 70px;'>正确! </span>","null","","","","","","","","","","","","","","","","","","","","","","","feedback_test",""
"","","","","","psychophysics","409","1290152","0.0-20.0-1.0-1.0-0.0-0.24","1436","","f","","","","","","","","","","","","","key","f","16.652255172414126","768","428","f","true","img/H_28.png","自我","friend","","生人"
"","","","","","html-keyboard-response","410","1290462","0.0-20.0-1.0-1.0-0.0-1.24","null","<span style='color:GreenYellow; font-size: 70px;'>正确! </span>","null","","","","","","","","","","","","","","","","","","","","","","","feedback_test",""
"","","","","","psychophysics","411","1292706","0.0-20.0-1.0-1.0-0.0-0.25","1237","","j","","","","","","","","","","","","","key","j","16.653888059701814","768","428","f","false","img/C_28.png","朋友","friend","","自我"
"","","","","","html-keyboard-response","412","1293010","0.0-20.0-1.0-1.0-0.0-1.25","null","<span style='color:red; font-size: 70px;'>错误! </span>","null","","","","","","","","","","","","","","","","","","","","","","","feedback_test",""
"","","","","","psychophysics","413","1295101","0.0-20.0-1.0-1.0-0.0-0.26","1085","","j","","","","","","","","","","","","","key","j","16.651808000000194","768","428","j","true","img/S_28.png","生人","friend","","朋友"
"","","","","","html-keyboard-response","414","1295404","0.0-20.0-1.0-1.0-0.0-1.26","null","<span style='color:GreenYellow; font-size: 70px;'>正确! </span>","null","","","","","","","","","","","","","","","","","","","","","","","feedback_test",""
"","","","","","psychophysics","415","1297424","0.0-20.0-1.0-1.0-0.0-0.27","1010","","j","","","","","","","","","","","","","key","j","16.652258333332913","768","428","j","true","img/S_28.png","自我","friend","","朋友"
"","","","","","html-keyboard-response","416","1297737","0.0-20.0-1.0-1.0-0.0-1.27","null","<span style='color:GreenYellow; font-size: 70px;'>正确! </span>","null","","","","","","","","","","","","","","","","","","","","","","","feedback_test",""
"","","","","","psychophysics","417","1300168","0.0-20.0-1.0-1.0-0.0-0.28","1422","","d","","","","","","","","","","","","","key","d","16.650620689654144","768","428","d","true","img/C_28.png","自我","friend","","自我"
"","","","","","html-keyboard-response","418","1300480","0.0-20.0-1.0-1.0-0.0-1.28","null","<span style='color:GreenYellow; font-size: 70px;'>正确! </span>","null","","","","","","","","","","","","","","","","","","","","","","","feedback_test",""
"","","","","","psychophysics","419","1302290","0.0-20.0-1.0-1.0-0.0-0.29","801","","d","","","","","","","","","","","","","key","d","16.651887850466","768","428","d","true","img/H_28.png","生人","friend","","生人"
"","","","","","html-keyboard-response","420","1302594","0.0-20.0-1.0-1.0-0.0-1.29","null","<span style='color:GreenYellow; font-size: 70px;'>正确! </span>","null","","","","","","","","","","","","","","","","","","","","","","","feedback_test",""
"","","","","","psychophysics","421","1304334","0.0-20.0-1.0-1.0-0.0-0.30","733","","j","","","","","","","","","","","","","key","j","16.649834951458192","768","428","k","false","img/S_28.png","朋友","friend","","朋友"
