"success","timeout","failed_images","failed_audio","failed_video","trial_type","trial_index","time_elapsed","internal_node_id","rt","stimulus","response","value","item_width_mm","item_height_mm","item_width_px","px2mm","view_dist_mm","item_width_deg","px2deg","scale_factor","win_width_deg","win_height_deg","view_history","response_type","key_press","avg_frame_time","center_x","center_y","correct_response","correct","Image","word","condition","screen_id"
"true","false","[]","[]","[]","preload","0","98696","0.0-0.0","","","","","","","","","","","","","","","","","","","","","","","","","",""
"","","","","","html-keyboard-response","1","178053","0.0-1.0","79355","
     <p>您好，欢迎参加本次实验。</p>
     <p>为充分保障您的权利，请确保您已经知晓并同意《参与实验同意书》以及《数据公开知情同意书》。</p>
     <p>如果您未见过上述内容，请咨询实验员。</p>
     <p>如果您选择继续实验，则表示您已经清楚两份知情同意书的内容并同意。</p>
     <p> <div style = ""color: green""><按任意键至下页></div> </p>
     "," ","","","","","","","","","","","","","","","","","","","","","","",""
"","","","","","html-keyboard-response","2","180363","0.0-2.0","2309","
     <p>本实验首先需要您填写一些基本个人信息。</p>
     <p> <div style = ""color: green""><按任意键至下页></div></p>
     "," ","","","","","","","","","","","","","","","","","","","","","","",""
"","","","","","call-function","3","180364","0.0-3.0-0.0","","","","","","","","","","","","","","","","","","","","","","","","","",""
"","","","","","survey-html-form","4","184300","0.0-3.0-1.0","3935","","{""Q0"":""27""}","","","","","","","","","","","","","","","","","","","","","","",""
"","","","","","html-button-response","5","185508","0.0-3.0-2.0","1205","<p style = 'color : white'>您的性别</p>","0","","","","","","","","","","","","","","","","","","","","","","",""
"","","","","","survey-html-form","6","193259","0.0-3.0-3.0","7749","","{""Q0"":""2001""}","","","","","","","","","","","","","","","","","","","","","","",""
"","","","","","survey-html-form","7","196284","0.0-3.0-4.0","3024","","{""Q0"":""5""}","","","","","","","","","","","","","","","","","","","","","","",""
"","","","","","virtual-chinrest","8","345227","0.0-4.0","148940","","","","85.6","53.98","459.6334669978727","5.367982096325521","532.38","9.192669339957455","50","0.5961271745281075","38.4","18.92","","","","","","","","","","","",""
"true","","","","","fullscreen","9","348139","0.0-5.0","","","","","","","","","","","","","","","","","","","","","","","","","",""
"","","","","","instructions","10","396323","0.0-6.0","48183","","","","","","","","","","","","","","[{""page_index"":0,""viewing_time"":10222},{""page_index"":1,""viewing_time"":31552},{""page_index"":2,""viewing_time"":2872},{""page_index"":3,""viewing_time"":3536}]","","","","","","","","","","",""
"","","","","","psychophysics","11","398834","0.0-7.0-0.0-0.0","null","","null","","","","","","","","","","","","","key","null","16.666000000000157","960","536","f","false","img/T_ambi40.png","をる","prac",""
"","","","","","html-keyboard-response","12","399337","0.0-7.0-0.0-1.0","null","<span class='add_' style='color:yellow; font-size: 70px;'> 太慢! </span>","null","","","","","","","","","","","","","","","","","","","","","","","feedback_test"
"","","","","","psychophysics","13","401852","0.0-7.0-0.0-0.1","null","","null","","","","","","","","","","","","","key","null","16.666000000000157","960","536","f","false","img/C_ambi40.png","生人","prac",""
"","","","","","html-keyboard-response","14","402356","0.0-7.0-0.0-1.1","null","<span class='add_' style='color:yellow; font-size: 70px;'> 太慢! </span>","null","","","","","","","","","","","","","","","","","","","","","","","feedback_test"
"","","","","","psychophysics","15","404866","0.0-7.0-0.0-0.2","null","","null","","","","","","","","","","","","","key","null","16.666000000000157","960","536","f","false","img/T_ambi40.png","をる","prac",""
"","","","","","html-keyboard-response","16","405368","0.0-7.0-0.0-1.2","null","<span class='add_' style='color:yellow; font-size: 70px;'> 太慢! </span>","null","","","","","","","","","","","","","","","","","","","","","","","feedback_test"
"","","","","","psychophysics","17","407874","0.0-7.0-0.0-0.3","null","","null","","","","","","","","","","","","","key","null","16.66599999999998","960","536","f","false","img/T_ambi40.png","をる","prac",""
"","","","","","html-keyboard-response","18","408376","0.0-7.0-0.0-1.3","null","<span class='add_' style='color:yellow; font-size: 70px;'> 太慢! </span>","null","","","","","","","","","","","","","","","","","","","","","","","feedback_test"
"","","","","","psychophysics","19","410882","0.0-7.0-0.0-0.4","null","","null","","","","","","","","","","","","","key","null","16.66599999999998","960","536","f","false","img/S_ambi40.png","朋友","prac",""
"","","","","","html-keyboard-response","20","411384","0.0-7.0-0.0-1.4","null","<span class='add_' style='color:yellow; font-size: 70px;'> 太慢! </span>","null","","","","","","","","","","","","","","","","","","","","","","","feedback_test"
"","","","","","psychophysics","21","413890","0.0-7.0-0.0-0.5","null","","null","","","","","","","","","","","","","key","null","16.66599999999998","960","536","j","false","img/H_ambi40.png","自我","prac",""
"","","","","","html-keyboard-response","22","414392","0.0-7.0-0.0-1.5","null","<span class='add_' style='color:yellow; font-size: 70px;'> 太慢! </span>","null","","","","","","","","","","","","","","","","","","","","","","","feedback_test"
"","","","","","psychophysics","23","416918","0.0-7.0-0.0-0.6","null","","null","","","","","","","","","","","","","key","null","16.666000000000157","960","536","f","false","img/S_ambi40.png","自我","prac",""
"","","","","","html-keyboard-response","24","417420","0.0-7.0-0.0-1.6","null","<span class='add_' style='color:yellow; font-size: 70px;'> 太慢! </span>","null","","","","","","","","","","","","","","","","","","","","","","","feedback_test"
"","","","","","psychophysics","25","419926","0.0-7.0-0.0-0.7","null","","null","","","","","","","","","","","","","key","null","16.66599999999998","960","536","f","false","img/H_ambi40.png","生人","prac",""
"","","","","","html-keyboard-response","26","420429","0.0-7.0-0.0-1.7","null","<span class='add_' style='color:yellow; font-size: 70px;'> 太慢! </span>","null","","","","","","","","","","","","","","","","","","","","","","","feedback_test"
"","","","","","psychophysics","27","422958","0.0-7.0-0.0-0.8","null","","null","","","","","","","","","","","","","key","null","16.666000000000157","960","536","f","false","img/H_ambi40.png","朋友","prac",""
"","","","","","html-keyboard-response","28","423460","0.0-7.0-0.0-1.8","null","<span class='add_' style='color:yellow; font-size: 70px;'> 太慢! </span>","null","","","","","","","","","","","","","","","","","","","","","","","feedback_test"
"","","","","","psychophysics","29","425967","0.0-7.0-0.0-0.9","null","","null","","","","","","","","","","","","","key","null","16.66599999999998","960","536","j","false","img/S_ambi40.png","生人","prac",""
"","","","","","html-keyboard-response","30","426469","0.0-7.0-0.0-1.9","null","<span class='add_' style='color:yellow; font-size: 70px;'> 太慢! </span>","null","","","","","","","","","","","","","","","","","","","","","","","feedback_test"
"","","","","","psychophysics","31","428302","0.0-7.0-0.0-0.10","831","","j","","","","","","","","","","","","","key","j","16.666000000000377","960","536","j","true","img/S_ambi40.png","生人","prac",""
"","","","","","html-keyboard-response","32","428804","0.0-7.0-0.0-1.10","null","<span style='color:GreenYellow; font-size: 70px;'>正确! </span>","null","","","","","","","","","","","","","","","","","","","","","","","feedback_test"
"","","","","","psychophysics","33","430518","0.0-7.0-0.0-0.11","711","","f","","","","","","","","","","","","","key","f","16.66600000000029","960","536","f","true","img/T_ambi40.png","をる","prac",""
"","","","","","html-keyboard-response","34","431021","0.0-7.0-0.0-1.11","null","<span style='color:GreenYellow; font-size: 70px;'>正确! </span>","null","","","","","","","","","","","","","","","","","","","","","","","feedback_test"
"","","","","","psychophysics","35","432911","0.0-7.0-0.0-0.12","878","","f","","","","","","","","","","","","","key","f","16.665999999999798","960","536","j","false","img/C_ambi40.png","朋友","prac",""
"","","","","","html-keyboard-response","36","433413","0.0-7.0-0.0-1.12","null","<span style='color:red; font-size: 70px;'>错误! </span>","null","","","","","","","","","","","","","","","","","","","","","","","feedback_test"
"","","","","","psychophysics","37","435921","0.0-7.0-0.0-0.13","null","","null","","","","","","","","","","","","","key","null","16.66600000000037","960","536","j","false","img/C_ambi40.png","朋友","prac",""
"","","","","","html-keyboard-response","38","436422","0.0-7.0-0.0-1.13","null","<span class='add_' style='color:yellow; font-size: 70px;'> 太慢! </span>","null","","","","","","","","","","","","","","","","","","","","","","","feedback_test"
"","","","","","psychophysics","39","438930","0.0-7.0-0.0-0.14","null","","null","","","","","","","","","","","","","key","null","16.666000000000157","960","536","f","false","img/C_ambi40.png","自我","prac",""
"","","","","","html-keyboard-response","40","439433","0.0-7.0-0.0-1.14","null","<span class='add_' style='color:yellow; font-size: 70px;'> 太慢! </span>","null","","","","","","","","","","","","","","","","","","","","","","","feedback_test"
"","","","","","psychophysics","41","440914","0.0-7.0-0.0-0.15","480","","j","","","","","","","","","","","","","key","j","16.666000000000086","960","536","j","true","img/H_ambi40.png","自我","prac",""
"","","","","","html-keyboard-response","42","441416","0.0-7.0-0.0-1.15","null","<span style='color:GreenYellow; font-size: 70px;'>正确! </span>","null","","","","","","","","","","","","","","","","","","","","","","","feedback_test"
"","","","","","psychophysics","43","442950","0.0-7.0-0.0-0.16","532","","f","","","","","","","","","","","","","key","f","16.666000000000317","960","536","f","true","img/C_ambi40.png","自我","prac",""
"","","","","","html-keyboard-response","44","443451","0.0-7.0-0.0-1.16","null","<span style='color:GreenYellow; font-size: 70px;'>正确! </span>","null","","","","","","","","","","","","","","","","","","","","","","","feedback_test"
"","","","","","psychophysics","45","445075","0.0-7.0-0.0-0.17","622","","f","","","","","","","","","","","","","key","f","16.665999999999865","960","536","f","true","img/T_ambi40.png","をる","prac",""
"","","","","","html-keyboard-response","46","445577","0.0-7.0-0.0-1.17","null","<span style='color:GreenYellow; font-size: 70px;'>正确! </span>","null","","","","","","","","","","","","","","","","","","","","","","","feedback_test"
"","","","","","psychophysics","47","447259","0.0-7.0-0.0-0.18","674","","f","","","","","","","","","","","","","key","f","16.666000000000086","960","536","f","true","img/T_ambi40.png","をる","prac",""
"","","","","","html-keyboard-response","48","447759","0.0-7.0-0.0-1.18","null","<span style='color:GreenYellow; font-size: 70px;'>正确! </span>","null","","","","","","","","","","","","","","","","","","","","","","","feedback_test"
"","","","","","psychophysics","49","449183","0.0-7.0-0.0-0.19","416","","f","","","","","","","","","","","","","key","f","16.66600000000021","960","536","j","false","img/S_ambi40.png","生人","prac",""
"","","","","","html-keyboard-response","50","449684","0.0-7.0-0.0-1.19","null","<span style='color:red; font-size: 70px;'>错误! </span>","null","","","","","","","","","","","","","","","","","","","","","","","feedback_test"
"","","","","","psychophysics","51","451572","0.0-7.0-0.0-0.20","886","","j","","","","","","","","","","","","","key","j","16.665999999999517","960","536","f","false","img/T_ambi40.png","をる","prac",""
"","","","","","html-keyboard-response","52","452074","0.0-7.0-0.0-1.20","null","<span style='color:red; font-size: 70px;'>错误! </span>","null","","","","","","","","","","","","","","","","","","","","","","","feedback_test"
"","","","","","psychophysics","53","454584","0.0-7.0-0.0-0.21","null","","null","","","","","","","","","","","","","key","null","16.666000000000157","960","536","j","false","img/C_ambi40.png","朋友","prac",""
"","","","","","html-keyboard-response","54","455085","0.0-7.0-0.0-1.21","null","<span class='add_' style='color:yellow; font-size: 70px;'> 太慢! </span>","null","","","","","","","","","","","","","","","","","","","","","","","feedback_test"
"","","","","","psychophysics","55","457035","0.0-7.0-0.0-0.22","949","","j","","","","","","","","","","","","","key","j","16.666000000000448","960","536","f","false","img/H_ambi40.png","朋友","prac",""
"","","","","","html-keyboard-response","56","457537","0.0-7.0-0.0-1.22","null","<span style='color:red; font-size: 70px;'>错误! </span>","null","","","","","","","","","","","","","","","","","","","","","","","feedback_test"
"","","","","","psychophysics","57","460049","0.0-7.0-0.0-0.23","null","","null","","","","","","","","","","","","","key","null","16.666000000000157","960","536","f","false","img/S_ambi40.png","朋友","prac",""
"","","","","","html-keyboard-response","58","460550","0.0-7.0-0.0-1.23","null","<span class='add_' style='color:yellow; font-size: 70px;'> 太慢! </span>","null","","","","","","","","","","","","","","","","","","","","","","","feedback_test"
"","","","","","psychophysics","59","463057","0.0-7.0-0.0-0.24","null","","null","","","","","","","","","","","","","key","null","16.66600000000037","960","536","f","false","img/C_ambi40.png","生人","prac",""
"","","","","","html-keyboard-response","60","463558","0.0-7.0-0.0-1.24","null","<span class='add_' style='color:yellow; font-size: 70px;'> 太慢! </span>","null","","","","","","","","","","","","","","","","","","","","","","","feedback_test"
"","","","","","psychophysics","61","466067","0.0-7.0-0.0-0.25","null","","null","","","","","","","","","","","","","key","null","16.66599999999959","960","536","f","false","img/T_ambi40.png","をる","prac",""
"","","","","","html-keyboard-response","62","466569","0.0-7.0-0.0-1.25","null","<span class='add_' style='color:yellow; font-size: 70px;'> 太慢! </span>","null","","","","","","","","","","","","","","","","","","","","","","","feedback_test"
"","","","","","psychophysics","63","469085","0.0-7.0-0.0-0.26","null","","null","","","","","","","","","","","","","key","null","16.666000000000157","960","536","j","false","img/S_ambi40.png","生人","prac",""
"","","","","","html-keyboard-response","64","469587","0.0-7.0-0.0-1.26","null","<span class='add_' style='color:yellow; font-size: 70px;'> 太慢! </span>","null","","","","","","","","","","","","","","","","","","","","","","","feedback_test"
"","","","","","psychophysics","65","471334","0.0-7.0-0.0-0.27","746","","f","","","","","","","","","","","","","key","f","16.665999999999677","960","536","j","false","img/C_ambi40.png","朋友","prac",""
"","","","","","html-keyboard-response","66","471835","0.0-7.0-0.0-1.27","null","<span style='color:red; font-size: 70px;'>错误! </span>","null","","","","","","","","","","","","","","","","","","","","","","","feedback_test"
"","","","","","psychophysics","67","474350","0.0-7.0-0.0-0.28","null","","null","","","","","","","","","","","","","key","null","16.777852348993445","960","536","f","false","img/H_ambi40.png","生人","prac",""
"","","","","","html-keyboard-response","68","474851","0.0-7.0-0.0-1.28","null","<span class='add_' style='color:yellow; font-size: 70px;'> 太慢! </span>","null","","","","","","","","","","","","","","","","","","","","","","","feedback_test"
"","","","","","psychophysics","69","477251","0.0-7.0-0.0-0.29","1397","","f","","","","","","","","","","","","","key","f","16.666000000000086","960","536","j","false","img/H_ambi40.png","自我","prac",""
"","","","","","html-keyboard-response","70","477752","0.0-7.0-0.0-1.29","null","<span style='color:red; font-size: 70px;'>错误! </span>","null","","","","","","","","","","","","","","","","","","","","","","","feedback_test"
"","","","","","psychophysics","71","480082","0.0-7.0-0.0-0.30","1328","","j","","","","","","","","","","","","","key","j","16.66600000000016","960","536","f","false","img/S_ambi40.png","自我","prac",""
"","","","","","html-keyboard-response","72","480583","0.0-7.0-0.0-1.30","null","<span style='color:red; font-size: 70px;'>错误! </span>","null","","","","","","","","","","","","","","","","","","","","","","","feedback_test"
"","","","","","psychophysics","73","483090","0.0-7.0-0.0-0.31","null","","null","","","","","","","","","","","","","key","null","16.66600000000037","960","536","j","false","img/H_ambi40.png","自我","prac",""
"","","","","","html-keyboard-response","74","483591","0.0-7.0-0.0-1.31","null","<span class='add_' style='color:yellow; font-size: 70px;'> 太慢! </span>","null","","","","","","","","","","","","","","","","","","","","","","","feedback_test"
"","","","","","html-keyboard-response","75","500899","0.0-7.0-1.0-0.0","17305","<style>.context{color:white; font-size: 35px; line-height:40px}</style>                          <div><p class='context'>您正确回答了19% 的试次。</p ><p class='context'>您的平均反应时为642毫秒。</p >"," ","","","","","","","","","","","","","","","","","","","","","","",""
"","","","","","instructions","76","537083","0.0-7.0-1.0-1.0","36178","","","","","","","","","","","","","","[{""page_index"":0,""viewing_time"":4100},{""page_index"":1,""viewing_time"":29294},{""page_index"":2,""viewing_time"":2784}]","","","","","","","","","","",""
"","","","","","psychophysics","77","538930","0.0-7.1-0.1-0.32","845","","f","","","","","","","","","","","","","key","f","16.666000000000086","960","536","f","true","img/C_ambi40.png","自我","prac",""
"","","","","","html-keyboard-response","78","539432","0.0-7.1-0.1-1.32","null","<span style='color:GreenYellow; font-size: 70px;'>正确! </span>","null","","","","","","","","","","","","","","","","","","","","","","","feedback_test"
"","","","","","psychophysics","79","541155","0.0-7.1-0.1-0.33","721","","j","","","","","","","","","","","","","key","j","16.66599999999915","960","536","f","false","img/H_ambi40.png","朋友","prac",""
"","","","","","html-keyboard-response","80","541656","0.0-7.1-0.1-1.33","null","<span style='color:red; font-size: 70px;'>错误! </span>","null","","","","","","","","","","","","","","","","","","","","","","","feedback_test"
"","","","","","psychophysics","81","543479","0.0-7.1-0.1-0.34","818","","j","","","","","","","","","","","","","key","j","16.665999999999595","960","536","f","false","img/S_ambi40.png","自我","prac",""
"","","","","","html-keyboard-response","82","543980","0.0-7.1-0.1-1.34","null","<span style='color:red; font-size: 70px;'>错误! </span>","null","","","","","","","","","","","","","","","","","","","","","","","feedback_test"
"","","","","","psychophysics","83","545467","0.0-7.1-0.1-0.35","485","","f","","","","","","","","","","","","","key","f","16.666000000000086","960","536","f","true","img/T_ambi40.png","をる","prac",""
"","","","","","html-keyboard-response","84","545969","0.0-7.1-0.1-1.35","null","<span style='color:GreenYellow; font-size: 70px;'>正确! </span>","null","","","","","","","","","","","","","","","","","","","","","","","feedback_test"
"","","","","","psychophysics","85","547414","0.0-7.1-0.1-0.36","443","","f","","","","","","","","","","","","","key","f","16.666000000000825","960","536","j","false","img/C_ambi40.png","朋友","prac",""
"","","","","","html-keyboard-response","86","547917","0.0-7.1-0.1-1.36","null","<span style='color:red; font-size: 70px;'>错误! </span>","null","","","","","","","","","","","","","","","","","","","","","","","feedback_test"
"","","","","","psychophysics","87","549603","0.0-7.1-0.1-0.37","685","","j","","","","","","","","","","","","","key","j","16.665999999999766","960","536","j","true","img/S_ambi40.png","生人","prac",""
"","","","","","html-keyboard-response","88","550105","0.0-7.1-0.1-1.37","null","<span style='color:GreenYellow; font-size: 70px;'>正确! </span>","null","","","","","","","","","","","","","","","","","","","","","","","feedback_test"
"","","","","","psychophysics","89","551738","0.0-7.1-0.1-0.38","626","","f","","","","","","","","","","","","","key","f","16.665999999999865","960","536","f","true","img/S_ambi40.png","朋友","prac",""
"","","","","","html-keyboard-response","90","552239","0.0-7.1-0.1-1.38","null","<span style='color:GreenYellow; font-size: 70px;'>正确! </span>","null","","","","","","","","","","","","","","","","","","","","","","","feedback_test"
"","","","","","psychophysics","91","553965","0.0-7.1-0.1-0.39","724","","j","","","","","","","","","","","","","key","j","16.831009900990395","960","536","f","false","img/T_ambi40.png","をる","prac",""
"","","","","","html-keyboard-response","92","554467","0.0-7.1-0.1-1.39","null","<span style='color:red; font-size: 70px;'>错误! </span>","null","","","","","","","","","","","","","","","","","","","","","","","feedback_test"
"","","","","","psychophysics","93","556330","0.0-7.1-0.1-0.40","862","","j","","","","","","","","","","","","","key","j","16.665999999999798","960","536","f","false","img/C_ambi40.png","生人","prac",""
"","","","","","html-keyboard-response","94","556832","0.0-7.1-0.1-1.40","null","<span style='color:red; font-size: 70px;'>错误! </span>","null","","","","","","","","","","","","","","","","","","","","","","","feedback_test"
"","","","","","psychophysics","95","558251","0.0-7.1-0.1-0.41","418","","f","","","","","","","","","","","","","key","f","16.665999999998824","960","536","j","false","img/H_ambi40.png","自我","prac",""
"","","","","","html-keyboard-response","96","558753","0.0-7.1-0.1-1.41","null","<span style='color:red; font-size: 70px;'>错误! </span>","null","","","","","","","","","","","","","","","","","","","","","","","feedback_test"
"","","","","","psychophysics","97","560170","0.0-7.1-0.1-0.42","406","","j","","","","","","","","","","","","","key","j","16.66600000000021","960","536","f","false","img/T_ambi40.png","をる","prac",""
"","","","","","html-keyboard-response","98","560671","0.0-7.1-0.1-1.42","null","<span style='color:red; font-size: 70px;'>错误! </span>","null","","","","","","","","","","","","","","","","","","","","","","","feedback_test"
"","","","","","psychophysics","99","562266","0.0-7.1-0.1-0.43","590","","f","","","","","","","","","","","","","key","f","16.666000000000533","960","536","j","false","img/C_ambi40.png","朋友","prac",""
"","","","","","html-keyboard-response","100","562766","0.0-7.1-0.1-1.43","null","<span style='color:red; font-size: 70px;'>错误! </span>","null","","","","","","","","","","","","","","","","","","","","","","","feedback_test"
"","","","","","psychophysics","101","564379","0.0-7.1-0.1-0.44","611","","j","","","","","","","","","","","","","key","j","16.841431578948455","960","536","j","true","img/H_ambi40.png","自我","prac",""
"","","","","","html-keyboard-response","102","564880","0.0-7.1-0.1-1.44","null","<span style='color:GreenYellow; font-size: 70px;'>正确! </span>","null","","","","","","","","","","","","","","","","","","","","","","","feedback_test"
"","","","","","psychophysics","103","566230","0.0-7.1-0.1-0.45","348","","j","","","","","","","","","","","","","key","j","16.66600000000035","960","536","j","true","img/S_ambi40.png","生人","prac",""
"","","","","","html-keyboard-response","104","566731","0.0-7.1-0.1-1.45","null","<span style='color:GreenYellow; font-size: 70px;'>正确! </span>","null","","","","","","","","","","","","","","","","","","","","","","","feedback_test"
"","","","","","psychophysics","105","568133","0.0-7.1-0.1-0.46","401","","j","","","","","","","","","","","","","key","j","16.666000000000594","960","536","f","false","img/H_ambi40.png","生人","prac",""
"","","","","","html-keyboard-response","106","568635","0.0-7.1-0.1-1.46","null","<span style='color:red; font-size: 70px;'>错误! </span>","null","","","","","","","","","","","","","","","","","","","","","","","feedback_test"
"","","","","","psychophysics","107","569965","0.0-7.1-0.1-0.47","328","","f","","","","","","","","","","","","","key","f","16.666000000000754","960","536","f","true","img/T_ambi40.png","をる","prac",""
"","","","","","html-keyboard-response","108","570467","0.0-7.1-0.1-1.47","null","<span style='color:GreenYellow; font-size: 70px;'>正确! </span>","null","","","","","","","","","","","","","","","","","","","","","","","feedback_test"
"","","","","","psychophysics","109","571834","0.0-7.1-0.1-0.48","365","","f","","","","","","","","","","","","","key","f","16.665999999999954","960","536","j","false","img/H_ambi40.png","自我","prac",""
"","","","","","html-keyboard-response","110","572334","0.0-7.1-0.1-1.48","null","<span style='color:red; font-size: 70px;'>错误! </span>","null","","","","","","","","","","","","","","","","","","","","","","","feedback_test"
"","","","","","psychophysics","111","573699","0.0-7.1-0.1-0.49","363","","j","","","","","","","","","","","","","key","j","16.665999999999954","960","536","j","true","img/C_ambi40.png","朋友","prac",""
"","","","","","html-keyboard-response","112","574202","0.0-7.1-0.1-1.49","null","<span style='color:GreenYellow; font-size: 70px;'>正确! </span>","null","","","","","","","","","","","","","","","","","","","","","","","feedback_test"
"","","","","","psychophysics","113","575618","0.0-7.1-0.1-0.50","415","","f","","","","","","","","","","","","","key","f","16.66600000000021","960","536","f","true","img/H_ambi40.png","生人","prac",""
"","","","","","html-keyboard-response","114","576120","0.0-7.1-0.1-1.50","null","<span style='color:GreenYellow; font-size: 70px;'>正确! </span>","null","","","","","","","","","","","","","","","","","","","","","","","feedback_test"
"","","","","","psychophysics","115","577435","0.0-7.1-0.1-0.51","313","","j","","","","","","","","","","","","","key","j","16.66600000000117","960","536","f","false","img/C_ambi40.png","生人","prac",""
"","","","","","html-keyboard-response","116","577937","0.0-7.1-0.1-1.51","null","<span style='color:red; font-size: 70px;'>错误! </span>","null","","","","","","","","","","","","","","","","","","","","","","","feedback_test"
"","","","","","psychophysics","117","579248","0.0-7.1-0.1-0.52","309","","f","","","","","","","","","","","","","key","f","16.665999999999677","960","536","f","true","img/T_ambi40.png","をる","prac",""
"","","","","","html-keyboard-response","118","579749","0.0-7.1-0.1-1.52","null","<span style='color:GreenYellow; font-size: 70px;'>正确! </span>","null","","","","","","","","","","","","","","","","","","","","","","","feedback_test"
"","","","","","psychophysics","119","581171","0.0-7.1-0.1-0.53","420","","f","","","","","","","","","","","","","key","f","16.665999999998824","960","536","f","true","img/T_ambi40.png","をる","prac",""
"","","","","","html-keyboard-response","120","581671","0.0-7.1-0.1-1.53","null","<span style='color:GreenYellow; font-size: 70px;'>正确! </span>","null","","","","","","","","","","","","","","","","","","","","","","","feedback_test"
"","","","","","psychophysics","121","582981","0.0-7.1-0.1-0.54","303","","j","","","","","","","","","","","","","key","j","16.666000000000086","960","536","f","false","img/T_ambi40.png","をる","prac",""
"","","","","","html-keyboard-response","122","583482","0.0-7.1-0.1-1.54","null","<span style='color:red; font-size: 70px;'>错误! </span>","null","","","","","","","","","","","","","","","","","","","","","","","feedback_test"
"","","","","","psychophysics","123","584771","0.0-7.1-0.1-0.55","276","","f","","","","","","","","","","","","","key","f","16.888213333332292","960","536","j","false","img/H_ambi40.png","自我","prac",""
"","","","","","html-keyboard-response","124","585272","0.0-7.1-0.1-1.55","null","<span style='color:red; font-size: 70px;'>错误! </span>","null","","","","","","","","","","","","","","","","","","","","","","","feedback_test"
"","","","","","psychophysics","125","587486","0.0-7.1-0.1-0.56","1206","","j","","","","","","","","","","","","","key","j","16.666000000000327","960","536","j","true","img/C_ambi40.png","朋友","prac",""
"","","","","","html-keyboard-response","126","587988","0.0-7.1-0.1-1.56","null","<span style='color:GreenYellow; font-size: 70px;'>正确! </span>","null","","","","","","","","","","","","","","","","","","","","","","","feedback_test"
"","","","","","psychophysics","127","589388","0.0-7.1-0.1-0.57","390","","f","","","","","","","","","","","","","key","f","16.666000000000988","960","536","f","true","img/T_ambi40.png","をる","prac",""
"","","","","","html-keyboard-response","128","589890","0.0-7.1-0.1-1.57","null","<span style='color:GreenYellow; font-size: 70px;'>正确! </span>","null","","","","","","","","","","","","","","","","","","","","","","","feedback_test"
"","","","","","psychophysics","129","591198","0.0-7.1-0.1-0.58","303","","f","","","","","","","","","","","","","key","f","16.666000000000086","960","536","j","false","img/S_ambi40.png","生人","prac",""
"","","","","","html-keyboard-response","130","591699","0.0-7.1-0.1-1.58","null","<span style='color:red; font-size: 70px;'>错误! </span>","null","","","","","","","","","","","","","","","","","","","","","","","feedback_test"
"","","","","","psychophysics","131","592986","0.0-7.1-0.1-0.59","287","","j","","","","","","","","","","","","","key","j","16.66599999999897","960","536","f","false","img/S_ambi40.png","自我","prac",""
"","","","","","html-keyboard-response","132","593488","0.0-7.1-0.1-1.59","null","<span style='color:red; font-size: 70px;'>错误! </span>","null","","","","","","","","","","","","","","","","","","","","","","","feedback_test"
"","","","","","psychophysics","133","594772","0.0-7.1-0.1-0.60","279","","f","","","","","","","","","","","","","key","f","16.66599999999938","960","536","f","true","img/H_ambi40.png","朋友","prac",""
"","","","","","html-keyboard-response","134","595273","0.0-7.1-0.1-1.60","null","<span style='color:GreenYellow; font-size: 70px;'>正确! </span>","null","","","","","","","","","","","","","","","","","","","","","","","feedback_test"
"","","","","","psychophysics","135","596419","0.0-7.1-0.1-0.61","142","","f","","","","","","","","","","","","","key","f","16.66599999999961","960","536","j","false","img/S_ambi40.png","生人","prac",""
"","","","","","html-keyboard-response","136","596921","0.0-7.1-0.1-1.61","null","<span style='color:yellow; font-size: 70px;'>过快! </span>","null","","","","","","","","","","","","","","","","","","","","","","","feedback_test"
"","","","","","psychophysics","137","598019","0.0-7.1-0.1-0.62","89","","j","","","","","","","","","","","","","key","j","16.665999999999258","960","536","f","false","img/C_ambi40.png","自我","prac",""
"","","","","","html-keyboard-response","138","598522","0.0-7.1-0.1-1.62","null","<span style='color:yellow; font-size: 70px;'>过快! </span>","null","","","","","","","","","","","","","","","","","","","","","","","feedback_test"
"","","","","","psychophysics","139","599848","0.0-7.1-0.1-0.63","325","","f","","","","","","","","","","","","","key","f","16.665999999999677","960","536","f","true","img/S_ambi40.png","朋友","prac",""
"","","","","","html-keyboard-response","140","600350","0.0-7.1-0.1-1.63","null","<span style='color:GreenYellow; font-size: 70px;'>正确! </span>","null","","","","","","","","","","","","","","","","","","","","","","","feedback_test"
"","","","","","html-keyboard-response","141","604771","0.0-7.1-1.1-0.1","4418","<style>.context{color:white; font-size: 35px; line-height:40px}</style>                          <div><p class='context'>您正确回答了47% 的试次。</p ><p class='context'>您的平均反应时为509毫秒。</p >"," ","","","","","","","","","","","","","","","","","","","","","","",""
"","","","","","instructions","142","625995","0.0-7.1-1.1-1.1","21221","","","","","","","","","","","","","","[{""page_index"":0,""viewing_time"":1614},{""page_index"":1,""viewing_time"":18095},{""page_index"":2,""viewing_time"":1512}]","","","","","","","","","","",""
"","","","","","psychophysics","143","627698","0.0-7.2-0.2-0.64","701","","f","","","","","","","","","","","","","key","f","16.666000000000608","960","536","j","false","img/C_ambi40.png","朋友","prac",""
"","","","","","html-keyboard-response","144","628201","0.0-7.2-0.2-1.64","null","<span style='color:red; font-size: 70px;'>错误! </span>","null","","","","","","","","","","","","","","","","","","","","","","","feedback_test"
"","","","","","psychophysics","145","629531","0.0-7.2-0.2-0.65","329","","j","","","","","","","","","","","","","key","j","16.666000000000754","960","536","j","true","img/C_ambi40.png","朋友","prac",""
"","","","","","html-keyboard-response","146","630033","0.0-7.2-0.2-1.65","null","<span style='color:GreenYellow; font-size: 70px;'>正确! </span>","null","","","","","","","","","","","","","","","","","","","","","","","feedback_test"
"","","","","","psychophysics","147","631482","0.0-7.2-0.2-0.66","448","","j","","","","","","","","","","","","","key","j","16.666000000000825","960","536","j","true","img/S_ambi40.png","生人","prac",""
"","","","","","html-keyboard-response","148","631985","0.0-7.2-0.2-1.66","null","<span style='color:GreenYellow; font-size: 70px;'>正确! </span>","null","","","","","","","","","","","","","","","","","","","","","","","feedback_test"
"","","","","","psychophysics","149","633377","0.0-7.2-0.2-0.67","391","","f","","","","","","","","","","","","","key","f","16.666000000000594","960","536","f","true","img/H_ambi40.png","生人","prac",""
"","","","","","html-keyboard-response","150","633879","0.0-7.2-0.2-1.67","null","<span style='color:GreenYellow; font-size: 70px;'>正确! </span>","null","","","","","","","","","","","","","","","","","","","","","","","feedback_test"
"","","","","","psychophysics","151","635227","0.0-7.2-0.2-0.68","347","","j","","","","","","","","","","","","","key","j","16.66600000000035","960","536","f","false","img/S_ambi40.png","朋友","prac",""
"","","","","","html-keyboard-response","152","635729","0.0-7.2-0.2-1.68","null","<span style='color:red; font-size: 70px;'>错误! </span>","null","","","","","","","","","","","","","","","","","","","","","","","feedback_test"
"","","","","","psychophysics","153","637027","0.0-7.2-0.2-0.69","297","","j","","","","","","","","","","","","","key","j","16.666000000000086","960","536","f","false","img/T_ambi40.png","をる","prac",""
"","","","","","html-keyboard-response","154","637529","0.0-7.2-0.2-1.69","null","<span style='color:red; font-size: 70px;'>错误! </span>","null","","","","","","","","","","","","","","","","","","","","","","","feedback_test"
"","","","","","psychophysics","155","638867","0.0-7.2-0.2-0.70","320","","f","","","","","","","","","","","","","key","f","16.879666666665937","960","536","f","true","img/C_ambi40.png","自我","prac",""
"","","","","","html-keyboard-response","156","639369","0.0-7.2-0.2-1.70","null","<span style='color:GreenYellow; font-size: 70px;'>正确! </span>","null","","","","","","","","","","","","","","","","","","","","","","","feedback_test"
"","","","","","psychophysics","157","640651","0.0-7.2-0.2-0.71","277","","f","","","","","","","","","","","","","key","f","16.66599999999938","960","536","j","false","img/H_ambi40.png","自我","prac",""
"","","","","","html-keyboard-response","158","641154","0.0-7.2-0.2-1.71","null","<span style='color:red; font-size: 70px;'>错误! </span>","null","","","","","","","","","","","","","","","","","","","","","","","feedback_test"
"","","","","","psychophysics","159","642310","0.0-7.2-0.2-0.72","149","","j","","","","","","","","","","","","","key","j","16.66599999999915","960","536","f","false","img/S_ambi40.png","自我","prac",""
"","","","","","html-keyboard-response","160","642813","0.0-7.2-0.2-1.72","null","<span style='color:yellow; font-size: 70px;'>过快! </span>","null","","","","","","","","","","","","","","","","","","","","","","","feedback_test"
"","","","","","psychophysics","161","644151","0.0-7.2-0.2-0.73","337","","f","","","","","","","","","","","","","key","f","16.66599999999928","960","536","f","true","img/T_ambi40.png","をる","prac",""
"","","","","","html-keyboard-response","162","644652","0.0-7.2-0.2-1.73","null","<span style='color:GreenYellow; font-size: 70px;'>正确! </span>","null","","","","","","","","","","","","","","","","","","","","","","","feedback_test"
"","","","","","psychophysics","163","645965","0.0-7.2-0.2-0.74","305","","j","","","","","","","","","","","","","key","j","16.666000000000086","960","536","f","false","img/T_ambi40.png","をる","prac",""
"","","","","","html-keyboard-response","164","646466","0.0-7.2-0.2-1.74","null","<span style='color:red; font-size: 70px;'>错误! </span>","null","","","","","","","","","","","","","","","","","","","","","","","feedback_test"
"","","","","","psychophysics","165","647859","0.0-7.2-0.2-0.75","391","","f","","","","","","","","","","","","","key","f","16.666000000000594","960","536","f","true","img/C_ambi40.png","生人","prac",""
"","","","","","html-keyboard-response","166","648361","0.0-7.2-0.2-1.75","null","<span style='color:GreenYellow; font-size: 70px;'>正确! </span>","null","","","","","","","","","","","","","","","","","","","","","","","feedback_test"
"","","","","","psychophysics","167","649635","0.0-7.2-0.2-0.76","273","","f","","","","","","","","","","","","","key","f","16.66600000000093","960","536","j","false","img/H_ambi40.png","自我","prac",""
"","","","","","html-keyboard-response","168","650136","0.0-7.2-0.2-1.76","null","<span style='color:red; font-size: 70px;'>错误! </span>","null","","","","","","","","","","","","","","","","","","","","","","","feedback_test"
"","","","","","psychophysics","169","651419","0.0-7.2-0.2-0.77","277","","j","","","","","","","","","","","","","key","j","16.66599999999938","960","536","j","true","img/S_ambi40.png","生人","prac",""
"","","","","","html-keyboard-response","170","651921","0.0-7.2-0.2-1.77","null","<span style='color:GreenYellow; font-size: 70px;'>正确! </span>","null","","","","","","","","","","","","","","","","","","","","","","","feedback_test"
"","","","","","psychophysics","171","653297","0.0-7.2-0.2-0.78","366","","f","","","","","","","","","","","","","key","f","16.665999999998895","960","536","f","true","img/H_ambi40.png","朋友","prac",""
"","","","","","html-keyboard-response","172","653798","0.0-7.2-0.2-1.78","null","<span style='color:GreenYellow; font-size: 70px;'>正确! </span>","null","","","","","","","","","","","","","","","","","","","","","","","feedback_test"
"","","","","","psychophysics","173","655134","0.0-7.2-0.2-0.79","333","","j","","","","","","","","","","","","","key","j","16.666000000000754","960","536","f","false","img/T_ambi40.png","をる","prac",""
"","","","","","html-keyboard-response","174","655636","0.0-7.2-0.2-1.79","null","<span style='color:red; font-size: 70px;'>错误! </span>","null","","","","","","","","","","","","","","","","","","","","","","","feedback_test"
"","","","","","psychophysics","175","656899","0.0-7.2-0.2-0.80","259","","f","","","","","","","","","","","","","key","f","16.665999999999798","960","536","j","false","img/C_ambi40.png","朋友","prac",""
"","","","","","html-keyboard-response","176","657401","0.0-7.2-0.2-1.80","null","<span style='color:red; font-size: 70px;'>错误! </span>","null","","","","","","","","","","","","","","","","","","","","","","","feedback_test"
"","","","","","psychophysics","177","658545","0.0-7.2-0.2-0.81","143","","j","","","","","","","","","","","","","key","j","16.66599999999961","960","536","j","true","img/H_ambi40.png","自我","prac",""
"","","","","","html-keyboard-response","178","659046","0.0-7.2-0.2-1.81","null","<span style='color:yellow; font-size: 70px;'>过快! </span>","null","","","","","","","","","","","","","","","","","","","","","","","feedback_test"
"","","","","","psychophysics","179","660460","0.0-7.2-0.2-0.82","411","","f","","","","","","","","","","","","","key","f","16.66600000000021","960","536","f","true","img/H_ambi40.png","生人","prac",""
"","","","","","html-keyboard-response","180","660962","0.0-7.2-0.2-1.82","null","<span style='color:GreenYellow; font-size: 70px;'>正确! </span>","null","","","","","","","","","","","","","","","","","","","","","","","feedback_test"
"","","","","","psychophysics","181","662763","0.0-7.2-0.2-0.83","800","","j","","","","","","","","","","","","","key","j","16.665999999999887","960","536","f","false","img/T_ambi40.png","をる","prac",""
"","","","","","html-keyboard-response","182","663265","0.0-7.2-0.2-1.83","null","<span style='color:red; font-size: 70px;'>错误! </span>","null","","","","","","","","","","","","","","","","","","","","","","","feedback_test"
"","","","","","psychophysics","183","664547","0.0-7.2-0.2-0.84","281","","f","","","","","","","","","","","","","key","f","16.66599999999897","960","536","j","false","img/S_ambi40.png","生人","prac",""
"","","","","","html-keyboard-response","184","665048","0.0-7.2-0.2-1.84","null","<span style='color:red; font-size: 70px;'>错误! </span>","null","","","","","","","","","","","","","","","","","","","","","","","feedback_test"
"","","","","","psychophysics","185","666359","0.0-7.2-0.2-0.85","309","","f","","","","","","","","","","","","","key","f","16.665999999999677","960","536","f","true","img/S_ambi40.png","朋友","prac",""
"","","","","","html-keyboard-response","186","666861","0.0-7.2-0.2-1.85","null","<span style='color:GreenYellow; font-size: 70px;'>正确! </span>","null","","","","","","","","","","","","","","","","","","","","","","","feedback_test"
"","","","","","psychophysics","187","668218","0.0-7.2-0.2-0.86","340","","j","","","","","","","","","","","","","key","j","16.87696202531681","960","536","f","false","img/C_ambi40.png","生人","prac",""
"","","","","","html-keyboard-response","188","668719","0.0-7.2-0.2-1.86","null","<span style='color:red; font-size: 70px;'>错误! </span>","null","","","","","","","","","","","","","","","","","","","","","","","feedback_test"
"","","","","","psychophysics","189","670051","0.0-7.2-0.2-0.87","322","","f","","","","","","","","","","","","","key","f","16.665999999999677","960","536","f","true","img/H_ambi40.png","朋友","prac",""
"","","","","","html-keyboard-response","190","670553","0.0-7.2-0.2-1.87","null","<span style='color:GreenYellow; font-size: 70px;'>正确! </span>","null","","","","","","","","","","","","","","","","","","","","","","","feedback_test"
"","","","","","psychophysics","191","671674","0.0-7.2-0.2-0.88","118","","j","","","","","","","","","","","","","key","j","16.666000000000086","960","536","j","true","img/H_ambi40.png","自我","prac",""
"","","","","","html-keyboard-response","192","672176","0.0-7.2-0.2-1.88","null","<span style='color:yellow; font-size: 70px;'>过快! </span>","null","","","","","","","","","","","","","","","","","","","","","","","feedback_test"
"","","","","","psychophysics","193","673515","0.0-7.2-0.2-0.89","337","","f","","","","","","","","","","","","","key","f","16.666000000000754","960","536","f","true","img/T_ambi40.png","をる","prac",""
"","","","","","html-keyboard-response","194","674016","0.0-7.2-0.2-1.89","null","<span style='color:GreenYellow; font-size: 70px;'>正确! </span>","null","","","","","","","","","","","","","","","","","","","","","","","feedback_test"
"","","","","","psychophysics","195","675434","0.0-7.2-0.2-0.90","416","","j","","","","","","","","","","","","","key","j","16.66600000000021","960","536","f","false","img/T_ambi40.png","をる","prac",""
"","","","","","html-keyboard-response","196","675935","0.0-7.2-0.2-1.90","null","<span style='color:red; font-size: 70px;'>错误! </span>","null","","","","","","","","","","","","","","","","","","","","","","","feedback_test"
"","","","","","psychophysics","197","677324","0.0-7.2-0.2-0.91","385","","f","","","","","","","","","","","","","key","f","16.665999999999567","960","536","f","true","img/S_ambi40.png","自我","prac",""
"","","","","","html-keyboard-response","198","677825","0.0-7.2-0.2-1.91","null","<span style='color:GreenYellow; font-size: 70px;'>正确! </span>","null","","","","","","","","","","","","","","","","","","","","","","","feedback_test"
"","","","","","psychophysics","199","679114","0.0-7.2-0.2-0.92","288","","f","","","","","","","","","","","","","key","f","16.6660000000005","960","536","f","true","img/T_ambi40.png","をる","prac",""
"","","","","","html-keyboard-response","200","679617","0.0-7.2-0.2-1.92","null","<span style='color:GreenYellow; font-size: 70px;'>正确! </span>","null","","","","","","","","","","","","","","","","","","","","","","","feedback_test"
"","","","","","psychophysics","201","680962","0.0-7.2-0.2-0.93","336","","j","","","","","","","","","","","","","key","j","16.66599999999928","960","536","f","false","img/C_ambi40.png","自我","prac",""
"","","","","","html-keyboard-response","202","681463","0.0-7.2-0.2-1.93","null","<span style='color:red; font-size: 70px;'>错误! </span>","null","","","","","","","","","","","","","","","","","","","","","","","feedback_test"
"","","","","","psychophysics","203","682807","0.0-7.2-0.2-0.94","342","","j","","","","","","","","","","","","","key","j","16.665999999998895","960","536","j","true","img/C_ambi40.png","朋友","prac",""
"","","","","","html-keyboard-response","204","683309","0.0-7.2-0.2-1.94","null","<span style='color:GreenYellow; font-size: 70px;'>正确! </span>","null","","","","","","","","","","","","","","","","","","","","","","","feedback_test"
"","","","","","psychophysics","205","684596","0.0-7.2-0.2-0.95","285","","f","","","","","","","","","","","","","key","f","16.6660000000005","960","536","j","false","img/S_ambi40.png","生人","prac",""
"","","","","","html-keyboard-response","206","685097","0.0-7.2-0.2-1.95","null","<span style='color:red; font-size: 70px;'>错误! </span>","null","","","","","","","","","","","","","","","","","","","","","","","feedback_test"
"","","","","","html-keyboard-response","207","694747","0.0-7.2-1.2-0.2","9647","<style>.context{color:white; font-size: 35px; line-height:40px}</style>                          <div><p class='context'>您正确回答了53% 的试次。</p ><p class='context'>您的平均反应时为324毫秒。</p >"," ","","","","","","","","","","","","","","","","","","","","","","",""
"","","","","","instructions","208","718357","0.0-7.2-1.2-1.2","23606","","","","","","","","","","","","","","[{""page_index"":0,""viewing_time"":3776},{""page_index"":1,""viewing_time"":18349},{""page_index"":2,""viewing_time"":1480}]","","","","","","","","","","",""
"","","","","","psychophysics","209","719931","0.0-7.3-0.3-0.96","570","","f","","","","","","","","","","","","","key","f","16.66599999999963","960","536","j","false","img/C_ambi40.png","朋友","prac",""
"","","","","","html-keyboard-response","210","720435","0.0-7.3-0.3-1.96","null","<span style='color:red; font-size: 70px;'>错误! </span>","null","","","","","","","","","","","","","","","","","","","","","","","feedback_test"
"","","","","","psychophysics","211","721847","0.0-7.3-0.3-0.97","406","","j","","","","","","","","","","","","","key","j","16.66599999999919","960","536","f","false","img/C_ambi40.png","生人","prac",""
"","","","","","html-keyboard-response","212","722348","0.0-7.3-0.3-1.97","null","<span style='color:red; font-size: 70px;'>错误! </span>","null","","","","","","","","","","","","","","","","","","","","","","","feedback_test"
"","","","","","psychophysics","213","723699","0.0-7.3-0.3-0.98","345","","f","","","","","","","","","","","","","key","f","16.66600000000035","960","536","f","true","img/T_ambi40.png","をる","prac",""
"","","","","","html-keyboard-response","214","724200","0.0-7.3-0.3-1.98","null","<span style='color:GreenYellow; font-size: 70px;'>正确! </span>","null","","","","","","","","","","","","","","","","","","","","","","","feedback_test"
"","","","","","psychophysics","215","725491","0.0-7.3-0.3-0.99","290","","f","","","","","","","","","","","","","key","f","16.6660000000005","960","536","f","true","img/T_ambi40.png","をる","prac",""
"","","","","","html-keyboard-response","216","725992","0.0-7.3-0.3-1.99","null","<span style='color:GreenYellow; font-size: 70px;'>正确! </span>","null","","","","","","","","","","","","","","","","","","","","","","","feedback_test"
"","","","","","psychophysics","217","727315","0.0-7.3-0.3-0.100","322","","j","","","","","","","","","","","","","key","j","16.66600000000117","960","536","j","true","img/S_ambi40.png","生人","prac",""
"","","","","","html-keyboard-response","218","727816","0.0-7.3-0.3-1.100","null","<span style='color:GreenYellow; font-size: 70px;'>正确! </span>","null","","","","","","","","","","","","","","","","","","","","","","","feedback_test"
"","","","","","psychophysics","219","729150","0.0-7.3-0.3-0.101","322","","f","","","","","","","","","","","","","key","f","16.66600000000117","960","536","f","true","img/C_ambi40.png","自我","prac",""
"","","","","","html-keyboard-response","220","729652","0.0-7.3-0.3-1.101","null","<span style='color:GreenYellow; font-size: 70px;'>正确! </span>","null","","","","","","","","","","","","","","","","","","","","","","","feedback_test"
"","","","","","psychophysics","221","730974","0.0-7.3-0.3-0.102","315","","j","","","","","","","","","","","","","key","j","16.665999999999677","960","536","f","false","img/H_ambi40.png","生人","prac",""
"","","","","","html-keyboard-response","222","731476","0.0-7.3-0.3-1.102","null","<span style='color:red; font-size: 70px;'>错误! </span>","null","","","","","","","","","","","","","","","","","","","","","","","feedback_test"
"","","","","","psychophysics","223","732761","0.0-7.3-0.3-0.103","284","","j","","","","","","","","","","","","","key","j","16.6660000000005","960","536","f","false","img/S_ambi40.png","自我","prac",""
"","","","","","html-keyboard-response","224","733263","0.0-7.3-0.3-1.103","null","<span style='color:red; font-size: 70px;'>错误! </span>","null","","","","","","","","","","","","","","","","","","","","","","","feedback_test"
"","","","","","psychophysics","225","734547","0.0-7.3-0.3-0.104","282","","f","","","","","","","","","","","","","key","f","16.6660000000005","960","536","f","true","img/H_ambi40.png","朋友","prac",""
"","","","","","html-keyboard-response","226","735048","0.0-7.3-0.3-1.104","null","<span style='color:GreenYellow; font-size: 70px;'>正确! </span>","null","","","","","","","","","","","","","","","","","","","","","","","feedback_test"
"","","","","","psychophysics","227","736341","0.0-7.3-0.3-0.105","292","","j","","","","","","","","","","","","","key","j","16.666000000000086","960","536","j","true","img/S_ambi40.png","生人","prac",""
"","","","","","html-keyboard-response","228","736842","0.0-7.3-0.3-1.105","null","<span style='color:GreenYellow; font-size: 70px;'>正确! </span>","null","","","","","","","","","","","","","","","","","","","","","","","feedback_test"
"","","","","","psychophysics","229","738143","0.0-7.3-0.3-0.106","300","","f","","","","","","","","","","","","","key","f","16.666000000000086","960","536","f","true","img/T_ambi40.png","をる","prac",""
"","","","","","html-keyboard-response","230","738646","0.0-7.3-0.3-1.106","null","<span style='color:GreenYellow; font-size: 70px;'>正确! </span>","null","","","","","","","","","","","","","","","","","","","","","","","feedback_test"
"","","","","","psychophysics","231","739980","0.0-7.3-0.3-0.107","333","","f","","","","","","","","","","","","","key","f","16.66599999999928","960","536","j","false","img/H_ambi40.png","自我","prac",""
"","","","","","html-keyboard-response","232","740482","0.0-7.3-0.3-1.107","null","<span style='color:red; font-size: 70px;'>错误! </span>","null","","","","","","","","","","","","","","","","","","","","","","","feedback_test"
"","","","","","psychophysics","233","741675","0.0-7.3-0.3-0.108","191","","j","","","","","","","","","","","","","key","j","16.66599999999949","960","536","j","true","img/C_ambi40.png","朋友","prac",""
"","","","","","html-keyboard-response","234","742187","0.0-7.3-0.3-1.108","null","<span style='color:yellow; font-size: 70px;'>过快! </span>","null","","","","","","","","","","","","","","","","","","","","","","","feedback_test"
"","","","","","psychophysics","235","743580","0.0-7.3-0.3-0.109","385","","j","","","","","","","","","","","","","key","j","16.665999999999567","960","536","j","true","img/H_ambi40.png","自我","prac",""
"","","","","","html-keyboard-response","236","744082","0.0-7.3-0.3-1.109","null","<span style='color:GreenYellow; font-size: 70px;'>正确! </span>","null","","","","","","","","","","","","","","","","","","","","","","","feedback_test"
"","","","","","psychophysics","237","745427","0.0-7.3-0.3-0.110","344","","j","","","","","","","","","","","","","key","j","16.665999999998895","960","536","f","false","img/T_ambi40.png","をる","prac",""
"","","","","","html-keyboard-response","238","745929","0.0-7.3-0.3-1.110","null","<span style='color:red; font-size: 70px;'>错误! </span>","null","","","","","","","","","","","","","","","","","","","","","","","feedback_test"
"","","","","","psychophysics","239","747259","0.0-7.3-0.3-0.111","329","","f","","","","","","","","","","","","","key","f","16.66599999999928","960","536","f","true","img/S_ambi40.png","朋友","prac",""
"","","","","","html-keyboard-response","240","747761","0.0-7.3-0.3-1.111","null","<span style='color:GreenYellow; font-size: 70px;'>正确! </span>","null","","","","","","","","","","","","","","","","","","","","","","","feedback_test"
"","","","","","psychophysics","241","749101","0.0-7.3-0.3-0.112","337","","j","","","","","","","","","","","","","key","j","16.66599999999928","960","536","f","false","img/T_ambi40.png","をる","prac",""
"","","","","","html-keyboard-response","242","749602","0.0-7.3-0.3-1.112","null","<span style='color:red; font-size: 70px;'>错误! </span>","null","","","","","","","","","","","","","","","","","","","","","","","feedback_test"
"","","","","","psychophysics","243","750923","0.0-7.3-0.3-0.113","317","","f","","","","","","","","","","","","","key","f","16.665999999999677","960","536","f","true","img/T_ambi40.png","をる","prac",""
"","","","","","html-keyboard-response","244","751425","0.0-7.3-0.3-1.113","null","<span style='color:GreenYellow; font-size: 70px;'>正确! </span>","null","","","","","","","","","","","","","","","","","","","","","","","feedback_test"
"","","","","","psychophysics","245","752765","0.0-7.3-0.3-0.114","337","","f","","","","","","","","","","","","","key","f","16.666000000000754","960","536","j","false","img/S_ambi40.png","生人","prac",""
"","","","","","html-keyboard-response","246","753266","0.0-7.3-0.3-1.114","null","<span style='color:red; font-size: 70px;'>错误! </span>","null","","","","","","","","","","","","","","","","","","","","","","","feedback_test"
"","","","","","psychophysics","247","754624","0.0-7.3-0.3-0.115","356","","j","","","","","","","","","","","","","key","j","16.665999999998895","960","536","j","true","img/C_ambi40.png","朋友","prac",""
"","","","","","html-keyboard-response","248","755126","0.0-7.3-0.3-1.115","null","<span style='color:GreenYellow; font-size: 70px;'>正确! </span>","null","","","","","","","","","","","","","","","","","","","","","","","feedback_test"
"","","","","","psychophysics","249","756485","0.0-7.3-0.3-0.116","346","","f","","","","","","","","","","","","","key","f","16.66600000000035","960","536","f","true","img/H_ambi40.png","朋友","prac",""
"","","","","","html-keyboard-response","250","756987","0.0-7.3-0.3-1.116","null","<span style='color:GreenYellow; font-size: 70px;'>正确! </span>","null","","","","","","","","","","","","","","","","","","","","","","","feedback_test"
"","","","","","psychophysics","251","758363","0.0-7.3-0.3-0.117","373","","j","","","","","","","","","","","","","key","j","16.665999999999954","960","536","j","true","img/S_ambi40.png","生人","prac",""
"","","","","","html-keyboard-response","252","758865","0.0-7.3-0.3-1.117","null","<span style='color:GreenYellow; font-size: 70px;'>正确! </span>","null","","","","","","","","","","","","","","","","","","","","","","","feedback_test"
"","","","","","psychophysics","253","760205","0.0-7.3-0.3-0.118","338","","f","","","","","","","","","","","","","key","f","16.66600000000035","960","536","f","true","img/C_ambi40.png","生人","prac",""
"","","","","","html-keyboard-response","254","760706","0.0-7.3-0.3-1.118","null","<span style='color:GreenYellow; font-size: 70px;'>正确! </span>","null","","","","","","","","","","","","","","","","","","","","","","","feedback_test"
"","","","","","psychophysics","255","761945","0.0-7.3-0.3-0.119","237","","j","","","","","","","","","","","","","key","j","16.66600000000023","960","536","j","true","img/H_ambi40.png","自我","prac",""
"","","","","","html-keyboard-response","256","762446","0.0-7.3-0.3-1.119","null","<span style='color:GreenYellow; font-size: 70px;'>正确! </span>","null","","","","","","","","","","","","","","","","","","","","","","","feedback_test"
"","","","","","psychophysics","257","763623","0.0-7.3-0.3-0.120","175","","f","","","","","","","","","","","","","key","f","16.665999999999933","960","536","f","true","img/H_ambi40.png","生人","prac",""
"","","","","","html-keyboard-response","258","764125","0.0-7.3-0.3-1.120","null","<span style='color:yellow; font-size: 70px;'>过快! </span>","null","","","","","","","","","","","","","","","","","","","","","","","feedback_test"
"","","","","","psychophysics","259","765413","0.0-7.3-0.3-0.121","285","","j","","","","","","","","","","","","","key","j","16.66599999999897","960","536","f","false","img/C_ambi40.png","自我","prac",""
"","","","","","html-keyboard-response","260","765915","0.0-7.3-0.3-1.121","null","<span style='color:red; font-size: 70px;'>错误! </span>","null","","","","","","","","","","","","","","","","","","","","","","","feedback_test"
"","","","","","psychophysics","261","767261","0.0-7.3-0.3-0.122","344","","f","","","","","","","","","","","","","key","f","16.666000000000754","960","536","f","true","img/S_ambi40.png","自我","prac",""
"","","","","","html-keyboard-response","262","767763","0.0-7.3-0.3-1.122","null","<span style='color:GreenYellow; font-size: 70px;'>正确! </span>","null","","","","","","","","","","","","","","","","","","","","","","","feedback_test"
"","","","","","psychophysics","263","769048","0.0-7.3-0.3-0.123","283","","f","","","","","","","","","","","","","key","f","16.6660000000005","960","536","j","false","img/H_ambi40.png","自我","prac",""
"","","","","","html-keyboard-response","264","769550","0.0-7.3-0.3-1.123","null","<span style='color:red; font-size: 70px;'>错误! </span>","null","","","","","","","","","","","","","","","","","","","","","","","feedback_test"
"","","","","","psychophysics","265","770748","0.0-7.3-0.3-0.124","192","","j","","","","","","","","","","","","","key","j","16.90753623188399","960","536","j","true","img/C_ambi40.png","朋友","prac",""
"","","","","","html-keyboard-response","266","771250","0.0-7.3-0.3-1.124","null","<span style='color:yellow; font-size: 70px;'>过快! </span>","null","","","","","","","","","","","","","","","","","","","","","","","feedback_test"
"","","","","","psychophysics","267","772731","0.0-7.3-0.3-0.125","475","","f","","","","","","","","","","","","","key","f","16.666000000000448","960","536","f","true","img/T_ambi40.png","をる","prac",""
"","","","","","html-keyboard-response","268","773232","0.0-7.3-0.3-1.125","null","<span style='color:GreenYellow; font-size: 70px;'>正确! </span>","null","","","","","","","","","","","","","","","","","","","","","","","feedback_test"
"","","","","","psychophysics","269","774611","0.0-7.3-0.3-0.126","372","","j","","","","","","","","","","","","","key","j","16.665999999999954","960","536","f","false","img/S_ambi40.png","朋友","prac",""
"","","","","","html-keyboard-response","270","775113","0.0-7.3-0.3-1.126","null","<span style='color:red; font-size: 70px;'>错误! </span>","null","","","","","","","","","","","","","","","","","","","","","","","feedback_test"
"","","","","","psychophysics","271","776457","0.0-7.3-0.3-0.127","342","","j","","","","","","","","","","","","","key","j","16.66600000000035","960","536","f","false","img/T_ambi40.png","をる","prac",""
"","","","","","html-keyboard-response","272","776958","0.0-7.3-0.3-1.127","null","<span style='color:red; font-size: 70px;'>错误! </span>","null","","","","","","","","","","","","","","","","","","","","","","","feedback_test"
"","","","","","html-keyboard-response","273","784859","0.0-7.3-1.3-0.3","7899","<style>.context{color:white; font-size: 35px; line-height:40px}</style>                          <div><p class='context'>您正确回答了63% 的试次。</p ><p class='context'>您的平均反应时为311毫秒。</p >"," ","","","","","","","","","","","","","","","","","","","","","","",""
"","","","","","instructions","274","789572","0.0-7.3-1.3-1.3","4710","","","","","","","","","","","","","","[{""page_index"":0,""viewing_time"":2334},{""page_index"":1,""viewing_time"":1223},{""page_index"":2,""viewing_time"":1153}]","","","","","","","","","","",""
"","","","","","psychophysics","275","790964","0.0-7.4-0.4-0.128","387","","f","","","","","","","","","","","","","key","f","16.665999999999567","960","536","f","true","img/H_ambi40.png","生人","prac",""
"","","","","","html-keyboard-response","276","791468","0.0-7.4-0.4-1.128","null","<span style='color:GreenYellow; font-size: 70px;'>正确! </span>","null","","","","","","","","","","","","","","","","","","","","","","","feedback_test"
"","","","","","psychophysics","277","792792","0.0-7.4-0.4-0.129","317","","f","","","","","","","","","","","","","key","f","16.665999999999677","960","536","f","true","img/C_ambi40.png","自我","prac",""
"","","","","","html-keyboard-response","278","793293","0.0-7.4-0.4-1.129","null","<span style='color:GreenYellow; font-size: 70px;'>正确! </span>","null","","","","","","","","","","","","","","","","","","","","","","","feedback_test"
"","","","","","psychophysics","279","794595","0.0-7.4-0.4-0.130","301","","f","","","","","","","","","","","","","key","f","16.666000000000086","960","536","j","false","img/H_ambi40.png","自我","prac",""
"","","","","","html-keyboard-response","280","795096","0.0-7.4-0.4-1.130","null","<span style='color:red; font-size: 70px;'>错误! </span>","null","","","","","","","","","","","","","","","","","","","","","","","feedback_test"
"","","","","","psychophysics","281","796427","0.0-7.4-0.4-0.131","330","","j","","","","","","","","","","","","","key","j","16.666000000000754","960","536","f","false","img/S_ambi40.png","朋友","prac",""
"","","","","","html-keyboard-response","282","796929","0.0-7.4-0.4-1.131","null","<span style='color:red; font-size: 70px;'>错误! </span>","null","","","","","","","","","","","","","","","","","","","","","","","feedback_test"
"","","","","","psychophysics","283","798068","0.0-7.4-0.4-0.132","137","","f","","","","","","","","","","","","","key","f","16.66599999999961","960","536","f","true","img/S_ambi40.png","自我","prac",""
"","","","","","html-keyboard-response","284","798570","0.0-7.4-0.4-1.132","null","<span style='color:yellow; font-size: 70px;'>过快! </span>","null","","","","","","","","","","","","","","","","","","","","","","","feedback_test"
"","","","","","psychophysics","285","799994","0.0-7.4-0.4-0.133","420","","f","","","","","","","","","","","","","key","f","16.66600000000021","960","536","f","true","img/C_ambi40.png","生人","prac",""
"","","","","","html-keyboard-response","286","800495","0.0-7.4-0.4-1.133","null","<span style='color:GreenYellow; font-size: 70px;'>正确! </span>","null","","","","","","","","","","","","","","","","","","","","","","","feedback_test"
"","","","","","psychophysics","287","801909","0.0-7.4-0.4-0.134","412","","j","","","","","","","","","","","","","key","j","16.66600000000021","960","536","f","false","img/T_ambi40.png","をる","prac",""
"","","","","","html-keyboard-response","288","802411","0.0-7.4-0.4-1.134","null","<span style='color:red; font-size: 70px;'>错误! </span>","null","","","","","","","","","","","","","","","","","","","","","","","feedback_test"
"","","","","","psychophysics","289","803740","0.0-7.4-0.4-0.135","327","","f","","","","","","","","","","","","","key","f","16.66599999999928","960","536","f","true","img/T_ambi40.png","をる","prac",""
"","","","","","html-keyboard-response","290","804242","0.0-7.4-0.4-1.135","null","<span style='color:GreenYellow; font-size: 70px;'>正确! </span>","null","","","","","","","","","","","","","","","","","","","","","","","feedback_test"
"","","","","","psychophysics","291","805563","0.0-7.4-0.4-0.136","320","","f","","","","","","","","","","","","","key","f","16.66600000000117","960","536","f","true","img/T_ambi40.png","をる","prac",""
"","","","","","html-keyboard-response","292","806064","0.0-7.4-0.4-1.136","null","<span style='color:GreenYellow; font-size: 70px;'>正确! </span>","null","","","","","","","","","","","","","","","","","","","","","","","feedback_test"
"","","","","","psychophysics","293","807395","0.0-7.4-0.4-0.137","323","","j","","","","","","","","","","","","","key","j","16.66600000000117","960","536","j","true","img/H_ambi40.png","自我","prac",""
"","","","","","html-keyboard-response","294","807896","0.0-7.4-0.4-1.137","null","<span style='color:GreenYellow; font-size: 70px;'>正确! </span>","null","","","","","","","","","","","","","","","","","","","","","","","feedback_test"
"","","","","","psychophysics","295","809223","0.0-7.4-0.4-0.138","325","","f","","","","","","","","","","","","","key","f","16.666000000000754","960","536","j","false","img/S_ambi40.png","生人","prac",""
"","","","","","html-keyboard-response","296","809724","0.0-7.4-0.4-1.138","null","<span style='color:red; font-size: 70px;'>错误! </span>","null","","","","","","","","","","","","","","","","","","","","","","","feedback_test"
"","","","","","psychophysics","297","811131","0.0-7.4-0.4-0.139","406","","j","","","","","","","","","","","","","key","j","16.666000000000594","960","536","j","true","img/S_ambi40.png","生人","prac",""
"","","","","","html-keyboard-response","298","811633","0.0-7.4-0.4-1.139","null","<span style='color:GreenYellow; font-size: 70px;'>正确! </span>","null","","","","","","","","","","","","","","","","","","","","","","","feedback_test"
"","","","","","psychophysics","299","812955","0.0-7.4-0.4-0.140","303","","f","","","","","","","","","","","","","key","f","16.665999999999677","960","536","f","true","img/H_ambi40.png","朋友","prac",""
"","","","","","html-keyboard-response","300","813456","0.0-7.4-0.4-1.140","null","<span style='color:GreenYellow; font-size: 70px;'>正确! </span>","null","","","","","","","","","","","","","","","","","","","","","","","feedback_test"
"","","","","","psychophysics","301","814723","0.0-7.4-0.4-0.141","264","","f","","","","","","","","","","","","","key","f","16.66599999999938","960","536","j","false","img/C_ambi40.png","朋友","prac",""
"","","","","","html-keyboard-response","302","815225","0.0-7.4-0.4-1.141","null","<span style='color:red; font-size: 70px;'>错误! </span>","null","","","","","","","","","","","","","","","","","","","","","","","feedback_test"
"","","","","","psychophysics","303","816555","0.0-7.4-0.4-0.142","328","","j","","","","","","","","","","","","","key","j","16.66599999999928","960","536","j","true","img/C_ambi40.png","朋友","prac",""
"","","","","","html-keyboard-response","304","817057","0.0-7.4-0.4-1.142","null","<span style='color:GreenYellow; font-size: 70px;'>正确! </span>","null","","","","","","","","","","","","","","","","","","","","","","","feedback_test"
"","","","","","psychophysics","305","818375","0.0-7.4-0.4-0.143","317","","j","","","","","","","","","","","","","key","j","16.665999999999677","960","536","f","false","img/T_ambi40.png","をる","prac",""
"","","","","","html-keyboard-response","306","818877","0.0-7.4-0.4-1.143","null","<span style='color:red; font-size: 70px;'>错误! </span>","null","","","","","","","","","","","","","","","","","","","","","","","feedback_test"
"","","","","","psychophysics","307","820237","0.0-7.4-0.4-0.144","357","","f","","","","","","","","","","","","","key","f","16.665999999999954","960","536","j","false","img/S_ambi40.png","生人","prac",""
"","","","","","html-keyboard-response","308","820738","0.0-7.4-0.4-1.144","null","<span style='color:red; font-size: 70px;'>错误! </span>","null","","","","","","","","","","","","","","","","","","","","","","","feedback_test"
"","","","","","psychophysics","309","822121","0.0-7.4-0.4-0.145","382","","f","","","","","","","","","","","","","key","f","16.665999999999567","960","536","f","true","img/C_ambi40.png","自我","prac",""
"","","","","","html-keyboard-response","310","822622","0.0-7.4-0.4-1.145","null","<span style='color:GreenYellow; font-size: 70px;'>正确! </span>","null","","","","","","","","","","","","","","","","","","","","","","","feedback_test"
"","","","","","psychophysics","311","823956","0.0-7.4-0.4-0.146","318","","f","","","","","","","","","","","","","key","f","16.666000000000754","960","536","f","true","img/C_ambi40.png","生人","prac",""
"","","","","","html-keyboard-response","312","824457","0.0-7.4-0.4-1.146","null","<span style='color:GreenYellow; font-size: 70px;'>正确! </span>","null","","","","","","","","","","","","","","","","","","","","","","","feedback_test"
"","","","","","psychophysics","313","825795","0.0-7.4-0.4-0.147","336","","j","","","","","","","","","","","","","key","j","16.666000000000754","960","536","f","false","img/H_ambi40.png","生人","prac",""
"","","","","","html-keyboard-response","314","826296","0.0-7.4-0.4-1.147","null","<span style='color:red; font-size: 70px;'>错误! </span>","null","","","","","","","","","","","","","","","","","","","","","","","feedback_test"
"","","","","","psychophysics","315","827405","0.0-7.4-0.4-0.148","107","","f","","","","","","","","","","","","","key","f","16.666000000000086","960","536","f","true","img/T_ambi40.png","をる","prac",""
"","","","","","html-keyboard-response","316","827907","0.0-7.4-0.4-1.148","null","<span style='color:yellow; font-size: 70px;'>过快! </span>","null","","","","","","","","","","","","","","","","","","","","","","","feedback_test"
"","","","","","psychophysics","317","829274","0.0-7.4-0.4-0.149","365","","f","","","","","","","","","","","","","key","f","16.665999999999954","960","536","f","true","img/T_ambi40.png","をる","prac",""
"","","","","","html-keyboard-response","318","829775","0.0-7.4-0.4-1.149","null","<span style='color:GreenYellow; font-size: 70px;'>正确! </span>","null","","","","","","","","","","","","","","","","","","","","","","","feedback_test"
"","","","","","psychophysics","319","831075","0.0-7.4-0.4-0.150","298","","j","","","","","","","","","","","","","key","j","16.666000000000086","960","536","f","false","img/T_ambi40.png","をる","prac",""
"","","","","","html-keyboard-response","320","831576","0.0-7.4-0.4-1.150","null","<span style='color:red; font-size: 70px;'>错误! </span>","null","","","","","","","","","","","","","","","","","","","","","","","feedback_test"
"","","","","","psychophysics","321","833060","0.0-7.4-0.4-0.151","482","","f","","","","","","","","","","","","","key","f","16.66599999999876","960","536","f","true","img/T_ambi40.png","をる","prac",""
"","","","","","html-keyboard-response","322","833562","0.0-7.4-0.4-1.151","null","<span style='color:GreenYellow; font-size: 70px;'>正确! </span>","null","","","","","","","","","","","","","","","","","","","","","","","feedback_test"
"","","","","","psychophysics","323","835270","0.0-7.4-0.4-0.152","707","","f","","","","","","","","","","","","","key","f","16.66600000000029","960","536","f","true","img/S_ambi40.png","自我","prac",""
"","","","","","html-keyboard-response","324","835772","0.0-7.4-0.4-1.152","null","<span style='color:GreenYellow; font-size: 70px;'>正确! </span>","null","","","","","","","","","","","","","","","","","","","","","","","feedback_test"
"","","","","","psychophysics","325","837131","0.0-7.4-0.4-0.153","356","","j","","","","","","","","","","","","","key","j","16.66600000000035","960","536","f","false","img/H_ambi40.png","朋友","prac",""
"","","","","","html-keyboard-response","326","837637","0.0-7.4-0.4-1.153","null","<span style='color:red; font-size: 70px;'>错误! </span>","null","","","","","","","","","","","","","","","","","","","","","","","feedback_test"
"","","","","","psychophysics","327","838947","0.0-7.4-0.4-0.154","308","","f","","","","","","","","","","","","","key","f","16.665999999998572","960","536","j","false","img/H_ambi40.png","自我","prac",""
"","","","","","html-keyboard-response","328","839448","0.0-7.4-0.4-1.154","null","<span style='color:red; font-size: 70px;'>错误! </span>","null","","","","","","","","","","","","","","","","","","","","","","","feedback_test"
"","","","","","psychophysics","329","840838","0.0-7.4-0.4-0.155","387","","f","","","","","","","","","","","","","key","f","16.666000000000988","960","536","j","false","img/C_ambi40.png","朋友","prac",""
"","","","","","html-keyboard-response","330","841339","0.0-7.4-0.4-1.155","null","<span style='color:red; font-size: 70px;'>错误! </span>","null","","","","","","","","","","","","","","","","","","","","","","","feedback_test"
"","","","","","psychophysics","331","842803","0.0-7.4-0.4-0.156","463","","f","","","","","","","","","","","","","key","f","16.666000000000448","960","536","j","false","img/C_ambi40.png","朋友","prac",""
"","","","","","html-keyboard-response","332","843305","0.0-7.4-0.4-1.156","null","<span style='color:red; font-size: 70px;'>错误! </span>","null","","","","","","","","","","","","","","","","","","","","","","","feedback_test"
"","","","","","psychophysics","333","844795","0.0-7.4-0.4-0.157","489","","j","","","","","","","","","","","","","key","j","16.666000000000086","960","536","j","true","img/S_ambi40.png","生人","prac",""
"","","","","","html-keyboard-response","334","845297","0.0-7.4-0.4-1.157","null","<span style='color:GreenYellow; font-size: 70px;'>正确! </span>","null","","","","","","","","","","","","","","","","","","","","","","","feedback_test"
"","","","","","psychophysics","335","846779","0.0-7.4-0.4-0.158","478","","f","","","","","","","","","","","","","key","f","16.665999999999112","960","536","f","true","img/S_ambi40.png","朋友","prac",""
"","","","","","html-keyboard-response","336","847281","0.0-7.4-0.4-1.158","null","<span style='color:GreenYellow; font-size: 70px;'>正确! </span>","null","","","","","","","","","","","","","","","","","","","","","","","feedback_test"
"","","","","","psychophysics","337","848804","0.0-7.4-0.4-0.159","513","","f","","","","","","","","","","","","","key","f","16.666000000000672","960","536","j","false","img/H_ambi40.png","自我","prac",""
"","","","","","html-keyboard-response","338","849306","0.0-7.4-0.4-1.159","null","<span style='color:red; font-size: 70px;'>错误! </span>","null","","","","","","","","","","","","","","","","","","","","","","","feedback_test"
"","","","","","html-keyboard-response","339","874315","0.0-7.4-1.4-0.4","25007","<style>.context{color:white; font-size: 35px; line-height:40px}</style>                          <div><p class='context'>您正确回答了56% 的试次。</p ><p class='context'>您的平均反应时为366毫秒。</p >"," ","","","","","","","","","","","","","","","","","","","","","","",""
"","","","","","instructions","340","897243","0.0-7.4-1.4-1.4","22924","","","","","","","","","","","","","","[{""page_index"":0,""viewing_time"":3141},{""page_index"":1,""viewing_time"":18535},{""page_index"":2,""viewing_time"":1248}]","","","","","","","","","","",""
"","","","","","psychophysics","341","898740","0.0-7.5-0.5-0.160","488","","j","","","","","","","","","","","","","key","j","16.665999999999727","960","536","f","false","img/S_ambi40.png","自我","prac",""
"","","","","","html-keyboard-response","342","899243","0.0-7.5-0.5-1.160","null","<span style='color:red; font-size: 70px;'>错误! </span>","null","","","","","","","","","","","","","","","","","","","","","","","feedback_test"
"","","","","","psychophysics","343","900653","0.0-7.5-0.5-0.161","409","","f","","","","","","","","","","","","","key","f","16.66600000000021","960","536","f","true","img/T_ambi40.png","をる","prac",""
"","","","","","html-keyboard-response","344","901155","0.0-7.5-0.5-1.161","null","<span style='color:GreenYellow; font-size: 70px;'>正确! </span>","null","","","","","","","","","","","","","","","","","","","","","","","feedback_test"
"","","","","","psychophysics","345","902518","0.0-7.5-0.5-0.162","359","","f","","","","","","","","","","","","","key","f","16.665999999999954","960","536","f","true","img/H_ambi40.png","朋友","prac",""
"","","","","","html-keyboard-response","346","903019","0.0-7.5-0.5-1.162","null","<span style='color:GreenYellow; font-size: 70px;'>正确! </span>","null","","","","","","","","","","","","","","","","","","","","","","","feedback_test"
"","","","","","psychophysics","347","904428","0.0-7.5-0.5-0.163","406","","j","","","","","","","","","","","","","key","j","16.66599999999919","960","536","f","false","img/T_ambi40.png","をる","prac",""
"","","","","","html-keyboard-response","348","904932","0.0-7.5-0.5-1.163","null","<span style='color:red; font-size: 70px;'>错误! </span>","null","","","","","","","","","","","","","","","","","","","","","","","feedback_test"
"","","","","","psychophysics","349","906306","0.0-7.5-0.5-0.164","372","","f","","","","","","","","","","","","","key","f","16.665999999999954","960","536","j","false","img/H_ambi40.png","自我","prac",""
"","","","","","html-keyboard-response","350","906808","0.0-7.5-0.5-1.164","null","<span style='color:red; font-size: 70px;'>错误! </span>","null","","","","","","","","","","","","","","","","","","","","","","","feedback_test"
"","","","","","psychophysics","351","908137","0.0-7.5-0.5-0.165","329","","f","","","","","","","","","","","","","key","f","16.666000000000754","960","536","j","false","img/S_ambi40.png","生人","prac",""
"","","","","","html-keyboard-response","352","908639","0.0-7.5-0.5-1.165","null","<span style='color:red; font-size: 70px;'>错误! </span>","null","","","","","","","","","","","","","","","","","","","","","","","feedback_test"
"","","","","","psychophysics","353","909922","0.0-7.5-0.5-0.166","282","","j","","","","","","","","","","","","","key","j","16.6660000000005","960","536","f","false","img/C_ambi40.png","自我","prac",""
"","","","","","html-keyboard-response","354","910424","0.0-7.5-0.5-1.166","null","<span style='color:red; font-size: 70px;'>错误! </span>","null","","","","","","","","","","","","","","","","","","","","","","","feedback_test"
"","","","","","psychophysics","355","911767","0.0-7.5-0.5-0.167","342","","f","","","","","","","","","","","","","key","f","16.66600000000035","960","536","f","true","img/C_ambi40.png","生人","prac",""
"","","","","","html-keyboard-response","356","912269","0.0-7.5-0.5-1.167","null","<span style='color:GreenYellow; font-size: 70px;'>正确! </span>","null","","","","","","","","","","","","","","","","","","","","","","","feedback_test"
"","","","","","psychophysics","357","913641","0.0-7.5-0.5-0.168","371","","f","","","","","","","","","","","","","key","f","16.665999999999954","960","536","f","true","img/H_ambi40.png","生人","prac",""
"","","","","","html-keyboard-response","358","914143","0.0-7.5-0.5-1.168","null","<span style='color:GreenYellow; font-size: 70px;'>正确! </span>","null","","","","","","","","","","","","","","","","","","","","","","","feedback_test"
"","","","","","psychophysics","359","915459","0.0-7.5-0.5-0.169","314","","j","","","","","","","","","","","","","key","j","16.665999999999677","960","536","f","false","img/S_ambi40.png","朋友","prac",""
"","","","","","html-keyboard-response","360","915960","0.0-7.5-0.5-1.169","null","<span style='color:red; font-size: 70px;'>错误! </span>","null","","","","","","","","","","","","","","","","","","","","","","","feedback_test"
"","","","","","psychophysics","361","917190","0.0-7.5-0.5-0.170","228","","f","","","","","","","","","","","","","key","f","16.66600000000023","960","536","j","false","img/S_ambi40.png","生人","prac",""
"","","","","","html-keyboard-response","362","917692","0.0-7.5-0.5-1.170","null","<span style='color:red; font-size: 70px;'>错误! </span>","null","","","","","","","","","","","","","","","","","","","","","","","feedback_test"
"","","","","","psychophysics","363","918989","0.0-7.5-0.5-0.171","296","","j","","","","","","","","","","","","","key","j","16.666000000000086","960","536","j","true","img/C_ambi40.png","朋友","prac",""
"","","","","","html-keyboard-response","364","919490","0.0-7.5-0.5-1.171","null","<span style='color:GreenYellow; font-size: 70px;'>正确! </span>","null","","","","","","","","","","","","","","","","","","","","","","","feedback_test"
"","","","","","psychophysics","365","920853","0.0-7.5-0.5-0.172","362","","f","","","","","","","","","","","","","key","f","16.665999999999954","960","536","j","false","img/C_ambi40.png","朋友","prac",""
"","","","","","html-keyboard-response","366","921354","0.0-7.5-0.5-1.172","null","<span style='color:red; font-size: 70px;'>错误! </span>","null","","","","","","","","","","","","","","","","","","","","","","","feedback_test"
"","","","","","psychophysics","367","922691","0.0-7.5-0.5-0.173","335","","j","","","","","","","","","","","","","key","j","16.66599999999928","960","536","j","true","img/H_ambi40.png","自我","prac",""
"","","","","","html-keyboard-response","368","923193","0.0-7.5-0.5-1.173","null","<span style='color:GreenYellow; font-size: 70px;'>正确! </span>","null","","","","","","","","","","","","","","","","","","","","","","","feedback_test"
"","","","","","psychophysics","369","924534","0.0-7.5-0.5-0.174","340","","j","","","","","","","","","","","","","key","j","16.66599999999928","960","536","f","false","img/T_ambi40.png","をる","prac",""
"","","","","","html-keyboard-response","370","925036","0.0-7.5-0.5-1.174","null","<span style='color:red; font-size: 70px;'>错误! </span>","null","","","","","","","","","","","","","","","","","","","","","","","feedback_test"
"","","","","","psychophysics","371","926202","0.0-7.5-0.5-0.175","164","","f","","","","","","","","","","","","","key","f","16.66600000000039","960","536","f","true","img/T_ambi40.png","をる","prac",""
"","","","","","html-keyboard-response","372","926703","0.0-7.5-0.5-1.175","null","<span style='color:yellow; font-size: 70px;'>过快! </span>","null","","","","","","","","","","","","","","","","","","","","","","","feedback_test"
"","","","","","psychophysics","373","928091","0.0-7.5-0.5-0.176","386","","f","","","","","","","","","","","","","key","f","16.665999999999567","960","536","f","true","img/C_ambi40.png","生人","prac",""
"","","","","","html-keyboard-response","374","928592","0.0-7.5-0.5-1.176","null","<span style='color:GreenYellow; font-size: 70px;'>正确! </span>","null","","","","","","","","","","","","","","","","","","","","","","","feedback_test"
"","","","","","psychophysics","375","929999","0.0-7.5-0.5-0.177","390","","j","","","","","","","","","","","","","key","j","16.666000000000594","960","536","f","false","img/S_ambi40.png","朋友","prac",""
"","","","","","html-keyboard-response","376","930500","0.0-7.5-0.5-1.177","null","<span style='color:red; font-size: 70px;'>错误! </span>","null","","","","","","","","","","","","","","","","","","","","","","","feedback_test"
"","","","","","psychophysics","377","931871","0.0-7.5-0.5-0.178","369","","f","","","","","","","","","","","","","key","f","16.665999999999954","960","536","f","true","img/T_ambi40.png","をる","prac",""
"","","","","","html-keyboard-response","378","932372","0.0-7.5-0.5-1.178","null","<span style='color:GreenYellow; font-size: 70px;'>正确! </span>","null","","","","","","","","","","","","","","","","","","","","","","","feedback_test"
"","","","","","psychophysics","379","933853","0.0-7.5-0.5-0.179","479","","f","","","","","","","","","","","","","key","f","16.666000000000086","960","536","j","false","img/C_ambi40.png","朋友","prac",""
"","","","","","html-keyboard-response","380","934355","0.0-7.5-0.5-1.179","null","<span style='color:red; font-size: 70px;'>错误! </span>","null","","","","","","","","","","","","","","","","","","","","","","","feedback_test"
"","","","","","psychophysics","381","935692","0.0-7.5-0.5-0.180","334","","j","","","","","","","","","","","","","key","j","16.66599999999928","960","536","j","true","img/H_ambi40.png","自我","prac",""
"","","","","","html-keyboard-response","382","936195","0.0-7.5-0.5-1.180","null","<span style='color:GreenYellow; font-size: 70px;'>正确! </span>","null","","","","","","","","","","","","","","","","","","","","","","","feedback_test"
"","","","","","psychophysics","383","937670","0.0-7.5-0.5-0.181","468","","j","","","","","","","","","","","","","key","j","16.666000000000448","960","536","f","false","img/T_ambi40.png","をる","prac",""
"","","","","","html-keyboard-response","384","938172","0.0-7.5-0.5-1.181","null","<span style='color:red; font-size: 70px;'>错误! </span>","null","","","","","","","","","","","","","","","","","","","","","","","feedback_test"
"","","","","","psychophysics","385","939462","0.0-7.5-0.5-0.182","288","","f","","","","","","","","","","","","","key","f","16.6660000000005","960","536","f","true","img/C_ambi40.png","自我","prac",""
"","","","","","html-keyboard-response","386","939964","0.0-7.5-0.5-1.182","null","<span style='color:GreenYellow; font-size: 70px;'>正确! </span>","null","","","","","","","","","","","","","","","","","","","","","","","feedback_test"
"","","","","","psychophysics","387","941508","0.0-7.5-0.5-0.183","537","","f","","","","","","","","","","","","","key","f","16.665999999999038","960","536","f","true","img/H_ambi40.png","朋友","prac",""
"","","","","","html-keyboard-response","388","942009","0.0-7.5-0.5-1.183","null","<span style='color:GreenYellow; font-size: 70px;'>正确! </span>","null","","","","","","","","","","","","","","","","","","","","","","","feedback_test"
"","","","","","psychophysics","389","943142","0.0-7.5-0.5-0.184","130","","j","","","","","","","","","","","","","key","j","16.66599999999961","960","536","j","true","img/H_ambi40.png","自我","prac",""
"","","","","","html-keyboard-response","390","943646","0.0-7.5-0.5-1.184","null","<span style='color:yellow; font-size: 70px;'>过快! </span>","null","","","","","","","","","","","","","","","","","","","","","","","feedback_test"
"","","","","","psychophysics","391","944952","0.0-7.5-0.5-0.185","298","","j","","","","","","","","","","","","","key","j","16.666000000000086","960","536","j","true","img/C_ambi40.png","朋友","prac",""
"","","","","","html-keyboard-response","392","945454","0.0-7.5-0.5-1.185","null","<span style='color:GreenYellow; font-size: 70px;'>正确! </span>","null","","","","","","","","","","","","","","","","","","","","","","","feedback_test"
"","","","","","psychophysics","393","946774","0.0-7.5-0.5-0.186","319","","j","","","","","","","","","","","","","key","j","16.665999999999677","960","536","j","true","img/S_ambi40.png","生人","prac",""
"","","","","","html-keyboard-response","394","947275","0.0-7.5-0.5-1.186","null","<span style='color:GreenYellow; font-size: 70px;'>正确! </span>","null","","","","","","","","","","","","","","","","","","","","","","","feedback_test"
"","","","","","psychophysics","395","948609","0.0-7.5-0.5-0.187","333","","f","","","","","","","","","","","","","key","f","16.66599999999928","960","536","j","false","img/S_ambi40.png","生人","prac",""
"","","","","","html-keyboard-response","396","949110","0.0-7.5-0.5-1.187","null","<span style='color:red; font-size: 70px;'>错误! </span>","null","","","","","","","","","","","","","","","","","","","","","","","feedback_test"
"","","","","","psychophysics","397","950468","0.0-7.5-0.5-0.188","357","","j","","","","","","","","","","","","","key","j","16.66600000000035","960","536","f","false","img/T_ambi40.png","をる","prac",""
"","","","","","html-keyboard-response","398","950970","0.0-7.5-0.5-1.188","null","<span style='color:red; font-size: 70px;'>错误! </span>","null","","","","","","","","","","","","","","","","","","","","","","","feedback_test"
"","","","","","psychophysics","399","952389","0.0-7.5-0.5-0.189","418","","f","","","","","","","","","","","","","key","f","16.66600000000021","960","536","f","true","img/S_ambi40.png","自我","prac",""
"","","","","","html-keyboard-response","400","952893","0.0-7.5-0.5-1.189","null","<span style='color:GreenYellow; font-size: 70px;'>正确! </span>","null","","","","","","","","","","","","","","","","","","","","","","","feedback_test"
"","","","","","psychophysics","401","954400","0.0-7.5-0.5-0.190","506","","f","","","","","","","","","","","","","key","f","16.665999999999727","960","536","f","true","img/T_ambi40.png","をる","prac",""
"","","","","","html-keyboard-response","402","954902","0.0-7.5-0.5-1.190","null","<span style='color:GreenYellow; font-size: 70px;'>正确! </span>","null","","","","","","","","","","","","","","","","","","","","","","","feedback_test"
"","","","","","psychophysics","403","956284","0.0-7.5-0.5-0.191","380","","j","","","","","","","","","","","","","key","j","16.665999999999567","960","536","f","false","img/H_ambi40.png","生人","prac",""
"","","","","","html-keyboard-response","404","956785","0.0-7.5-0.5-1.191","null","<span style='color:red; font-size: 70px;'>错误! </span>","null","","","","","","","","","","","","","","","","","","","","","","","feedback_test"
"","","","","","html-keyboard-response","405","958876","0.0-7.5-1.5-0.5","2088","<style>.context{color:white; font-size: 35px; line-height:40px}</style>                          <div><p class='context'>您正确回答了53% 的试次。</p ><p class='context'>您的平均反应时为345毫秒。</p >"," ","","","","","","","","","","","","","","","","","","","","","","",""
"","","","","","instructions","406","961779","0.0-7.5-1.5-1.5","2900","","","","","","","","","","","","","","[{""page_index"":0,""viewing_time"":1060},{""page_index"":1,""viewing_time"":1096},{""page_index"":2,""viewing_time"":743}]","","","","","","","","","","",""
"","","","","","psychophysics","407","963166","0.0-7.6-0.6-0.192","383","","f","","","","","","","","","","","","","key","f","16.665999999999567","960","536","f","true","img/T_ambi40.png","をる","prac",""
"","","","","","html-keyboard-response","408","963668","0.0-7.6-0.6-1.192","null","<span style='color:GreenYellow; font-size: 70px;'>正确! </span>","null","","","","","","","","","","","","","","","","","","","","","","","feedback_test"
"","","","","","psychophysics","409","965086","0.0-7.6-0.6-0.193","415","","f","","","","","","","","","","","","","key","f","16.86679518072451","960","536","f","true","img/C_ambi40.png","生人","prac",""
"","","","","","html-keyboard-response","410","965588","0.0-7.6-0.6-1.193","null","<span style='color:GreenYellow; font-size: 70px;'>正确! </span>","null","","","","","","","","","","","","","","","","","","","","","","","feedback_test"
"","","","","","psychophysics","411","966986","0.0-7.6-0.6-0.194","397","","f","","","","","","","","","","","","","key","f","16.66599999999919","960","536","j","false","img/C_ambi40.png","朋友","prac",""
"","","","","","html-keyboard-response","412","967488","0.0-7.6-0.6-1.194","null","<span style='color:red; font-size: 70px;'>错误! </span>","null","","","","","","","","","","","","","","","","","","","","","","","feedback_test"
"","","","","","psychophysics","413","968860","0.0-7.6-0.6-0.195","370","","f","","","","","","","","","","","","","key","f","16.665999999999954","960","536","f","true","img/T_ambi40.png","をる","prac",""
"","","","","","html-keyboard-response","414","969362","0.0-7.6-0.6-1.195","null","<span style='color:GreenYellow; font-size: 70px;'>正确! </span>","null","","","","","","","","","","","","","","","","","","","","","","","feedback_test"
"","","","","","psychophysics","415","970819","0.0-7.6-0.6-0.196","455","","f","","","","","","","","","","","","","key","f","16.665999999998117","960","536","j","false","img/H_ambi40.png","自我","prac",""
"","","","","","html-keyboard-response","416","971321","0.0-7.6-0.6-1.196","null","<span style='color:red; font-size: 70px;'>错误! </span>","null","","","","","","","","","","","","","","","","","","","","","","","feedback_test"
"","","","","","psychophysics","417","972637","0.0-7.6-0.6-0.197","315","","j","","","","","","","","","","","","","key","j","16.665999999998185","960","536","j","true","img/H_ambi40.png","自我","prac",""
"","","","","","html-keyboard-response","418","973138","0.0-7.6-0.6-1.197","null","<span style='color:GreenYellow; font-size: 70px;'>正确! </span>","null","","","","","","","","","","","","","","","","","","","","","","","feedback_test"
"","","","","","psychophysics","419","974452","0.0-7.6-0.6-0.198","312","","j","","","","","","","","","","","","","key","j","16.66600000000117","960","536","f","false","img/S_ambi40.png","自我","prac",""
"","","","","","html-keyboard-response","420","974954","0.0-7.6-0.6-1.198","null","<span style='color:red; font-size: 70px;'>错误! </span>","null","","","","","","","","","","","","","","","","","","","","","","","feedback_test"
"","","","","","psychophysics","421","976316","0.0-7.6-0.6-0.199","361","","f","","","","","","","","","","","","","key","f","16.665999999999954","960","536","f","true","img/T_ambi40.png","をる","prac",""
"","","","","","html-keyboard-response","422","976818","0.0-7.6-0.6-1.199","null","<span style='color:GreenYellow; font-size: 70px;'>正确! </span>","null","","","","","","","","","","","","","","","","","","","","","","","feedback_test"
"","","","","","psychophysics","423","978160","0.0-7.6-0.6-0.200","341","","f","","","","","","","","","","","","","key","f","16.66599999999781","960","536","j","false","img/S_ambi40.png","生人","prac",""
"","","","","","html-keyboard-response","424","978662","0.0-7.6-0.6-1.200","null","<span style='color:red; font-size: 70px;'>错误! </span>","null","","","","","","","","","","","","","","","","","","","","","","","feedback_test"
"","","","","","psychophysics","425","979987","0.0-7.6-0.6-0.201","318","","j","","","","","","","","","","","","","key","j","16.665999999998185","960","536","f","false","img/T_ambi40.png","をる","prac",""
"","","","","","html-keyboard-response","426","980488","0.0-7.6-0.6-1.201","null","<span style='color:red; font-size: 70px;'>错误! </span>","null","","","","","","","","","","","","","","","","","","","","","","","feedback_test"
"","","","","","psychophysics","427","981798","0.0-7.6-0.6-0.202","306","","f","","","","","","","","","","","","","key","f","16.66600000000117","960","536","f","true","img/H_ambi40.png","生人","prac",""
"","","","","","html-keyboard-response","428","982300","0.0-7.6-0.6-1.202","null","<span style='color:GreenYellow; font-size: 70px;'>正确! </span>","null","","","","","","","","","","","","","","","","","","","","","","","feedback_test"
"","","","","","psychophysics","429","983487","0.0-7.6-0.6-0.203","186","","j","","","","","","","","","","","","","key","j","16.666000000001596","960","536","j","true","img/C_ambi40.png","朋友","prac",""
"","","","","","html-keyboard-response","430","983989","0.0-7.6-0.6-1.203","null","<span style='color:yellow; font-size: 70px;'>过快! </span>","null","","","","","","","","","","","","","","","","","","","","","","","feedback_test"
"","","","","","psychophysics","431","985169","0.0-7.6-0.6-0.204","167","","j","","","","","","","","","","","","","key","j","16.66600000000208","960","536","f","false","img/C_ambi40.png","自我","prac",""
"","","","","","html-keyboard-response","432","985671","0.0-7.6-0.6-1.204","null","<span style='color:yellow; font-size: 70px;'>过快! </span>","null","","","","","","","","","","","","","","","","","","","","","","","feedback_test"
"","","","","","psychophysics","433","987124","0.0-7.6-0.6-0.205","451","","j","","","","","","","","","","","","","key","j","16.665999999998117","960","536","j","true","img/S_ambi40.png","生人","prac",""
"","","","","","html-keyboard-response","434","987625","0.0-7.6-0.6-1.205","null","<span style='color:GreenYellow; font-size: 70px;'>正确! </span>","null","","","","","","","","","","","","","","","","","","","","","","","feedback_test"
"","","","","","psychophysics","435","989067","0.0-7.6-0.6-0.206","435","","f","","","","","","","","","","","","","key","f","16.86440476190321","960","536","f","true","img/S_ambi40.png","朋友","prac",""
"","","","","","html-keyboard-response","436","989568","0.0-7.6-0.6-1.206","null","<span style='color:GreenYellow; font-size: 70px;'>正确! </span>","null","","","","","","","","","","","","","","","","","","","","","","","feedback_test"
"","","","","","psychophysics","437","991006","0.0-7.6-0.6-0.207","437","","f","","","","","","","","","","","","","key","f","16.665999999998466","960","536","f","true","img/H_ambi40.png","朋友","prac",""
"","","","","","html-keyboard-response","438","991509","0.0-7.6-0.6-1.207","null","<span style='color:GreenYellow; font-size: 70px;'>正确! </span>","null","","","","","","","","","","","","","","","","","","","","","","","feedback_test"
"","","","","","psychophysics","439","992843","0.0-7.6-0.6-0.208","329","","j","","","","","","","","","","","","","key","j","16.66600000000117","960","536","f","false","img/S_ambi40.png","朋友","prac",""
"","","","","","html-keyboard-response","440","993344","0.0-7.6-0.6-1.208","null","<span style='color:red; font-size: 70px;'>错误! </span>","null","","","","","","","","","","","","","","","","","","","","","","","feedback_test"
"","","","","","psychophysics","441","994739","0.0-7.6-0.6-0.209","387","","f","","","","","","","","","","","","","key","f","16.66600000000241","960","536","j","false","img/H_ambi40.png","自我","prac",""
"","","","","","html-keyboard-response","442","995241","0.0-7.6-0.6-1.209","null","<span style='color:red; font-size: 70px;'>错误! </span>","null","","","","","","","","","","","","","","","","","","","","","","","feedback_test"
"","","","","","psychophysics","443","996516","0.0-7.6-0.6-0.210","264","","j","","","","","","","","","","","","","key","j","16.66599999999938","960","536","j","true","img/S_ambi40.png","生人","prac",""
"","","","","","html-keyboard-response","444","997018","0.0-7.6-0.6-1.210","null","<span style='color:GreenYellow; font-size: 70px;'>正确! </span>","null","","","","","","","","","","","","","","","","","","","","","","","feedback_test"
"","","","","","psychophysics","445","998491","0.0-7.6-0.6-0.211","471","","f","","","","","","","","","","","","","key","f","16.666000000000448","960","536","j","false","img/S_ambi40.png","生人","prac",""
"","","","","","html-keyboard-response","446","998992","0.0-7.6-0.6-1.211","null","<span style='color:red; font-size: 70px;'>错误! </span>","null","","","","","","","","","","","","","","","","","","","","","","","feedback_test"
"","","","","","psychophysics","447","1000507","0.0-7.6-0.6-0.212","507","","j","","","","","","","","","","","","","key","j","16.665999999999727","960","536","j","true","img/C_ambi40.png","朋友","prac",""
"","","","","","html-keyboard-response","448","1001008","0.0-7.6-0.6-1.212","null","<span style='color:GreenYellow; font-size: 70px;'>正确! </span>","null","","","","","","","","","","","","","","","","","","","","","","","feedback_test"
"","","","","","psychophysics","449","1002355","0.0-7.6-0.6-0.213","346","","f","","","","","","","","","","","","","key","f","16.66600000000035","960","536","f","true","img/T_ambi40.png","をる","prac",""
"","","","","","html-keyboard-response","450","1002856","0.0-7.6-0.6-1.213","null","<span style='color:GreenYellow; font-size: 70px;'>正确! </span>","null","","","","","","","","","","","","","","","","","","","","","","","feedback_test"
"","","","","","psychophysics","451","1004252","0.0-7.6-0.6-0.214","393","","j","","","","","","","","","","","","","key","j","16.66599999999919","960","536","f","false","img/T_ambi40.png","をる","prac",""
"","","","","","html-keyboard-response","452","1004753","0.0-7.6-0.6-1.214","null","<span style='color:red; font-size: 70px;'>错误! </span>","null","","","","","","","","","","","","","","","","","","","","","","","feedback_test"
"","","","","","psychophysics","453","1006219","0.0-7.6-0.6-0.215","464","","j","","","","","","","","","","","","","key","j","16.666000000000448","960","536","f","false","img/H_ambi40.png","生人","prac",""
