"success","timeout","failed_images","failed_audio","failed_video","trial_type","trial_index","time_elapsed","internal_node_id","rt","stimulus","response","value","item_width_mm","item_height_mm","item_width_px","px2mm","view_dist_mm","item_width_deg","px2deg","scale_factor","win_width_deg","win_height_deg","view_history","response_type","key_press","avg_frame_time","center_x","center_y","correct_response","correct","Image","word","condition","screen_id"
"true","false","[]","[]","[]","preload","0","497","0.0-0.0","","","","","","","","","","","","","","","","","","","","","","","","","",""
"","","","","","html-keyboard-response","1","1845","0.0-1.0","1347","
     <p>您好，欢迎参加本次实验。</p>
     <p>为充分保障您的权利，请确保您已经知晓并同意《参与实验同意书》以及《数据公开知情同意书》。</p>
     <p>如果您未见过上述内容，请咨询实验员。</p>
     <p>如果您选择继续实验，则表示您已经清楚两份知情同意书的内容并同意。</p>
     <p> <div style = ""color: green""><按任意键至下页></div> </p>
     "," ","","","","","","","","","","","","","","","","","","","","","","",""
"","","","","","html-keyboard-response","2","2724","0.0-2.0","878","
     <p>本实验首先需要您填写一些基本个人信息。</p>
     <p> <div style = ""color: green""><按任意键至下页></div></p>
     "," ","","","","","","","","","","","","","","","","","","","","","","",""
"","","","","","call-function","3","2724","0.0-3.0-0.0","","","","","","","","","","","","","","","","","","","","","","","","","",""
"","","","","","survey-html-form","4","75846","0.0-3.0-1.0","73119","","{""Q0"":""21""}","","","","","","","","","","","","","","","","","","","","","","",""
"","","","","","html-button-response","5","77056","0.0-3.0-2.0","1208","<p style = 'color : white'>您的性别</p>","0","","","","","","","","","","","","","","","","","","","","","","",""
"","","","","","survey-html-form","6","85492","0.0-3.0-3.0","8434","","{""Q0"":""2002""}","","","","","","","","","","","","","","","","","","","","","","",""
"","","","","","survey-html-form","7","88125","0.0-3.0-4.0","2633","","{""Q0"":""5""}","","","","","","","","","","","","","","","","","","","","","","",""
"","","","","","virtual-chinrest","8","260829","0.0-4.0","172704","","","","85.6","53.98","440.4382388826082","5.14991586610133","555.68","8.808764777652163","50","0.8718589034735222","30.72","13.38","","","","","","","","","","","",""
"true","","","","","fullscreen","9","263406","0.0-5.0","","","","","","","","","","","","","","","","","","","","","","","","","",""
"","","","","","instructions","10","295559","0.0-6.0","32154","","","","","","","","","","","","","","[{""page_index"":0,""viewing_time"":5885},{""page_index"":1,""viewing_time"":23863},{""page_index"":2,""viewing_time"":1619},{""page_index"":3,""viewing_time"":787}]","","","","","","","","","","",""
"","","","","","psychophysics","11","298063","0.0-7.0-0.0-0.0","null","","null","","","","","","","","","","","","","key","null","16.660939597315313","768","428","f","false","img/H_ambi40.png","朋友","prac",""
"","","","","","html-keyboard-response","12","298565","0.0-7.0-0.0-1.0","null","<span class='add_' style='color:yellow; font-size: 70px;'> 太慢! </span>","null","","","","","","","","","","","","","","","","","","","","","","","feedback_test"
"","","","","","psychophysics","13","301068","0.0-7.0-0.0-0.1","null","","null","","","","","","","","","","","","","key","null","16.660805369127658","768","428","j","false","img/H_ambi40.png","自我","prac",""
"","","","","","html-keyboard-response","14","301569","0.0-7.0-0.0-1.1","null","<span class='add_' style='color:yellow; font-size: 70px;'> 太慢! </span>","null","","","","","","","","","","","","","","","","","","","","","","","feedback_test"
"","","","","","psychophysics","15","303116","0.0-7.0-0.0-0.2","521","","f","","","","","","","","","","","","","key","f","16.660869565217265","768","428","f","true","img/C_ambi40.png","生人","prac",""
"","","","","","html-keyboard-response","16","303617","0.0-7.0-0.0-1.2","null","<span style='color:GreenYellow; font-size: 70px;'>正确! </span>","null","","","","","","","","","","","","","","","","","","","","","","","feedback_test"
"","","","","","psychophysics","17","305060","0.0-7.0-0.0-0.3","434","","j","","","","","","","","","","","","","key","j","16.661162790697514","768","428","j","true","img/C_ambi40.png","朋友","prac",""
"","","","","","html-keyboard-response","18","305566","0.0-7.0-0.0-1.3","null","<span style='color:GreenYellow; font-size: 70px;'>正确! </span>","null","","","","","","","","","","","","","","","","","","","","","","","feedback_test"
"","","","","","psychophysics","19","307011","0.0-7.0-0.0-0.4","369","","f","","","","","","","","","","","","","key","f","16.66046511627961","768","428","j","false","img/S_ambi40.png","生人","prac",""
"","","","","","html-keyboard-response","20","307512","0.0-7.0-0.0-1.4","null","<span style='color:red; font-size: 70px;'>错误! </span>","null","","","","","","","","","","","","","","","","","","","","","","","feedback_test"
"","","","","","psychophysics","21","309291","0.0-7.0-0.0-0.5","778","","f","","","","","","","","","","","","","key","f","16.660566037736025","768","428","f","true","img/S_ambi40.png","自我","prac",""
"","","","","","html-keyboard-response","22","309793","0.0-7.0-0.0-1.5","null","<span style='color:GreenYellow; font-size: 70px;'>正确! </span>","null","","","","","","","","","","","","","","","","","","","","","","","feedback_test"
"","","","","","psychophysics","23","311820","0.0-7.0-0.0-0.6","1027","","f","","","","","","","","","","","","","key","f","16.661000000000058","768","428","j","false","img/S_ambi40.png","生人","prac",""
"","","","","","html-keyboard-response","24","312322","0.0-7.0-0.0-1.6","null","<span style='color:red; font-size: 70px;'>错误! </span>","null","","","","","","","","","","","","","","","","","","","","","","","feedback_test"
"","","","","","psychophysics","25","314092","0.0-7.0-0.0-0.7","770","","f","","","","","","","","","","","","","key","f","16.660380952381196","768","428","f","true","img/H_ambi40.png","生人","prac",""
"","","","","","html-keyboard-response","26","314594","0.0-7.0-0.0-1.7","null","<span style='color:GreenYellow; font-size: 70px;'>正确! </span>","null","","","","","","","","","","","","","","","","","","","","","","","feedback_test"
"","","","","","psychophysics","27","316796","0.0-7.0-0.0-0.8","1200","","j","","","","","","","","","","","","","key","j","16.66076335877861","768","428","j","true","img/T_ambi40.png","をる","prac",""
"","","","","","html-keyboard-response","28","317296","0.0-7.0-0.0-1.8","null","<span style='color:GreenYellow; font-size: 70px;'>正确! </span>","null","","","","","","","","","","","","","","","","","","","","","","","feedback_test"
"","","","","","psychophysics","29","319076","0.0-7.0-0.0-0.9","778","","j","","","","","","","","","","","","","key","j","16.660754716980936","768","428","j","true","img/T_ambi40.png","をる","prac",""
"","","","","","html-keyboard-response","30","319577","0.0-7.0-0.0-1.9","null","<span style='color:GreenYellow; font-size: 70px;'>正确! </span>","null","","","","","","","","","","","","","","","","","","","","","","","feedback_test"
"","","","","","psychophysics","31","321716","0.0-7.0-0.0-0.10","1137","","f","","","","","","","","","","","","","key","f","16.660629921260025","768","428","f","true","img/C_ambi40.png","自我","prac",""
"","","","","","html-keyboard-response","32","322216","0.0-7.0-0.0-1.10","null","<span style='color:GreenYellow; font-size: 70px;'>正确! </span>","null","","","","","","","","","","","","","","","","","","","","","","","feedback_test"
"","","","","","psychophysics","33","324156","0.0-7.0-0.0-0.11","937","","j","","","","","","","","","","","","","key","j","16.660862068965297","768","428","j","true","img/C_ambi40.png","朋友","prac",""
"","","","","","html-keyboard-response","34","324657","0.0-7.0-0.0-1.11","null","<span style='color:GreenYellow; font-size: 70px;'>正确! </span>","null","","","","","","","","","","","","","","","","","","","","","","","feedback_test"
"","","","","","psychophysics","35","326371","0.0-7.0-0.0-0.12","712","","j","","","","","","","","","","","","","key","j","16.660196078431053","768","428","j","true","img/T_ambi40.png","をる","prac",""
"","","","","","html-keyboard-response","36","326872","0.0-7.0-0.0-1.12","null","<span style='color:GreenYellow; font-size: 70px;'>正确! </span>","null","","","","","","","","","","","","","","","","","","","","","","","feedback_test"
"","","","","","psychophysics","37","328596","0.0-7.0-0.0-0.13","724","","j","","","","","","","","","","","","","key","j","16.660196078431625","768","428","j","true","img/T_ambi40.png","をる","prac",""
"","","","","","html-keyboard-response","38","329098","0.0-7.0-0.0-1.13","null","<span style='color:GreenYellow; font-size: 70px;'>正确! </span>","null","","","","","","","","","","","","","","","","","","","","","","","feedback_test"
"","","","","","psychophysics","39","331243","0.0-7.0-0.0-0.14","1147","","f","","","","","","","","","","","","","key","f","16.661093749999964","768","428","j","false","img/H_ambi40.png","自我","prac",""
"","","","","","html-keyboard-response","40","331744","0.0-7.0-0.0-1.14","null","<span style='color:red; font-size: 70px;'>错误! </span>","null","","","","","","","","","","","","","","","","","","","","","","","feedback_test"
"","","","","","psychophysics","41","334245","0.0-7.0-0.0-0.15","null","","null","","","","","","","","","","","","","key","null","16.661073825503355","768","428","f","false","img/S_ambi40.png","朋友","prac",""
"","","","","","html-keyboard-response","42","334746","0.0-7.0-0.0-1.15","null","<span class='add_' style='color:yellow; font-size: 70px;'> 太慢! </span>","null","","","","","","","","","","","","","","","","","","","","","","","feedback_test"
"","","","","","psychophysics","43","336348","0.0-7.0-0.0-0.16","600","","j","","","","","","","","","","","","","key","j","16.661052631578826","768","428","j","true","img/T_ambi40.png","をる","prac",""
"","","","","","html-keyboard-response","44","336874","0.0-7.0-0.0-1.16","null","<span style='color:GreenYellow; font-size: 70px;'>正确! </span>","null","","","","","","","","","","","","","","","","","","","","","","","feedback_test"
"","","","","","psychophysics","45","338923","0.0-7.0-0.0-0.17","1049","","j","","","","","","","","","","","","","key","j","16.661147540983396","768","428","j","true","img/T_ambi40.png","をる","prac",""
"","","","","","html-keyboard-response","46","339425","0.0-7.0-0.0-1.17","null","<span style='color:GreenYellow; font-size: 70px;'>正确! </span>","null","","","","","","","","","","","","","","","","","","","","","","","feedback_test"
"","","","","","psychophysics","47","341556","0.0-7.0-0.0-0.18","1128","","j","","","","","","","","","","","","","key","j","16.660787401574673","768","428","f","false","img/H_ambi40.png","朋友","prac",""
"","","","","","html-keyboard-response","48","342057","0.0-7.0-0.0-1.18","null","<span style='color:red; font-size: 70px;'>错误! </span>","null","","","","","","","","","","","","","","","","","","","","","","","feedback_test"
"","","","","","psychophysics","49","344332","0.0-7.0-0.0-0.19","1273","","j","","","","","","","","","","","","","key","j","16.661176470588543","768","428","j","true","img/S_ambi40.png","生人","prac",""
"","","","","","html-keyboard-response","50","344879","0.0-7.0-0.0-1.19","null","<span style='color:GreenYellow; font-size: 70px;'>正确! </span>","null","","","","","","","","","","","","","","","","","","","","","","","feedback_test"
"","","","","","psychophysics","51","346572","0.0-7.0-0.0-0.20","691","","j","","","","","","","","","","","","","key","j","16.660999999999767","768","428","j","true","img/T_ambi40.png","をる","prac",""
"","","","","","html-keyboard-response","52","347073","0.0-7.0-0.0-1.20","null","<span style='color:GreenYellow; font-size: 70px;'>正确! </span>","null","","","","","","","","","","","","","","","","","","","","","","","feedback_test"
"","","","","","psychophysics","53","349243","0.0-7.0-0.0-0.21","1170","","f","","","","","","","","","","","","","key","f","16.661085271318047","768","428","j","false","img/C_ambi40.png","朋友","prac",""
"","","","","","html-keyboard-response","54","349744","0.0-7.0-0.0-1.21","null","<span style='color:red; font-size: 70px;'>错误! </span>","null","","","","","","","","","","","","","","","","","","","","","","","feedback_test"
"","","","","","psychophysics","55","352083","0.0-7.0-0.0-0.22","1338","","f","","","","","","","","","","","","","key","f","16.660287769784375","768","428","j","false","img/H_ambi40.png","自我","prac",""
"","","","","","html-keyboard-response","56","352584","0.0-7.0-0.0-1.22","null","<span style='color:red; font-size: 70px;'>错误! </span>","null","","","","","","","","","","","","","","","","","","","","","","","feedback_test"
"","","","","","psychophysics","57","354660","0.0-7.0-0.0-0.23","1075","","f","","","","","","","","","","","","","key","f","16.66080645161292","768","428","f","true","img/S_ambi40.png","朋友","prac",""
"","","","","","html-keyboard-response","58","355161","0.0-7.0-0.0-1.23","null","<span style='color:GreenYellow; font-size: 70px;'>正确! </span>","null","","","","","","","","","","","","","","","","","","","","","","","feedback_test"
"","","","","","psychophysics","59","357188","0.0-7.0-0.0-0.24","1027","","f","","","","","","","","","","","","","key","f","16.661000000000058","768","428","f","true","img/C_ambi40.png","自我","prac",""
"","","","","","html-keyboard-response","60","357688","0.0-7.0-0.0-1.24","null","<span style='color:GreenYellow; font-size: 70px;'>正确! </span>","null","","","","","","","","","","","","","","","","","","","","","","","feedback_test"
"","","","","","psychophysics","61","359948","0.0-7.0-0.0-0.25","1258","","f","","","","","","","","","","","","","key","f","16.66088888888868","768","428","f","true","img/S_ambi40.png","自我","prac",""
"","","","","","html-keyboard-response","62","360450","0.0-7.0-0.0-1.25","null","<span style='color:GreenYellow; font-size: 70px;'>正确! </span>","null","","","","","","","","","","","","","","","","","","","","","","","feedback_test"
"","","","","","psychophysics","63","362501","0.0-7.0-0.0-0.26","1049","","j","","","","","","","","","","","","","key","j","16.660655737704726","768","428","j","true","img/S_ambi40.png","生人","prac",""
"","","","","","html-keyboard-response","64","363002","0.0-7.0-0.0-1.26","null","<span style='color:GreenYellow; font-size: 70px;'>正确! </span>","null","","","","","","","","","","","","","","","","","","","","","","","feedback_test"
"","","","","","psychophysics","65","365503","0.0-7.0-0.0-0.27","null","","null","","","","","","","","","","","","","key","null","16.660939597315313","768","428","j","false","img/C_ambi40.png","朋友","prac",""
"","","","","","html-keyboard-response","66","366005","0.0-7.0-0.0-1.27","null","<span class='add_' style='color:yellow; font-size: 70px;'> 太慢! </span>","null","","","","","","","","","","","","","","","","","","","","","","","feedback_test"
"","","","","","psychophysics","67","367788","0.0-7.0-0.0-0.28","782","","j","","","","","","","","","","","","","key","j","16.660188679245106","768","428","j","true","img/T_ambi40.png","をる","prac",""
"","","","","","html-keyboard-response","68","368290","0.0-7.0-0.0-1.28","null","<span style='color:GreenYellow; font-size: 70px;'>正确! </span>","null","","","","","","","","","","","","","","","","","","","","","","","feedback_test"
"","","","","","psychophysics","69","370172","0.0-7.0-0.0-0.29","881","","f","","","","","","","","","","","","","key","f","16.660535714286066","768","428","j","false","img/H_ambi40.png","自我","prac",""
"","","","","","html-keyboard-response","70","370672","0.0-7.0-0.0-1.29","null","<span style='color:red; font-size: 70px;'>错误! </span>","null","","","","","","","","","","","","","","","","","","","","","","","feedback_test"
"","","","","","psychophysics","71","372852","0.0-7.0-0.0-0.30","1179","","j","","","","","","","","","","","","","key","j","16.66093023255776","768","428","f","false","img/C_ambi40.png","生人","prac",""
"","","","","","html-keyboard-response","72","373354","0.0-7.0-0.0-1.30","null","<span style='color:red; font-size: 70px;'>错误! </span>","null","","","","","","","","","","","","","","","","","","","","","","","feedback_test"
"","","","","","psychophysics","73","375212","0.0-7.0-0.0-0.31","856","","j","","","","","","","","","","","","","key","j","16.66054545454575","768","428","f","false","img/H_ambi40.png","生人","prac",""
"","","","","","html-keyboard-response","74","375713","0.0-7.0-0.0-1.31","null","<span style='color:red; font-size: 70px;'>错误! </span>","null","","","","","","","","","","","","","","","","","","","","","","","feedback_test"
"","","","","","html-keyboard-response","75","383036","0.0-7.0-1.0-0.0","7322","<style>.context{color:white; font-size: 35px; line-height:40px}</style>                          <div><p class='context'>您正确回答了59% 的试次。</p ><p class='context'>您的平均反应时为884毫秒。</p >","j","","","","","","","","","","","","","","","","","","","","","","",""
"","","","","","instructions","76","418432","0.0-7.0-1.0-1.0","35395","","","","","","","","","","","","","","[{""page_index"":0,""viewing_time"":4646},{""page_index"":1,""viewing_time"":29794},{""page_index"":2,""viewing_time"":955}]","","","","","","","","","","",""
"","","","","","psychophysics","77","420539","0.0-7.1-0.1-0.32","1062","","f","","","","","","","","","","","","","key","f","16.66111111111102","768","428","f","true","img/C_ambi40.png","自我","prac",""
"","","","","","html-keyboard-response","78","421039","0.0-7.1-0.1-1.32","null","<span style='color:GreenYellow; font-size: 70px;'>正确! </span>","null","","","","","","","","","","","","","","","","","","","","","","","feedback_test"
"","","","","","psychophysics","79","422939","0.0-7.1-0.1-0.33","898","","f","","","","","","","","","","","","","key","f","16.660884955752152","768","428","f","true","img/S_ambi40.png","自我","prac",""
"","","","","","html-keyboard-response","80","423441","0.0-7.1-0.1-1.33","null","<span style='color:GreenYellow; font-size: 70px;'>正确! </span>","null","","","","","","","","","","","","","","","","","","","","","","","feedback_test"
"","","","","","psychophysics","81","425428","0.0-7.1-0.1-0.34","874","","f","","","","","","","","","","","","","key","f","16.660677966101378","768","428","j","false","img/H_ambi40.png","自我","prac",""
"","","","","","html-keyboard-response","82","425929","0.0-7.1-0.1-1.34","null","<span style='color:red; font-size: 70px;'>错误! </span>","null","","","","","","","","","","","","","","","","","","","","","","","feedback_test"
"","","","","","psychophysics","83","428116","0.0-7.1-0.1-0.35","1186","","j","","","","","","","","","","","","","key","j","16.66107692307694","768","428","f","false","img/H_ambi40.png","朋友","prac",""
"","","","","","html-keyboard-response","84","428617","0.0-7.1-0.1-1.35","null","<span style='color:red; font-size: 70px;'>错误! </span>","null","","","","","","","","","","","","","","","","","","","","","","","feedback_test"
"","","","","","psychophysics","85","431120","0.0-7.1-0.1-0.36","null","","null","","","","","","","","","","","","","key","null","16.660536912751567","768","428","f","false","img/C_ambi40.png","生人","prac",""
"","","","","","html-keyboard-response","86","431621","0.0-7.1-0.1-1.36","null","<span class='add_' style='color:yellow; font-size: 70px;'> 太慢! </span>","null","","","","","","","","","","","","","","","","","","","","","","","feedback_test"
"","","","","","psychophysics","87","433332","0.0-7.1-0.1-0.37","710","","j","","","","","","","","","","","","","key","j","16.660396039604077","768","428","j","true","img/T_ambi40.png","をる","prac",""
"","","","","","html-keyboard-response","88","433833","0.0-7.1-0.1-1.37","null","<span style='color:GreenYellow; font-size: 70px;'>正确! </span>","null","","","","","","","","","","","","","","","","","","","","","","","feedback_test"
"","","","","","psychophysics","89","435804","0.0-7.1-0.1-0.38","969","","f","","","","","","","","","","","","","key","f","16.66034188034196","768","428","j","false","img/C_ambi40.png","朋友","prac",""
"","","","","","html-keyboard-response","90","436305","0.0-7.1-0.1-1.38","null","<span style='color:red; font-size: 70px;'>错误! </span>","null","","","","","","","","","","","","","","","","","","","","","","","feedback_test"
"","","","","","psychophysics","91","438806","0.0-7.1-0.1-0.39","null","","null","","","","","","","","","","","","","key","null","16.660671140939613","768","428","j","false","img/T_ambi40.png","をる","prac",""
"","","","","","html-keyboard-response","92","439307","0.0-7.1-0.1-1.39","null","<span class='add_' style='color:yellow; font-size: 70px;'> 太慢! </span>","null","","","","","","","","","","","","","","","","","","","","","","","feedback_test"
"","","","","","psychophysics","93","441173","0.0-7.1-0.1-0.40","858","","j","","","","","","","","","","","","","key","j","16.660900900900774","768","428","j","true","img/S_ambi40.png","生人","prac",""
"","","","","","html-keyboard-response","94","441674","0.0-7.1-0.1-1.40","null","<span style='color:GreenYellow; font-size: 70px;'>正确! </span>","null","","","","","","","","","","","","","","","","","","","","","","","feedback_test"
"","","","","","psychophysics","95","443916","0.0-7.1-0.1-0.41","1240","","f","","","","","","","","","","","","","key","f","16.66074626865656","768","428","j","false","img/C_ambi40.png","朋友","prac",""
"","","","","","html-keyboard-response","96","444416","0.0-7.1-0.1-1.41","null","<span style='color:red; font-size: 70px;'>错误! </span>","null","","","","","","","","","","","","","","","","","","","","","","","feedback_test"
"","","","","","psychophysics","97","446508","0.0-7.1-0.1-0.42","1090","","j","","","","","","","","","","","","","key","j","16.66064516129019","768","428","j","true","img/H_ambi40.png","自我","prac",""
"","","","","","html-keyboard-response","98","447009","0.0-7.1-0.1-1.42","null","<span style='color:GreenYellow; font-size: 70px;'>正确! </span>","null","","","","","","","","","","","","","","","","","","","","","","","feedback_test"
"","","","","","psychophysics","99","448915","0.0-7.1-0.1-0.43","906","","j","","","","","","","","","","","","","key","j","16.660000000000146","768","428","j","true","img/S_ambi40.png","生人","prac",""
"","","","","","html-keyboard-response","100","449416","0.0-7.1-0.1-1.43","null","<span style='color:GreenYellow; font-size: 70px;'>正确! </span>","null","","","","","","","","","","","","","","","","","","","","","","","feedback_test"
"","","","","","psychophysics","101","451532","0.0-7.1-0.1-0.44","1115","","f","","","","","","","","","","","","","key","f","16.660793650793725","768","428","f","true","img/H_ambi40.png","生人","prac",""
"","","","","","html-keyboard-response","102","452034","0.0-7.1-0.1-1.44","null","<span style='color:GreenYellow; font-size: 70px;'>正确! </span>","null","","","","","","","","","","","","","","","","","","","","","","","feedback_test"
"","","","","","psychophysics","103","454576","0.0-7.1-0.1-0.45","null","","null","","","","","","","","","","","","","key","null","16.660526315789628","768","428","f","false","img/S_ambi40.png","朋友","prac",""
"","","","","","html-keyboard-response","104","455076","0.0-7.1-0.1-1.45","null","<span class='add_' style='color:yellow; font-size: 70px;'> 太慢! </span>","null","","","","","","","","","","","","","","","","","","","","","","","feedback_test"
"","","","","","psychophysics","105","456771","0.0-7.1-0.1-0.46","694","","j","","","","","","","","","","","","","key","j","16.66039999999979","768","428","j","true","img/T_ambi40.png","をる","prac",""
"","","","","","html-keyboard-response","106","457272","0.0-7.1-0.1-1.46","null","<span style='color:GreenYellow; font-size: 70px;'>正确! </span>","null","","","","","","","","","","","","","","","","","","","","","","","feedback_test"
"","","","","","psychophysics","107","458900","0.0-7.1-0.1-0.47","625","","j","","","","","","","","","","","","","key","j","16.66062499999983","768","428","j","true","img/T_ambi40.png","をる","prac",""
"","","","","","html-keyboard-response","108","459401","0.0-7.1-0.1-1.47","null","<span style='color:GreenYellow; font-size: 70px;'>正确! </span>","null","","","","","","","","","","","","","","","","","","","","","","","feedback_test"
"","","","","","psychophysics","109","461324","0.0-7.1-0.1-0.48","921","","f","","","","","","","","","","","","","key","f","16.66069565217375","768","428","j","false","img/H_ambi40.png","自我","prac",""
"","","","","","html-keyboard-response","110","461824","0.0-7.1-0.1-1.48","null","<span style='color:red; font-size: 70px;'>错误! </span>","null","","","","","","","","","","","","","","","","","","","","","","","feedback_test"
"","","","","","psychophysics","111","463915","0.0-7.1-0.1-0.49","1091","","f","","","","","","","","","","","","","key","f","16.660161290322467","768","428","f","true","img/S_ambi40.png","朋友","prac",""
"","","","","","html-keyboard-response","112","464416","0.0-7.1-0.1-1.49","null","<span style='color:GreenYellow; font-size: 70px;'>正确! </span>","null","","","","","","","","","","","","","","","","","","","","","","","feedback_test"
"","","","","","psychophysics","113","466603","0.0-7.1-0.1-0.50","1186","","j","","","","","","","","","","","","","key","j","16.660923076922952","768","428","j","true","img/C_ambi40.png","朋友","prac",""
"","","","","","html-keyboard-response","114","467104","0.0-7.1-0.1-1.50","null","<span style='color:GreenYellow; font-size: 70px;'>正确! </span>","null","","","","","","","","","","","","","","","","","","","","","","","feedback_test"
"","","","","","psychophysics","115","468755","0.0-7.1-0.1-0.51","650","","j","","","","","","","","","","","","","key","j","16.659591836734837","768","428","j","true","img/C_ambi40.png","朋友","prac",""
"","","","","","html-keyboard-response","116","469257","0.0-7.1-0.1-1.51","null","<span style='color:GreenYellow; font-size: 70px;'>正确! </span>","null","","","","","","","","","","","","","","","","","","","","","","","feedback_test"
"","","","","","psychophysics","117","470923","0.0-7.1-0.1-0.52","665","","j","","","","","","","","","","","","","key","j","16.658787878787596","768","428","j","true","img/T_ambi40.png","をる","prac",""
"","","","","","html-keyboard-response","118","471425","0.0-7.1-0.1-1.52","null","<span style='color:GreenYellow; font-size: 70px;'>正确! </span>","null","","","","","","","","","","","","","","","","","","","","","","","feedback_test"
"","","","","","psychophysics","119","473244","0.0-7.1-0.1-0.53","816","","j","","","","","","","","","","","","","key","j","16.660370370370433","768","428","j","true","img/T_ambi40.png","をる","prac",""
"","","","","","html-keyboard-response","120","473744","0.0-7.1-0.1-1.53","null","<span style='color:GreenYellow; font-size: 70px;'>正确! </span>","null","","","","","","","","","","","","","","","","","","","","","","","feedback_test"
"","","","","","psychophysics","121","475620","0.0-7.1-0.1-0.54","873","","f","","","","","","","","","","","","","key","f","16.66017857142859","768","428","f","true","img/H_ambi40.png","生人","prac",""
"","","","","","html-keyboard-response","122","476120","0.0-7.1-0.1-1.54","null","<span style='color:GreenYellow; font-size: 70px;'>正确! </span>","null","","","","","","","","","","","","","","","","","","","","","","","feedback_test"
"","","","","","psychophysics","123","478252","0.0-7.1-0.1-0.55","1132","","f","","","","","","","","","","","","","key","f","16.66047244094492","768","428","f","true","img/C_ambi40.png","自我","prac",""
"","","","","","html-keyboard-response","124","478752","0.0-7.1-0.1-1.55","null","<span style='color:GreenYellow; font-size: 70px;'>正确! </span>","null","","","","","","","","","","","","","","","","","","","","","","","feedback_test"
"","","","","","psychophysics","125","480635","0.0-7.1-0.1-0.56","882","","f","","","","","","","","","","","","","key","f","16.66035714285733","768","428","f","true","img/S_ambi40.png","自我","prac",""
"","","","","","html-keyboard-response","126","481136","0.0-7.1-0.1-1.56","null","<span style='color:GreenYellow; font-size: 70px;'>正确! </span>","null","","","","","","","","","","","","","","","","","","","","","","","feedback_test"
"","","","","","psychophysics","127","483116","0.0-7.1-0.1-0.57","965","","j","","","","","","","","","","","","","key","j","16.66033898305071","768","428","j","true","img/H_ambi40.png","自我","prac",""
"","","","","","html-keyboard-response","128","483637","0.0-7.1-0.1-1.57","null","<span style='color:GreenYellow; font-size: 70px;'>正确! </span>","null","","","","","","","","","","","","","","","","","","","","","","","feedback_test"
"","","","","","psychophysics","129","485356","0.0-7.1-0.1-0.58","708","","j","","","","","","","","","","","","","key","j","16.660588235294163","768","428","j","true","img/T_ambi40.png","をる","prac",""
"","","","","","html-keyboard-response","130","485858","0.0-7.1-0.1-1.58","null","<span style='color:GreenYellow; font-size: 70px;'>正确! </span>","null","","","","","","","","","","","","","","","","","","","","","","","feedback_test"
"","","","","","psychophysics","131","488035","0.0-7.1-0.1-0.59","1108","","f","","","","","","","","","","","","","key","f","16.661076923076493","768","428","f","true","img/C_ambi40.png","生人","prac",""
"","","","","","html-keyboard-response","132","488536","0.0-7.1-0.1-1.59","null","<span style='color:GreenYellow; font-size: 70px;'>正确! </span>","null","","","","","","","","","","","","","","","","","","","","","","","feedback_test"
"","","","","","psychophysics","133","490803","0.0-7.1-0.1-0.60","1267","","f","","","","","","","","","","","","","key","f","16.66059259259254","768","428","f","true","img/H_ambi40.png","朋友","prac",""
"","","","","","html-keyboard-response","134","491304","0.0-7.1-0.1-1.60","null","<span style='color:GreenYellow; font-size: 70px;'>正确! </span>","null","","","","","","","","","","","","","","","","","","","","","","","feedback_test"
"","","","","","psychophysics","135","493660","0.0-7.1-0.1-0.61","1295","","j","","","","","","","","","","","","","key","j","16.660714285714285","768","428","j","true","img/S_ambi40.png","生人","prac",""
"","","","","","html-keyboard-response","136","494162","0.0-7.1-0.1-1.61","null","<span style='color:GreenYellow; font-size: 70px;'>正确! </span>","null","","","","","","","","","","","","","","","","","","","","","","","feedback_test"
"","","","","","psychophysics","137","495844","0.0-7.1-0.1-0.62","682","","j","","","","","","","","","","","","","key","j","16.660400000000372","768","428","j","true","img/T_ambi40.png","をる","prac",""
"","","","","","html-keyboard-response","138","496395","0.0-7.1-0.1-1.62","null","<span style='color:GreenYellow; font-size: 70px;'>正确! </span>","null","","","","","","","","","","","","","","","","","","","","","","","feedback_test"
"","","","","","psychophysics","139","498556","0.0-7.1-0.1-0.63","1161","","j","","","","","","","","","","","","","key","j","16.660937500000273","768","428","j","true","img/S_ambi40.png","生人","prac",""
"","","","","","html-keyboard-response","140","499058","0.0-7.1-0.1-1.63","null","<span style='color:GreenYellow; font-size: 70px;'>正确! </span>","null","","","","","","","","","","","","","","","","","","","","","","","feedback_test"
"","","","","","html-keyboard-response","141","504389","0.0-8.0","5330","<style>.context{color:white; font-size: 35px; line-height:40px}</style>                          <div><p class='context'>您正确回答了75% 的试次。</p ><p class='context'>您的平均反应时为935毫秒。</p ><p class='context'>恭喜您完成练习。按任意键进入正式实验。</p ><p class='footer' style='font-size: 35px; line-height:40px;'>请在进入正式实验实验之前将您的<span style='color: lightgreen;'>食指</span>放在电脑键盘的相应键位上进行按键。</p >"," ","","","","","","","","","","","","","","","","","","","","","","",""
"","","","","","psychophysics","142","506275","0.0-9.0-0.0-0.0-0.0-0.0","885","","j","","","","","","","","","","","","","key","j","16.660884955752152","768","428","j","true","img/C_ambi40.png","朋友","same",""
"","","","","","html-keyboard-response","143","506776","0.0-9.0-0.0-0.0-0.0-1.0","null","<span style='color:GreenYellow; font-size: 70px;'>正确! </span>","null","","","","","","","","","","","","","","","","","","","","","","","feedback_test"
"","","","","","psychophysics","144","508484","0.0-9.0-0.0-0.0-0.0-0.1","709","","j","","","","","","","","","","","","","key","j","16.660990099009993","768","428","j","true","img/S_ambi40.png","生人","same",""
"","","","","","html-keyboard-response","145","508986","0.0-9.0-0.0-0.0-0.0-1.1","null","<span style='color:GreenYellow; font-size: 70px;'>正确! </span>","null","","","","","","","","","","","","","","","","","","","","","","","feedback_test"
"","","","","","psychophysics","146","511004","0.0-9.0-0.0-0.0-0.0-0.2","1016","","j","","","","","","","","","","","","","key","j","16.66116666666688","768","428","j","true","img/H_ambi40.png","自我","same",""
"","","","","","html-keyboard-response","147","511504","0.0-9.0-0.0-0.0-0.0-1.2","null","<span style='color:GreenYellow; font-size: 70px;'>正确! </span>","null","","","","","","","","","","","","","","","","","","","","","","","feedback_test"
"","","","","","psychophysics","148","513507","0.0-9.0-0.0-0.0-0.0-0.3","1002","","f","","","","","","","","","","","","","key","f","16.660504201680478","768","428","f","true","img/S_ambi40.png","自我","same",""
"","","","","","html-keyboard-response","149","514008","0.0-9.0-0.0-0.0-0.0-1.3","null","<span style='color:GreenYellow; font-size: 70px;'>正确! </span>","null","","","","","","","","","","","","","","","","","","","","","","","feedback_test"
"","","","","","psychophysics","150","516100","0.0-9.0-0.0-0.0-0.0-0.4","1091","","f","","","","","","","","","","","","","key","f","16.6603225806452","768","428","f","true","img/C_ambi40.png","生人","same",""
"","","","","","html-keyboard-response","151","516601","0.0-9.0-0.0-0.0-0.0-1.4","null","<span style='color:GreenYellow; font-size: 70px;'>正确! </span>","null","","","","","","","","","","","","","","","","","","","","","","","feedback_test"
"","","","","","psychophysics","152","518860","0.0-9.0-0.0-0.0-0.0-0.5","1259","","j","","","","","","","","","","","","","key","j","16.66088888888911","768","428","j","true","img/C_ambi40.png","朋友","same",""
"","","","","","html-keyboard-response","153","519361","0.0-9.0-0.0-0.0-0.0-1.5","null","<span style='color:GreenYellow; font-size: 70px;'>正确! </span>","null","","","","","","","","","","","","","","","","","","","","","","","feedback_test"
"","","","","","psychophysics","154","521483","0.0-9.0-0.0-0.0-0.0-0.6","1122","","f","","","","","","","","","","","","","key","f","16.66047619047643","768","428","f","true","img/S_ambi40.png","自我","same",""
"","","","","","html-keyboard-response","155","521985","0.0-9.0-0.0-0.0-0.0-1.6","null","<span style='color:GreenYellow; font-size: 70px;'>正确! </span>","null","","","","","","","","","","","","","","","","","","","","","","","feedback_test"
"","","","","","psychophysics","156","524124","0.0-9.0-0.0-0.0-0.0-0.7","1139","","f","","","","","","","","","","","","","key","f","16.660472440945377","768","428","f","true","img/C_ambi40.png","生人","same",""
"","","","","","html-keyboard-response","157","524625","0.0-9.0-0.0-0.0-0.0-1.7","null","<span style='color:GreenYellow; font-size: 70px;'>正确! </span>","null","","","","","","","","","","","","","","","","","","","","","","","feedback_test"
"","","","","","psychophysics","158","526483","0.0-9.0-0.0-0.0-0.0-0.8","857","","f","","","","","","","","","","","","","key","f","16.660363636363762","768","428","f","true","img/C_ambi40.png","自我","same",""
"","","","","","html-keyboard-response","159","526985","0.0-9.0-0.0-0.0-0.0-1.8","null","<span style='color:GreenYellow; font-size: 70px;'>正确! </span>","null","","","","","","","","","","","","","","","","","","","","","","","feedback_test"
"","","","","","psychophysics","160","529486","0.0-9.0-0.0-0.0-0.0-0.9","null","","null","","","","","","","","","","","","","key","null","16.661073825503355","768","428","f","false","img/S_ambi40.png","朋友","same",""
"","","","","","html-keyboard-response","161","529987","0.0-9.0-0.0-0.0-0.0-1.9","null","<span class='add_' style='color:yellow; font-size: 70px;'> 太慢! </span>","null","","","","","","","","","","","","","","","","","","","","","","","feedback_test"
"","","","","","psychophysics","162","532068","0.0-9.0-0.0-0.0-0.0-0.10","1078","","j","","","","","","","","","","","","","key","j","16.66064516129066","768","428","j","true","img/S_ambi40.png","生人","same",""
"","","","","","html-keyboard-response","163","532629","0.0-9.0-0.0-0.0-0.0-1.10","null","<span style='color:GreenYellow; font-size: 70px;'>正确! </span>","null","","","","","","","","","","","","","","","","","","","","","","","feedback_test"
"","","","","","psychophysics","164","534364","0.0-9.0-0.0-0.0-0.0-0.11","734","","j","","","","","","","","","","","","","key","j","16.660970873786002","768","428","j","true","img/T_ambi40.png","をる","same",""
"","","","","","html-keyboard-response","165","534866","0.0-9.0-0.0-0.0-0.0-1.11","null","<span style='color:GreenYellow; font-size: 70px;'>正确! </span>","null","","","","","","","","","","","","","","","","","","","","","","","feedback_test"
"","","","","","psychophysics","166","536883","0.0-9.0-0.0-0.0-0.0-0.12","1017","","j","","","","","","","","","","","","","key","j","16.660333333333256","768","428","j","true","img/H_ambi40.png","自我","same",""
"","","","","","html-keyboard-response","167","537384","0.0-9.0-0.0-0.0-0.0-1.12","null","<span style='color:GreenYellow; font-size: 70px;'>正确! </span>","null","","","","","","","","","","","","","","","","","","","","","","","feedback_test"
"","","","","","psychophysics","168","538971","0.0-9.0-0.0-0.0-0.0-0.13","587","","j","","","","","","","","","","","","","key","j","16.660000000000398","768","428","j","true","img/T_ambi40.png","をる","same",""
"","","","","","html-keyboard-response","169","539473","0.0-9.0-0.0-0.0-0.0-1.13","null","<span style='color:GreenYellow; font-size: 70px;'>正确! </span>","null","","","","","","","","","","","","","","","","","","","","","","","feedback_test"
"","","","","","psychophysics","170","541635","0.0-9.0-0.0-0.0-0.0-0.14","1160","","f","","","","","","","","","","","","","key","f","16.660310077519778","768","428","f","true","img/H_ambi40.png","朋友","same",""
"","","","","","html-keyboard-response","171","542137","0.0-9.0-0.0-0.0-0.0-1.14","null","<span style='color:GreenYellow; font-size: 70px;'>正确! </span>","null","","","","","","","","","","","","","","","","","","","","","","","feedback_test"
"","","","","","psychophysics","172","544035","0.0-9.0-0.0-0.0-0.0-0.15","897","","f","","","","","","","","","","","","","key","f","16.660707964602057","768","428","f","true","img/H_ambi40.png","朋友","same",""
"","","","","","html-keyboard-response","173","544536","0.0-9.0-0.0-0.0-0.0-1.15","null","<span style='color:GreenYellow; font-size: 70px;'>正确! </span>","null","","","","","","","","","","","","","","","","","","","","","","","feedback_test"
"","","","","","psychophysics","174","546324","0.0-9.0-0.0-0.0-0.0-0.16","679","","j","","","","","","","","","","","","","key","j","16.660000000000746","768","428","j","true","img/T_ambi40.png","をる","same",""
"","","","","","html-keyboard-response","175","546824","0.0-9.0-0.0-0.0-0.0-1.16","null","<span style='color:GreenYellow; font-size: 70px;'>正确! </span>","null","","","","","","","","","","","","","","","","","","","","","","","feedback_test"
"","","","","","psychophysics","176","549060","0.0-9.0-0.0-0.0-0.0-0.17","1234","","j","","","","","","","","","","","","","key","j","16.660451127819304","768","428","f","false","img/H_ambi40.png","生人","same",""
"","","","","","html-keyboard-response","177","549560","0.0-9.0-0.0-0.0-0.0-1.17","null","<span style='color:red; font-size: 70px;'>错误! </span>","null","","","","","","","","","","","","","","","","","","","","","","","feedback_test"
"","","","","","psychophysics","178","551995","0.0-9.0-0.0-0.0-0.0-0.18","1333","","f","","","","","","","","","","","","","key","f","16.661103448275767","768","428","j","false","img/S_ambi40.png","生人","same",""
"","","","","","html-keyboard-response","179","552497","0.0-9.0-0.0-0.0-0.0-1.18","null","<span style='color:red; font-size: 70px;'>错误! </span>","null","","","","","","","","","","","","","","","","","","","","","","","feedback_test"
"","","","","","psychophysics","180","554420","0.0-9.0-0.0-0.0-0.0-0.19","923","","f","","","","","","","","","","","","","key","f","16.65999999999992","768","428","f","true","img/H_ambi40.png","朋友","same",""
"","","","","","html-keyboard-response","181","554922","0.0-9.0-0.0-0.0-0.0-1.19","null","<span style='color:GreenYellow; font-size: 70px;'>正确! </span>","null","","","","","","","","","","","","","","","","","","","","","","","feedback_test"
"","","","","","psychophysics","182","556884","0.0-9.0-0.0-0.0-0.0-0.20","961","","f","","","","","","","","","","","","","key","f","16.66102564102536","768","428","f","true","img/H_ambi40.png","朋友","same",""
"","","","","","html-keyboard-response","183","557385","0.0-9.0-0.0-0.0-0.0-1.20","null","<span style='color:GreenYellow; font-size: 70px;'>正确! </span>","null","","","","","","","","","","","","","","","","","","","","","","","feedback_test"
"","","","","","psychophysics","184","559756","0.0-9.0-0.0-0.0-0.0-0.21","1369","","j","","","","","","","","","","","","","key","j","16.660567375886625","768","428","j","true","img/S_ambi40.png","生人","same",""
"","","","","","html-keyboard-response","185","560257","0.0-9.0-0.0-0.0-0.0-1.21","null","<span style='color:GreenYellow; font-size: 70px;'>正确! </span>","null","","","","","","","","","","","","","","","","","","","","","","","feedback_test"
"","","","","","psychophysics","186","562172","0.0-9.0-0.0-0.0-0.0-0.22","913","","f","","","","","","","","","","","","","key","f","16.66052631578988","768","428","f","true","img/S_ambi40.png","朋友","same",""
"","","","","","html-keyboard-response","187","562673","0.0-9.0-0.0-0.0-0.0-1.22","null","<span style='color:GreenYellow; font-size: 70px;'>正确! </span>","null","","","","","","","","","","","","","","","","","","","","","","","feedback_test"
"","","","","","psychophysics","188","564308","0.0-9.0-0.0-0.0-0.0-0.23","632","","j","","","","","","","","","","","","","key","j","16.661237113402205","768","428","j","true","img/T_ambi40.png","をる","same",""
"","","","","","html-keyboard-response","189","564808","0.0-9.0-0.0-0.0-0.0-1.23","null","<span style='color:GreenYellow; font-size: 70px;'>正确! </span>","null","","","","","","","","","","","","","","","","","","","","","","","feedback_test"
"","","","","","psychophysics","190","566588","0.0-9.0-0.0-0.0-0.0-0.24","777","","f","","","","","","","","","","","","","key","f","16.660000000000746","768","428","f","true","img/S_ambi40.png","自我","same",""
"","","","","","html-keyboard-response","191","567089","0.0-9.0-0.0-0.0-0.0-1.24","null","<span style='color:GreenYellow; font-size: 70px;'>正确! </span>","null","","","","","","","","","","","","","","","","","","","","","","","feedback_test"
"","","","","","psychophysics","192","568708","0.0-9.0-0.0-0.0-0.0-0.25","616","","j","","","","","","","","","","","","","key","j","16.660416666666908","768","428","j","true","img/T_ambi40.png","をる","same",""
"","","","","","html-keyboard-response","193","569208","0.0-9.0-0.0-0.0-0.0-1.25","null","<span style='color:GreenYellow; font-size: 70px;'>正确! </span>","null","","","","","","","","","","","","","","","","","","","","","","","feedback_test"
"","","","","","psychophysics","194","571707","0.0-9.0-0.0-0.0-0.0-0.26","1500","","j","","","","","","","","","","","","","key","j","16.661073825503355","768","428","j","true","img/H_ambi40.png","自我","same",""
"","","","","","html-keyboard-response","195","572208","0.0-9.0-0.0-0.0-0.0-1.26","null","<span style='color:GreenYellow; font-size: 70px;'>正确! </span>","null","","","","","","","","","","","","","","","","","","","","","","","feedback_test"
"","","","","","psychophysics","196","574165","0.0-9.0-0.0-0.0-0.0-0.27","946","","f","","","","","","","","","","","","","key","f","16.66051724137927","768","428","f","true","img/H_ambi40.png","生人","same",""
"","","","","","html-keyboard-response","197","574710","0.0-9.0-0.0-0.0-0.0-1.27","null","<span style='color:GreenYellow; font-size: 70px;'>正确! </span>","null","","","","","","","","","","","","","","","","","","","","","","","feedback_test"
"","","","","","psychophysics","198","577141","0.0-9.0-0.0-0.0-0.0-0.28","1428","","f","","","","","","","","","","","","","key","f","16.660827586207347","768","428","f","true","img/C_ambi40.png","生人","same",""
"","","","","","html-keyboard-response","199","577641","0.0-9.0-0.0-0.0-0.0-1.28","null","<span style='color:GreenYellow; font-size: 70px;'>正确! </span>","null","","","","","","","","","","","","","","","","","","","","","","","feedback_test"
"","","","","","psychophysics","200","579611","0.0-9.0-0.0-0.0-0.0-0.29","970","","j","","","","","","","","","","","","","key","j","16.66102564102536","768","428","j","true","img/C_ambi40.png","朋友","same",""
"","","","","","html-keyboard-response","201","580114","0.0-9.0-0.0-0.0-0.0-1.29","null","<span style='color:GreenYellow; font-size: 70px;'>正确! </span>","null","","","","","","","","","","","","","","","","","","","","","","","feedback_test"
"","","","","","psychophysics","202","582539","0.0-9.0-0.0-0.0-0.0-0.30","1427","","f","","","","","","","","","","","","","key","f","16.660965517241156","768","428","f","true","img/S_ambi40.png","自我","same",""
"","","","","","html-keyboard-response","203","583040","0.0-9.0-0.0-0.0-0.0-1.30","null","<span style='color:GreenYellow; font-size: 70px;'>正确! </span>","null","","","","","","","","","","","","","","","","","","","","","","","feedback_test"
"","","","","","psychophysics","204","584668","0.0-9.0-0.0-0.0-0.0-0.31","626","","j","","","","","","","","","","","","","key","j","16.660206185566196","768","428","j","true","img/H_ambi40.png","自我","same",""
"","","","","","html-keyboard-response","205","585169","0.0-9.0-0.0-0.0-0.0-1.31","null","<span style='color:GreenYellow; font-size: 70px;'>正确! </span>","null","","","","","","","","","","","","","","","","","","","","","","","feedback_test"
"","","","","","psychophysics","206","587012","0.0-9.0-0.0-0.0-0.0-0.32","841","","j","","","","","","","","","","","","","key","j","16.66018348623819","768","428","j","true","img/C_ambi40.png","朋友","same",""
"","","","","","html-keyboard-response","207","587514","0.0-9.0-0.0-0.0-0.0-1.32","null","<span style='color:GreenYellow; font-size: 70px;'>正确! </span>","null","","","","","","","","","","","","","","","","","","","","","","","feedback_test"
"","","","","","psychophysics","208","589739","0.0-9.0-0.0-0.0-0.0-0.33","1225","","f","","","","","","","","","","","","","key","f","16.66060606060659","768","428","f","true","img/C_ambi40.png","自我","same",""
"","","","","","html-keyboard-response","209","590240","0.0-9.0-0.0-0.0-0.0-1.33","null","<span style='color:GreenYellow; font-size: 70px;'>正确! </span>","null","","","","","","","","","","","","","","","","","","","","","","","feedback_test"
"","","","","","psychophysics","210","592228","0.0-9.0-0.0-0.0-0.0-0.34","988","","j","","","","","","","","","","","","","key","j","16.66084745762696","768","428","f","false","img/C_ambi40.png","生人","same",""
"","","","","","html-keyboard-response","211","592742","0.0-9.0-0.0-0.0-0.0-1.34","null","<span style='color:red; font-size: 70px;'>错误! </span>","null","","","","","","","","","","","","","","","","","","","","","","","feedback_test"
"","","","","","psychophysics","212","594379","0.0-9.0-0.0-0.0-0.0-0.35","534","","j","","","","","","","","","","","","","key","j","16.660816326530707","768","428","j","true","img/T_ambi40.png","をる","same",""
"","","","","","html-keyboard-response","213","594881","0.0-9.0-0.0-0.0-0.0-1.35","null","<span style='color:GreenYellow; font-size: 70px;'>正确! </span>","null","","","","","","","","","","","","","","","","","","","","","","","feedback_test"
"","","","","","psychophysics","214","596851","0.0-9.0-0.0-0.0-0.0-0.36","970","","f","","","","","","","","","","","","","key","f","16.660683760684158","768","428","f","true","img/C_ambi40.png","生人","same",""
"","","","","","html-keyboard-response","215","597353","0.0-9.0-0.0-0.0-0.0-1.36","null","<span style='color:GreenYellow; font-size: 70px;'>正确! </span>","null","","","","","","","","","","","","","","","","","","","","","","","feedback_test"
"","","","","","psychophysics","216","599020","0.0-9.0-0.0-0.0-0.0-0.37","668","","j","","","","","","","","","","","","","key","j","16.65999999999967","768","428","j","true","img/T_ambi40.png","をる","same",""
"","","","","","html-keyboard-response","217","599522","0.0-9.0-0.0-0.0-0.0-1.37","null","<span style='color:GreenYellow; font-size: 70px;'>正确! </span>","null","","","","","","","","","","","","","","","","","","","","","","","feedback_test"
"","","","","","psychophysics","218","601451","0.0-9.0-0.0-0.0-0.0-0.38","930","","f","","","","","","","","","","","","","key","f","16.660869565217393","768","428","f","true","img/C_ambi40.png","自我","same",""
"","","","","","html-keyboard-response","219","601952","0.0-9.0-0.0-0.0-0.0-1.38","null","<span style='color:GreenYellow; font-size: 70px;'>正确! </span>","null","","","","","","","","","","","","","","","","","","","","","","","feedback_test"
"","","","","","psychophysics","220","604204","0.0-9.0-0.0-0.0-0.0-0.39","1250","","f","","","","","","","","","","","","","key","f","16.66104477611909","768","428","f","true","img/S_ambi40.png","自我","same",""
"","","","","","html-keyboard-response","221","604705","0.0-9.0-0.0-0.0-0.0-1.39","null","<span style='color:GreenYellow; font-size: 70px;'>正确! </span>","null","","","","","","","","","","","","","","","","","","","","","","","feedback_test"
"","","","","","psychophysics","222","606443","0.0-9.0-0.0-0.0-0.0-0.40","737","","j","","","","","","","","","","","","","key","j","16.660769230768963","768","428","f","false","img/C_ambi40.png","生人","same",""
"","","","","","html-keyboard-response","223","606957","0.0-9.0-0.0-0.0-0.0-1.40","null","<span style='color:red; font-size: 70px;'>错误! </span>","null","","","","","","","","","","","","","","","","","","","","","","","feedback_test"
"","","","","","psychophysics","224","609300","0.0-9.0-0.0-0.0-0.0-0.41","1325","","f","","","","","","","","","","","","","key","f","16.660431654675758","768","428","j","false","img/H_ambi40.png","自我","same",""
"","","","","","html-keyboard-response","225","609800","0.0-9.0-0.0-0.0-0.0-1.41","null","<span style='color:red; font-size: 70px;'>错误! </span>","null","","","","","","","","","","","","","","","","","","","","","","","feedback_test"
"","","","","","psychophysics","226","611932","0.0-9.0-0.0-0.0-0.0-0.42","1129","","j","","","","","","","","","","","","","key","j","16.660157480315622","768","428","j","true","img/S_ambi40.png","生人","same",""
"","","","","","html-keyboard-response","227","612433","0.0-9.0-0.0-0.0-0.0-1.42","null","<span style='color:GreenYellow; font-size: 70px;'>正确! </span>","null","","","","","","","","","","","","","","","","","","","","","","","feedback_test"
"","","","","","psychophysics","228","614339","0.0-9.0-0.0-0.0-0.0-0.43","906","","f","","","","","","","","","","","","","key","f","16.660350877193228","768","428","f","true","img/H_ambi40.png","朋友","same",""
"","","","","","html-keyboard-response","229","614841","0.0-9.0-0.0-0.0-0.0-1.43","null","<span style='color:GreenYellow; font-size: 70px;'>正确! </span>","null","","","","","","","","","","","","","","","","","","","","","","","feedback_test"
"","","","","","psychophysics","230","617003","0.0-9.0-0.0-0.0-0.0-0.44","1160","","j","","","","","","","","","","","","","key","j","16.660625000000437","768","428","j","true","img/S_ambi40.png","生人","same",""
"","","","","","html-keyboard-response","231","617503","0.0-9.0-0.0-0.0-0.0-1.44","null","<span style='color:GreenYellow; font-size: 70px;'>正确! </span>","null","","","","","","","","","","","","","","","","","","","","","","","feedback_test"
"","","","","","psychophysics","232","619275","0.0-9.0-0.0-0.0-0.0-0.45","771","","j","","","","","","","","","","","","","key","j","16.661142857143258","768","428","j","true","img/T_ambi40.png","をる","same",""
"","","","","","html-keyboard-response","233","619776","0.0-9.0-0.0-0.0-0.0-1.45","null","<span style='color:GreenYellow; font-size: 70px;'>正确! </span>","null","","","","","","","","","","","","","","","","","","","","","","","feedback_test"
"","","","","","psychophysics","234","621684","0.0-9.0-0.0-0.0-0.0-0.46","906","","f","","","","","","","","","","","","","key","f","16.66053097345145","768","428","f","true","img/S_ambi40.png","自我","same",""
"","","","","","html-keyboard-response","235","622184","0.0-9.0-0.0-0.0-0.0-1.46","null","<span style='color:GreenYellow; font-size: 70px;'>正确! </span>","null","","","","","","","","","","","","","","","","","","","","","","","feedback_test"
"","","","","","psychophysics","236","623932","0.0-9.0-0.0-0.0-0.0-0.47","746","","j","","","","","","","","","","","","","key","j","16.660582524272208","768","428","j","true","img/C_ambi40.png","朋友","same",""
"","","","","","html-keyboard-response","237","624432","0.0-9.0-0.0-0.0-0.0-1.47","null","<span style='color:GreenYellow; font-size: 70px;'>正确! </span>","null","","","","","","","","","","","","","","","","","","","","","","","feedback_test"
"","","","","","psychophysics","238","626934","0.0-9.0-0.0-0.0-0.0-0.48","null","","null","","","","","","","","","","","","","key","null","16.661066666666883","768","428","f","false","img/H_ambi40.png","朋友","same",""
"","","","","","html-keyboard-response","239","627434","0.0-9.0-0.0-0.0-0.0-1.48","null","<span class='add_' style='color:yellow; font-size: 70px;'> 太慢! </span>","null","","","","","","","","","","","","","","","","","","","","","","","feedback_test"
"","","","","","psychophysics","240","629084","0.0-9.0-0.0-0.0-0.0-0.49","634","","j","","","","","","","","","","","","","key","j","16.660000000000522","768","428","j","true","img/T_ambi40.png","をる","same",""
"","","","","","html-keyboard-response","241","629585","0.0-9.0-0.0-0.0-0.0-1.49","null","<span style='color:GreenYellow; font-size: 70px;'>正确! </span>","null","","","","","","","","","","","","","","","","","","","","","","","feedback_test"
"","","","","","psychophysics","242","631891","0.0-9.0-0.0-0.0-0.0-0.50","1306","","f","","","","","","","","","","","","","key","f","16.660437956205094","768","428","f","true","img/H_ambi40.png","生人","same",""
"","","","","","html-keyboard-response","243","632393","0.0-9.0-0.0-0.0-0.0-1.50","null","<span style='color:GreenYellow; font-size: 70px;'>正确! </span>","null","","","","","","","","","","","","","","","","","","","","","","","feedback_test"
"","","","","","psychophysics","244","634140","0.0-9.0-0.0-0.0-0.0-0.51","745","","j","","","","","","","","","","","","","key","j","16.66096153846145","768","428","j","true","img/C_ambi40.png","朋友","same",""
"","","","","","html-keyboard-response","245","634642","0.0-9.0-0.0-0.0-0.0-1.51","null","<span style='color:GreenYellow; font-size: 70px;'>正确! </span>","null","","","","","","","","","","","","","","","","","","","","","","","feedback_test"
"","","","","","psychophysics","246","636980","0.0-9.0-0.0-0.0-0.0-0.52","1337","","j","","","","","","","","","","","","","key","j","16.661007194244636","768","428","j","true","img/H_ambi40.png","自我","same",""
"","","","","","html-keyboard-response","247","637480","0.0-9.0-0.0-0.0-0.0-1.52","null","<span style='color:GreenYellow; font-size: 70px;'>正确! </span>","null","","","","","","","","","","","","","","","","","","","","","","","feedback_test"
"","","","","","psychophysics","248","639283","0.0-9.0-0.0-0.0-0.0-0.53","802","","j","","","","","","","","","","","","","key","j","16.660373831776006","768","428","f","false","img/S_ambi40.png","朋友","same",""
"","","","","","html-keyboard-response","249","639785","0.0-9.0-0.0-0.0-0.0-1.53","null","<span style='color:red; font-size: 70px;'>错误! </span>","null","","","","","","","","","","","","","","","","","","","","","","","feedback_test"
"","","","","","psychophysics","250","641708","0.0-9.0-0.0-0.0-0.0-0.54","920","","f","","","","","","","","","","","","","key","f","16.65999999999992","768","428","f","true","img/S_ambi40.png","朋友","same",""
"","","","","","html-keyboard-response","251","642208","0.0-9.0-0.0-0.0-0.0-1.54","null","<span style='color:GreenYellow; font-size: 70px;'>正确! </span>","null","","","","","","","","","","","","","","","","","","","","","","","feedback_test"
"","","","","","psychophysics","252","644572","0.0-9.0-0.0-0.0-0.0-0.55","1361","","j","","","","","","","","","","","","","key","j","16.660992907801912","768","428","j","true","img/H_ambi40.png","自我","same",""
"","","","","","html-keyboard-response","253","645073","0.0-9.0-0.0-0.0-0.0-1.55","null","<span style='color:GreenYellow; font-size: 70px;'>正确! </span>","null","","","","","","","","","","","","","","","","","","","","","","","feedback_test"
"","","","","","psychophysics","254","646914","0.0-9.0-0.0-0.0-0.0-0.56","717","","f","","","","","","","","","","","","","key","f","16.660727272727737","768","428","f","true","img/H_ambi40.png","朋友","same",""
"","","","","","html-keyboard-response","255","647414","0.0-9.0-0.0-0.0-0.0-1.56","null","<span style='color:GreenYellow; font-size: 70px;'>正确! </span>","null","","","","","","","","","","","","","","","","","","","","","","","feedback_test"
"","","","","","psychophysics","256","649131","0.0-9.0-0.0-0.0-0.0-0.57","715","","j","","","","","","","","","","","","","key","j","16.66039215686261","768","428","j","true","img/C_ambi40.png","朋友","same",""
"","","","","","html-keyboard-response","257","649632","0.0-9.0-0.0-0.0-0.0-1.57","null","<span style='color:GreenYellow; font-size: 70px;'>正确! </span>","null","","","","","","","","","","","","","","","","","","","","","","","feedback_test"
"","","","","","psychophysics","258","651307","0.0-9.0-0.0-0.0-0.0-0.58","674","","j","","","","","","","","","","","","","key","j","16.66040404040409","768","428","j","true","img/T_ambi40.png","をる","same",""
"","","","","","html-keyboard-response","259","651809","0.0-9.0-0.0-0.0-0.0-1.58","null","<span style='color:GreenYellow; font-size: 70px;'>正确! </span>","null","","","","","","","","","","","","","","","","","","","","","","","feedback_test"
"","","","","","psychophysics","260","653980","0.0-9.0-0.0-0.0-0.0-0.59","1120","","j","","","","","","","","","","","","","key","j","16.66046511627961","768","428","f","false","img/H_ambi40.png","朋友","same",""
"","","","","","html-keyboard-response","261","654481","0.0-9.0-0.0-0.0-0.0-1.59","null","<span style='color:red; font-size: 70px;'>错误! </span>","null","","","","","","","","","","","","","","","","","","","","","","","feedback_test"
"","","","","","psychophysics","262","656668","0.0-9.0-0.0-0.0-0.0-0.60","1186","","j","","","","","","","","","","","","","key","j","16.660769230768516","768","428","j","true","img/H_ambi40.png","自我","same",""
"","","","","","html-keyboard-response","263","657168","0.0-9.0-0.0-0.0-0.0-1.60","null","<span style='color:GreenYellow; font-size: 70px;'>正确! </span>","null","","","","","","","","","","","","","","","","","","","","","","","feedback_test"
"","","","","","psychophysics","264","659516","0.0-9.0-0.0-0.0-0.0-0.61","1347","","f","","","","","","","","","","","","","key","f","16.661142857143258","768","428","f","true","img/S_ambi40.png","自我","same",""
"","","","","","html-keyboard-response","265","660016","0.0-9.0-0.0-0.0-0.0-1.61","null","<span style='color:GreenYellow; font-size: 70px;'>正确! </span>","null","","","","","","","","","","","","","","","","","","","","","","","feedback_test"
"","","","","","psychophysics","266","661931","0.0-9.0-0.0-0.0-0.0-0.62","913","","f","","","","","","","","","","","","","key","f","16.661052631578826","768","428","f","true","img/C_ambi40.png","生人","same",""
"","","","","","html-keyboard-response","267","662433","0.0-9.0-0.0-0.0-0.0-1.62","null","<span style='color:GreenYellow; font-size: 70px;'>正确! </span>","null","","","","","","","","","","","","","","","","","","","","","","","feedback_test"
"","","","","","psychophysics","268","664716","0.0-9.0-0.0-0.0-0.0-0.63","1282","","j","","","","","","","","","","","","","key","j","16.661029411764876","768","428","j","true","img/C_ambi40.png","朋友","same",""
"","","","","","html-keyboard-response","269","665216","0.0-9.0-0.0-0.0-0.0-1.63","null","<span style='color:GreenYellow; font-size: 70px;'>正确! </span>","null","","","","","","","","","","","","","","","","","","","","","","","feedback_test"
"","","","","","psychophysics","270","667588","0.0-9.0-0.0-0.0-0.0-0.64","1266","","f","","","","","","","","","","","","","key","f","16.660845070422305","768","428","f","true","img/S_ambi40.png","自我","same",""
"","","","","","html-keyboard-response","271","668089","0.0-9.0-0.0-0.0-0.0-1.64","null","<span style='color:GreenYellow; font-size: 70px;'>正确! </span>","null","","","","","","","","","","","","","","","","","","","","","","","feedback_test"
"","","","","","psychophysics","272","669707","0.0-9.0-0.0-0.0-0.0-0.65","617","","j","","","","","","","","","","","","","key","j","16.660416666666908","768","428","j","true","img/T_ambi40.png","をる","same",""
"","","","","","html-keyboard-response","273","670208","0.0-9.0-0.0-0.0-0.0-1.65","null","<span style='color:GreenYellow; font-size: 70px;'>正确! </span>","null","","","","","","","","","","","","","","","","","","","","","","","feedback_test"
"","","","","","psychophysics","274","672405","0.0-9.0-0.0-0.0-0.0-0.66","1083","","f","","","","","","","","","","","","","key","f","16.660610687023183","768","428","f","true","img/C_ambi40.png","生人","same",""
"","","","","","html-keyboard-response","275","672908","0.0-9.0-0.0-0.0-0.0-1.66","null","<span style='color:GreenYellow; font-size: 70px;'>正确! </span>","null","","","","","","","","","","","","","","","","","","","","","","","feedback_test"
"","","","","","psychophysics","276","674724","0.0-9.0-0.0-0.0-0.0-0.67","815","","f","","","","","","","","","","","","","key","f","16.58091743119326","768","428","f","true","img/C_ambi40.png","自我","same",""
"","","","","","html-keyboard-response","277","675226","0.0-9.0-0.0-0.0-0.0-1.67","null","<span style='color:GreenYellow; font-size: 70px;'>正确! </span>","null","","","","","","","","","","","","","","","","","","","","","","","feedback_test"
"","","","","","psychophysics","278","677236","0.0-9.0-0.0-0.0-0.0-0.68","912","","f","","","","","","","","","","","","","key","f","16.660500000000077","768","428","f","true","img/H_ambi40.png","生人","same",""
"","","","","","html-keyboard-response","279","677736","0.0-9.0-0.0-0.0-0.0-1.68","null","<span style='color:GreenYellow; font-size: 70px;'>正确! </span>","null","","","","","","","","","","","","","","","","","","","","","","","feedback_test"
"","","","","","psychophysics","280","679867","0.0-9.0-0.0-0.0-0.0-0.69","1131","","f","","","","","","","","","","","","","key","f","16.66047244094492","768","428","j","false","img/S_ambi40.png","生人","same",""
"","","","","","html-keyboard-response","281","680369","0.0-9.0-0.0-0.0-0.0-1.69","null","<span style='color:red; font-size: 70px;'>错误! </span>","null","","","","","","","","","","","","","","","","","","","","","","","feedback_test"
"","","","","","psychophysics","282","682604","0.0-9.0-0.0-0.0-0.0-0.70","1234","","f","","","","","","","","","","","","","key","f","16.660601503759292","768","428","j","false","img/S_ambi40.png","生人","same",""
"","","","","","html-keyboard-response","283","683104","0.0-9.0-0.0-0.0-0.0-1.70","null","<span style='color:red; font-size: 70px;'>错误! </span>","null","","","","","","","","","","","","","","","","","","","","","","","feedback_test"
"","","","","","psychophysics","284","684820","0.0-9.0-0.0-0.0-0.0-0.71","714","","j","","","","","","","","","","","","","key","j","16.660784313725717","768","428","j","true","img/T_ambi40.png","をる","same",""
"","","","","","html-keyboard-response","285","685320","0.0-9.0-0.0-0.0-0.0-1.71","null","<span style='color:GreenYellow; font-size: 70px;'>正确! </span>","null","","","","","","","","","","","","","","","","","","","","","","","feedback_test"
"","","","","","psychophysics","286","687220","0.0-9.0-0.0-0.0-0.0-0.72","851","","j","","","","","","","","","","","","","key","j","16.66053097345145","768","428","f","false","img/S_ambi40.png","朋友","same",""
"","","","","","html-keyboard-response","287","687722","0.0-9.0-0.0-0.0-0.0-1.72","null","<span style='color:red; font-size: 70px;'>错误! </span>","null","","","","","","","","","","","","","","","","","","","","","","","feedback_test"
"","","","","","psychophysics","288","689539","0.0-9.0-0.0-0.0-0.0-0.73","816","","j","","","","","","","","","","","","","key","j","16.661111111110248","768","428","j","true","img/T_ambi40.png","をる","same",""
"","","","","","html-keyboard-response","289","690040","0.0-9.0-0.0-0.0-0.0-1.73","null","<span style='color:GreenYellow; font-size: 70px;'>正确! </span>","null","","","","","","","","","","","","","","","","","","","","","","","feedback_test"
"","","","","","psychophysics","290","692132","0.0-9.0-0.0-0.0-0.0-0.74","1091","","j","","","","","","","","","","","","","key","j","16.660959999999964","768","428","j","true","img/H_ambi40.png","自我","same",""
"","","","","","html-keyboard-response","291","692632","0.0-9.0-0.0-0.0-0.0-1.74","null","<span style='color:GreenYellow; font-size: 70px;'>正确! </span>","null","","","","","","","","","","","","","","","","","","","","","","","feedback_test"
"","","","","","psychophysics","292","694380","0.0-9.0-0.0-0.0-0.0-0.75","747","","j","","","","","","","","","","","","","key","j","16.66038461538399","768","428","j","true","img/C_ambi40.png","朋友","same",""
"","","","","","html-keyboard-response","293","694881","0.0-9.0-0.0-0.0-0.0-1.75","null","<span style='color:GreenYellow; font-size: 70px;'>正确! </span>","null","","","","","","","","","","","","","","","","","","","","","","","feedback_test"
"","","","","","psychophysics","294","696539","0.0-9.0-0.0-0.0-0.0-0.76","656","","j","","","","","","","","","","","","","key","j","16.660204081632177","768","428","j","true","img/T_ambi40.png","をる","same",""
"","","","","","html-keyboard-response","295","697041","0.0-9.0-0.0-0.0-0.0-1.76","null","<span style='color:GreenYellow; font-size: 70px;'>正确! </span>","null","","","","","","","","","","","","","","","","","","","","","","","feedback_test"
"","","","","","psychophysics","296","699108","0.0-9.0-0.0-0.0-0.0-0.77","1066","","f","","","","","","","","","","","","","key","f","16.660813008130308","768","428","f","true","img/C_ambi40.png","自我","same",""
"","","","","","html-keyboard-response","297","699637","0.0-9.0-0.0-0.0-0.0-1.77","null","<span style='color:GreenYellow; font-size: 70px;'>正确! </span>","null","","","","","","","","","","","","","","","","","","","","","","","feedback_test"
"","","","","","psychophysics","298","701587","0.0-9.0-0.0-0.0-0.0-0.78","950","","f","","","","","","","","","","","","","key","f","16.661034482759064","768","428","f","true","img/H_ambi40.png","朋友","same",""
"","","","","","html-keyboard-response","299","702088","0.0-9.0-0.0-0.0-0.0-1.78","null","<span style='color:GreenYellow; font-size: 70px;'>正确! </span>","null","","","","","","","","","","","","","","","","","","","","","","","feedback_test"
"","","","","","psychophysics","300","704459","0.0-9.0-0.0-0.0-0.0-0.79","1370","","f","","","","","","","","","","","","","key","f","16.661126760563413","768","428","f","true","img/S_ambi40.png","自我","same",""
"","","","","","html-keyboard-response","301","704960","0.0-9.0-0.0-0.0-0.0-1.79","null","<span style='color:GreenYellow; font-size: 70px;'>正确! </span>","null","","","","","","","","","","","","","","","","","","","","","","","feedback_test"
"","","","","","psychophysics","302","707244","0.0-9.0-0.0-0.0-0.0-0.80","1283","","j","","","","","","","","","","","","","key","j","16.6602941176474","768","428","j","true","img/S_ambi40.png","生人","same",""
"","","","","","html-keyboard-response","303","707744","0.0-9.0-0.0-0.0-0.0-1.80","null","<span style='color:GreenYellow; font-size: 70px;'>正确! </span>","null","","","","","","","","","","","","","","","","","","","","","","","feedback_test"
"","","","","","psychophysics","304","709756","0.0-9.0-0.0-0.0-0.0-0.81","1010","","f","","","","","","","","","","","","","key","f","16.66033613445343","768","428","f","true","img/H_ambi40.png","生人","same",""
"","","","","","html-keyboard-response","305","710305","0.0-9.0-0.0-0.0-0.0-1.81","null","<span style='color:GreenYellow; font-size: 70px;'>正确! </span>","null","","","","","","","","","","","","","","","","","","","","","","","feedback_test"
"","","","","","psychophysics","306","712052","0.0-9.0-0.0-0.0-0.0-0.82","745","","j","","","","","","","","","","","","","key","j","16.660194174757283","768","428","j","true","img/T_ambi40.png","をる","same",""
"","","","","","html-keyboard-response","307","712554","0.0-9.0-0.0-0.0-0.0-1.82","null","<span style='color:GreenYellow; font-size: 70px;'>正确! </span>","null","","","","","","","","","","","","","","","","","","","","","","","feedback_test"
"","","","","","psychophysics","308","714707","0.0-9.0-0.0-0.0-0.0-0.83","1152","","f","","","","","","","","","","","","","key","f","16.661093749999964","768","428","f","true","img/S_ambi40.png","自我","same",""
"","","","","","html-keyboard-response","309","715208","0.0-9.0-0.0-0.0-0.0-1.83","null","<span style='color:GreenYellow; font-size: 70px;'>正确! </span>","null","","","","","","","","","","","","","","","","","","","","","","","feedback_test"
"","","","","","psychophysics","310","717499","0.0-9.0-0.0-0.0-0.0-0.84","1292","","f","","","","","","","","","","","","","key","f","16.66088235294121","768","428","f","true","img/C_ambi40.png","生人","same",""
"","","","","","html-keyboard-response","311","718001","0.0-9.0-0.0-0.0-0.0-1.84","null","<span style='color:GreenYellow; font-size: 70px;'>正确! </span>","null","","","","","","","","","","","","","","","","","","","","","","","feedback_test"
"","","","","","psychophysics","312","720467","0.0-9.0-0.0-0.0-0.0-0.85","1464","","j","","","","","","","","","","","","","key","j","16.660410958904396","768","428","j","true","img/S_ambi40.png","生人","same",""
"","","","","","html-keyboard-response","313","720967","0.0-9.0-0.0-0.0-0.0-1.85","null","<span style='color:GreenYellow; font-size: 70px;'>正确! </span>","null","","","","","","","","","","","","","","","","","","","","","","","feedback_test"
"","","","","","psychophysics","314","722620","0.0-9.0-0.0-0.0-0.0-0.86","651","","j","","","","","","","","","","","","","key","j","16.660204081632177","768","428","j","true","img/C_ambi40.png","朋友","same",""
"","","","","","html-keyboard-response","315","723121","0.0-9.0-0.0-0.0-0.0-1.86","null","<span style='color:GreenYellow; font-size: 70px;'>正确! </span>","null","","","","","","","","","","","","","","","","","","","","","","","feedback_test"
"","","","","","psychophysics","316","725180","0.0-9.0-0.0-0.0-0.0-0.87","1057","","f","","","","","","","","","","","","","key","f","16.66032786885196","768","428","f","true","img/H_ambi40.png","朋友","same",""
"","","","","","html-keyboard-response","317","725680","0.0-9.0-0.0-0.0-0.0-1.87","null","<span style='color:GreenYellow; font-size: 70px;'>正确! </span>","null","","","","","","","","","","","","","","","","","","","","","","","feedback_test"
"","","","","","psychophysics","318","728181","0.0-9.0-0.0-0.0-0.0-0.88","null","","null","","","","","","","","","","","","","key","null","16.660805369127267","768","428","j","false","img/H_ambi40.png","自我","same",""
"","","","","","html-keyboard-response","319","728682","0.0-9.0-0.0-0.0-0.0-1.88","null","<span class='add_' style='color:yellow; font-size: 70px;'> 太慢! </span>","null","","","","","","","","","","","","","","","","","","","","","","","feedback_test"
"","","","","","psychophysics","320","731028","0.0-9.0-0.0-0.0-0.0-0.89","1345","","f","","","","","","","","","","","","","key","f","16.660575539567976","768","428","f","true","img/C_ambi40.png","生人","same",""
"","","","","","html-keyboard-response","321","731530","0.0-9.0-0.0-0.0-0.0-1.89","null","<span style='color:GreenYellow; font-size: 70px;'>正确! </span>","null","","","","","","","","","","","","","","","","","","","","","","","feedback_test"
"","","","","","psychophysics","322","733227","0.0-9.0-0.0-0.0-0.0-0.90","697","","f","","","","","","","","","","","","","key","f","16.66079207920783","768","428","f","true","img/C_ambi40.png","生人","same",""
"","","","","","html-keyboard-response","323","733729","0.0-9.0-0.0-0.0-0.0-1.90","null","<span style='color:GreenYellow; font-size: 70px;'>正确! </span>","null","","","","","","","","","","","","","","","","","","","","","","","feedback_test"
"","","","","","psychophysics","324","735380","0.0-9.0-0.0-0.0-0.0-0.91","649","","f","","","","","","","","","","","","","key","f","16.660412371134598","768","428","f","true","img/C_ambi40.png","生人","same",""
"","","","","","html-keyboard-response","325","735931","0.0-9.0-0.0-0.0-0.0-1.91","null","<span style='color:GreenYellow; font-size: 70px;'>正确! </span>","null","","","","","","","","","","","","","","","","","","","","","","","feedback_test"
"","","","","","psychophysics","326","737619","0.0-9.0-0.0-0.0-0.0-0.92","673","","j","","","","","","","","","","","","","key","j","16.66","768","428","j","true","img/T_ambi40.png","をる","same",""
"","","","","","html-keyboard-response","327","738120","0.0-9.0-0.0-0.0-0.0-1.92","null","<span style='color:GreenYellow; font-size: 70px;'>正确! </span>","null","","","","","","","","","","","","","","","","","","","","","","","feedback_test"
"","","","","","psychophysics","328","739947","0.0-9.0-0.0-0.0-0.0-0.93","825","","f","","","","","","","","","","","","","key","f","16.660733944953233","768","428","f","true","img/H_ambi40.png","朋友","same",""
"","","","","","html-keyboard-response","329","740448","0.0-9.0-0.0-0.0-0.0-1.93","null","<span style='color:GreenYellow; font-size: 70px;'>正确! </span>","null","","","","","","","","","","","","","","","","","","","","","","","feedback_test"
"","","","","","psychophysics","330","742435","0.0-9.0-0.0-0.0-0.0-0.94","988","","f","","","","","","","","","","","","","key","f","16.6605084745758","768","428","j","false","img/H_ambi40.png","自我","same",""
"","","","","","html-keyboard-response","331","742995","0.0-9.0-0.0-0.0-0.0-1.94","null","<span style='color:red; font-size: 70px;'>错误! </span>","null","","","","","","","","","","","","","","","","","","","","","","","feedback_test"
"","","","","","psychophysics","332","745076","0.0-9.0-0.0-0.0-0.0-0.95","1078","","f","","","","","","","","","","","","","key","f","16.660325203251805","768","428","f","true","img/H_ambi40.png","朋友","same",""
"","","","","","html-keyboard-response","333","745576","0.0-9.0-0.0-0.0-0.0-1.95","null","<span style='color:GreenYellow; font-size: 70px;'>正确! </span>","null","","","","","","","","","","","","","","","","","","","","","","","feedback_test"
"","","","","","psychophysics","334","747779","0.0-9.0-0.0-0.0-0.0-0.96","1201","","j","","","","","","","","","","","","","key","j","16.660458015267317","768","428","j","true","img/H_ambi40.png","自我","same",""
"","","","","","html-keyboard-response","335","748281","0.0-9.0-0.0-0.0-0.0-1.96","null","<span style='color:GreenYellow; font-size: 70px;'>正确! </span>","null","","","","","","","","","","","","","","","","","","","","","","","feedback_test"
"","","","","","psychophysics","336","750115","0.0-9.0-0.0-0.0-0.0-0.97","833","","j","","","","","","","","","","","","","key","j","16.660366972477963","768","428","j","true","img/T_ambi40.png","をる","same",""
"","","","","","html-keyboard-response","337","750616","0.0-9.0-0.0-0.0-0.0-1.97","null","<span style='color:GreenYellow; font-size: 70px;'>正确! </span>","null","","","","","","","","","","","","","","","","","","","","","","","feedback_test"
"","","","","","psychophysics","338","752812","0.0-9.0-0.0-0.0-0.0-0.98","1193","","f","","","","","","","","","","","","","key","f","16.660458015267317","768","428","f","true","img/H_ambi40.png","生人","same",""
"","","","","","html-keyboard-response","339","753311","0.0-9.0-0.0-0.0-0.0-1.98","null","<span style='color:GreenYellow; font-size: 70px;'>正确! </span>","null","","","","","","","","","","","","","","","","","","","","","","","feedback_test"
"","","","","","psychophysics","340","755787","0.0-9.0-0.0-0.0-0.0-0.99","1474","","j","","","","","","","","","","","","","key","j","16.660816326529915","768","428","j","true","img/S_ambi40.png","生人","same",""
"","","","","","html-keyboard-response","341","756289","0.0-9.0-0.0-0.0-0.0-1.99","null","<span style='color:GreenYellow; font-size: 70px;'>正确! </span>","null","","","","","","","","","","","","","","","","","","","","","","","feedback_test"
"","","","","","psychophysics","342","757979","0.0-9.0-0.0-0.0-0.0-0.100","688","","j","","","","","","","","","","","","","key","j","16.66079207920783","768","428","j","true","img/C_ambi40.png","朋友","same",""
"","","","","","html-keyboard-response","343","758480","0.0-9.0-0.0-0.0-0.0-1.100","null","<span style='color:GreenYellow; font-size: 70px;'>正确! </span>","null","","","","","","","","","","","","","","","","","","","","","","","feedback_test"
"","","","","","psychophysics","344","760283","0.0-9.0-0.0-0.0-0.0-0.101","803","","f","","","","","","","","","","","","","key","f","16.661121495327016","768","428","f","true","img/C_ambi40.png","自我","same",""
"","","","","","html-keyboard-response","345","760784","0.0-9.0-0.0-0.0-0.0-1.101","null","<span style='color:GreenYellow; font-size: 70px;'>正确! </span>","null","","","","","","","","","","","","","","","","","","","","","","","feedback_test"
"","","","","","psychophysics","346","762548","0.0-9.0-0.0-0.0-0.0-0.102","764","","f","","","","","","","","","","","","","key","f","16.66114285714215","768","428","f","true","img/S_ambi40.png","自我","same",""
"","","","","","html-keyboard-response","347","763048","0.0-9.0-0.0-0.0-0.0-1.102","null","<span style='color:GreenYellow; font-size: 70px;'>正确! </span>","null","","","","","","","","","","","","","","","","","","","","","","","feedback_test"
"","","","","","psychophysics","348","764972","0.0-9.0-0.0-0.0-0.0-0.103","922","","j","","","","","","","","","","","","","key","j","16.661043478261032","768","428","j","true","img/S_ambi40.png","生人","same",""
"","","","","","html-keyboard-response","349","765472","0.0-9.0-0.0-0.0-0.0-1.103","null","<span style='color:GreenYellow; font-size: 70px;'>正确! </span>","null","","","","","","","","","","","","","","","","","","","","","","","feedback_test"
"","","","","","psychophysics","350","767883","0.0-9.0-0.0-0.0-0.0-0.104","1410","","j","","","","","","","","","","","","","key","j","16.66111888111914","768","428","j","true","img/C_ambi40.png","朋友","same",""
"","","","","","html-keyboard-response","351","768384","0.0-9.0-0.0-0.0-0.0-1.104","null","<span style='color:GreenYellow; font-size: 70px;'>正确! </span>","null","","","","","","","","","","","","","","","","","","","","","","","feedback_test"
"","","","","","psychophysics","352","770043","0.0-9.0-0.0-0.0-0.0-0.105","624","","j","","","","","","","","","","","","","key","j","16.66040404040409","768","428","j","true","img/T_ambi40.png","をる","same",""
"","","","","","html-keyboard-response","353","770543","0.0-9.0-0.0-0.0-0.0-1.105","null","<span style='color:GreenYellow; font-size: 70px;'>正确! </span>","null","","","","","","","","","","","","","","","","","","","","","","","feedback_test"
"","","","","","psychophysics","354","772899","0.0-9.0-0.0-0.0-0.0-0.106","1355","","j","","","","","","","","","","","","","key","j","16.660571428571295","768","428","f","false","img/S_ambi40.png","自我","same",""
"","","","","","html-keyboard-response","355","773400","0.0-9.0-0.0-0.0-0.0-1.106","null","<span style='color:red; font-size: 70px;'>错误! </span>","null","","","","","","","","","","","","","","","","","","","","","","","feedback_test"
"","","","","","psychophysics","356","775115","0.0-9.0-0.0-0.0-0.0-0.107","713","","f","","","","","","","","","","","","","key","f","16.66118811881216","768","428","f","true","img/S_ambi40.png","朋友","same",""
"","","","","","html-keyboard-response","357","775616","0.0-9.0-0.0-0.0-0.0-1.107","null","<span style='color:GreenYellow; font-size: 70px;'>正确! </span>","null","","","","","","","","","","","","","","","","","","","","","","","feedback_test"
"","","","","","html-keyboard-response","358","778827","0.0-9.0-0.0-0.0-1.0","3210","<style>.context{color:white; font-size: 35px; line-height:40px}</style>                          <div><p class='context'>您正确回答了86% 的试次。</p><p class='context'>您的平均反应时为969毫秒。</p><p class='context'>请按任意键进入休息</p></div>"," ","","","","","","","","","","","","","","","","","","","","","","",""
"","","","","","html-button-response","359","838601","0.0-9.0-0.0-0.0-2.0","59774","
                    <p>您当前还剩余5组实验</p>
                    <p>现在是休息时间，当您结束休息后，您可以点击 结束休息 按钮 继续</p>
                    <p>建议休息时间还剩余<span id=""iii"">60</span>秒</p>","0","","","","","","","","","","","","","","","","","","","","","","",""
"","","","","","psychophysics","360","840564","0.0-9.0-0.0-0.0-0.1-0.108","952","","j","","","","","","","","","","","","","key","j","16.66119658119646","768","428","f","false","img/H_ambi40.png","朋友","same",""
"","","","","","html-keyboard-response","361","841066","0.0-9.0-0.0-0.0-0.1-1.108","null","<span style='color:red; font-size: 70px;'>错误! </span>","null","","","","","","","","","","","","","","","","","","","","","","","feedback_test"
"","","","","","psychophysics","362","843099","0.0-9.0-0.0-0.0-0.1-0.109","1032","","f","","","","","","","","","","","","","key","f","16.660826446281646","768","428","j","false","img/H_ambi40.png","自我","same",""
"","","","","","html-keyboard-response","363","843633","0.0-9.0-0.0-0.0-0.1-1.109","null","<span style='color:red; font-size: 70px;'>错误! </span>","null","","","","","","","","","","","","","","","","","","","","","","","feedback_test"
"","","","","","psychophysics","364","845707","0.0-9.0-0.0-0.0-0.1-0.110","1072","","j","","","","","","","","","","","","","key","j","16.660487804877974","768","428","j","true","img/H_ambi40.png","自我","same",""
"","","","","","html-keyboard-response","365","846208","0.0-9.0-0.0-0.0-0.1-1.110","null","<span style='color:GreenYellow; font-size: 70px;'>正确! </span>","null","","","","","","","","","","","","","","","","","","","","","","","feedback_test"
"","","","","","psychophysics","366","848195","0.0-9.0-0.0-0.0-0.1-0.111","987","","f","","","","","","","","","","","","","key","f","16.661016949152543","768","428","f","true","img/C_ambi40.png","生人","same",""
"","","","","","html-keyboard-response","367","848696","0.0-9.0-0.0-0.0-0.1-1.111","null","<span style='color:GreenYellow; font-size: 70px;'>正确! </span>","null","","","","","","","","","","","","","","","","","","","","","","","feedback_test"
"","","","","","psychophysics","368","850532","0.0-9.0-0.0-0.0-0.1-0.112","836","","j","","","","","","","","","","","","","key","j","16.66018348623819","768","428","j","true","img/C_ambi40.png","朋友","same",""
"","","","","","html-keyboard-response","369","851034","0.0-9.0-0.0-0.0-0.1-1.112","null","<span style='color:GreenYellow; font-size: 70px;'>正确! </span>","null","","","","","","","","","","","","","","","","","","","","","","","feedback_test"
"","","","","","psychophysics","370","853003","0.0-9.0-0.0-0.0-0.1-0.113","846","","f","","","","","","","","","","","","","key","f","16.660683760684158","768","428","f","true","img/S_ambi40.png","自我","same",""
"","","","","","html-keyboard-response","371","853535","0.0-9.0-0.0-0.0-0.1-1.113","null","<span style='color:GreenYellow; font-size: 70px;'>正确! </span>","null","","","","","","","","","","","","","","","","","","","","","","","feedback_test"
"","","","","","psychophysics","372","855236","0.0-9.0-0.0-0.0-0.1-0.114","700","","j","","","","","","","","","","","","","key","j","16.660990099009993","768","428","j","true","img/T_ambi40.png","をる","same",""
"","","","","","html-keyboard-response","373","855775","0.0-9.0-0.0-0.0-0.1-1.114","null","<span style='color:GreenYellow; font-size: 70px;'>正确! </span>","null","","","","","","","","","","","","","","","","","","","","","","","feedback_test"
"","","","","","psychophysics","374","857395","0.0-9.0-0.0-0.0-0.1-0.115","618","","j","","","","","","","","","","","","","key","j","16.660208333333383","768","428","j","true","img/T_ambi40.png","をる","same",""
"","","","","","html-keyboard-response","375","857896","0.0-9.0-0.0-0.0-0.1-1.115","null","<span style='color:GreenYellow; font-size: 70px;'>正确! </span>","null","","","","","","","","","","","","","","","","","","","","","","","feedback_test"
"","","","","","psychophysics","376","859716","0.0-9.0-0.0-0.0-0.1-0.116","820","","f","","","","","","","","","","","","","key","f","16.660555555555252","768","428","f","true","img/C_ambi40.png","生人","same",""
"","","","","","html-keyboard-response","377","860222","0.0-9.0-0.0-0.0-0.1-1.116","null","<span style='color:GreenYellow; font-size: 70px;'>正确! </span>","null","","","","","","","","","","","","","","","","","","","","","","","feedback_test"
"","","","","","psychophysics","378","862324","0.0-9.0-0.0-0.0-0.1-0.117","1101","","f","","","","","","","","","","","","","key","f","16.66112000000011","768","428","f","true","img/S_ambi40.png","朋友","same",""
"","","","","","html-keyboard-response","379","862825","0.0-9.0-0.0-0.0-0.1-1.117","null","<span style='color:GreenYellow; font-size: 70px;'>正确! </span>","null","","","","","","","","","","","","","","","","","","","","","","","feedback_test"
"","","","","","psychophysics","380","864420","0.0-9.0-0.0-0.0-0.1-0.118","594","","f","","","","","","","","","","","","","key","f","16.659787234042753","768","428","j","false","img/S_ambi40.png","生人","same",""
"","","","","","html-keyboard-response","381","864922","0.0-9.0-0.0-0.0-0.1-1.118","null","<span style='color:red; font-size: 70px;'>错误! </span>","null","","","","","","","","","","","","","","","","","","","","","","","feedback_test"
"","","","","","psychophysics","382","866755","0.0-9.0-0.0-0.0-0.1-0.119","820","","f","","","","","","","","","","","","","key","f","16.66018348623926","768","428","f","true","img/H_ambi40.png","生人","same",""
"","","","","","html-keyboard-response","383","867255","0.0-9.0-0.0-0.0-0.1-1.119","null","<span style='color:GreenYellow; font-size: 70px;'>正确! </span>","null","","","","","","","","","","","","","","","","","","","","","","","feedback_test"
"","","","","","psychophysics","384","869476","0.0-9.0-0.0-0.0-0.1-0.120","1189","","f","","","","","","","","","","","","","key","f","16.66045454545405","768","428","f","true","img/S_ambi40.png","自我","same",""
"","","","","","html-keyboard-response","385","869976","0.0-9.0-0.0-0.0-0.1-1.120","null","<span style='color:GreenYellow; font-size: 70px;'>正确! </span>","null","","","","","","","","","","","","","","","","","","","","","","","feedback_test"
"","","","","","psychophysics","386","871699","0.0-9.0-0.0-0.0-0.1-0.121","721","","j","","","","","","","","","","","","","key","j","16.661176470588828","768","428","j","true","img/T_ambi40.png","をる","same",""
"","","","","","html-keyboard-response","387","872200","0.0-9.0-0.0-0.0-0.1-1.121","null","<span style='color:GreenYellow; font-size: 70px;'>正确! </span>","null","","","","","","","","","","","","","","","","","","","","","","","feedback_test"
"","","","","","psychophysics","388","874012","0.0-9.0-0.0-0.0-0.1-0.122","811","","f","","","","","","","","","","","","","key","f","16.660373831776006","768","428","f","true","img/H_ambi40.png","朋友","same",""
"","","","","","html-keyboard-response","389","874514","0.0-9.0-0.0-0.0-0.1-1.122","null","<span style='color:GreenYellow; font-size: 70px;'>正确! </span>","null","","","","","","","","","","","","","","","","","","","","","","","feedback_test"
"","","","","","psychophysics","390","876668","0.0-9.0-0.0-0.0-0.1-0.123","1153","","j","","","","","","","","","","","","","key","j","16.66093023255821","768","428","j","true","img/S_ambi40.png","生人","same",""
"","","","","","html-keyboard-response","391","877167","0.0-9.0-0.0-0.0-0.1-1.123","null","<span style='color:GreenYellow; font-size: 70px;'>正确! </span>","null","","","","","","","","","","","","","","","","","","","","","","","feedback_test"
"","","","","","psychophysics","392","878747","0.0-9.0-0.0-0.0-0.1-0.124","579","","j","","","","","","","","","","","","","key","j","16.660430107527333","768","428","j","true","img/C_ambi40.png","朋友","same",""
"","","","","","html-keyboard-response","393","879249","0.0-9.0-0.0-0.0-0.1-1.124","null","<span style='color:GreenYellow; font-size: 70px;'>正确! </span>","null","","","","","","","","","","","","","","","","","","","","","","","feedback_test"
"","","","","","psychophysics","394","881036","0.0-9.0-0.0-0.0-0.1-0.125","785","","f","","","","","","","","","","","","","key","f","16.660754716981483","768","428","f","true","img/C_ambi40.png","自我","same",""
"","","","","","html-keyboard-response","395","881537","0.0-9.0-0.0-0.0-0.1-1.125","null","<span style='color:GreenYellow; font-size: 70px;'>正确! </span>","null","","","","","","","","","","","","","","","","","","","","","","","feedback_test"
"","","","","","psychophysics","396","883123","0.0-9.0-0.0-0.0-0.1-0.126","576","","j","","","","","","","","","","","","","key","j","16.660638297872094","768","428","j","true","img/T_ambi40.png","をる","same",""
"","","","","","html-keyboard-response","397","883625","0.0-9.0-0.0-0.0-0.1-1.126","null","<span style='color:GreenYellow; font-size: 70px;'>正确! </span>","null","","","","","","","","","","","","","","","","","","","","","","","feedback_test"
"","","","","","psychophysics","398","885756","0.0-9.0-0.0-0.0-0.1-0.127","1130","","j","","","","","","","","","","","","","key","j","16.660944881889325","768","428","j","true","img/S_ambi40.png","生人","same",""
"","","","","","html-keyboard-response","399","886257","0.0-9.0-0.0-0.0-0.1-1.127","null","<span style='color:GreenYellow; font-size: 70px;'>正确! </span>","null","","","","","","","","","","","","","","","","","","","","","","","feedback_test"
"","","","","","psychophysics","400","888131","0.0-9.0-0.0-0.0-0.1-0.128","873","","f","","","","","","","","","","","","","key","f","16.66107142857072","768","428","f","true","img/H_ambi40.png","生人","same",""
"","","","","","html-keyboard-response","401","888645","0.0-9.0-0.0-0.0-0.1-1.128","null","<span style='color:GreenYellow; font-size: 70px;'>正确! </span>","null","","","","","","","","","","","","","","","","","","","","","","","feedback_test"
"","","","","","psychophysics","402","890331","0.0-9.0-0.0-0.0-0.1-0.129","684","","j","","","","","","","","","","","","","key","j","16.660599999999395","768","428","j","true","img/C_ambi40.png","朋友","same",""
"","","","","","html-keyboard-response","403","890833","0.0-9.0-0.0-0.0-0.1-1.129","null","<span style='color:GreenYellow; font-size: 70px;'>正确! </span>","null","","","","","","","","","","","","","","","","","","","","","","","feedback_test"
"","","","","","psychophysics","404","892828","0.0-9.0-0.0-0.0-0.1-0.130","993","","f","","","","","","","","","","","","","key","f","16.66033613445343","768","428","f","true","img/H_ambi40.png","朋友","same",""
"","","","","","html-keyboard-response","405","893330","0.0-9.0-0.0-0.0-0.1-1.130","null","<span style='color:GreenYellow; font-size: 70px;'>正确! </span>","null","","","","","","","","","","","","","","","","","","","","","","","feedback_test"
"","","","","","psychophysics","406","895131","0.0-9.0-0.0-0.0-0.1-0.131","801","","f","","","","","","","","","","","","","key","f","16.66056074766403","768","428","f","true","img/C_ambi40.png","生人","same",""
"","","","","","html-keyboard-response","407","895633","0.0-9.0-0.0-0.0-0.1-1.131","null","<span style='color:GreenYellow; font-size: 70px;'>正确! </span>","null","","","","","","","","","","","","","","","","","","","","","","","feedback_test"
"","","","","","psychophysics","408","898135","0.0-9.0-0.0-0.0-0.1-0.132","null","","null","","","","","","","","","","","","","key","null","16.660671140939222","768","428","f","false","img/S_ambi40.png","自我","same",""
"","","","","","html-keyboard-response","409","898636","0.0-9.0-0.0-0.0-0.1-1.132","null","<span class='add_' style='color:yellow; font-size: 70px;'> 太慢! </span>","null","","","","","","","","","","","","","","","","","","","","","","","feedback_test"
"","","","","","psychophysics","410","900292","0.0-9.0-0.0-0.0-0.1-0.133","648","","j","","","","","","","","","","","","","key","j","16.66040816326502","768","428","j","true","img/C_ambi40.png","朋友","same",""
"","","","","","html-keyboard-response","411","900793","0.0-9.0-0.0-0.0-0.1-1.133","null","<span style='color:GreenYellow; font-size: 70px;'>正确! </span>","null","","","","","","","","","","","","","","","","","","","","","","","feedback_test"
"","","","","","psychophysics","412","902619","0.0-9.0-0.0-0.0-0.1-0.134","824","","f","","","","","","","","","","","","","key","f","16.660185185185615","768","428","f","true","img/S_ambi40.png","自我","same",""
"","","","","","html-keyboard-response","413","903121","0.0-9.0-0.0-0.0-0.1-1.134","null","<span style='color:GreenYellow; font-size: 70px;'>正确! </span>","null","","","","","","","","","","","","","","","","","","","","","","","feedback_test"
"","","","","","psychophysics","414","904908","0.0-9.0-0.0-0.0-0.1-0.135","787","","f","","","","","","","","","","","","","key","f","16.66093457944008","768","428","f","true","img/C_ambi40.png","自我","same",""
"","","","","","html-keyboard-response","415","905409","0.0-9.0-0.0-0.0-0.1-1.135","null","<span style='color:GreenYellow; font-size: 70px;'>正确! </span>","null","","","","","","","","","","","","","","","","","","","","","","","feedback_test"
"","","","","","psychophysics","416","907051","0.0-9.0-0.0-0.0-0.1-0.136","641","","j","","","","","","","","","","","","","key","j","16.65979381443299","768","428","j","true","img/T_ambi40.png","をる","same",""
"","","","","","html-keyboard-response","417","907552","0.0-9.0-0.0-0.0-0.1-1.136","null","<span style='color:GreenYellow; font-size: 70px;'>正确! </span>","null","","","","","","","","","","","","","","","","","","","","","","","feedback_test"
"","","","","","psychophysics","418","909571","0.0-9.0-0.0-0.0-0.1-0.137","1017","","j","","","","","","","","","","","","","key","j","16.66099999999957","768","428","j","true","img/H_ambi40.png","自我","same",""
"","","","","","html-keyboard-response","419","910125","0.0-9.0-0.0-0.0-0.1-1.137","null","<span style='color:GreenYellow; font-size: 70px;'>正确! </span>","null","","","","","","","","","","","","","","","","","","","","","","","feedback_test"
"","","","","","psychophysics","420","912020","0.0-9.0-0.0-0.0-0.1-0.138","891","","f","","","","","","","","","","","","","key","f","16.660535714285547","768","428","f","true","img/C_ambi40.png","生人","same",""
"","","","","","html-keyboard-response","421","912523","0.0-9.0-0.0-0.0-0.1-1.138","null","<span style='color:GreenYellow; font-size: 70px;'>正确! </span>","null","","","","","","","","","","","","","","","","","","","","","","","feedback_test"
"","","","","","psychophysics","422","915043","0.0-9.0-0.0-0.0-0.1-0.139","1520","","f","","","","","","","","","","","","","key","f","16.66106666666611","768","428","j","false","img/H_ambi40.png","自我","same",""
"","","","","","html-keyboard-response","423","915545","0.0-9.0-0.0-0.0-0.1-1.139","null","<span class='add_' style='color:yellow; font-size: 70px;'> 太慢! </span>","null","","","","","","","","","","","","","","","","","","","","","","","feedback_test"
"","","","","","psychophysics","424","917388","0.0-9.0-0.0-0.0-0.1-0.140","841","","f","","","","","","","","","","","","","key","f","16.660363636363762","768","428","f","true","img/H_ambi40.png","朋友","same",""
"","","","","","html-keyboard-response","425","917889","0.0-9.0-0.0-0.0-0.1-1.140","null","<span style='color:GreenYellow; font-size: 70px;'>正确! </span>","null","","","","","","","","","","","","","","","","","","","","","","","feedback_test"
"","","","","","psychophysics","426","919548","0.0-9.0-0.0-0.0-0.1-0.141","658","","j","","","","","","","","","","","","","key","j","16.66040816326502","768","428","j","true","img/T_ambi40.png","をる","same",""
"","","","","","html-keyboard-response","427","920048","0.0-9.0-0.0-0.0-0.1-1.141","null","<span style='color:GreenYellow; font-size: 70px;'>正确! </span>","null","","","","","","","","","","","","","","","","","","","","","","","feedback_test"
"","","","","","psychophysics","428","921763","0.0-9.0-0.0-0.0-0.1-0.142","628","","f","","","","","","","","","","","","","key","f","16.661176470587687","768","428","j","false","img/S_ambi40.png","生人","same",""
"","","","","","html-keyboard-response","429","922266","0.0-9.0-0.0-0.0-0.1-1.142","null","<span style='color:red; font-size: 70px;'>错误! </span>","null","","","","","","","","","","","","","","","","","","","","","","","feedback_test"
"","","","","","psychophysics","430","924756","0.0-9.0-0.0-0.0-0.1-0.143","1489","","f","","","","","","","","","","","","","key","f","16.661081081080862","768","428","f","true","img/S_ambi40.png","朋友","same",""
"","","","","","html-keyboard-response","431","925257","0.0-9.0-0.0-0.0-0.1-1.143","null","<span style='color:GreenYellow; font-size: 70px;'>正确! </span>","null","","","","","","","","","","","","","","","","","","","","","","","feedback_test"
"","","","","","psychophysics","432","927516","0.0-9.0-0.0-0.0-0.1-0.144","1258","","f","","","","","","","","","","","","","key","f","16.660296296295538","768","428","f","true","img/S_ambi40.png","自我","same",""
"","","","","","html-keyboard-response","433","928017","0.0-9.0-0.0-0.0-0.1-1.144","null","<span style='color:GreenYellow; font-size: 70px;'>正确! </span>","null","","","","","","","","","","","","","","","","","","","","","","","feedback_test"
"","","","","","psychophysics","434","930188","0.0-9.0-0.0-0.0-0.1-0.145","1172","","j","","","","","","","","","","","","","key","j","16.661085271318047","768","428","j","true","img/S_ambi40.png","生人","same",""
"","","","","","html-keyboard-response","435","930690","0.0-9.0-0.0-0.0-0.1-1.145","null","<span style='color:GreenYellow; font-size: 70px;'>正确! </span>","null","","","","","","","","","","","","","","","","","","","","","","","feedback_test"
"","","","","","psychophysics","436","933059","0.0-9.0-0.0-0.0-0.1-0.146","1369","","f","","","","","","","","","","","","","key","f","16.66085106383015","768","428","f","true","img/H_ambi40.png","生人","same",""
"","","","","","html-keyboard-response","437","933562","0.0-9.0-0.0-0.0-0.1-1.146","null","<span style='color:GreenYellow; font-size: 70px;'>正确! </span>","null","","","","","","","","","","","","","","","","","","","","","","","feedback_test"
"","","","","","psychophysics","438","935283","0.0-9.0-0.0-0.0-0.1-0.147","720","","f","","","","","","","","","","","","","key","f","16.660588235294163","768","428","f","true","img/C_ambi40.png","自我","same",""
"","","","","","html-keyboard-response","439","935784","0.0-9.0-0.0-0.0-0.1-1.147","null","<span style='color:GreenYellow; font-size: 70px;'>正确! </span>","null","","","","","","","","","","","","","","","","","","","","","","","feedback_test"
"","","","","","psychophysics","440","937699","0.0-9.0-0.0-0.0-0.1-0.148","914","","j","","","","","","","","","","","","","key","j","16.66122807017548","768","428","j","true","img/T_ambi40.png","をる","same",""
"","","","","","html-keyboard-response","441","938200","0.0-9.0-0.0-0.0-0.1-1.148","null","<span style='color:GreenYellow; font-size: 70px;'>正确! </span>","null","","","","","","","","","","","","","","","","","","","","","","","feedback_test"
"","","","","","psychophysics","442","940020","0.0-9.0-0.0-0.0-0.1-0.149","818","","f","","","","","","","","","","","","","key","f","16.66000000000026","768","428","f","true","img/H_ambi40.png","朋友","same",""
