"success","timeout","failed_images","failed_audio","failed_video","trial_type","trial_index","time_elapsed","internal_node_id","rt","stimulus","response","value","item_width_mm","item_height_mm","item_width_px","px2mm","view_dist_mm","item_width_deg","px2deg","scale_factor","win_width_deg","win_height_deg","view_history","response_type","key_press","avg_frame_time","center_x","center_y","correct_response","correct","Image","word","condition","screen_id"
"true","false","[]","[]","[]","preload","0","14410","0.0-0.0","","","","","","","","","","","","","","","","","","","","","","","","","",""
"","","","","","html-keyboard-response","1","70047","0.0-1.0","55636","
     <p>您好，欢迎参加本次实验。</p>
     <p>为充分保障您的权利，请确保您已经知晓并同意《参与实验同意书》以及《数据公开知情同意书》。</p>
     <p>如果您未见过上述内容，请咨询实验员。</p>
     <p>如果您选择继续实验，则表示您已经清楚两份知情同意书的内容并同意。</p>
     <p> <div style = ""color: green""><按任意键至下页></div> </p>
     ","enter","","","","","","","","","","","","","","","","","","","","","","",""
"","","","","","html-keyboard-response","2","71487","0.0-2.0","1440","
     <p>本实验首先需要您填写一些基本个人信息。</p>
     <p> <div style = ""color: green""><按任意键至下页></div></p>
     ","enter","","","","","","","","","","","","","","","","","","","","","","",""
"","","","","","call-function","3","71488","0.0-3.0-0.0","","","","","","","","","","","","","","","","","","","","","","","","","",""
"","","","","","survey-html-form","4","74658","0.0-3.0-1.0","3168","","{""Q0"":""17""}","","","","","","","","","","","","","","","","","","","","","","",""
"","","","","","html-button-response","5","75628","0.0-3.0-2.0","969","<p style = 'color : white'>您的性别</p>","0","","","","","","","","","","","","","","","","","","","","","","",""
"","","","","","survey-html-form","6","78522","0.0-3.0-3.0","2893","","{""Q0"":""2003""}","","","","","","","","","","","","","","","","","","","","","","",""
"","","","","","survey-html-form","7","81742","0.0-3.0-4.0","3219","","{""Q0"":""5""}","","","","","","","","","","","","","","","","","","","","","","",""
"","","","","","virtual-chinrest","8","188000","0.0-4.0","106257","","","","85.6","53.98","298.3780842559562","3.485725283363974","821.12","5.967561685119124","50","1.4344217038167284","29.88","15.66","","","","","","","","","","","",""
"true","","","","","fullscreen","9","190353","0.0-5.0","","","","","","","","","","","","","","","","","","","","","","","","","",""
"","","","","","instructions","10","224205","0.0-6.0","33851","","","","","","","","","","","","","","[{""page_index"":0,""viewing_time"":4323},{""page_index"":1,""viewing_time"":24800},{""page_index"":2,""viewing_time"":2745},{""page_index"":3,""viewing_time"":1983}]","","","","","","","","","","",""
"","","","","","psychophysics","11","226715","0.0-7.0-0.0","null","","null","","","","","","","","","","","","","key","null","16.666187919463006","747","463","j","false","img/H_ambi40.png","自我","prac",""
"","","","","","html-keyboard-response","12","227217","0.0-7.0-1.0","null","<span class='add_' style='color:yellow; font-size: 70px;'> 太慢! </span>","null","","","","","","","","","","","","","","","","","","","","","","","feedback_test"
"","","","","","psychophysics","13","229728","0.0-7.0-0.1","null","","null","","","","","","","","","","","","","key","null","16.6661879194632","747","463","j","false","img/C_ambi40.png","生人","prac",""
"","","","","","html-keyboard-response","14","230240","0.0-7.0-1.1","null","<span class='add_' style='color:yellow; font-size: 70px;'> 太慢! </span>","null","","","","","","","","","","","","","","","","","","","","","","","feedback_test"
"","","","","","psychophysics","15","231534","0.0-7.0-0.2","284","","j","","","","","","","","","","","","","key","j","16.665415584415502","747","463","f","false","img/S_ambi40.png","自我","prac",""
"","","","","","html-keyboard-response","16","232042","0.0-7.0-1.2","null","<span style='color:red; font-size: 70px;'>错误! </span>","null","","","","","","","","","","","","","","","","","","","","","","","feedback_test"
"","","","","","psychophysics","17","233300","0.0-7.0-0.3","251","","f","","","","","","","","","","","","","key","f","16.665573333333402","747","463","f","true","img/T_ambi40.png","をる","prac",""
"","","","","","html-keyboard-response","18","233811","0.0-7.0-1.3","null","<span style='color:GreenYellow; font-size: 70px;'>正确! </span>","null","","","","","","","","","","","","","","","","","","","","","","","feedback_test"
"","","","","","psychophysics","19","235075","0.0-7.0-0.4","259","","f","","","","","","","","","","","","","key","f","16.666066666666882","747","463","f","true","img/T_ambi40.png","をる","prac",""
"","","","","","html-keyboard-response","20","235583","0.0-7.0-1.4","null","<span style='color:GreenYellow; font-size: 70px;'>正确! </span>","null","","","","","","","","","","","","","","","","","","","","","","","feedback_test"
"","","","","","psychophysics","21","236810","0.0-7.0-0.5","215","","j","","","","","","","","","","","","","key","j","16.66609722222226","747","463","j","true","img/S_ambi40.png","朋友","prac",""
"","","","","","html-keyboard-response","22","237324","0.0-7.0-1.5","null","<span style='color:GreenYellow; font-size: 70px;'>正确! </span>","null","","","","","","","","","","","","","","","","","","","","","","","feedback_test"
"","","","","","psychophysics","23","239827","0.0-7.0-0.6","null","","null","","","","","","","","","","","","","key","null","16.66602013422834","747","463","f","false","img/C_ambi40.png","朋友","prac",""
"","","","","","html-keyboard-response","24","240339","0.0-7.0-1.6","null","<span class='add_' style='color:yellow; font-size: 70px;'> 太慢! </span>","null","","","","","","","","","","","","","","","","","","","","","","","feedback_test"
"","","","","","psychophysics","25","241556","0.0-7.0-0.7","207","","j","","","","","","","","","","","","","key","j","16.66636111111115","747","463","f","false","img/S_ambi40.png","生人","prac",""
"","","","","","html-keyboard-response","26","242068","0.0-7.0-1.7","null","<span style='color:red; font-size: 70px;'>错误! </span>","null","","","","","","","","","","","","","","","","","","","","","","","feedback_test"
"","","","","","psychophysics","27","243248","0.0-7.0-0.8","170","","f","","","","","","","","","","","","","key","f","16.666391304347822","747","463","f","true","img/H_ambi40.png","生人","prac",""
"","","","","","html-keyboard-response","28","243761","0.0-7.0-1.8","null","<span style='color:yellow; font-size: 70px;'>过快! </span>","null","","","","","","","","","","","","","","","","","","","","","","","feedback_test"
"","","","","","psychophysics","29","244995","0.0-7.0-0.9","229","","f","","","","","","","","","","","","","key","f","16.666369863013553","747","463","f","true","img/C_ambi40.png","自我","prac",""
"","","","","","html-keyboard-response","30","245510","0.0-7.0-1.9","null","<span style='color:GreenYellow; font-size: 70px;'>正确! </span>","null","","","","","","","","","","","","","","","","","","","","","","","feedback_test"
"","","","","","psychophysics","31","246786","0.0-7.0-0.10","269","","j","","","","","","","","","","","","","key","j","16.66626315789472","747","463","j","true","img/C_ambi40.png","生人","prac",""
"","","","","","html-keyboard-response","32","247298","0.0-7.0-1.10","null","<span style='color:GreenYellow; font-size: 70px;'>正确! </span>","null","","","","","","","","","","","","","","","","","","","","","","","feedback_test"
"","","","","","psychophysics","33","248574","0.0-7.0-0.11","274","","f","","","","","","","","","","","","","key","f","16.489440000000176","747","463","j","false","img/S_ambi40.png","朋友","prac",""
"","","","","","html-keyboard-response","34","249084","0.0-7.0-1.11","null","<span style='color:red; font-size: 70px;'>错误! </span>","null","","","","","","","","","","","","","","","","","","","","","","","feedback_test"
"","","","","","psychophysics","35","251599","0.0-7.0-0.12","null","","null","","","","","","","","","","","","","key","null","16.666214765100694","747","463","f","false","img/H_ambi40.png","朋友","prac",""
"","","","","","html-keyboard-response","36","252113","0.0-7.0-1.12","null","<span class='add_' style='color:yellow; font-size: 70px;'> 太慢! </span>","null","","","","","","","","","","","","","","","","","","","","","","","feedback_test"
"","","","","","psychophysics","37","253342","0.0-7.0-0.13","225","","j","","","","","","","","","","","","","key","j","16.6661780821917","747","463","j","true","img/H_ambi40.png","自我","prac",""
"","","","","","html-keyboard-response","38","253853","0.0-7.0-1.13","null","<span style='color:GreenYellow; font-size: 70px;'>正确! </span>","null","","","","","","","","","","","","","","","","","","","","","","","feedback_test"
"","","","","","psychophysics","39","255153","0.0-7.0-0.14","290","","f","","","","","","","","","","","","","key","f","16.66638961038968","747","463","f","true","img/T_ambi40.png","をる","prac",""
"","","","","","html-keyboard-response","40","255670","0.0-7.0-1.14","null","<span style='color:GreenYellow; font-size: 70px;'>正确! </span>","null","","","","","","","","","","","","","","","","","","","","","","","feedback_test"
"","","","","","psychophysics","41","256924","0.0-7.0-0.15","246","","j","","","","","","","","","","","","","key","j","16.66614864864882","747","463","f","false","img/T_ambi40.png","をる","prac",""
"","","","","","html-keyboard-response","42","257440","0.0-7.0-1.15","null","<span style='color:red; font-size: 70px;'>错误! </span>","null","","","","","","","","","","","","","","","","","","","","","","","feedback_test"
"","","","","","psychophysics","43","258468","0.0-7.0-0.16","18","","f","","","","","","","","","","","","","key","f","16.66539344262259","747","463","f","true","img/H_ambi40.png","朋友","prac",""
"","","","","","html-keyboard-response","44","258981","0.0-7.0-1.16","null","<span style='color:yellow; font-size: 70px;'>过快! </span>","null","","","","","","","","","","","","","","","","","","","","","","","feedback_test"
"","","","","","psychophysics","45","260262","0.0-7.0-0.17","280","","f","","","","","","","","","","","","","key","f","16.666144736841822","747","463","f","true","img/S_ambi40.png","生人","prac",""
"","","","","","html-keyboard-response","46","260772","0.0-7.0-1.17","null","<span style='color:GreenYellow; font-size: 70px;'>正确! </span>","null","","","","","","","","","","","","","","","","","","","","","","","feedback_test"
"","","","","","psychophysics","47","262064","0.0-7.0-0.18","283","","f","","","","","","","","","","","","","key","f","16.665671052631776","747","463","j","false","img/S_ambi40.png","朋友","prac",""
"","","","","","html-keyboard-response","48","262571","0.0-7.0-1.18","null","<span style='color:red; font-size: 70px;'>错误! </span>","null","","","","","","","","","","","","","","","","","","","","","","","feedback_test"
"","","","","","psychophysics","49","263814","0.0-7.0-0.19","235","","j","","","","","","","","","","","","","key","j","16.66615068493092","747","463","f","false","img/T_ambi40.png","をる","prac",""
"","","","","","html-keyboard-response","50","264325","0.0-7.0-1.19","null","<span style='color:red; font-size: 70px;'>错误! </span>","null","","","","","","","","","","","","","","","","","","","","","","","feedback_test"
"","","","","","psychophysics","51","265406","0.0-7.0-0.20","73","","f","","","","","","","","","","","","","key","f","16.666156249999403","747","463","f","true","img/C_ambi40.png","自我","prac",""
"","","","","","html-keyboard-response","52","265908","0.0-7.0-1.20","null","<span style='color:yellow; font-size: 70px;'>过快! </span>","null","","","","","","","","","","","","","","","","","","","","","","","feedback_test"
"","","","","","psychophysics","53","267215","0.0-7.0-0.21","304","","f","","","","","","","","","","","","","key","f","16.66616883116862","747","463","f","true","img/S_ambi40.png","自我","prac",""
"","","","","","html-keyboard-response","54","267720","0.0-7.0-1.21","null","<span style='color:GreenYellow; font-size: 70px;'>正确! </span>","null","","","","","","","","","","","","","","","","","","","","","","","feedback_test"
"","","","","","psychophysics","55","268975","0.0-7.0-0.22","245","","f","","","","","","","","","","","","","key","f","16.666256756756166","747","463","j","false","img/C_ambi40.png","生人","prac",""
"","","","","","html-keyboard-response","56","269480","0.0-7.0-1.22","null","<span style='color:red; font-size: 70px;'>错误! </span>","null","","","","","","","","","","","","","","","","","","","","","","","feedback_test"
"","","","","","psychophysics","57","270731","0.0-7.0-0.23","249","","f","","","","","","","","","","","","","key","f","16.666013513513168","747","463","f","true","img/T_ambi40.png","をる","prac",""
"","","","","","html-keyboard-response","58","271246","0.0-7.0-1.23","null","<span style='color:GreenYellow; font-size: 70px;'>正确! </span>","null","","","","","","","","","","","","","","","","","","","","","","","feedback_test"
"","","","","","psychophysics","59","272435","0.0-7.0-0.24","185","","j","","","","","","","","","","","","","key","j","16.666704225352255","747","463","j","true","img/H_ambi40.png","自我","prac",""
"","","","","","html-keyboard-response","60","272950","0.0-7.0-1.24","null","<span style='color:yellow; font-size: 70px;'>过快! </span>","null","","","","","","","","","","","","","","","","","","","","","","","feedback_test"
"","","","","","psychophysics","61","274200","0.0-7.0-0.25","242","","f","","","","","","","","","","","","","key","f","16.665662162162434","747","463","j","false","img/H_ambi40.png","自我","prac",""
"","","","","","html-keyboard-response","62","274705","0.0-7.0-1.25","null","<span style='color:red; font-size: 70px;'>错误! </span>","null","","","","","","","","","","","","","","","","","","","","","","","feedback_test"
"","","","","","psychophysics","63","275930","0.0-7.0-0.26","220","","j","","","","","","","","","","","","","key","j","16.66629166666664","747","463","j","true","img/C_ambi40.png","生人","prac",""
"","","","","","html-keyboard-response","64","276440","0.0-7.0-1.26","null","<span style='color:GreenYellow; font-size: 70px;'>正确! </span>","null","","","","","","","","","","","","","","","","","","","","","","","feedback_test"
"","","","","","psychophysics","65","277709","0.0-7.0-0.27","260","","j","","","","","","","","","","","","","key","j","16.666093333333265","747","463","f","false","img/T_ambi40.png","をる","prac",""
"","","","","","html-keyboard-response","66","278213","0.0-7.0-1.27","null","<span style='color:red; font-size: 70px;'>错误! </span>","null","","","","","","","","","","","","","","","","","","","","","","","feedback_test"
"","","","","","psychophysics","67","279339","0.0-7.0-0.28","123","","f","","","","","","","","","","","","","key","f","16.665835820896024","747","463","f","true","img/H_ambi40.png","生人","prac",""
"","","","","","html-keyboard-response","68","279845","0.0-7.0-1.28","null","<span style='color:yellow; font-size: 70px;'>过快! </span>","null","","","","","","","","","","","","","","","","","","","","","","","feedback_test"
"","","","","","psychophysics","69","281094","0.0-7.0-0.29","245","","j","","","","","","","","","","","","","key","j","16.66666216216195","747","463","j","true","img/S_ambi40.png","朋友","prac",""
"","","","","","html-keyboard-response","70","281599","0.0-7.0-1.29","null","<span style='color:GreenYellow; font-size: 70px;'>正确! </span>","null","","","","","","","","","","","","","","","","","","","","","","","feedback_test"
"","","","","","psychophysics","71","284113","0.0-7.0-0.30","null","","null","","","","","","","","","","","","","key","null","16.666302013423078","747","463","f","false","img/C_ambi40.png","朋友","prac",""
"","","","","","html-keyboard-response","72","284627","0.0-7.0-1.30","null","<span class='add_' style='color:yellow; font-size: 70px;'> 太慢! </span>","null","","","","","","","","","","","","","","","","","","","","","","","feedback_test"
"","","","","","psychophysics","73","287130","0.0-7.0-0.31","null","","null","","","","","","","","","","","","","key","null","16.66630872483201","747","463","f","false","img/T_ambi40.png","をる","prac",""
"","","","","","html-keyboard-response","74","287646","0.0-7.0-1.31","null","<span class='add_' style='color:yellow; font-size: 70px;'> 太慢! </span>","null","","","","","","","","","","","","","","","","","","","","","","","feedback_test"
"","","","","","psychophysics","75","288793","0.0-8.0-0.0-0.0","144","","f","","","","","","","","","","","","","key","f","16.666044117646592","747","463","f","true","img/C_ambi40.png","朋友","prac",""
"","","","","","html-keyboard-response","76","289295","0.0-8.0-0.0-1.0","null","<span style='color:yellow; font-size: 70px;'>过快! </span>","null","","","","","","","","","","","","","","","","","","","","","","","feedback_test"
"","","","","","psychophysics","77","290587","0.0-8.0-0.0-0.1","289","","j","","","","","","","","","","","","","key","j","16.66615584415577","747","463","f","false","img/T_ambi40.png","をる","prac",""
"","","","","","html-keyboard-response","78","291101","0.0-8.0-0.0-1.1","null","<span style='color:red; font-size: 70px;'>错误! </span>","null","","","","","","","","","","","","","","","","","","","","","","","feedback_test"
"","","","","","psychophysics","79","292118","0.0-8.0-0.0-0.2","9","","f","","","","","","","","","","","","","key","f","16.666116666666735","747","463","f","true","img/T_ambi40.png","をる","prac",""
"","","","","","html-keyboard-response","80","292619","0.0-8.0-0.0-1.2","null","<span style='color:yellow; font-size: 70px;'>过快! </span>","null","","","","","","","","","","","","","","","","","","","","","","","feedback_test"
"","","","","","psychophysics","81","293909","0.0-8.0-0.0-0.3","282","","f","","","","","","","","","","","","","key","f","16.666276315789315","747","463","j","false","img/C_ambi40.png","生人","prac",""
"","","","","","html-keyboard-response","82","294421","0.0-8.0-0.0-1.3","null","<span style='color:red; font-size: 70px;'>错误! </span>","null","","","","","","","","","","","","","","","","","","","","","","","feedback_test"
"","","","","","psychophysics","83","295654","0.0-8.0-0.0-0.4","222","","j","","","","","","","","","","","","","key","j","16.665890410958713","747","463","f","false","img/T_ambi40.png","をる","prac",""
"","","","","","html-keyboard-response","84","296166","0.0-8.0-0.0-1.4","null","<span style='color:red; font-size: 70px;'>错误! </span>","null","","","","","","","","","","","","","","","","","","","","","","","feedback_test"
"","","","","","psychophysics","85","297292","0.0-8.0-0.0-0.5","121","","f","","","","","","","","","","","","","key","f","16.66627272727342","747","463","f","true","img/T_ambi40.png","をる","prac",""
"","","","","","html-keyboard-response","86","297804","0.0-8.0-0.0-1.5","null","<span style='color:yellow; font-size: 70px;'>过快! </span>","null","","","","","","","","","","","","","","","","","","","","","","","feedback_test"
"","","","","","psychophysics","87","299028","0.0-8.0-0.0-0.6","221","","f","","","","","","","","","","","","","key","f","16.666555555555938","747","463","f","true","img/H_ambi40.png","生人","prac",""
"","","","","","html-keyboard-response","88","299539","0.0-8.0-0.0-1.6","null","<span style='color:GreenYellow; font-size: 70px;'>正确! </span>","null","","","","","","","","","","","","","","","","","","","","","","","feedback_test"
"","","","","","psychophysics","89","300779","0.0-8.0-0.0-0.7","233","","f","","","","","","","","","","","","","key","f","16.666164383561707","747","463","f","true","img/S_ambi40.png","生人","prac",""
"","","","","","html-keyboard-response","90","301289","0.0-8.0-0.0-1.7","null","<span style='color:GreenYellow; font-size: 70px;'>正确! </span>","null","","","","","","","","","","","","","","","","","","","","","","","feedback_test"
"","","","","","psychophysics","91","302521","0.0-8.0-0.0-0.8","223","","f","","","","","","","","","","","","","key","f","16.66549315068501","747","463","f","true","img/C_ambi40.png","自我","prac",""
"","","","","","html-keyboard-response","92","303032","0.0-8.0-0.0-1.8","null","<span style='color:GreenYellow; font-size: 70px;'>正确! </span>","null","","","","","","","","","","","","","","","","","","","","","","","feedback_test"
"","","","","","psychophysics","93","304267","0.0-8.0-0.0-0.9","228","","f","","","","","","","","","","","","","key","f","16.666260273972437","747","463","j","false","img/C_ambi40.png","生人","prac",""
"","","","","","html-keyboard-response","94","304770","0.0-8.0-0.0-1.9","null","<span style='color:red; font-size: 70px;'>错误! </span>","null","","","","","","","","","","","","","","","","","","","","","","","feedback_test"
"","","","","","psychophysics","95","305805","0.0-8.0-0.0-0.10","30","","j","","","","","","","","","","","","","key","j","16.666180327868656","747","463","j","true","img/H_ambi40.png","自我","prac",""
"","","","","","html-keyboard-response","96","306320","0.0-8.0-0.0-1.10","null","<span style='color:yellow; font-size: 70px;'>过快! </span>","null","","","","","","","","","","","","","","","","","","","","","","","feedback_test"
"","","","","","psychophysics","97","307594","0.0-8.0-0.0-0.11","270","","j","","","","","","","","","","","","","key","j","16.666066666666882","747","463","f","false","img/S_ambi40.png","自我","prac",""
"","","","","","html-keyboard-response","98","308098","0.0-8.0-0.0-1.11","null","<span style='color:red; font-size: 70px;'>错误! </span>","null","","","","","","","","","","","","","","","","","","","","","","","feedback_test"
"","","","","","psychophysics","99","309351","0.0-8.0-0.0-0.12","252","","f","","","","","","","","","","","","","key","f","16.666297297297845","747","463","j","false","img/H_ambi40.png","自我","prac",""
"","","","","","html-keyboard-response","100","309855","0.0-8.0-0.0-1.12","null","<span style='color:red; font-size: 70px;'>错误! </span>","null","","","","","","","","","","","","","","","","","","","","","","","feedback_test"
"","","","","","psychophysics","101","312358","0.0-8.0-0.0-0.13","null","","null","","","","","","","","","","","","","key","null","16.666214765100694","747","463","j","false","img/S_ambi40.png","朋友","prac",""
"","","","","","html-keyboard-response","102","312867","0.0-8.0-0.0-1.13","null","<span class='add_' style='color:yellow; font-size: 70px;'> 太慢! </span>","null","","","","","","","","","","","","","","","","","","","","","","","feedback_test"
"","","","","","psychophysics","103","314041","0.0-8.0-0.0-0.14","168","","f","","","","","","","","","","","","","key","f","16.666304347826593","747","463","j","false","img/S_ambi40.png","朋友","prac",""
"","","","","","html-keyboard-response","104","314556","0.0-8.0-0.0-1.14","null","<span style='color:yellow; font-size: 70px;'>过快! </span>","null","","","","","","","","","","","","","","","","","","","","","","","feedback_test"
"","","","","","psychophysics","105","316647","0.0-8.0-0.0-0.15","1084","","j","","","","","","","","","","","","","key","j","16.666540322580747","747","463","f","false","img/H_ambi40.png","朋友","prac",""
"","","","","","html-keyboard-response","106","317150","0.0-8.0-0.0-1.15","null","<span style='color:red; font-size: 70px;'>错误! </span>","null","","","","","","","","","","","","","","","","","","","","","","","feedback_test"
"","","","","","psychophysics","107","318373","0.0-8.0-0.0-0.16","215","","f","","","","","","","","","","","","","key","f","16.66631944444493","747","463","j","false","img/H_ambi40.png","自我","prac",""
"","","","","","html-keyboard-response","108","318874","0.0-8.0-0.0-1.16","null","<span style='color:red; font-size: 70px;'>错误! </span>","null","","","","","","","","","","","","","","","","","","","","","","","feedback_test"
"","","","","","psychophysics","109","320483","0.0-8.0-0.0-0.17","602","","f","","","","","","","","","","","","","key","f","16.666166666666566","747","463","f","true","img/C_ambi40.png","自我","prac",""
"","","","","","html-keyboard-response","110","320988","0.0-8.0-0.0-1.17","null","<span style='color:GreenYellow; font-size: 70px;'>正确! </span>","null","","","","","","","","","","","","","","","","","","","","","","","feedback_test"
"","","","","","psychophysics","111","322400","0.0-8.0-0.0-0.18","407","","j","","","","","","","","","","","","","key","j","16.665809523809695","747","463","f","false","img/T_ambi40.png","をる","prac",""
"","","","","","html-keyboard-response","112","322905","0.0-8.0-0.0-1.18","null","<span style='color:red; font-size: 70px;'>错误! </span>","null","","","","","","","","","","","","","","","","","","","","","","","feedback_test"
"","","","","","psychophysics","113","324202","0.0-8.0-0.0-0.19","287","","f","","","","","","","","","","","","","key","f","16.666506493506446","747","463","f","true","img/H_ambi40.png","朋友","prac",""
"","","","","","html-keyboard-response","114","324712","0.0-8.0-0.0-1.19","null","<span style='color:GreenYellow; font-size: 70px;'>正确! </span>","null","","","","","","","","","","","","","","","","","","","","","","","feedback_test"
"","","","","","psychophysics","115","325993","0.0-8.0-0.0-0.20","279","","f","","","","","","","","","","","","","key","f","16.666078947368845","747","463","f","true","img/S_ambi40.png","自我","prac",""
"","","","","","html-keyboard-response","116","326502","0.0-8.0-0.0-1.20","null","<span style='color:GreenYellow; font-size: 70px;'>正确! </span>","null","","","","","","","","","","","","","","","","","","","","","","","feedback_test"
"","","","","","psychophysics","117","327795","0.0-8.0-0.0-0.21","285","","j","","","","","","","","","","","","","key","j","16.66615789473642","747","463","f","false","img/S_ambi40.png","生人","prac",""
"","","","","","html-keyboard-response","118","328302","0.0-8.0-0.0-1.21","null","<span style='color:red; font-size: 70px;'>错误! </span>","null","","","","","","","","","","","","","","","","","","","","","","","feedback_test"
"","","","","","psychophysics","119","329490","0.0-8.0-0.0-0.22","180","","f","","","","","","","","","","","","","key","f","16.666099999999695","747","463","f","true","img/T_ambi40.png","をる","prac",""
"","","","","","html-keyboard-response","120","329997","0.0-8.0-0.0-1.22","null","<span style='color:yellow; font-size: 70px;'>过快! </span>","null","","","","","","","","","","","","","","","","","","","","","","","feedback_test"
"","","","","","psychophysics","121","331243","0.0-8.0-0.0-0.23","245","","f","","","","","","","","","","","","","key","f","16.666301369863206","747","463","j","false","img/S_ambi40.png","朋友","prac",""
"","","","","","html-keyboard-response","122","331744","0.0-8.0-0.0-1.23","null","<span style='color:red; font-size: 70px;'>错误! </span>","null","","","","","","","","","","","","","","","","","","","","","","","feedback_test"
"","","","","","psychophysics","123","333018","0.0-8.0-0.0-0.24","270","","f","","","","","","","","","","","","","key","f","16.665539473684284","747","463","f","true","img/T_ambi40.png","をる","prac",""
"","","","","","html-keyboard-response","124","333533","0.0-8.0-0.0-1.24","null","<span style='color:GreenYellow; font-size: 70px;'>正确! </span>","null","","","","","","","","","","","","","","","","","","","","","","","feedback_test"
"","","","","","psychophysics","125","334833","0.0-8.0-0.0-0.25","293","","f","","","","","","","","","","","","","key","f","16.666233766233614","747","463","j","false","img/H_ambi40.png","自我","prac",""
"","","","","","html-keyboard-response","126","335340","0.0-8.0-0.0-1.25","null","<span style='color:red; font-size: 70px;'>错误! </span>","null","","","","","","","","","","","","","","","","","","","","","","","feedback_test"
"","","","","","psychophysics","127","336614","0.0-8.0-0.0-0.26","269","","f","","","","","","","","","","","","","key","f","16.666266666666296","747","463","f","true","img/H_ambi40.png","生人","prac",""
"","","","","","html-keyboard-response","128","337120","0.0-8.0-0.0-1.26","null","<span style='color:GreenYellow; font-size: 70px;'>正确! </span>","null","","","","","","","","","","","","","","","","","","","","","","","feedback_test"
"","","","","","psychophysics","129","338346","0.0-8.0-0.0-0.27","222","","f","","","","","","","","","","","","","key","f","16.666305555555383","747","463","f","true","img/C_ambi40.png","朋友","prac",""
"","","","","","html-keyboard-response","130","338856","0.0-8.0-0.0-1.27","null","<span style='color:GreenYellow; font-size: 70px;'>正确! </span>","null","","","","","","","","","","","","","","","","","","","","","","","feedback_test"
"","","","","","psychophysics","131","340146","0.0-8.0-0.0-0.28","285","","f","","","","","","","","","","","","","key","f","16.66621052631557","747","463","j","false","img/C_ambi40.png","生人","prac",""
"","","","","","html-keyboard-response","132","340654","0.0-8.0-0.0-1.28","null","<span style='color:red; font-size: 70px;'>错误! </span>","null","","","","","","","","","","","","","","","","","","","","","","","feedback_test"
"","","","","","psychophysics","133","341797","0.0-8.0-0.0-0.29","133","","j","","","","","","","","","","","","","key","j","16.66698507462722","747","463","f","false","img/T_ambi40.png","をる","prac",""
"","","","","","html-keyboard-response","134","342306","0.0-8.0-0.0-1.29","null","<span style='color:yellow; font-size: 70px;'>过快! </span>","null","","","","","","","","","","","","","","","","","","","","","","","feedback_test"
"","","","","","psychophysics","135","343532","0.0-8.0-0.0-0.30","223","","f","","","","","","","","","","","","","key","f","16.66613698630093","747","463","j","false","img/S_ambi40.png","朋友","prac",""
"","","","","","html-keyboard-response","136","344039","0.0-8.0-0.0-1.30","null","<span style='color:red; font-size: 70px;'>错误! </span>","null","","","","","","","","","","","","","","","","","","","","","","","feedback_test"
"","","","","","psychophysics","137","345302","0.0-8.0-0.0-0.31","255","","j","","","","","","","","","","","","","key","j","16.66579999999997","747","463","j","true","img/C_ambi40.png","生人","prac",""
"","","","","","html-keyboard-response","138","345811","0.0-8.0-0.0-1.31","null","<span style='color:GreenYellow; font-size: 70px;'>正确! </span>","null","","","","","","","","","","","","","","","","","","","","","","","feedback_test"
"","","","","","html-keyboard-response","139","356157","0.0-8.0-1.0-0.0","10344","<style>.context{color:white; font-size: 35px; line-height:40px}</style>                          <div><p class='context'>您正确回答了47% 的试次。</p ><p class='context'>您的平均反应时为223毫秒。</p >","j","","","","","","","","","","","","","","","","","","","","","","",""
"","","","","","instructions","140","406545","0.0-8.0-1.0-1.0","50387","","","","","","","","","","","","","","[{""page_index"":0,""viewing_time"":4903},{""page_index"":1,""viewing_time"":44488},{""page_index"":2,""viewing_time"":997}]","","","","","","","","","","",""
"","","","","","psychophysics","141","409061","0.0-8.1-0.1-0.32","null","","null","","","","","","","","","","","","","key","null","16.666523489933116","747","463","f","false","img/T_ambi40.png","をる","prac",""
"","","","","","html-keyboard-response","142","409573","0.0-8.1-0.1-1.32","null","<span class='add_' style='color:yellow; font-size: 70px;'> 太慢! </span>","null","","","","","","","","","","","","","","","","","","","","","","","feedback_test"
"","","","","","psychophysics","143","412079","0.0-8.1-0.1-0.33","null","","null","","","","","","","","","","","","","key","null","16.666100671140622","747","463","f","false","img/S_ambi40.png","自我","prac",""
"","","","","","html-keyboard-response","144","412581","0.0-8.1-0.1-1.33","null","<span class='add_' style='color:yellow; font-size: 70px;'> 太慢! </span>","null","","","","","","","","","","","","","","","","","","","","","","","feedback_test"
"","","","","","psychophysics","145","413821","0.0-8.1-0.1-0.34","227","","f","","","","","","","","","","","","","key","f","16.666095890410958","747","463","f","true","img/T_ambi40.png","をる","prac",""
"","","","","","html-keyboard-response","146","414323","0.0-8.1-0.1-1.34","null","<span style='color:GreenYellow; font-size: 70px;'>正确! </span>","null","","","","","","","","","","","","","","","","","","","","","","","feedback_test"
"","","","","","psychophysics","147","415593","0.0-8.1-0.1-0.35","264","","f","","","","","","","","","","","","","key","f","16.665759999999622","747","463","f","true","img/H_ambi40.png","生人","prac",""
"","","","","","html-keyboard-response","148","416094","0.0-8.1-0.1-1.35","null","<span style='color:GreenYellow; font-size: 70px;'>正确! </span>","null","","","","","","","","","","","","","","","","","","","","","","","feedback_test"
"","","","","","psychophysics","149","417342","0.0-8.1-0.1-0.36","246","","f","","","","","","","","","","","","","key","f","16.482465753424275","747","463","f","true","img/C_ambi40.png","自我","prac",""
"","","","","","html-keyboard-response","150","417842","0.0-8.1-0.1-1.36","null","<span style='color:GreenYellow; font-size: 70px;'>正确! </span>","null","","","","","","","","","","","","","","","","","","","","","","","feedback_test"
"","","","","","psychophysics","151","419062","0.0-8.1-0.1-0.37","217","","j","","","","","","","","","","","","","key","j","16.66602739726021","747","463","j","true","img/C_ambi40.png","生人","prac",""
"","","","","","html-keyboard-response","152","419563","0.0-8.1-0.1-1.37","null","<span style='color:GreenYellow; font-size: 70px;'>正确! </span>","null","","","","","","","","","","","","","","","","","","","","","","","feedback_test"
"","","","","","psychophysics","153","420704","0.0-8.1-0.1-0.38","139","","f","","","","","","","","","","","","","key","f","16.6662835820896","747","463","j","false","img/H_ambi40.png","自我","prac",""
"","","","","","html-keyboard-response","154","421218","0.0-8.1-0.1-1.38","null","<span style='color:yellow; font-size: 70px;'>过快! </span>","null","","","","","","","","","","","","","","","","","","","","","","","feedback_test"
"","","","","","psychophysics","155","422352","0.0-8.1-0.1-0.39","124","","j","","","","","","","","","","","","","key","j","16.666074626865353","747","463","f","false","img/T_ambi40.png","をる","prac",""
"","","","","","html-keyboard-response","156","422867","0.0-8.1-0.1-1.39","null","<span style='color:yellow; font-size: 70px;'>过快! </span>","null","","","","","","","","","","","","","","","","","","","","","","","feedback_test"
"","","","","","psychophysics","157","424006","0.0-8.1-0.1-0.40","130","","f","","","","","","","","","","","","","key","f","16.666253731342785","747","463","f","true","img/H_ambi40.png","朋友","prac",""
"","","","","","html-keyboard-response","158","424511","0.0-8.1-0.1-1.40","null","<span style='color:yellow; font-size: 70px;'>过快! </span>","null","","","","","","","","","","","","","","","","","","","","","","","feedback_test"
"","","","","","psychophysics","159","425788","0.0-8.1-0.1-0.41","276","","f","","","","","","","","","","","","","key","f","16.47927999999995","747","463","f","true","img/C_ambi40.png","朋友","prac",""
"","","","","","html-keyboard-response","160","426303","0.0-8.1-0.1-1.41","null","<span style='color:GreenYellow; font-size: 70px;'>正确! </span>","null","","","","","","","","","","","","","","","","","","","","","","","feedback_test"
"","","","","","psychophysics","161","427624","0.0-8.1-0.1-0.42","314","","j","","","","","","","","","","","","","key","j","16.66633333333317","747","463","j","true","img/S_ambi40.png","朋友","prac",""
"","","","","","html-keyboard-response","162","428135","0.0-8.1-0.1-1.42","null","<span style='color:GreenYellow; font-size: 70px;'>正确! </span>","null","","","","","","","","","","","","","","","","","","","","","","","feedback_test"
"","","","","","psychophysics","163","429483","0.0-8.1-0.1-0.43","339","","f","","","","","","","","","","","","","key","f","16.666124999999738","747","463","f","true","img/S_ambi40.png","生人","prac",""
"","","","","","html-keyboard-response","164","429986","0.0-8.1-0.1-1.43","null","<span style='color:GreenYellow; font-size: 70px;'>正确! </span>","null","","","","","","","","","","","","","","","","","","","","","","","feedback_test"
"","","","","","psychophysics","165","431262","0.0-8.1-0.1-0.44","269","","f","","","","","","","","","","","","","key","f","16.665684210526372","747","463","j","false","img/H_ambi40.png","自我","prac",""
"","","","","","html-keyboard-response","166","431768","0.0-8.1-0.1-1.44","null","<span style='color:red; font-size: 70px;'>错误! </span>","null","","","","","","","","","","","","","","","","","","","","","","","feedback_test"
"","","","","","psychophysics","167","432953","0.0-8.1-0.1-0.45","176","","j","","","","","","","","","","","","","key","j","16.666157142857056","747","463","j","true","img/C_ambi40.png","生人","prac",""
"","","","","","html-keyboard-response","168","433459","0.0-8.1-0.1-1.45","null","<span style='color:yellow; font-size: 70px;'>过快! </span>","null","","","","","","","","","","","","","","","","","","","","","","","feedback_test"
"","","","","","psychophysics","169","434724","0.0-8.1-0.1-0.46","263","","f","","","","","","","","","","","","","key","f","16.66647999999967","747","463","j","false","img/S_ambi40.png","朋友","prac",""
"","","","","","html-keyboard-response","170","435229","0.0-8.1-0.1-1.46","null","<span style='color:red; font-size: 70px;'>错误! </span>","null","","","","","","","","","","","","","","","","","","","","","","","feedback_test"
"","","","","","psychophysics","171","436510","0.0-8.1-0.1-0.47","270","","f","","","","","","","","","","","","","key","f","16.666039999999725","747","463","f","true","img/T_ambi40.png","をる","prac",""
"","","","","","html-keyboard-response","172","437016","0.0-8.1-0.1-1.47","null","<span style='color:GreenYellow; font-size: 70px;'>正确! </span>","null","","","","","","","","","","","","","","","","","","","","","","","feedback_test"
"","","","","","psychophysics","173","438356","0.0-8.1-0.1-0.48","330","","f","","","","","","","","","","","","","key","f","16.66634177215194","747","463","f","true","img/T_ambi40.png","をる","prac",""
"","","","","","html-keyboard-response","174","438866","0.0-8.1-0.1-1.48","null","<span style='color:GreenYellow; font-size: 70px;'>正确! </span>","null","","","","","","","","","","","","","","","","","","","","","","","feedback_test"
"","","","","","psychophysics","175","440132","0.0-8.1-0.1-0.49","255","","f","","","","","","","","","","","","","key","f","16.666239999999913","747","463","j","false","img/C_ambi40.png","生人","prac",""
"","","","","","html-keyboard-response","176","440638","0.0-8.1-0.1-1.49","null","<span style='color:red; font-size: 70px;'>错误! </span>","null","","","","","","","","","","","","","","","","","","","","","","","feedback_test"
"","","","","","psychophysics","177","441918","0.0-8.1-0.1-0.50","275","","f","","","","","","","","","","","","","key","f","16.666131578947226","747","463","f","true","img/T_ambi40.png","をる","prac",""
"","","","","","html-keyboard-response","178","442432","0.0-8.1-0.1-1.50","null","<span style='color:GreenYellow; font-size: 70px;'>正确! </span>","null","","","","","","","","","","","","","","","","","","","","","","","feedback_test"
"","","","","","psychophysics","179","443745","0.0-8.1-0.1-0.51","306","","f","","","","","","","","","","","","","key","f","16.66638461538465","747","463","f","true","img/H_ambi40.png","生人","prac",""
"","","","","","html-keyboard-response","180","444246","0.0-8.1-0.1-1.51","null","<span style='color:GreenYellow; font-size: 70px;'>正确! </span>","null","","","","","","","","","","","","","","","","","","","","","","","feedback_test"
"","","","","","psychophysics","181","445583","0.0-8.1-0.1-0.52","329","","f","","","","","","","","","","","","","key","f","16.66627848101264","747","463","f","true","img/S_ambi40.png","生人","prac",""
"","","","","","html-keyboard-response","182","446092","0.0-8.1-0.1-1.52","null","<span style='color:GreenYellow; font-size: 70px;'>正确! </span>","null","","","","","","","","","","","","","","","","","","","","","","","feedback_test"
"","","","","","psychophysics","183","447370","0.0-8.1-0.1-0.53","276","","f","","","","","","","","","","","","","key","f","16.666052631578886","747","463","j","false","img/H_ambi40.png","自我","prac",""
"","","","","","html-keyboard-response","184","447878","0.0-8.1-0.1-1.53","null","<span style='color:red; font-size: 70px;'>错误! </span>","null","","","","","","","","","","","","","","","","","","","","","","","feedback_test"
"","","","","","psychophysics","185","449103","0.0-8.1-0.1-0.54","218","","j","","","","","","","","","","","","","key","j","16.666305555555383","747","463","f","false","img/T_ambi40.png","をる","prac",""
"","","","","","html-keyboard-response","186","449618","0.0-8.1-0.1-1.54","null","<span style='color:red; font-size: 70px;'>错误! </span>","null","","","","","","","","","","","","","","","","","","","","","","","feedback_test"
"","","","","","psychophysics","187","450763","0.0-8.1-0.1-0.55","137","","f","","","","","","","","","","","","","key","f","16.6664558823532","747","463","f","true","img/C_ambi40.png","自我","prac",""
"","","","","","html-keyboard-response","188","451265","0.0-8.1-0.1-1.55","null","<span style='color:yellow; font-size: 70px;'>过快! </span>","null","","","","","","","","","","","","","","","","","","","","","","","feedback_test"
"","","","","","psychophysics","189","452514","0.0-8.1-0.1-0.56","239","","f","","","","","","","","","","","","","key","f","16.666378378378056","747","463","j","false","img/S_ambi40.png","朋友","prac",""
"","","","","","html-keyboard-response","190","453026","0.0-8.1-0.1-1.56","null","<span style='color:red; font-size: 70px;'>错误! </span>","null","","","","","","","","","","","","","","","","","","","","","","","feedback_test"
"","","","","","psychophysics","191","454340","0.0-8.1-0.1-0.57","312","","f","","","","","","","","","","","","","key","f","16.4921038961038","747","463","j","false","img/H_ambi40.png","自我","prac",""
"","","","","","html-keyboard-response","192","454845","0.0-8.1-0.1-1.57","null","<span style='color:red; font-size: 70px;'>错误! </span>","null","","","","","","","","","","","","","","","","","","","","","","","feedback_test"
"","","","","","psychophysics","193","456108","0.0-8.1-0.1-0.58","255","","f","","","","","","","","","","","","","key","f","16.66612162162169","747","463","f","true","img/H_ambi40.png","朋友","prac",""
"","","","","","html-keyboard-response","194","456614","0.0-8.1-0.1-1.58","null","<span style='color:GreenYellow; font-size: 70px;'>正确! </span>","null","","","","","","","","","","","","","","","","","","","","","","","feedback_test"
"","","","","","psychophysics","195","457858","0.0-8.1-0.1-0.59","235","","f","","","","","","","","","","","","","key","f","16.666287671232418","747","463","f","true","img/S_ambi40.png","自我","prac",""
"","","","","","html-keyboard-response","196","458368","0.0-8.1-0.1-1.59","null","<span style='color:GreenYellow; font-size: 70px;'>正确! </span>","null","","","","","","","","","","","","","","","","","","","","","","","feedback_test"
"","","","","","psychophysics","197","459644","0.0-8.1-0.1-0.60","266","","f","","","","","","","","","","","","","key","f","16.666093333333265","747","463","j","false","img/C_ambi40.png","生人","prac",""
"","","","","","html-keyboard-response","198","460159","0.0-8.1-0.1-1.60","null","<span style='color:red; font-size: 70px;'>错误! </span>","null","","","","","","","","","","","","","","","","","","","","","","","feedback_test"
"","","","","","psychophysics","199","461390","0.0-8.1-0.1-0.61","230","","f","","","","","","","","","","","","","key","f","16.496208333332714","747","463","j","false","img/S_ambi40.png","朋友","prac",""
"","","","","","html-keyboard-response","200","461903","0.0-8.1-0.1-1.61","null","<span style='color:red; font-size: 70px;'>错误! </span>","null","","","","","","","","","","","","","","","","","","","","","","","feedback_test"
"","","","","","psychophysics","201","463120","0.0-8.1-0.1-0.62","209","","f","","","","","","","","","","","","","key","f","16.665916666666615","747","463","f","true","img/C_ambi40.png","朋友","prac",""
"","","","","","html-keyboard-response","202","463628","0.0-8.1-0.1-1.62","null","<span style='color:GreenYellow; font-size: 70px;'>正确! </span>","null","","","","","","","","","","","","","","","","","","","","","","","feedback_test"
"","","","","","psychophysics","203","464861","0.0-8.1-0.1-0.63","224","","j","","","","","","","","","","","","","key","j","16.666109589041746","747","463","f","false","img/T_ambi40.png","をる","prac",""
"","","","","","html-keyboard-response","204","465369","0.0-8.1-0.1-1.63","null","<span style='color:red; font-size: 70px;'>错误! </span>","null","","","","","","","","","","","","","","","","","","","","","","","feedback_test"
"","","","","","html-keyboard-response","205","475315","0.0-8.1-1.1-0.1","9945","<style>.context{color:white; font-size: 35px; line-height:40px}</style>                          <div><p class='context'>您正确回答了56% 的试次。</p ><p class='context'>您的平均反应时为252毫秒。</p >","j","","","","","","","","","","","","","","","","","","","","","","",""
"","","","","","instructions","206","480926","0.0-8.1-1.1-1.1","5609","","","","","","","","","","","","","","[{""page_index"":0,""viewing_time"":3260},{""page_index"":1,""viewing_time"":1683},{""page_index"":2,""viewing_time"":666}]","","","","","","","","","","",""
"","","","","","psychophysics","207","482615","0.0-8.2-0.2-0.64","675","","f","","","","","","","","","","","","","key","f","16.666599999999743","747","463","f","true","img/H_ambi40.png","生人","prac",""
"","","","","","html-keyboard-response","208","483123","0.0-8.2-0.2-1.64","null","<span style='color:GreenYellow; font-size: 70px;'>正确! </span>","null","","","","","","","","","","","","","","","","","","","","","","","feedback_test"
"","","","","","psychophysics","209","484422","0.0-8.2-0.2-0.65","295","","f","","","","","","","","","","","","","key","f","16.665233766233744","747","463","f","true","img/T_ambi40.png","をる","prac",""
"","","","","","html-keyboard-response","210","484931","0.0-8.2-0.2-1.65","null","<span style='color:GreenYellow; font-size: 70px;'>正确! </span>","null","","","","","","","","","","","","","","","","","","","","","","","feedback_test"
"","","","","","psychophysics","211","486425","0.0-8.2-0.2-0.66","482","","f","","","","","","","","","","","","","key","f","16.666136363636312","747","463","j","false","img/C_ambi40.png","生人","prac",""
"","","","","","html-keyboard-response","212","486938","0.0-8.2-0.2-1.66","null","<span style='color:red; font-size: 70px;'>错误! </span>","null","","","","","","","","","","","","","","","","","","","","","","","feedback_test"
"","","","","","psychophysics","213","488419","0.0-8.2-0.2-0.67","476","","f","","","","","","","","","","","","","key","f","16.6658750000001","747","463","f","true","img/H_ambi40.png","朋友","prac",""
"","","","","","html-keyboard-response","214","488931","0.0-8.2-0.2-1.67","null","<span style='color:GreenYellow; font-size: 70px;'>正确! </span>","null","","","","","","","","","","","","","","","","","","","","","","","feedback_test"
"","","","","","psychophysics","215","490475","0.0-8.2-0.2-0.68","543","","f","","","","","","","","","","","","","key","f","16.66696703296723","747","463","j","false","img/S_ambi40.png","朋友","prac",""
"","","","","","html-keyboard-response","216","490983","0.0-8.2-0.2-1.68","null","<span style='color:red; font-size: 70px;'>错误! </span>","null","","","","","","","","","","","","","","","","","","","","","","","feedback_test"
"","","","","","psychophysics","217","492396","0.0-8.2-0.2-0.69","404","","f","","","","","","","","","","","","","key","f","16.867012048192766","747","463","f","true","img/S_ambi40.png","生人","prac",""
"","","","","","html-keyboard-response","218","492912","0.0-8.2-0.2-1.69","null","<span style='color:GreenYellow; font-size: 70px;'>正确! </span>","null","","","","","","","","","","","","","","","","","","","","","","","feedback_test"
"","","","","","psychophysics","219","494389","0.0-8.2-0.2-0.70","467","","f","","","","","","","","","","","","","key","f","16.666068965516953","747","463","j","false","img/S_ambi40.png","朋友","prac",""
"","","","","","html-keyboard-response","220","494903","0.0-8.2-0.2-1.70","null","<span style='color:red; font-size: 70px;'>错误! </span>","null","","","","","","","","","","","","","","","","","","","","","","","feedback_test"
"","","","","","psychophysics","221","496285","0.0-8.2-0.2-0.71","375","","f","","","","","","","","","","","","","key","f","16.66604878048827","747","463","f","true","img/T_ambi40.png","をる","prac",""
"","","","","","html-keyboard-response","222","496787","0.0-8.2-0.2-1.71","null","<span style='color:GreenYellow; font-size: 70px;'>正确! </span>","null","","","","","","","","","","","","","","","","","","","","","","","feedback_test"
"","","","","","psychophysics","223","498523","0.0-8.2-0.2-0.72","730","","f","","","","","","","","","","","","","key","f","16.666077669902627","747","463","j","false","img/H_ambi40.png","自我","prac",""
"","","","","","html-keyboard-response","224","499037","0.0-8.2-0.2-1.72","null","<span style='color:red; font-size: 70px;'>错误! </span>","null","","","","","","","","","","","","","","","","","","","","","","","feedback_test"
"","","","","","psychophysics","225","500398","0.0-8.2-0.2-0.73","355","","f","","","","","","","","","","","","","key","f","16.666111111111313","747","463","f","true","img/T_ambi40.png","をる","prac",""
"","","","","","html-keyboard-response","226","500899","0.0-8.2-0.2-1.73","null","<span style='color:GreenYellow; font-size: 70px;'>正确! </span>","null","","","","","","","","","","","","","","","","","","","","","","","feedback_test"
"","","","","","psychophysics","227","502365","0.0-8.2-0.2-0.74","456","","f","","","","","","","","","","","","","key","f","16.66627586206914","747","463","f","true","img/C_ambi40.png","朋友","prac",""
"","","","","","html-keyboard-response","228","502868","0.0-8.2-0.2-1.74","null","<span style='color:GreenYellow; font-size: 70px;'>正确! </span>","null","","","","","","","","","","","","","","","","","","","","","","","feedback_test"
"","","","","","psychophysics","229","504256","0.0-8.2-0.2-0.75","380","","f","","","","","","","","","","","","","key","f","16.666170731707187","747","463","j","false","img/H_ambi40.png","自我","prac",""
"","","","","","html-keyboard-response","230","504762","0.0-8.2-0.2-1.75","null","<span style='color:red; font-size: 70px;'>错误! </span>","null","","","","","","","","","","","","","","","","","","","","","","","feedback_test"
"","","","","","psychophysics","231","506093","0.0-8.2-0.2-0.76","321","","f","","","","","","","","","","","","","key","f","16.666189873417178","747","463","f","true","img/T_ambi40.png","をる","prac",""
"","","","","","html-keyboard-response","232","506597","0.0-8.2-0.2-1.76","null","<span style='color:GreenYellow; font-size: 70px;'>正确! </span>","null","","","","","","","","","","","","","","","","","","","","","","","feedback_test"
"","","","","","psychophysics","233","507907","0.0-8.2-0.2-0.77","305","","f","","","","","","","","","","","","","key","f","16.666181818182224","747","463","f","true","img/S_ambi40.png","自我","prac",""
"","","","","","html-keyboard-response","234","508411","0.0-8.2-0.2-1.77","null","<span style='color:GreenYellow; font-size: 70px;'>正确! </span>","null","","","","","","","","","","","","","","","","","","","","","","","feedback_test"
"","","","","","psychophysics","235","509691","0.0-8.2-0.2-0.78","273","","f","","","","","","","","","","","","","key","f","16.66628000000026","747","463","f","true","img/C_ambi40.png","自我","prac",""
"","","","","","html-keyboard-response","236","510195","0.0-8.2-0.2-1.78","null","<span style='color:GreenYellow; font-size: 70px;'>正确! </span>","null","","","","","","","","","","","","","","","","","","","","","","","feedback_test"
"","","","","","psychophysics","237","511615","0.0-8.2-0.2-0.79","414","","f","","","","","","","","","","","","","key","f","16.66616666666717","747","463","j","false","img/C_ambi40.png","生人","prac",""
"","","","","","html-keyboard-response","238","512117","0.0-8.2-0.2-1.79","null","<span style='color:red; font-size: 70px;'>错误! </span>","null","","","","","","","","","","","","","","","","","","","","","","","feedback_test"
"","","","","","psychophysics","239","513446","0.0-8.2-0.2-0.80","320","","f","","","","","","","","","","","","","key","f","16.665835443037544","747","463","j","false","img/H_ambi40.png","自我","prac",""
"","","","","","html-keyboard-response","240","513957","0.0-8.2-0.2-1.80","null","<span style='color:red; font-size: 70px;'>错误! </span>","null","","","","","","","","","","","","","","","","","","","","","","","feedback_test"
"","","","","","psychophysics","241","515232","0.0-8.2-0.2-0.81","273","","f","","","","","","","","","","","","","key","f","16.666078947368078","747","463","j","false","img/C_ambi40.png","生人","prac",""
"","","","","","html-keyboard-response","242","515736","0.0-8.2-0.2-1.81","null","<span style='color:red; font-size: 70px;'>错误! </span>","null","","","","","","","","","","","","","","","","","","","","","","","feedback_test"
"","","","","","psychophysics","243","517029","0.0-8.2-0.2-0.82","290","","f","","","","","","","","","","","","","key","f","16.666259740260067","747","463","f","true","img/C_ambi40.png","朋友","prac",""
"","","","","","html-keyboard-response","244","517538","0.0-8.2-0.2-1.82","null","<span style='color:GreenYellow; font-size: 70px;'>正确! </span>","null","","","","","","","","","","","","","","","","","","","","","","","feedback_test"
"","","","","","psychophysics","245","518840","0.0-8.2-0.2-0.83","298","","f","","","","","","","","","","","","","key","f","16.66551948051942","747","463","j","false","img/H_ambi40.png","自我","prac",""
"","","","","","html-keyboard-response","246","519352","0.0-8.2-0.2-1.83","null","<span style='color:red; font-size: 70px;'>错误! </span>","null","","","","","","","","","","","","","","","","","","","","","","","feedback_test"
"","","","","","psychophysics","247","520616","0.0-8.2-0.2-0.84","257","","f","","","","","","","","","","","","","key","f","16.666013333333346","747","463","f","true","img/T_ambi40.png","をる","prac",""
"","","","","","html-keyboard-response","248","521128","0.0-8.2-0.2-1.84","null","<span style='color:GreenYellow; font-size: 70px;'>正确! </span>","null","","","","","","","","","","","","","","","","","","","","","","","feedback_test"
"","","","","","psychophysics","249","522391","0.0-8.2-0.2-0.85","255","","f","","","","","","","","","","","","","key","f","16.665959459460478","747","463","j","false","img/S_ambi40.png","朋友","prac",""
"","","","","","html-keyboard-response","250","522896","0.0-8.2-0.2-1.85","null","<span style='color:red; font-size: 70px;'>错误! </span>","null","","","","","","","","","","","","","","","","","","","","","","","feedback_test"
"","","","","","psychophysics","251","524163","0.0-8.2-0.2-0.86","259","","f","","","","","","","","","","","","","key","f","16.666226666665946","747","463","j","false","img/S_ambi40.png","朋友","prac",""
"","","","","","html-keyboard-response","252","524679","0.0-8.2-0.2-1.86","null","<span style='color:red; font-size: 70px;'>错误! </span>","null","","","","","","","","","","","","","","","","","","","","","","","feedback_test"
"","","","","","psychophysics","253","525957","0.0-8.2-0.2-0.87","268","","f","","","","","","","","","","","","","key","f","16.666239999999913","747","463","f","true","img/T_ambi40.png","をる","prac",""
"","","","","","html-keyboard-response","254","526467","0.0-8.2-0.2-1.87","null","<span style='color:GreenYellow; font-size: 70px;'>正确! </span>","null","","","","","","","","","","","","","","","","","","","","","","","feedback_test"
"","","","","","psychophysics","255","527710","0.0-8.2-0.2-0.88","236","","f","","","","","","","","","","","","","key","f","16.66563513513491","747","463","f","true","img/C_ambi40.png","自我","prac",""
"","","","","","html-keyboard-response","256","528220","0.0-8.2-0.2-1.88","null","<span style='color:GreenYellow; font-size: 70px;'>正确! </span>","null","","","","","","","","","","","","","","","","","","","","","","","feedback_test"
"","","","","","psychophysics","257","529492","0.0-8.2-0.2-0.89","266","","f","","","","","","","","","","","","","key","f","16.665973333333","747","463","f","true","img/T_ambi40.png","をる","prac",""
"","","","","","html-keyboard-response","258","529992","0.0-8.2-0.2-1.89","null","<span style='color:GreenYellow; font-size: 70px;'>正确! </span>","null","","","","","","","","","","","","","","","","","","","","","","","feedback_test"
"","","","","","psychophysics","259","531244","0.0-8.2-0.2-0.90","241","","f","","","","","","","","","","","","","key","f","16.66631081080964","747","463","f","true","img/S_ambi40.png","自我","prac",""
"","","","","","html-keyboard-response","260","531753","0.0-8.2-0.2-1.90","null","<span style='color:GreenYellow; font-size: 70px;'>正确! </span>","null","","","","","","","","","","","","","","","","","","","","","","","feedback_test"
"","","","","","psychophysics","261","533035","0.0-8.2-0.2-0.91","277","","j","","","","","","","","","","","","","key","j","16.666250000000122","747","463","j","true","img/C_ambi40.png","生人","prac",""
"","","","","","html-keyboard-response","262","533548","0.0-8.2-0.2-1.91","null","<span style='color:GreenYellow; font-size: 70px;'>正确! </span>","null","","","","","","","","","","","","","","","","","","","","","","","feedback_test"
"","","","","","psychophysics","263","534821","0.0-8.2-0.2-0.92","267","","f","","","","","","","","","","","","","key","f","16.66618666666715","747","463","f","true","img/T_ambi40.png","をる","prac",""
"","","","","","html-keyboard-response","264","535328","0.0-8.2-0.2-1.92","null","<span style='color:GreenYellow; font-size: 70px;'>正确! </span>","null","","","","","","","","","","","","","","","","","","","","","","","feedback_test"
"","","","","","psychophysics","265","536653","0.0-8.2-0.2-0.93","319","","f","","","","","","","","","","","","","key","f","16.666115384616067","747","463","f","true","img/H_ambi40.png","朋友","prac",""
"","","","","","html-keyboard-response","266","537160","0.0-8.2-0.2-1.93","null","<span style='color:GreenYellow; font-size: 70px;'>正确! </span>","null","","","","","","","","","","","","","","","","","","","","","","","feedback_test"
"","","","","","psychophysics","267","538514","0.0-8.2-0.2-0.94","346","","f","","","","","","","","","","","","","key","f","16.66608750000014","747","463","f","true","img/H_ambi40.png","生人","prac",""
"","","","","","html-keyboard-response","268","539021","0.0-8.2-0.2-1.94","null","<span style='color:GreenYellow; font-size: 70px;'>正确! </span>","null","","","","","","","","","","","","","","","","","","","","","","","feedback_test"
"","","","","","psychophysics","269","540315","0.0-8.2-0.2-0.95","290","","j","","","","","","","","","","","","","key","j","16.665337662338036","747","463","f","false","img/S_ambi40.png","生人","prac",""
"","","","","","html-keyboard-response","270","540820","0.0-8.2-0.2-1.95","null","<span style='color:red; font-size: 70px;'>错误! </span>","null","","","","","","","","","","","","","","","","","","","","","","","feedback_test"
"","","","","","html-keyboard-response","271","548036","0.0-8.2-1.2-0.2","7215","<style>.context{color:white; font-size: 35px; line-height:40px}</style>                          <div><p class='context'>您正确回答了63% 的试次。</p ><p class='context'>您的平均反应时为335毫秒。</p >","j","","","","","","","","","","","","","","","","","","","","","","",""
"","","","","","instructions","272","583625","0.0-8.2-1.2-1.2","35587","","","","","","","","","","","","","","[{""page_index"":0,""viewing_time"":19519},{""page_index"":1,""viewing_time"":13294},{""page_index"":2,""viewing_time"":2774}]","","","","","","","","","","",""
"","","","","","psychophysics","273","585111","0.0-8.3-0.3-0.96","473","","f","","","","","","","","","","","","","key","f","16.666159090908796","747","463","j","false","img/S_ambi40.png","朋友","prac",""
"","","","","","html-keyboard-response","274","585615","0.0-8.3-0.3-1.96","null","<span style='color:red; font-size: 70px;'>错误! </span>","null","","","","","","","","","","","","","","","","","","","","","","","feedback_test"
"","","","","","psychophysics","275","586880","0.0-8.3-0.3-0.97","256","","f","","","","","","","","","","","","","key","f","16.666386666665787","747","463","j","false","img/H_ambi40.png","自我","prac",""
"","","","","","html-keyboard-response","276","587387","0.0-8.3-0.3-1.97","null","<span style='color:red; font-size: 70px;'>错误! </span>","null","","","","","","","","","","","","","","","","","","","","","","","feedback_test"
"","","","","","psychophysics","277","588621","0.0-8.3-0.3-0.98","230","","f","","","","","","","","","","","","","key","f","16.66549315068501","747","463","f","true","img/C_ambi40.png","自我","prac",""
"","","","","","html-keyboard-response","278","589124","0.0-8.3-0.3-1.98","null","<span style='color:GreenYellow; font-size: 70px;'>正确! </span>","null","","","","","","","","","","","","","","","","","","","","","","","feedback_test"
"","","","","","psychophysics","279","590366","0.0-8.3-0.3-0.99","242","","f","","","","","","","","","","","","","key","f","16.477739726027398","747","463","j","false","img/C_ambi40.png","生人","prac",""
"","","","","","html-keyboard-response","280","590874","0.0-8.3-0.3-1.99","null","<span style='color:red; font-size: 70px;'>错误! </span>","null","","","","","","","","","","","","","","","","","","","","","","","feedback_test"
"","","","","","psychophysics","281","592157","0.0-8.3-0.3-0.100","283","","j","","","","","","","","","","","","","key","j","16.665879999999888","747","463","f","false","img/C_ambi40.png","朋友","prac",""
"","","","","","html-keyboard-response","282","592670","0.0-8.3-0.3-1.100","null","<span style='color:red; font-size: 70px;'>错误! </span>","null","","","","","","","","","","","","","","","","","","","","","","","feedback_test"
"","","","","","psychophysics","283","593898","0.0-8.3-0.3-0.101","224","","f","","","","","","","","","","","","","key","f","16.666136986301726","747","463","f","true","img/T_ambi40.png","をる","prac",""
"","","","","","html-keyboard-response","284","594404","0.0-8.3-0.3-1.101","null","<span style='color:GreenYellow; font-size: 70px;'>正确! </span>","null","","","","","","","","","","","","","","","","","","","","","","","feedback_test"
"","","","","","psychophysics","285","595695","0.0-8.3-0.3-0.102","287","","j","","","","","","","","","","","","","key","j","16.665844155844397","747","463","j","true","img/S_ambi40.png","朋友","prac",""
"","","","","","html-keyboard-response","286","596203","0.0-8.3-0.3-1.102","null","<span style='color:GreenYellow; font-size: 70px;'>正确! </span>","null","","","","","","","","","","","","","","","","","","","","","","","feedback_test"
"","","","","","psychophysics","287","597472","0.0-8.3-0.3-0.103","265","","f","","","","","","","","","","","","","key","f","16.666053333333693","747","463","f","true","img/T_ambi40.png","をる","prac",""
"","","","","","html-keyboard-response","288","597987","0.0-8.3-0.3-1.103","null","<span style='color:GreenYellow; font-size: 70px;'>正确! </span>","null","","","","","","","","","","","","","","","","","","","","","","","feedback_test"
"","","","","","psychophysics","289","599244","0.0-8.3-0.3-0.104","253","","j","","","","","","","","","","","","","key","j","16.666386666665787","747","463","j","true","img/H_ambi40.png","自我","prac",""
"","","","","","html-keyboard-response","290","599757","0.0-8.3-0.3-1.104","null","<span style='color:GreenYellow; font-size: 70px;'>正确! </span>","null","","","","","","","","","","","","","","","","","","","","","","","feedback_test"
"","","","","","psychophysics","291","601083","0.0-8.3-0.3-0.105","326","","f","","","","","","","","","","","","","key","f","16.473948717948634","747","463","f","true","img/S_ambi40.png","自我","prac",""
"","","","","","html-keyboard-response","292","601588","0.0-8.3-0.3-1.105","null","<span style='color:GreenYellow; font-size: 70px;'>正确! </span>","null","","","","","","","","","","","","","","","","","","","","","","","feedback_test"
"","","","","","psychophysics","293","602824","0.0-8.3-0.3-0.106","233","","j","","","","","","","","","","","","","key","j","16.666068493150977","747","463","j","true","img/C_ambi40.png","生人","prac",""
"","","","","","html-keyboard-response","294","603335","0.0-8.3-0.3-1.106","null","<span style='color:GreenYellow; font-size: 70px;'>正确! </span>","null","","","","","","","","","","","","","","","","","","","","","","","feedback_test"
"","","","","","psychophysics","295","604595","0.0-8.3-0.3-0.107","255","","f","","","","","","","","","","","","","key","f","16.666306666666642","747","463","f","true","img/H_ambi40.png","朋友","prac",""
"","","","","","html-keyboard-response","296","605098","0.0-8.3-0.3-1.107","null","<span style='color:GreenYellow; font-size: 70px;'>正确! </span>","null","","","","","","","","","","","","","","","","","","","","","","","feedback_test"
"","","","","","psychophysics","297","606340","0.0-8.3-0.3-0.108","233","","j","","","","","","","","","","","","","key","j","16.665753424657215","747","463","f","false","img/H_ambi40.png","生人","prac",""
"","","","","","html-keyboard-response","298","606854","0.0-8.3-0.3-1.108","null","<span style='color:red; font-size: 70px;'>错误! </span>","null","","","","","","","","","","","","","","","","","","","","","","","feedback_test"
"","","","","","psychophysics","299","608123","0.0-8.3-0.3-0.109","266","","f","","","","","","","","","","","","","key","f","16.665826666667126","747","463","f","true","img/T_ambi40.png","をる","prac",""
"","","","","","html-keyboard-response","300","608637","0.0-8.3-0.3-1.109","null","<span style='color:GreenYellow; font-size: 70px;'>正确! </span>","null","","","","","","","","","","","","","","","","","","","","","","","feedback_test"
"","","","","","psychophysics","301","609893","0.0-8.3-0.3-0.110","253","","f","","","","","","","","","","","","","key","f","16.665800000000743","747","463","f","true","img/T_ambi40.png","をる","prac",""
"","","","","","html-keyboard-response","302","610404","0.0-8.3-0.3-1.110","null","<span style='color:GreenYellow; font-size: 70px;'>正确! </span>","null","","","","","","","","","","","","","","","","","","","","","","","feedback_test"
"","","","","","psychophysics","303","611660","0.0-8.3-0.3-0.111","254","","j","","","","","","","","","","","","","key","j","16.666173333333184","747","463","f","false","img/S_ambi40.png","生人","prac",""
"","","","","","html-keyboard-response","304","612162","0.0-8.3-0.3-1.111","null","<span style='color:red; font-size: 70px;'>错误! </span>","null","","","","","","","","","","","","","","","","","","","","","","","feedback_test"
"","","","","","psychophysics","305","613406","0.0-8.3-0.3-0.112","236","","f","","","","","","","","","","","","","key","f","16.666369863013955","747","463","f","true","img/T_ambi40.png","をる","prac",""
"","","","","","html-keyboard-response","306","613920","0.0-8.3-0.3-1.112","null","<span style='color:GreenYellow; font-size: 70px;'>正确! </span>","null","","","","","","","","","","","","","","","","","","","","","","","feedback_test"
"","","","","","psychophysics","307","615169","0.0-8.3-0.3-0.113","246","","f","","","","","","","","","","","","","key","f","16.666148648647642","747","463","j","false","img/H_ambi40.png","自我","prac",""
"","","","","","html-keyboard-response","308","615679","0.0-8.3-0.3-1.113","null","<span style='color:red; font-size: 70px;'>错误! </span>","null","","","","","","","","","","","","","","","","","","","","","","","feedback_test"
"","","","","","psychophysics","309","616905","0.0-8.3-0.3-0.114","218","","f","","","","","","","","","","","","","key","f","16.666680555556216","747","463","f","true","img/S_ambi40.png","自我","prac",""
"","","","","","html-keyboard-response","310","617415","0.0-8.3-0.3-1.114","null","<span style='color:GreenYellow; font-size: 70px;'>正确! </span>","null","","","","","","","","","","","","","","","","","","","","","","","feedback_test"
"","","","","","psychophysics","311","618653","0.0-8.3-0.3-0.115","229","","f","","","","","","","","","","","","","key","f","16.66641095890313","747","463","j","false","img/S_ambi40.png","朋友","prac",""
"","","","","","html-keyboard-response","312","619154","0.0-8.3-0.3-1.115","null","<span style='color:red; font-size: 70px;'>错误! </span>","null","","","","","","","","","","","","","","","","","","","","","","","feedback_test"
"","","","","","psychophysics","313","620430","0.0-8.3-0.3-0.116","273","","j","","","","","","","","","","","","","key","j","16.666157894737186","747","463","f","false","img/C_ambi40.png","自我","prac",""
"","","","","","html-keyboard-response","314","620933","0.0-8.3-0.3-1.116","null","<span style='color:red; font-size: 70px;'>错误! </span>","null","","","","","","","","","","","","","","","","","","","","","","","feedback_test"
"","","","","","psychophysics","315","622235","0.0-8.3-0.3-0.117","295","","f","","","","","","","","","","","","","key","f","16.665610389610112","747","463","f","true","img/C_ambi40.png","朋友","prac",""
"","","","","","html-keyboard-response","316","622750","0.0-8.3-0.3-1.117","null","<span style='color:GreenYellow; font-size: 70px;'>正确! </span>","null","","","","","","","","","","","","","","","","","","","","","","","feedback_test"
"","","","","","psychophysics","317","624070","0.0-8.3-0.3-0.118","313","","f","","","","","","","","","","","","","key","f","16.66597435897431","747","463","j","false","img/C_ambi40.png","生人","prac",""
"","","","","","html-keyboard-response","318","624579","0.0-8.3-0.3-1.118","null","<span style='color:red; font-size: 70px;'>错误! </span>","null","","","","","","","","","","","","","","","","","","","","","","","feedback_test"
"","","","","","psychophysics","319","625846","0.0-8.3-0.3-0.119","256","","f","","","","","","","","","","","","","key","f","16.666146666666805","747","463","j","false","img/C_ambi40.png","生人","prac",""
"","","","","","html-keyboard-response","320","626352","0.0-8.3-0.3-1.119","null","<span style='color:red; font-size: 70px;'>错误! </span>","null","","","","","","","","","","","","","","","","","","","","","","","feedback_test"
"","","","","","psychophysics","321","627625","0.0-8.3-0.3-0.120","268","","j","","","","","","","","","","","","","key","j","16.666197368421738","747","463","f","false","img/T_ambi40.png","をる","prac",""
"","","","","","html-keyboard-response","322","628134","0.0-8.3-0.3-1.120","null","<span style='color:red; font-size: 70px;'>错误! </span>","null","","","","","","","","","","","","","","","","","","","","","","","feedback_test"
"","","","","","psychophysics","323","629359","0.0-8.3-0.3-0.121","220","","f","","","","","","","","","","","","","key","f","16.666424657533916","747","463","f","true","img/H_ambi40.png","生人","prac",""
"","","","","","html-keyboard-response","324","629872","0.0-8.3-0.3-1.121","null","<span style='color:GreenYellow; font-size: 70px;'>正确! </span>","null","","","","","","","","","","","","","","","","","","","","","","","feedback_test"
"","","","","","psychophysics","325","631081","0.0-8.3-0.3-0.122","208","","f","","","","","","","","","","","","","key","f","16.48104225352085","747","463","f","true","img/H_ambi40.png","朋友","prac",""
"","","","","","html-keyboard-response","326","631593","0.0-8.3-0.3-1.122","null","<span style='color:GreenYellow; font-size: 70px;'>正确! </span>","null","","","","","","","","","","","","","","","","","","","","","","","feedback_test"
"","","","","","psychophysics","327","632819","0.0-8.3-0.3-0.123","218","","f","","","","","","","","","","","","","key","f","16.666013888888603","747","463","j","false","img/S_ambi40.png","朋友","prac",""
"","","","","","html-keyboard-response","328","633332","0.0-8.3-0.3-1.123","null","<span style='color:red; font-size: 70px;'>错误! </span>","null","","","","","","","","","","","","","","","","","","","","","","","feedback_test"
"","","","","","psychophysics","329","634595","0.0-8.3-0.3-0.124","257","","f","","","","","","","","","","","","","key","f","16.666080000000076","747","463","f","true","img/T_ambi40.png","をる","prac",""
"","","","","","html-keyboard-response","330","635099","0.0-8.3-0.3-1.124","null","<span style='color:GreenYellow; font-size: 70px;'>正确! </span>","null","","","","","","","","","","","","","","","","","","","","","","","feedback_test"
"","","","","","psychophysics","331","636282","0.0-8.3-0.3-0.125","176","","f","","","","","","","","","","","","","key","f","16.665828571428676","747","463","j","false","img/H_ambi40.png","自我","prac",""
"","","","","","html-keyboard-response","332","636785","0.0-8.3-0.3-1.125","null","<span style='color:yellow; font-size: 70px;'>过快! </span>","null","","","","","","","","","","","","","","","","","","","","","","","feedback_test"
"","","","","","psychophysics","333","638182","0.0-8.3-0.3-0.126","393","","f","","","","","","","","","","","","","key","f","16.665722891566322","747","463","f","true","img/T_ambi40.png","をる","prac",""
"","","","","","html-keyboard-response","334","638690","0.0-8.3-0.3-1.126","null","<span style='color:GreenYellow; font-size: 70px;'>正确! </span>","null","","","","","","","","","","","","","","","","","","","","","","","feedback_test"
"","","","","","psychophysics","335","639979","0.0-8.3-0.3-0.127","280","","f","","","","","","","","","","","","","key","f","16.66647368421055","747","463","f","true","img/S_ambi40.png","生人","prac",""
"","","","","","html-keyboard-response","336","640494","0.0-8.3-0.3-1.127","null","<span style='color:GreenYellow; font-size: 70px;'>正确! </span>","null","","","","","","","","","","","","","","","","","","","","","","","feedback_test"
"","","","","","html-keyboard-response","337","650494","0.0-8.3-1.3-0.3","9999","<style>.context{color:white; font-size: 35px; line-height:40px}</style>                          <div><p class='context'>您正确回答了56% 的试次。</p ><p class='context'>您的平均反应时为261毫秒。</p >","j","","","","","","","","","","","","","","","","","","","","","","",""
"","","","","","instructions","338","725764","0.0-8.3-1.3-1.3","75270","","","","","","","","","","","","","","[{""page_index"":0,""viewing_time"":69149},{""page_index"":1,""viewing_time"":5258},{""page_index"":2,""viewing_time"":862}]","","","","","","","","","","",""
"","","","","","psychophysics","339","727409","0.0-8.4-0.4-0.128","639","","j","","","","","","","","","","","","","key","j","16.665561224490745","747","463","j","true","img/S_ambi40.png","朋友","prac",""
"","","","","","html-keyboard-response","340","727925","0.0-8.4-0.4-1.128","null","<span style='color:GreenYellow; font-size: 70px;'>正确! </span>","null","","","","","","","","","","","","","","","","","","","","","","","feedback_test"
"","","","","","psychophysics","341","729214","0.0-8.4-0.4-0.129","278","","f","","","","","","","","","","","","","key","f","16.666157894737186","747","463","f","true","img/T_ambi40.png","をる","prac",""
"","","","","","html-keyboard-response","342","729731","0.0-8.4-0.4-1.129","null","<span style='color:GreenYellow; font-size: 70px;'>正确! </span>","null","","","","","","","","","","","","","","","","","","","","","","","feedback_test"
"","","","","","psychophysics","343","731024","0.0-8.4-0.4-0.130","288","","f","","","","","","","","","","","","","key","f","16.666298701297855","747","463","f","true","img/S_ambi40.png","生人","prac",""
"","","","","","html-keyboard-response","344","731536","0.0-8.4-0.4-1.130","null","<span style='color:GreenYellow; font-size: 70px;'>正确! </span>","null","","","","","","","","","","","","","","","","","","","","","","","feedback_test"
"","","","","","psychophysics","345","732837","0.0-8.4-0.4-0.131","301","","f","","","","","","","","","","","","","key","f","16.480493506493783","747","463","j","false","img/H_ambi40.png","自我","prac",""
"","","","","","html-keyboard-response","346","733343","0.0-8.4-0.4-1.131","null","<span style='color:red; font-size: 70px;'>错误! </span>","null","","","","","","","","","","","","","","","","","","","","","","","feedback_test"
"","","","","","psychophysics","347","734586","0.0-8.4-0.4-0.132","237","","f","","","","","","","","","","","","","key","f","16.666561643837007","747","463","j","false","img/S_ambi40.png","朋友","prac",""
"","","","","","html-keyboard-response","348","735093","0.0-8.4-0.4-1.132","null","<span style='color:red; font-size: 70px;'>错误! </span>","null","","","","","","","","","","","","","","","","","","","","","","","feedback_test"
"","","","","","psychophysics","349","736337","0.0-8.4-0.4-0.133","237","","j","","","","","","","","","","","","","key","j","16.66613513513506","747","463","f","false","img/H_ambi40.png","朋友","prac",""
"","","","","","html-keyboard-response","350","736846","0.0-8.4-0.4-1.133","null","<span style='color:red; font-size: 70px;'>错误! </span>","null","","","","","","","","","","","","","","","","","","","","","","","feedback_test"
"","","","","","psychophysics","351","738032","0.0-8.4-0.4-0.134","179","","f","","","","","","","","","","","","","key","f","16.66672857142985","747","463","j","false","img/C_ambi40.png","生人","prac",""
"","","","","","html-keyboard-response","352","738538","0.0-8.4-0.4-1.134","null","<span style='color:yellow; font-size: 70px;'>过快! </span>","null","","","","","","","","","","","","","","","","","","","","","","","feedback_test"
"","","","","","psychophysics","353","739808","0.0-8.4-0.4-0.135","256","","f","","","","","","","","","","","","","key","f","16.666159999999216","747","463","f","true","img/T_ambi40.png","をる","prac",""
"","","","","","html-keyboard-response","354","740312","0.0-8.4-0.4-1.135","null","<span style='color:GreenYellow; font-size: 70px;'>正确! </span>","null","","","","","","","","","","","","","","","","","","","","","","","feedback_test"
"","","","","","psychophysics","355","741593","0.0-8.4-0.4-0.136","279","","f","","","","","","","","","","","","","key","f","16.665828947368457","747","463","j","false","img/C_ambi40.png","生人","prac",""
"","","","","","html-keyboard-response","356","742106","0.0-8.4-0.4-1.136","null","<span style='color:red; font-size: 70px;'>错误! </span>","null","","","","","","","","","","","","","","","","","","","","","","","feedback_test"
"","","","","","psychophysics","357","743426","0.0-8.4-0.4-0.137","313","","f","","","","","","","","","","","","","key","f","16.66637179487122","747","463","f","true","img/T_ambi40.png","をる","prac",""
"","","","","","html-keyboard-response","358","743936","0.0-8.4-0.4-1.137","null","<span style='color:GreenYellow; font-size: 70px;'>正确! </span>","null","","","","","","","","","","","","","","","","","","","","","","","feedback_test"
"","","","","","psychophysics","359","745283","0.0-8.4-0.4-0.138","347","","j","","","","","","","","","","","","","key","j","16.666126582279354","747","463","f","false","img/C_ambi40.png","自我","prac",""
"","","","","","html-keyboard-response","360","745795","0.0-8.4-0.4-1.138","null","<span style='color:red; font-size: 70px;'>错误! </span>","null","","","","","","","","","","","","","","","","","","","","","","","feedback_test"
"","","","","","psychophysics","361","747078","0.0-8.4-0.4-0.139","280","","f","","","","","","","","","","","","","key","f","16.66621052631557","747","463","j","false","img/H_ambi40.png","自我","prac",""
"","","","","","html-keyboard-response","362","747591","0.0-8.4-0.4-1.139","null","<span style='color:red; font-size: 70px;'>错误! </span>","null","","","","","","","","","","","","","","","","","","","","","","","feedback_test"
"","","","","","psychophysics","363","748891","0.0-8.4-0.4-0.140","292","","j","","","","","","","","","","","","","key","j","16.666207792207164","747","463","f","false","img/T_ambi40.png","をる","prac",""
"","","","","","html-keyboard-response","364","749394","0.0-8.4-0.4-1.140","null","<span style='color:red; font-size: 70px;'>错误! </span>","null","","","","","","","","","","","","","","","","","","","","","","","feedback_test"
"","","","","","psychophysics","365","750632","0.0-8.4-0.4-0.141","232","","f","","","","","","","","","","","","","key","f","16.666438356164704","747","463","f","true","img/S_ambi40.png","自我","prac",""
"","","","","","html-keyboard-response","366","751147","0.0-8.4-0.4-1.141","null","<span style='color:GreenYellow; font-size: 70px;'>正确! </span>","null","","","","","","","","","","","","","","","","","","","","","","","feedback_test"
"","","","","","psychophysics","367","752656","0.0-8.4-0.4-0.142","505","","f","","","","","","","","","","","","","key","f","16.665811111110575","747","463","f","true","img/C_ambi40.png","朋友","prac",""
"","","","","","html-keyboard-response","368","753159","0.0-8.4-0.4-1.142","null","<span style='color:GreenYellow; font-size: 70px;'>正确! </span>","null","","","","","","","","","","","","","","","","","","","","","","","feedback_test"
"","","","","","psychophysics","369","754643","0.0-8.4-0.4-0.143","478","","f","","","","","","","","","","","","","key","f","16.666261363636956","747","463","f","true","img/H_ambi40.png","生人","prac",""
"","","","","","html-keyboard-response","370","755148","0.0-8.4-0.4-1.143","null","<span style='color:GreenYellow; font-size: 70px;'>正确! </span>","null","","","","","","","","","","","","","","","","","","","","","","","feedback_test"
"","","","","","psychophysics","371","756484","0.0-8.4-0.4-0.144","335","","f","","","","","","","","","","","","","key","f","16.666113924050904","747","463","f","true","img/S_ambi40.png","生人","prac",""
"","","","","","html-keyboard-response","372","756995","0.0-8.4-0.4-1.144","null","<span style='color:GreenYellow; font-size: 70px;'>正确! </span>","null","","","","","","","","","","","","","","","","","","","","","","","feedback_test"
"","","","","","psychophysics","373","758549","0.0-8.4-0.4-0.145","547","","f","","","","","","","","","","","","","key","f","16.665956521739567","747","463","f","true","img/T_ambi40.png","をる","prac",""
"","","","","","html-keyboard-response","374","759056","0.0-8.4-0.4-1.145","null","<span style='color:GreenYellow; font-size: 70px;'>正确! </span>","null","","","","","","","","","","","","","","","","","","","","","","","feedback_test"
"","","","","","psychophysics","375","760477","0.0-8.4-0.4-0.146","415","","f","","","","","","","","","","","","","key","f","16.666142857142923","747","463","j","false","img/H_ambi40.png","自我","prac",""
"","","","","","html-keyboard-response","376","760992","0.0-8.4-0.4-1.146","null","<span style='color:red; font-size: 70px;'>错误! </span>","null","","","","","","","","","","","","","","","","","","","","","","","feedback_test"
"","","","","","psychophysics","377","762416","0.0-8.4-0.4-0.147","415","","f","","","","","","","","","","","","","key","f","16.66654761904751","747","463","j","false","img/S_ambi40.png","朋友","prac",""
"","","","","","html-keyboard-response","378","762917","0.0-8.4-0.4-1.147","null","<span style='color:red; font-size: 70px;'>错误! </span>","null","","","","","","","","","","","","","","","","","","","","","","","feedback_test"
"","","","","","psychophysics","379","764399","0.0-8.4-0.4-0.148","480","","f","","","","","","","","","","","","","key","f","16.666034090909474","747","463","f","true","img/H_ambi40.png","生人","prac",""
"","","","","","html-keyboard-response","380","764902","0.0-8.4-0.4-1.148","null","<span style='color:GreenYellow; font-size: 70px;'>正确! </span>","null","","","","","","","","","","","","","","","","","","","","","","","feedback_test"
"","","","","","psychophysics","381","766280","0.0-8.4-0.4-0.149","374","","j","","","","","","","","","","","","","key","j","16.666098765432434","747","463","f","false","img/T_ambi40.png","をる","prac",""
"","","","","","html-keyboard-response","382","766795","0.0-8.4-0.4-1.149","null","<span style='color:red; font-size: 70px;'>错误! </span>","null","","","","","","","","","","","","","","","","","","","","","","","feedback_test"
"","","","","","psychophysics","383","768194","0.0-8.4-0.4-0.150","392","","f","","","","","","","","","","","","","key","f","16.666048192771164","747","463","f","true","img/T_ambi40.png","をる","prac",""
"","","","","","html-keyboard-response","384","768705","0.0-8.4-0.4-1.150","null","<span style='color:GreenYellow; font-size: 70px;'>正确! </span>","null","","","","","","","","","","","","","","","","","","","","","","","feedback_test"
"","","","","","psychophysics","385","770299","0.0-8.4-0.4-0.151","584","","f","","","","","","","","","","","","","key","f","16.666106382978118","747","463","j","false","img/S_ambi40.png","朋友","prac",""
"","","","","","html-keyboard-response","386","770807","0.0-8.4-0.4-1.151","null","<span style='color:red; font-size: 70px;'>错误! </span>","null","","","","","","","","","","","","","","","","","","","","","","","feedback_test"
"","","","","","psychophysics","387","772428","0.0-8.4-0.4-0.152","610","","f","","","","","","","","","","","","","key","f","16.6662291666665","747","463","f","true","img/C_ambi40.png","朋友","prac",""
"","","","","","html-keyboard-response","388","772936","0.0-8.4-0.4-1.152","null","<span style='color:GreenYellow; font-size: 70px;'>正确! </span>","null","","","","","","","","","","","","","","","","","","","","","","","feedback_test"
"","","","","","psychophysics","389","774328","0.0-8.4-0.4-0.153","384","","f","","","","","","","","","","","","","key","f","16.665865853658833","747","463","f","true","img/T_ambi40.png","をる","prac",""
"","","","","","html-keyboard-response","390","774830","0.0-8.4-0.4-1.153","null","<span style='color:GreenYellow; font-size: 70px;'>正确! </span>","null","","","","","","","","","","","","","","","","","","","","","","","feedback_test"
"","","","","","psychophysics","391","776427","0.0-8.4-0.4-0.154","592","","j","","","","","","","","","","","","","key","j","16.666157894737186","747","463","f","false","img/H_ambi40.png","朋友","prac",""
"","","","","","html-keyboard-response","392","776933","0.0-8.4-0.4-1.154","null","<span style='color:red; font-size: 70px;'>错误! </span>","null","","","","","","","","","","","","","","","","","","","","","","","feedback_test"
"","","","","","psychophysics","393","778533","0.0-8.4-0.4-0.155","597","","f","","","","","","","","","","","","","key","f","16.66615789473596","747","463","j","false","img/C_ambi40.png","生人","prac",""
"","","","","","html-keyboard-response","394","779043","0.0-8.4-0.4-1.155","null","<span style='color:red; font-size: 70px;'>错误! </span>","null","","","","","","","","","","","","","","","","","","","","","","","feedback_test"
"","","","","","psychophysics","395","780722","0.0-8.4-0.4-0.156","672","","j","","","","","","","","","","","","","key","j","16.666019999999552","747","463","f","false","img/C_ambi40.png","自我","prac",""
"","","","","","html-keyboard-response","396","781227","0.0-8.4-0.4-1.156","null","<span style='color:red; font-size: 70px;'>错误! </span>","null","","","","","","","","","","","","","","","","","","","","","","","feedback_test"
"","","","","","psychophysics","397","782703","0.0-8.4-0.4-0.157","473","","f","","","","","","","","","","","","","key","f","16.666352272726893","747","463","f","true","img/S_ambi40.png","自我","prac",""
"","","","","","html-keyboard-response","398","783209","0.0-8.4-0.4-1.157","null","<span style='color:GreenYellow; font-size: 70px;'>正确! </span>","null","","","","","","","","","","","","","","","","","","","","","","","feedback_test"
"","","","","","psychophysics","399","784782","0.0-8.4-0.4-0.158","563","","f","","","","","","","","","","","","","key","f","16.665795698924672","747","463","j","false","img/H_ambi40.png","自我","prac",""
"","","","","","html-keyboard-response","400","785292","0.0-8.4-0.4-1.158","null","<span style='color:red; font-size: 70px;'>错误! </span>","null","","","","","","","","","","","","","","","","","","","","","","","feedback_test"
"","","","","","psychophysics","401","786875","0.0-8.4-0.4-0.159","573","","f","","","","","","","","","","","","","key","f","16.6662021276598","747","463","j","false","img/C_ambi40.png","生人","prac",""
"","","","","","html-keyboard-response","402","787386","0.0-8.4-0.4-1.159","null","<span style='color:red; font-size: 70px;'>错误! </span>","null","","","","","","","","","","","","","","","","","","","","","","","feedback_test"
"","","","","","html-keyboard-response","403","790867","0.0-8.4-1.4-0.4","3480","<style>.context{color:white; font-size: 35px; line-height:40px}</style>                          <div><p class='context'>您正确回答了47% 的试次。</p ><p class='context'>您的平均反应时为414毫秒。</p >","j","","","","","","","","","","","","","","","","","","","","","","",""
"","","","","","instructions","404","795202","0.0-8.4-1.4-1.4","4333","","","","","","","","","","","","","","[{""page_index"":0,""viewing_time"":2513},{""page_index"":1,""viewing_time"":1341},{""page_index"":2,""viewing_time"":479}]","","","","","","","","","","",""
"","","","","","psychophysics","405","796929","0.0-8.5-0.5-0.160","713","","f","","","","","","","","","","","","","key","f","16.66614705882396","747","463","j","false","img/S_ambi40.png","朋友","prac",""
"","","","","","html-keyboard-response","406","797442","0.0-8.5-0.5-1.160","null","<span style='color:red; font-size: 70px;'>错误! </span>","null","","","","","","","","","","","","","","","","","","","","","","","feedback_test"
"","","","","","psychophysics","407","799060","0.0-8.5-0.5-0.161","615","","f","","","","","","","","","","","","","key","f","16.666374999999487","747","463","f","true","img/H_ambi40.png","朋友","prac",""
"","","","","","html-keyboard-response","408","799564","0.0-8.5-0.5-1.161","null","<span style='color:GreenYellow; font-size: 70px;'>正确! </span>","null","","","","","","","","","","","","","","","","","","","","","","","feedback_test"
"","","","","","psychophysics","409","801286","0.0-8.5-0.5-0.162","718","","f","","","","","","","","","","","","","key","f","16.665873786408536","747","463","f","true","img/S_ambi40.png","自我","prac",""
"","","","","","html-keyboard-response","410","801792","0.0-8.5-0.5-1.162","null","<span style='color:GreenYellow; font-size: 70px;'>正确! </span>","null","","","","","","","","","","","","","","","","","","","","","","","feedback_test"
"","","","","","psychophysics","411","803518","0.0-8.5-0.5-0.163","721","","f","","","","","","","","","","","","","key","f","16.666156862744852","747","463","f","true","img/C_ambi40.png","朋友","prac",""
"","","","","","html-keyboard-response","412","804024","0.0-8.5-0.5-1.163","null","<span style='color:GreenYellow; font-size: 70px;'>正确! </span>","null","","","","","","","","","","","","","","","","","","","","","","","feedback_test"
"","","","","","psychophysics","413","805728","0.0-8.5-0.5-0.164","697","","f","","","","","","","","","","","","","key","f","16.666128712871092","747","463","f","true","img/T_ambi40.png","をる","prac",""
"","","","","","html-keyboard-response","414","806232","0.0-8.5-0.5-1.164","null","<span style='color:GreenYellow; font-size: 70px;'>正确! </span>","null","","","","","","","","","","","","","","","","","","","","","","","feedback_test"
"","","","","","psychophysics","415","807829","0.0-8.5-0.5-0.165","594","","f","","","","","","","","","","","","","key","f","16.666389473684525","747","463","f","true","img/T_ambi40.png","をる","prac",""
"","","","","","html-keyboard-response","416","808329","0.0-8.5-0.5-1.165","null","<span style='color:GreenYellow; font-size: 70px;'>正确! </span>","null","","","","","","","","","","","","","","","","","","","","","","","feedback_test"
"","","","","","psychophysics","417","810037","0.0-8.5-0.5-0.166","702","","f","","","","","","","","","","","","","key","f","16.665784313724668","747","463","j","false","img/C_ambi40.png","生人","prac",""
"","","","","","html-keyboard-response","418","810550","0.0-8.5-0.5-1.166","null","<span style='color:red; font-size: 70px;'>错误! </span>","null","","","","","","","","","","","","","","","","","","","","","","","feedback_test"
"","","","","","psychophysics","419","812141","0.0-8.5-0.5-0.167","590","","f","","","","","","","","","","","","","key","f","16.666484210526228","747","463","f","true","img/H_ambi40.png","生人","prac",""
"","","","","","html-keyboard-response","420","812656","0.0-8.5-0.5-1.167","null","<span style='color:GreenYellow; font-size: 70px;'>正确! </span>","null","","","","","","","","","","","","","","","","","","","","","","","feedback_test"
"","","","","","psychophysics","421","814357","0.0-8.5-0.5-0.168","697","","f","","","","","","","","","","","","","key","f","16.666108910891108","747","463","j","false","img/C_ambi40.png","生人","prac",""
"","","","","","html-keyboard-response","422","814858","0.0-8.5-0.5-1.168","null","<span style='color:red; font-size: 70px;'>错误! </span>","null","","","","","","","","","","","","","","","","","","","","","","","feedback_test"
"","","","","","psychophysics","423","816685","0.0-8.5-0.5-0.169","821","","j","","","","","","","","","","","","","key","j","16.666183486238012","747","463","j","true","img/H_ambi40.png","自我","prac",""
"","","","","","html-keyboard-response","424","817198","0.0-8.5-0.5-1.169","null","<span style='color:GreenYellow; font-size: 70px;'>正确! </span>","null","","","","","","","","","","","","","","","","","","","","","","","feedback_test"
"","","","","","psychophysics","425","818824","0.0-8.5-0.5-0.170","623","","f","","","","","","","","","","","","","key","f","16.665845360825337","747","463","f","true","img/S_ambi40.png","生人","prac",""
"","","","","","html-keyboard-response","426","819334","0.0-8.5-0.5-1.170","null","<span style='color:GreenYellow; font-size: 70px;'>正确! </span>","null","","","","","","","","","","","","","","","","","","","","","","","feedback_test"
"","","","","","psychophysics","427","820954","0.0-8.5-0.5-0.171","619","","f","","","","","","","","","","","","","key","f","16.666260416666773","747","463","f","true","img/C_ambi40.png","自我","prac",""
"","","","","","html-keyboard-response","428","821456","0.0-8.5-0.5-1.171","null","<span style='color:GreenYellow; font-size: 70px;'>正确! </span>","null","","","","","","","","","","","","","","","","","","","","","","","feedback_test"
"","","","","","psychophysics","429","823094","0.0-8.5-0.5-0.172","626","","f","","","","","","","","","","","","","key","f","16.66621649484558","747","463","f","true","img/T_ambi40.png","をる","prac",""
"","","","","","html-keyboard-response","430","823604","0.0-8.5-0.5-1.172","null","<span style='color:GreenYellow; font-size: 70px;'>正确! </span>","null","","","","","","","","","","","","","","","","","","","","","","","feedback_test"
"","","","","","psychophysics","431","825427","0.0-8.5-0.5-0.173","815","","j","","","","","","","","","","","","","key","j","16.666212962962973","747","463","j","true","img/H_ambi40.png","自我","prac",""
"","","","","","html-keyboard-response","432","825928","0.0-8.5-0.5-1.173","null","<span style='color:GreenYellow; font-size: 70px;'>正确! </span>","null","","","","","","","","","","","","","","","","","","","","","","","feedback_test"
"","","","","","psychophysics","433","827496","0.0-8.5-0.5-0.174","562","","f","","","","","","","","","","","","","key","f","16.666075268816652","747","463","j","false","img/S_ambi40.png","朋友","prac",""
"","","","","","html-keyboard-response","434","828010","0.0-8.5-0.5-1.174","null","<span style='color:red; font-size: 70px;'>错误! </span>","null","","","","","","","","","","","","","","","","","","","","","","","feedback_test"
"","","","","","psychophysics","435","829475","0.0-8.5-0.5-0.175","457","","f","","","","","","","","","","","","","key","f","16.665712643677004","747","463","f","true","img/T_ambi40.png","をる","prac",""
"","","","","","html-keyboard-response","436","829977","0.0-8.5-0.5-1.175","null","<span style='color:GreenYellow; font-size: 70px;'>正确! </span>","null","","","","","","","","","","","","","","","","","","","","","","","feedback_test"
"","","","","","psychophysics","437","831403","0.0-8.5-0.5-0.176","420","","f","","","","","","","","","","","","","key","f","16.66612941176521","747","463","f","true","img/T_ambi40.png","をる","prac",""
"","","","","","html-keyboard-response","438","831918","0.0-8.5-0.5-1.176","null","<span style='color:GreenYellow; font-size: 70px;'>正确! </span>","null","","","","","","","","","","","","","","","","","","","","","","","feedback_test"
"","","","","","psychophysics","439","833422","0.0-8.5-0.5-0.177","504","","f","","","","","","","","","","","","","key","f","16.666303370786267","747","463","f","true","img/T_ambi40.png","をる","prac",""
"","","","","","html-keyboard-response","440","833935","0.0-8.5-0.5-1.177","null","<span style='color:GreenYellow; font-size: 70px;'>正确! </span>","null","","","","","","","","","","","","","","","","","","","","","","","feedback_test"
"","","","","","psychophysics","441","835547","0.0-8.5-0.5-0.178","607","","j","","","","","","","","","","","","","key","j","16.666136842104606","747","463","f","false","img/H_ambi40.png","生人","prac",""
"","","","","","html-keyboard-response","442","836059","0.0-8.5-0.5-1.178","null","<span style='color:red; font-size: 70px;'>错误! </span>","null","","","","","","","","","","","","","","","","","","","","","","","feedback_test"
"","","","","","psychophysics","443","838031","0.0-8.5-0.5-0.179","963","","j","","","","","","","","","","","","","key","j","16.666094017093684","747","463","j","true","img/S_ambi40.png","朋友","prac",""
"","","","","","html-keyboard-response","444","838543","0.0-8.5-0.5-1.179","null","<span style='color:GreenYellow; font-size: 70px;'>正确! </span>","null","","","","","","","","","","","","","","","","","","","","","","","feedback_test"
"","","","","","psychophysics","445","840516","0.0-8.5-0.5-0.180","965","","f","","","","","","","","","","","","","key","f","16.666196581197138","747","463","f","true","img/S_ambi40.png","自我","prac",""
"","","","","","html-keyboard-response","446","841026","0.0-8.5-0.5-1.180","null","<span style='color:GreenYellow; font-size: 70px;'>正确! </span>","null","","","","","","","","","","","","","","","","","","","","","","","feedback_test"
"","","","","","psychophysics","447","842767","0.0-8.5-0.5-0.181","732","","j","","","","","","","","","","","","","key","j","16.666368932039386","747","463","j","true","img/H_ambi40.png","自我","prac",""
"","","","","","html-keyboard-response","448","843277","0.0-8.5-0.5-1.181","null","<span style='color:GreenYellow; font-size: 70px;'>正确! </span>","null","","","","","","","","","","","","","","","","","","","","","","","feedback_test"
"","","","","","psychophysics","449","845241","0.0-8.5-0.5-0.182","957","","f","","","","","","","","","","","","","key","f","16.666282051281694","747","463","f","true","img/S_ambi40.png","生人","prac",""
"","","","","","html-keyboard-response","450","845746","0.0-8.5-0.5-1.182","null","<span style='color:GreenYellow; font-size: 70px;'>正确! </span>","null","","","","","","","","","","","","","","","","","","","","","","","feedback_test"
"","","","","","psychophysics","451","847513","0.0-8.5-0.5-0.183","763","","j","","","","","","","","","","","","","key","j","16.66625714285654","747","463","j","true","img/C_ambi40.png","生人","prac",""
"","","","","","html-keyboard-response","452","848028","0.0-8.5-0.5-1.183","null","<span style='color:GreenYellow; font-size: 70px;'>正确! </span>","null","","","","","","","","","","","","","","","","","","","","","","","feedback_test"
"","","","","","psychophysics","453","849714","0.0-8.5-0.5-0.184","680","","j","","","","","","","","","","","","","key","j","16.666080000000076","747","463","j","true","img/C_ambi40.png","生人","prac",""
"","","","","","html-keyboard-response","454","850217","0.0-8.5-0.5-1.184","null","<span style='color:GreenYellow; font-size: 70px;'>正确! </span>","null","","","","","","","","","","","","","","","","","","","","","","","feedback_test"
"","","","","","psychophysics","455","851839","0.0-8.5-0.5-0.185","621","","f","","","","","","","","","","","","","key","f","16.666260416666773","747","463","f","true","img/H_ambi40.png","朋友","prac",""
"","","","","","html-keyboard-response","456","852349","0.0-8.5-0.5-1.185","null","<span style='color:GreenYellow; font-size: 70px;'>正确! </span>","null","","","","","","","","","","","","","","","","","","","","","","","feedback_test"
