"success","timeout","failed_images","failed_audio","failed_video","trial_type","trial_index","time_elapsed","internal_node_id","rt","stimulus","response","value","item_width_mm","item_height_mm","item_width_px","px2mm","view_dist_mm","item_width_deg","px2deg","scale_factor","win_width_deg","win_height_deg","view_history","response_type","key_press","avg_frame_time","center_x","center_y","correct_response","correct","Image","word","condition","screen_id"
"true","false","[]","[]","[]","preload","0","7879","0.0-0.0","","","","","","","","","","","","","","","","","","","","","","","","","",""
"","","","","","html-keyboard-response","1","57716","0.0-1.0","49837","
     <p>您好，欢迎参加本次实验。</p>
     <p>为充分保障您的权利，请确保您已经知晓并同意《参与实验同意书》以及《数据公开知情同意书》。</p>
     <p>如果您未见过上述内容，请咨询实验员。</p>
     <p>如果您选择继续实验，则表示您已经清楚两份知情同意书的内容并同意。</p>
     <p> <div style = ""color: green""><按任意键至下页></div> </p>
     ","1","","","","","","","","","","","","","","","","","","","","","","",""
"","","","","","html-keyboard-response","2","60848","0.0-2.0","3131","
     <p>本实验首先需要您填写一些基本个人信息。</p>
     <p> <div style = ""color: green""><按任意键至下页></div></p>
     ","1","","","","","","","","","","","","","","","","","","","","","","",""
"","","","","","call-function","3","60849","0.0-3.0-0.0","","","","","","","","","","","","","","","","","","","","","","","","","",""
"","","","","","survey-html-form","4","62613","0.0-3.0-1.0","1758","","{""Q0"":""25""}","","","","","","","","","","","","","","","","","","","","","","",""
"","","","","","html-button-response","5","63439","0.0-3.0-2.0","824","<p style = 'color : white'>您的性别</p>","0","","","","","","","","","","","","","","","","","","","","","","",""
"","","","","","survey-html-form","6","69434","0.0-3.0-3.0","5994","","{""Q0"":""2001""}","","","","","","","","","","","","","","","","","","","","","","",""
"","","","","","survey-html-form","7","72633","0.0-3.0-4.0","3199","","{""Q0"":""5""}","","","","","","","","","","","","","","","","","","","","","","",""
"","","","","","virtual-chinrest","8","343334","0.0-4.0","270700","","","","85.6","53.98","504.9147614423261","5.896101407810389","484.42","10.098295228846522","50","0.6139650168168231","37.44","19.32","","","","","","","","","","","",""
"true","","","","","fullscreen","9","350022","0.0-5.0","","","","","","","","","","","","","","","","","","","","","","","","","",""
"","","","","","instructions","10","452679","0.0-6.0","102656","","","","","","","","","","","","","","[{""page_index"":0,""viewing_time"":9496},{""page_index"":1,""viewing_time"":80372},{""page_index"":2,""viewing_time"":3529},{""page_index"":3,""viewing_time"":9259}]","","","","","","","","","","",""
"","","","","","psychophysics","11","455187","0.0-7.0-0.0-0.0","null","","null","","","","","","","","","","","","","key","null","6.104975490196118","960","536","f","false","img/H_ambi40.png","自我","prac",""
"","","","","","html-keyboard-response","12","455703","0.0-7.0-0.0-1.0","null","<span class='add_' style='color:yellow; font-size: 70px;'> 太慢! </span>","null","","","","","","","","","","","","","","","","","","","","","","","feedback_test"
"","","","","","psychophysics","13","458205","0.0-7.0-0.0-0.1","null","","null","","","","","","","","","","","","","key","null","6.060520681265233","960","536","j","false","img/T_ambi40.png","をる","prac",""
"","","","","","html-keyboard-response","14","458713","0.0-7.0-0.0-1.1","null","<span class='add_' style='color:yellow; font-size: 70px;'> 太慢! </span>","null","","","","","","","","","","","","","","","","","","","","","","","feedback_test"
"","","","","","psychophysics","15","461088","0.0-7.0-0.0-0.2","1374","","j","","","","","","","","","","","","","key","j","6.055633333333296","960","536","j","true","img/C_ambi40.png","自我","prac",""
"","","","","","html-keyboard-response","16","461601","0.0-7.0-0.0-1.2","null","<span style='color:GreenYellow; font-size: 70px;'>正确! </span>","null","","","","","","","","","","","","","","","","","","","","","","","feedback_test"
"","","","","","psychophysics","17","463129","0.0-7.0-0.0-0.3","524","","j","","","","","","","","","","","","","key","j","6.060442231075822","960","536","j","true","img/C_ambi40.png","自我","prac",""
"","","","","","html-keyboard-response","18","463637","0.0-7.0-0.0-1.3","null","<span style='color:GreenYellow; font-size: 70px;'>正确! </span>","null","","","","","","","","","","","","","","","","","","","","","","","feedback_test"
"","","","","","psychophysics","19","466138","0.0-7.0-0.0-0.4","null","","null","","","","","","","","","","","","","key","null","6.06044417475726","960","536","j","false","img/T_ambi40.png","をる","prac",""
"","","","","","html-keyboard-response","20","466651","0.0-7.0-0.0-1.4","null","<span class='add_' style='color:yellow; font-size: 70px;'> 太慢! </span>","null","","","","","","","","","","","","","","","","","","","","","","","feedback_test"
"","","","","","psychophysics","21","468656","0.0-7.0-0.0-0.5","1003","","j","","","","","","","","","","","","","key","j","6.060418181818077","960","536","j","true","img/H_ambi40.png","朋友","prac",""
"","","","","","html-keyboard-response","22","469171","0.0-7.0-0.0-1.5","null","<span style='color:GreenYellow; font-size: 70px;'>正确! </span>","null","","","","","","","","","","","","","","","","","","","","","","","feedback_test"
"","","","","","psychophysics","23","470904","0.0-7.0-0.0-0.6","730","","f","","","","","","","","","","","","","key","f","6.0605122807019045","960","536","f","true","img/S_ambi40.png","朋友","prac",""
"","","","","","html-keyboard-response","24","471413","0.0-7.0-0.0-1.6","null","<span style='color:GreenYellow; font-size: 70px;'>正确! </span>","null","","","","","","","","","","","","","","","","","","","","","","","feedback_test"
"","","","","","psychophysics","25","473773","0.0-7.0-0.0-0.7","1356","","f","","","","","","","","","","","","","key","f","6.060466494845387","960","536","j","false","img/T_ambi40.png","をる","prac",""
"","","","","","html-keyboard-response","26","474289","0.0-7.0-0.0-1.7","null","<span style='color:red; font-size: 70px;'>错误! </span>","null","","","","","","","","","","","","","","","","","","","","","","","feedback_test"
"","","","","","psychophysics","27","476496","0.0-7.0-0.0-0.8","1207","","f","","","","","","","","","","","","","key","f","6.06044903581259","960","536","f","true","img/H_ambi40.png","生人","prac",""
"","","","","","html-keyboard-response","28","476999","0.0-7.0-0.0-1.8","null","<span style='color:GreenYellow; font-size: 70px;'>正确! </span>","null","","","","","","","","","","","","","","","","","","","","","","","feedback_test"
"","","","","","psychophysics","29","478859","0.0-7.0-0.0-0.9","855","","f","","","","","","","","","","","","","key","f","6.0605163398694115","960","536","j","false","img/T_ambi40.png","をる","prac",""
"","","","","","html-keyboard-response","30","479372","0.0-7.0-0.0-1.9","null","<span style='color:red; font-size: 70px;'>错误! </span>","null","","","","","","","","","","","","","","","","","","","","","","","feedback_test"
"","","","","","psychophysics","31","481511","0.0-7.0-0.0-0.10","1137","","j","","","","","","","","","","","","","key","j","6.054783475783619","960","536","j","true","img/H_ambi40.png","朋友","prac",""
"","","","","","html-keyboard-response","32","482017","0.0-7.0-0.0-1.10","null","<span style='color:GreenYellow; font-size: 70px;'>正确! </span>","null","","","","","","","","","","","","","","","","","","","","","","","feedback_test"
"","","","","","psychophysics","33","483864","0.0-7.0-0.0-0.11","842","","f","","","","","","","","","","","","","key","f","6.060445544554463","960","536","f","true","img/C_ambi40.png","生人","prac",""
"","","","","","html-keyboard-response","34","484376","0.0-7.0-0.0-1.11","null","<span style='color:GreenYellow; font-size: 70px;'>正确! </span>","null","","","","","","","","","","","","","","","","","","","","","","","feedback_test"
"","","","","","psychophysics","35","486619","0.0-7.0-0.0-0.12","1242","","j","","","","","","","","","","","","","key","j","6.060476964769625","960","536","j","true","img/S_ambi40.png","生人","prac",""
"","","","","","html-keyboard-response","36","487123","0.0-7.0-0.0-1.12","null","<span style='color:GreenYellow; font-size: 70px;'>正确! </span>","null","","","","","","","","","","","","","","","","","","","","","","","feedback_test"
"","","","","","psychophysics","37","488787","0.0-7.0-0.0-0.13","662","","j","","","","","","","","","","","","","key","j","6.060281021897995","960","536","j","true","img/S_ambi40.png","生人","prac",""
"","","","","","html-keyboard-response","38","489290","0.0-7.0-0.0-1.13","null","<span style='color:GreenYellow; font-size: 70px;'>正确! </span>","null","","","","","","","","","","","","","","","","","","","","","","","feedback_test"
"","","","","","psychophysics","39","490971","0.0-7.0-0.0-0.14","677","","f","","","","","","","","","","","","","key","f","6.06050000000012","960","536","f","true","img/S_ambi40.png","自我","prac",""
"","","","","","html-keyboard-response","40","491481","0.0-7.0-0.0-1.14","null","<span style='color:GreenYellow; font-size: 70px;'>正确! </span>","null","","","","","","","","","","","","","","","","","","","","","","","feedback_test"
"","","","","","psychophysics","41","493591","0.0-7.0-0.0-0.15","1109","","f","","","","","","","","","","","","","key","f","6.05543641618492","960","536","f","true","img/C_ambi40.png","朋友","prac",""
"","","","","","html-keyboard-response","42","494092","0.0-7.0-0.0-1.15","null","<span style='color:GreenYellow; font-size: 70px;'>正确! </span>","null","","","","","","","","","","","","","","","","","","","","","","","feedback_test"
"","","","","","psychophysics","43","496172","0.0-7.0-0.0-0.16","1078","","f","","","","","","","","","","","","","key","f","6.060359649122754","960","536","f","true","img/H_ambi40.png","自我","prac",""
"","","","","","html-keyboard-response","44","496686","0.0-7.0-0.0-1.16","null","<span style='color:GreenYellow; font-size: 70px;'>正确! </span>","null","","","","","","","","","","","","","","","","","","","","","","","feedback_test"
"","","","","","psychophysics","45","498871","0.0-7.0-0.0-0.17","1183","","j","","","","","","","","","","","","","key","j","6.06041111111117","960","536","j","true","img/T_ambi40.png","をる","prac",""
"","","","","","html-keyboard-response","46","499372","0.0-7.0-0.0-1.17","null","<span style='color:GreenYellow; font-size: 70px;'>正确! </span>","null","","","","","","","","","","","","","","","","","","","","","","","feedback_test"
"","","","","","psychophysics","47","501876","0.0-7.0-0.0-0.18","null","","null","","","","","","","","","","","","","key","null","6.057997566909974","960","536","f","false","img/S_ambi40.png","朋友","prac",""
"","","","","","html-keyboard-response","48","502382","0.0-7.0-0.0-1.18","null","<span class='add_' style='color:yellow; font-size: 70px;'> 太慢! </span>","null","","","","","","","","","","","","","","","","","","","","","","","feedback_test"
"","","","","","psychophysics","49","504650","0.0-7.0-0.0-0.19","1265","","f","","","","","","","","","","","","","key","f","6.0604718498659045","960","536","f","true","img/H_ambi40.png","生人","prac",""
"","","","","","html-keyboard-response","50","505162","0.0-7.0-0.0-1.19","null","<span style='color:GreenYellow; font-size: 70px;'>正确! </span>","null","","","","","","","","","","","","","","","","","","","","","","","feedback_test"
"","","","","","psychophysics","51","507411","0.0-7.0-0.0-0.20","1247","","j","","","","","","","","","","","","","key","j","6.0604783783783205","960","536","j","true","img/S_ambi40.png","生人","prac",""
"","","","","","html-keyboard-response","52","507915","0.0-7.0-0.0-1.20","null","<span style='color:GreenYellow; font-size: 70px;'>正确! </span>","null","","","","","","","","","","","","","","","","","","","","","","","feedback_test"
"","","","","","psychophysics","53","509950","0.0-7.0-0.0-0.21","1032","","j","","","","","","","","","","","","","key","j","6.0605313432835555","960","536","j","true","img/H_ambi40.png","朋友","prac",""
"","","","","","html-keyboard-response","54","510451","0.0-7.0-0.0-1.21","null","<span style='color:GreenYellow; font-size: 70px;'>正确! </span>","null","","","","","","","","","","","","","","","","","","","","","","","feedback_test"
"","","","","","psychophysics","55","512042","0.0-7.0-0.0-0.22","590","","j","","","","","","","","","","","","","key","j","6.060099616858411","960","536","j","true","img/T_ambi40.png","をる","prac",""
"","","","","","html-keyboard-response","56","512548","0.0-7.0-0.0-1.22","null","<span style='color:GreenYellow; font-size: 70px;'>正确! </span>","null","","","","","","","","","","","","","","","","","","","","","","","feedback_test"
"","","","","","psychophysics","57","514266","0.0-7.0-0.0-0.23","714","","j","","","","","","","","","","","","","key","j","6.060400709219843","960","536","j","true","img/C_ambi40.png","自我","prac",""
"","","","","","html-keyboard-response","58","514774","0.0-7.0-0.0-1.23","null","<span style='color:GreenYellow; font-size: 70px;'>正确! </span>","null","","","","","","","","","","","","","","","","","","","","","","","feedback_test"
"","","","","","psychophysics","59","516914","0.0-7.0-0.0-0.24","1136","","j","","","","","","","","","","","","","key","j","6.060431818181811","960","536","j","true","img/H_ambi40.png","朋友","prac",""
"","","","","","html-keyboard-response","60","517429","0.0-7.0-0.0-1.24","null","<span style='color:GreenYellow; font-size: 70px;'>正确! </span>","null","","","","","","","","","","","","","","","","","","","","","","","feedback_test"
"","","","","","psychophysics","61","519039","0.0-7.0-0.0-0.25","608","","f","","","","","","","","","","","","","key","f","6.060547169811479","960","536","f","true","img/C_ambi40.png","朋友","prac",""
"","","","","","html-keyboard-response","62","519540","0.0-7.0-0.0-1.25","null","<span style='color:GreenYellow; font-size: 70px;'>正确! </span>","null","","","","","","","","","","","","","","","","","","","","","","","feedback_test"
"","","","","","psychophysics","63","521767","0.0-7.0-0.0-0.26","1226","","f","","","","","","","","","","","","","key","f","6.060248633879721","960","536","f","true","img/S_ambi40.png","自我","prac",""
"","","","","","html-keyboard-response","64","522267","0.0-7.0-0.0-1.26","null","<span style='color:GreenYellow; font-size: 70px;'>正确! </span>","null","","","","","","","","","","","","","","","","","","","","","","","feedback_test"
"","","","","","psychophysics","65","524478","0.0-7.0-0.0-0.27","1209","","f","","","","","","","","","","","","","key","f","6.060395604395755","960","536","f","true","img/C_ambi40.png","生人","prac",""
"","","","","","html-keyboard-response","66","524992","0.0-7.0-0.0-1.27","null","<span style='color:GreenYellow; font-size: 70px;'>正确! </span>","null","","","","","","","","","","","","","","","","","","","","","","","feedback_test"
"","","","","","psychophysics","67","526698","0.0-7.0-0.0-0.28","703","","j","","","","","","","","","","","","","key","j","6.060507142857283","960","536","j","true","img/C_ambi40.png","自我","prac",""
"","","","","","html-keyboard-response","68","527201","0.0-7.0-0.0-1.28","null","<span style='color:GreenYellow; font-size: 70px;'>正确! </span>","null","","","","","","","","","","","","","","","","","","","","","","","feedback_test"
"","","","","","psychophysics","69","528818","0.0-7.0-0.0-0.29","617","","j","","","","","","","","","","","","","key","j","6.060451127819829","960","536","j","true","img/S_ambi40.png","生人","prac",""
"","","","","","html-keyboard-response","70","529319","0.0-7.0-0.0-1.29","null","<span style='color:GreenYellow; font-size: 70px;'>正确! </span>","null","","","","","","","","","","","","","","","","","","","","","","","feedback_test"
"","","","","","psychophysics","71","531054","0.0-7.0-0.0-0.30","730","","j","","","","","","","","","","","","","key","j","6.060550877192924","960","536","j","true","img/T_ambi40.png","をる","prac",""
"","","","","","html-keyboard-response","72","531567","0.0-7.0-0.0-1.30","null","<span style='color:GreenYellow; font-size: 70px;'>正确! </span>","null","","","","","","","","","","","","","","","","","","","","","","","feedback_test"
"","","","","","psychophysics","73","533189","0.0-7.0-0.0-0.31","617","","j","","","","","","","","","","","","","key","j","6.060439849623805","960","536","j","true","img/T_ambi40.png","をる","prac",""
"","","","","","html-keyboard-response","74","533696","0.0-7.0-0.0-1.31","null","<span style='color:GreenYellow; font-size: 70px;'>正确! </span>","null","","","","","","","","","","","","","","","","","","","","","","","feedback_test"
"","","","","","html-keyboard-response","75","571920","0.0-8.0","38223","<style>.context{color:white; font-size: 35px; line-height:40px}</style>                          <div><p class='context'>您正确回答了81% 的试次。</p ><p class='context'>您的平均反应时为941毫秒。</p ><p class='context'>恭喜您完成练习。按任意键进入正式实验。</p ><p class='footer' style='font-size: 35px; line-height:40px;'>请在进入正式实验实验之前将您的<span style='color: lightgreen;'>食指</span>放在电脑键盘的相应键位上进行按键。</p >","j","","","","","","","","","","","","","","","","","","","","","","",""
"","","","","","psychophysics","76","573588","0.0-9.0-0.0-0.0-0.0-0.0","660","","j","","","","","","","","","","","","","key","j","6.06039051094898","960","536","j","true","img/T_ambi40.png","をる","same",""
"","","","","","html-keyboard-response","77","574104","0.0-9.0-0.0-0.0-0.0-1.0","null","<span style='color:GreenYellow; font-size: 70px;'>正确! </span>","null","","","","","","","","","","","","","","","","","","","","","","","feedback_test"
"","","","","","psychophysics","78","576308","0.0-9.0-0.0-0.0-0.0-0.1","1202","","f","","","","","","","","","","","","","key","f","6.060524861878543","960","536","f","true","img/S_ambi40.png","朋友","same",""
"","","","","","html-keyboard-response","79","576824","0.0-9.0-0.0-0.0-0.0-1.1","null","<span style='color:GreenYellow; font-size: 70px;'>正确! </span>","null","","","","","","","","","","","","","","","","","","","","","","","feedback_test"
"","","","","","psychophysics","80","578517","0.0-9.0-0.0-0.0-0.0-0.2","692","","f","","","","","","","","","","","","","key","f","6.053510791367077","960","536","f","true","img/C_ambi40.png","生人","same",""
"","","","","","html-keyboard-response","81","579026","0.0-9.0-0.0-0.0-0.0-1.2","null","<span style='color:GreenYellow; font-size: 70px;'>正确! </span>","null","","","","","","","","","","","","","","","","","","","","","","","feedback_test"
"","","","","","psychophysics","82","580824","0.0-9.0-0.0-0.0-0.0-0.3","793","","f","","","","","","","","","","","","","key","f","6.06038644067801","960","536","f","true","img/C_ambi40.png","生人","same",""
"","","","","","html-keyboard-response","83","581330","0.0-9.0-0.0-0.0-0.0-1.3","null","<span style='color:GreenYellow; font-size: 70px;'>正确! </span>","null","","","","","","","","","","","","","","","","","","","","","","","feedback_test"
"","","","","","psychophysics","84","582944","0.0-9.0-0.0-0.0-0.0-0.4","610","","j","","","","","","","","","","","","","key","j","6.0605547169807705","960","536","j","true","img/C_ambi40.png","自我","same",""
"","","","","","html-keyboard-response","85","583445","0.0-9.0-0.0-0.0-0.0-1.4","null","<span style='color:GreenYellow; font-size: 70px;'>正确! </span>","null","","","","","","","","","","","","","","","","","","","","","","","feedback_test"
"","","","","","psychophysics","86","585067","0.0-9.0-0.0-0.0-0.0-0.5","618","","j","","","","","","","","","","","","","key","j","6.060488721804389","960","536","j","true","img/T_ambi40.png","をる","same",""
"","","","","","html-keyboard-response","87","585583","0.0-9.0-0.0-0.0-0.0-1.5","null","<span style='color:GreenYellow; font-size: 70px;'>正确! </span>","null","","","","","","","","","","","","","","","","","","","","","","","feedback_test"
"","","","","","psychophysics","88","587439","0.0-9.0-0.0-0.0-0.0-0.6","854","","j","","","","","","","","","","","","","key","j","6.060436065573643","960","536","j","true","img/H_ambi40.png","朋友","same",""
"","","","","","html-keyboard-response","89","587946","0.0-9.0-0.0-0.0-0.0-1.6","null","<span style='color:GreenYellow; font-size: 70px;'>正确! </span>","null","","","","","","","","","","","","","","","","","","","","","","","feedback_test"
"","","","","","psychophysics","90","589583","0.0-9.0-0.0-0.0-0.0-0.7","631","","j","","","","","","","","","","","","","key","j","6.0604684014867845","960","536","j","true","img/C_ambi40.png","自我","same",""
"","","","","","html-keyboard-response","91","590098","0.0-9.0-0.0-0.0-0.0-1.7","null","<span style='color:GreenYellow; font-size: 70px;'>正确! </span>","null","","","","","","","","","","","","","","","","","","","","","","","feedback_test"
"","","","","","psychophysics","92","592087","0.0-9.0-0.0-0.0-0.0-0.8","984","","f","","","","","","","","","","","","","key","f","6.060446483180616","960","536","f","true","img/H_ambi40.png","生人","same",""
"","","","","","html-keyboard-response","93","592593","0.0-9.0-0.0-0.0-0.0-1.8","null","<span style='color:GreenYellow; font-size: 70px;'>正确! </span>","null","","","","","","","","","","","","","","","","","","","","","","","feedback_test"
"","","","","","psychophysics","94","594236","0.0-9.0-0.0-0.0-0.0-0.9","642","","f","","","","","","","","","","","","","key","f","6.0603037037037275","960","536","f","true","img/S_ambi40.png","自我","same",""
"","","","","","html-keyboard-response","95","594751","0.0-9.0-0.0-0.0-0.0-1.9","null","<span style='color:GreenYellow; font-size: 70px;'>正确! </span>","null","","","","","","","","","","","","","","","","","","","","","","","feedback_test"
"","","","","","psychophysics","96","596627","0.0-9.0-0.0-0.0-0.0-0.10","876","","f","","","","","","","","","","","","","key","f","6.0562337662336","960","536","f","true","img/H_ambi40.png","自我","same",""
"","","","","","html-keyboard-response","97","597134","0.0-9.0-0.0-0.0-0.0-1.10","null","<span style='color:GreenYellow; font-size: 70px;'>正确! </span>","null","","","","","","","","","","","","","","","","","","","","","","","feedback_test"
"","","","","","psychophysics","98","599019","0.0-9.0-0.0-0.0-0.0-0.11","880","","j","","","","","","","","","","","","","key","j","6.060383870967499","960","536","j","true","img/S_ambi40.png","生人","same",""
"","","","","","html-keyboard-response","99","599535","0.0-9.0-0.0-0.0-0.0-1.11","null","<span style='color:GreenYellow; font-size: 70px;'>正确! </span>","null","","","","","","","","","","","","","","","","","","","","","","","feedback_test"
"","","","","","psychophysics","100","601256","0.0-9.0-0.0-0.0-0.0-0.12","716","","f","","","","","","","","","","","","","key","f","6.060586572437985","960","536","f","true","img/C_ambi40.png","朋友","same",""
"","","","","","html-keyboard-response","101","601763","0.0-9.0-0.0-0.0-0.0-1.12","null","<span style='color:GreenYellow; font-size: 70px;'>正确! </span>","null","","","","","","","","","","","","","","","","","","","","","","","feedback_test"
"","","","","","psychophysics","102","603767","0.0-9.0-0.0-0.0-0.0-0.13","1003","","j","","","","","","","","","","","","","key","j","6.056170212765901","960","536","f","false","img/S_ambi40.png","朋友","same",""
"","","","","","html-keyboard-response","103","604282","0.0-9.0-0.0-0.0-0.0-1.13","null","<span style='color:red; font-size: 70px;'>错误! </span>","null","","","","","","","","","","","","","","","","","","","","","","","feedback_test"
"","","","","","psychophysics","104","606104","0.0-9.0-0.0-0.0-0.0-0.14","819","","f","","","","","","","","","","","","","key","f","6.060540000000037","960","536","j","false","img/S_ambi40.png","生人","same",""
"","","","","","html-keyboard-response","105","606614","0.0-9.0-0.0-0.0-0.0-1.14","null","<span style='color:red; font-size: 70px;'>错误! </span>","null","","","","","","","","","","","","","","","","","","","","","","","feedback_test"
"","","","","","psychophysics","106","608746","0.0-9.0-0.0-0.0-0.0-0.15","1128","","f","","","","","","","","","","","","","key","f","6.060418803418955","960","536","f","true","img/H_ambi40.png","自我","same",""
"","","","","","html-keyboard-response","107","609254","0.0-9.0-0.0-0.0-0.0-1.15","null","<span style='color:GreenYellow; font-size: 70px;'>正确! </span>","null","","","","","","","","","","","","","","","","","","","","","","","feedback_test"
"","","","","","psychophysics","108","611114","0.0-9.0-0.0-0.0-0.0-0.16","859","","j","","","","","","","","","","","","","key","j","6.060481967213258","960","536","j","true","img/H_ambi40.png","朋友","same",""
"","","","","","html-keyboard-response","109","611629","0.0-9.0-0.0-0.0-0.0-1.16","null","<span style='color:GreenYellow; font-size: 70px;'>正确! </span>","null","","","","","","","","","","","","","","","","","","","","","","","feedback_test"
"","","","","","psychophysics","110","613234","0.0-9.0-0.0-0.0-0.0-0.17","604","","j","","","","","","","","","","","","","key","j","6.054897338402911","960","536","j","true","img/T_ambi40.png","をる","same",""
"","","","","","html-keyboard-response","111","613746","0.0-9.0-0.0-0.0-0.0-1.17","null","<span style='color:GreenYellow; font-size: 70px;'>正确! </span>","null","","","","","","","","","","","","","","","","","","","","","","","feedback_test"
"","","","","","psychophysics","112","615262","0.0-9.0-0.0-0.0-0.0-0.18","511","","j","","","","","","","","","","","","","key","j","6.060538152610064","960","536","j","true","img/C_ambi40.png","自我","same",""
"","","","","","html-keyboard-response","113","615763","0.0-9.0-0.0-0.0-0.0-1.18","null","<span style='color:GreenYellow; font-size: 70px;'>正确! </span>","null","","","","","","","","","","","","","","","","","","","","","","","feedback_test"
"","","","","","psychophysics","114","617279","0.0-9.0-0.0-0.0-0.0-0.19","515","","j","","","","","","","","","","","","","key","j","6.060421686747156","960","536","j","true","img/S_ambi40.png","生人","same",""
"","","","","","html-keyboard-response","115","617791","0.0-9.0-0.0-0.0-0.0-1.19","null","<span style='color:GreenYellow; font-size: 70px;'>正确! </span>","null","","","","","","","","","","","","","","","","","","","","","","","feedback_test"
"","","","","","psychophysics","116","619419","0.0-9.0-0.0-0.0-0.0-0.20","625","","f","","","","","","","","","","","","","key","f","6.060402985074498","960","536","f","true","img/C_ambi40.png","生人","same",""
"","","","","","html-keyboard-response","117","619932","0.0-9.0-0.0-0.0-0.0-1.20","null","<span style='color:GreenYellow; font-size: 70px;'>正确! </span>","null","","","","","","","","","","","","","","","","","","","","","","","feedback_test"
"","","","","","psychophysics","118","621950","0.0-9.0-0.0-0.0-0.0-0.21","1018","","f","","","","","","","","","","","","","key","f","6.056728096676743","960","536","f","true","img/C_ambi40.png","生人","same",""
"","","","","","html-keyboard-response","119","622452","0.0-9.0-0.0-0.0-0.0-1.21","null","<span style='color:GreenYellow; font-size: 70px;'>正确! </span>","null","","","","","","","","","","","","","","","","","","","","","","","feedback_test"
"","","","","","psychophysics","120","624143","0.0-9.0-0.0-0.0-0.0-0.22","689","","f","","","","","","","","","","","","","key","f","6.060212230216042","960","536","f","true","img/H_ambi40.png","自我","same",""
"","","","","","html-keyboard-response","121","624657","0.0-9.0-0.0-0.0-0.0-1.22","null","<span style='color:GreenYellow; font-size: 70px;'>正确! </span>","null","","","","","","","","","","","","","","","","","","","","","","","feedback_test"
"","","","","","psychophysics","122","626511","0.0-9.0-0.0-0.0-0.0-0.23","851","","f","","","","","","","","","","","","","key","f","6.060324590163855","960","536","f","true","img/H_ambi40.png","生人","same",""
"","","","","","html-keyboard-response","123","627018","0.0-9.0-0.0-0.0-0.0-1.23","null","<span style='color:GreenYellow; font-size: 70px;'>正确! </span>","null","","","","","","","","","","","","","","","","","","","","","","","feedback_test"
"","","","","","psychophysics","124","628675","0.0-9.0-0.0-0.0-0.0-0.24","652","","f","","","","","","","","","","","","","key","f","6.060433823529285","960","536","f","true","img/S_ambi40.png","自我","same",""
"","","","","","html-keyboard-response","125","629188","0.0-9.0-0.0-0.0-0.0-1.24","null","<span style='color:GreenYellow; font-size: 70px;'>正确! </span>","null","","","","","","","","","","","","","","","","","","","","","","","feedback_test"
"","","","","","psychophysics","126","630987","0.0-9.0-0.0-0.0-0.0-0.25","793","","f","","","","","","","","","","","","","key","f","6.060461016949187","960","536","f","true","img/C_ambi40.png","朋友","same",""
"","","","","","html-keyboard-response","127","631499","0.0-9.0-0.0-0.0-0.0-1.25","null","<span style='color:GreenYellow; font-size: 70px;'>正确! </span>","null","","","","","","","","","","","","","","","","","","","","","","","feedback_test"
"","","","","","psychophysics","128","633297","0.0-9.0-0.0-0.0-0.0-0.26","795","","j","","","","","","","","","","","","","key","j","6.060219594594438","960","536","j","true","img/T_ambi40.png","をる","same",""
"","","","","","html-keyboard-response","129","633810","0.0-9.0-0.0-0.0-0.0-1.26","null","<span style='color:GreenYellow; font-size: 70px;'>正确! </span>","null","","","","","","","","","","","","","","","","","","","","","","","feedback_test"
"","","","","","psychophysics","130","635977","0.0-9.0-0.0-0.0-0.0-0.27","1166","","f","","","","","","","","","","","","","key","f","6.057382022471788","960","536","f","true","img/S_ambi40.png","朋友","same",""
"","","","","","html-keyboard-response","131","636488","0.0-9.0-0.0-0.0-0.0-1.27","null","<span style='color:GreenYellow; font-size: 70px;'>正确! </span>","null","","","","","","","","","","","","","","","","","","","","","","","feedback_test"
"","","","","","psychophysics","132","638133","0.0-9.0-0.0-0.0-0.0-0.28","644","","f","","","","","","","","","","","","","key","f","6.060409594096099","960","536","f","true","img/S_ambi40.png","朋友","same",""
"","","","","","html-keyboard-response","133","638647","0.0-9.0-0.0-0.0-0.0-1.28","null","<span style='color:GreenYellow; font-size: 70px;'>正确! </span>","null","","","","","","","","","","","","","","","","","","","","","","","feedback_test"
"","","","","","psychophysics","134","640230","0.0-9.0-0.0-0.0-0.0-0.29","583","","j","","","","","","","","","","","","","key","j","6.055461538461699","960","536","j","true","img/H_ambi40.png","朋友","same",""
"","","","","","html-keyboard-response","135","640741","0.0-9.0-0.0-0.0-0.0-1.29","null","<span style='color:GreenYellow; font-size: 70px;'>正确! </span>","null","","","","","","","","","","","","","","","","","","","","","","","feedback_test"
"","","","","","psychophysics","136","642378","0.0-9.0-0.0-0.0-0.0-0.30","636","","j","","","","","","","","","","","","","key","j","6.060483271375102","960","536","j","true","img/H_ambi40.png","朋友","same",""
"","","","","","html-keyboard-response","137","642880","0.0-9.0-0.0-0.0-0.0-1.30","null","<span style='color:GreenYellow; font-size: 70px;'>正确! </span>","null","","","","","","","","","","","","","","","","","","","","","","","feedback_test"
"","","","","","psychophysics","138","644489","0.0-9.0-0.0-0.0-0.0-0.31","606","","j","","","","","","","","","","","","","key","j","6.06046212121234","960","536","j","true","img/C_ambi40.png","自我","same",""
"","","","","","html-keyboard-response","139","645003","0.0-9.0-0.0-0.0-0.0-1.31","null","<span style='color:GreenYellow; font-size: 70px;'>正确! </span>","null","","","","","","","","","","","","","","","","","","","","","","","feedback_test"
"","","","","","psychophysics","140","646681","0.0-9.0-0.0-0.0-0.0-0.32","677","","j","","","","","","","","","","","","","key","j","6.060278985507202","960","536","j","true","img/T_ambi40.png","をる","same",""
"","","","","","html-keyboard-response","141","647189","0.0-9.0-0.0-0.0-0.0-1.32","null","<span style='color:GreenYellow; font-size: 70px;'>正确! </span>","null","","","","","","","","","","","","","","","","","","","","","","","feedback_test"
"","","","","","psychophysics","142","648749","0.0-9.0-0.0-0.0-0.0-0.33","557","","j","","","","","","","","","","","","","key","j","6.060523437500251","960","536","j","true","img/T_ambi40.png","をる","same",""
"","","","","","html-keyboard-response","143","649257","0.0-9.0-0.0-0.0-0.0-1.33","null","<span style='color:GreenYellow; font-size: 70px;'>正确! </span>","null","","","","","","","","","","","","","","","","","","","","","","","feedback_test"
"","","","","","psychophysics","144","650882","0.0-9.0-0.0-0.0-0.0-0.34","623","","f","","","","","","","","","","","","","key","f","6.060198501872565","960","536","f","true","img/H_ambi40.png","自我","same",""
"","","","","","html-keyboard-response","145","651389","0.0-9.0-0.0-0.0-0.0-1.34","null","<span style='color:GreenYellow; font-size: 70px;'>正确! </span>","null","","","","","","","","","","","","","","","","","","","","","","","feedback_test"
"","","","","","psychophysics","146","653205","0.0-9.0-0.0-0.0-0.0-0.35","813","","f","","","","","","","","","","","","","key","f","6.060494983277555","960","536","j","false","img/S_ambi40.png","生人","same",""
"","","","","","html-keyboard-response","147","653709","0.0-9.0-0.0-0.0-0.0-1.35","null","<span style='color:red; font-size: 70px;'>错误! </span>","null","","","","","","","","","","","","","","","","","","","","","","","feedback_test"
"","","","","","psychophysics","148","655681","0.0-9.0-0.0-0.0-0.0-0.36","968","","f","","","","","","","","","","","","","key","f","6.060419753086423","960","536","f","true","img/H_ambi40.png","自我","same",""
"","","","","","html-keyboard-response","149","656196","0.0-9.0-0.0-0.0-0.0-1.36","null","<span style='color:GreenYellow; font-size: 70px;'>正确! </span>","null","","","","","","","","","","","","","","","","","","","","","","","feedback_test"
"","","","","","psychophysics","150","657785","0.0-9.0-0.0-0.0-0.0-0.37","587","","j","","","","","","","","","","","","","key","j","6.060494252873524","960","536","j","true","img/C_ambi40.png","自我","same",""
"","","","","","html-keyboard-response","151","658300","0.0-9.0-0.0-0.0-0.0-1.37","null","<span style='color:GreenYellow; font-size: 70px;'>正确! </span>","null","","","","","","","","","","","","","","","","","","","","","","","feedback_test"
"","","","","","psychophysics","152","660024","0.0-9.0-0.0-0.0-0.0-0.38","723","","j","","","","","","","","","","","","","key","j","6.056872791519336","960","536","j","true","img/H_ambi40.png","朋友","same",""
"","","","","","html-keyboard-response","153","660532","0.0-9.0-0.0-0.0-0.0-1.38","null","<span style='color:GreenYellow; font-size: 70px;'>正确! </span>","null","","","","","","","","","","","","","","","","","","","","","","","feedback_test"
"","","","","","psychophysics","154","662189","0.0-9.0-0.0-0.0-0.0-0.39","656","","f","","","","","","","","","","","","","key","f","6.060481617647063","960","536","f","true","img/S_ambi40.png","自我","same",""
"","","","","","html-keyboard-response","155","662704","0.0-9.0-0.0-0.0-0.0-1.39","null","<span style='color:GreenYellow; font-size: 70px;'>正确! </span>","null","","","","","","","","","","","","","","","","","","","","","","","feedback_test"
"","","","","","psychophysics","156","664533","0.0-9.0-0.0-0.0-0.0-0.40","826","","f","","","","","","","","","","","","","key","f","6.060498338870695","960","536","f","true","img/S_ambi40.png","朋友","same",""
"","","","","","html-keyboard-response","157","665041","0.0-9.0-0.0-0.0-0.0-1.40","null","<span style='color:GreenYellow; font-size: 70px;'>正确! </span>","null","","","","","","","","","","","","","","","","","","","","","","","feedback_test"
"","","","","","psychophysics","158","666693","0.0-9.0-0.0-0.0-0.0-0.41","646","","f","","","","","","","","","","","","","key","f","6.060516605166137","960","536","f","true","img/C_ambi40.png","生人","same",""
"","","","","","html-keyboard-response","159","667194","0.0-9.0-0.0-0.0-0.0-1.41","null","<span style='color:GreenYellow; font-size: 70px;'>正确! </span>","null","","","","","","","","","","","","","","","","","","","","","","","feedback_test"
"","","","","","psychophysics","160","668716","0.0-9.0-0.0-0.0-0.0-0.42","519","","j","","","","","","","","","","","","","key","j","6.060555999999866","960","536","j","true","img/C_ambi40.png","自我","same",""
"","","","","","html-keyboard-response","161","669228","0.0-9.0-0.0-0.0-0.0-1.42","null","<span style='color:GreenYellow; font-size: 70px;'>正确! </span>","null","","","","","","","","","","","","","","","","","","","","","","","feedback_test"
"","","","","","psychophysics","162","671012","0.0-9.0-0.0-0.0-0.0-0.43","778","","f","","","","","","","","","","","","","key","f","6.060501706484489","960","536","f","true","img/H_ambi40.png","生人","same",""
"","","","","","html-keyboard-response","163","671522","0.0-9.0-0.0-0.0-0.0-1.43","null","<span style='color:GreenYellow; font-size: 70px;'>正确! </span>","null","","","","","","","","","","","","","","","","","","","","","","","feedback_test"
"","","","","","psychophysics","164","673317","0.0-9.0-0.0-0.0-0.0-0.44","792","","f","","","","","","","","","","","","","key","f","6.060206779660815","960","536","f","true","img/H_ambi40.png","自我","same",""
"","","","","","html-keyboard-response","165","673818","0.0-9.0-0.0-0.0-0.0-1.44","null","<span style='color:GreenYellow; font-size: 70px;'>正确! </span>","null","","","","","","","","","","","","","","","","","","","","","","","feedback_test"
"","","","","","psychophysics","166","675376","0.0-9.0-0.0-0.0-0.0-0.45","555","","j","","","","","","","","","","","","","key","j","6.060531250000167","960","536","j","true","img/T_ambi40.png","をる","same",""
"","","","","","html-keyboard-response","167","675886","0.0-9.0-0.0-0.0-0.0-1.45","null","<span style='color:GreenYellow; font-size: 70px;'>正确! </span>","null","","","","","","","","","","","","","","","","","","","","","","","feedback_test"
"","","","","","psychophysics","168","677680","0.0-9.0-0.0-0.0-0.0-0.46","792","","f","","","","","","","","","","","","","key","f","6.060416949152457","960","536","f","true","img/C_ambi40.png","朋友","same",""
"","","","","","html-keyboard-response","169","678180","0.0-9.0-0.0-0.0-0.0-1.46","null","<span style='color:GreenYellow; font-size: 70px;'>正确! </span>","null","","","","","","","","","","","","","","","","","","","","","","","feedback_test"
"","","","","","psychophysics","170","679708","0.0-9.0-0.0-0.0-0.0-0.47","525","","j","","","","","","","","","","","","","key","j","6.060446215139524","960","536","j","true","img/T_ambi40.png","をる","same",""
"","","","","","html-keyboard-response","171","680219","0.0-9.0-0.0-0.0-0.0-1.47","null","<span style='color:GreenYellow; font-size: 70px;'>正确! </span>","null","","","","","","","","","","","","","","","","","","","","","","","feedback_test"
"","","","","","psychophysics","172","681908","0.0-9.0-0.0-0.0-0.0-0.48","687","","f","","","","","","","","","","","","","key","f","6.060345323741262","960","536","f","true","img/C_ambi40.png","生人","same",""
"","","","","","html-keyboard-response","173","682411","0.0-9.0-0.0-0.0-0.0-1.48","null","<span style='color:GreenYellow; font-size: 70px;'>正确! </span>","null","","","","","","","","","","","","","","","","","","","","","","","feedback_test"
"","","","","","psychophysics","174","683956","0.0-9.0-0.0-0.0-0.0-0.49","544","","j","","","","","","","","","","","","","key","j","6.06050393700794","960","536","j","true","img/S_ambi40.png","生人","same",""
"","","","","","html-keyboard-response","175","684467","0.0-9.0-0.0-0.0-0.0-1.49","null","<span style='color:GreenYellow; font-size: 70px;'>正确! </span>","null","","","","","","","","","","","","","","","","","","","","","","","feedback_test"
"","","","","","psychophysics","176","686067","0.0-9.0-0.0-0.0-0.0-0.50","598","","f","","","","","","","","","","","","","key","f","6.0603041825098956","960","536","f","true","img/S_ambi40.png","朋友","same",""
"","","","","","html-keyboard-response","177","686571","0.0-9.0-0.0-0.0-0.0-1.50","null","<span style='color:GreenYellow; font-size: 70px;'>正确! </span>","null","","","","","","","","","","","","","","","","","","","","","","","feedback_test"
"","","","","","psychophysics","178","688255","0.0-9.0-0.0-0.0-0.0-0.51","682","","j","","","","","","","","","","","","","key","j","6.054336956521644","960","536","j","true","img/S_ambi40.png","生人","same",""
"","","","","","html-keyboard-response","179","688759","0.0-9.0-0.0-0.0-0.0-1.51","null","<span style='color:GreenYellow; font-size: 70px;'>正确! </span>","null","","","","","","","","","","","","","","","","","","","","","","","feedback_test"
"","","","","","psychophysics","180","690583","0.0-9.0-0.0-0.0-0.0-0.52","823","","j","","","","","","","","","","","","","key","j","6.053903010033342","960","536","j","true","img/H_ambi40.png","朋友","same",""
"","","","","","html-keyboard-response","181","691087","0.0-9.0-0.0-0.0-0.0-1.52","null","<span style='color:GreenYellow; font-size: 70px;'>正确! </span>","null","","","","","","","","","","","","","","","","","","","","","","","feedback_test"
"","","","","","psychophysics","182","692627","0.0-9.0-0.0-0.0-0.0-0.53","534","","j","","","","","","","","","","","","","key","j","6.060442687746638","960","536","j","true","img/T_ambi40.png","をる","same",""
"","","","","","html-keyboard-response","183","693142","0.0-9.0-0.0-0.0-0.0-1.53","null","<span style='color:GreenYellow; font-size: 70px;'>正确! </span>","null","","","","","","","","","","","","","","","","","","","","","","","feedback_test"
"","","","","","psychophysics","184","695216","0.0-9.0-0.0-0.0-0.0-0.54","1068","","j","","","","","","","","","","","","","key","j","6.0605571847508015","960","536","j","true","img/H_ambi40.png","朋友","same",""
"","","","","","html-keyboard-response","185","695718","0.0-9.0-0.0-0.0-0.0-1.54","null","<span style='color:GreenYellow; font-size: 70px;'>正确! </span>","null","","","","","","","","","","","","","","","","","","","","","","","feedback_test"
"","","","","","psychophysics","186","697327","0.0-9.0-0.0-0.0-0.0-0.55","609","","f","","","","","","","","","","","","","key","f","6.060530303030233","960","536","f","true","img/C_ambi40.png","朋友","same",""
"","","","","","html-keyboard-response","187","697831","0.0-9.0-0.0-0.0-0.0-1.55","null","<span style='color:GreenYellow; font-size: 70px;'>正确! </span>","null","","","","","","","","","","","","","","","","","","","","","","","feedback_test"
"","","","","","psychophysics","188","699895","0.0-9.0-0.0-0.0-0.0-0.56","1062","","j","","","","","","","","","","","","","key","j","6.0550855457227115","960","536","j","true","img/S_ambi40.png","生人","same",""
"","","","","","html-keyboard-response","189","700401","0.0-9.0-0.0-0.0-0.0-1.56","null","<span style='color:GreenYellow; font-size: 70px;'>正确! </span>","null","","","","","","","","","","","","","","","","","","","","","","","feedback_test"
"","","","","","psychophysics","190","702051","0.0-9.0-0.0-0.0-0.0-0.57","649","","j","","","","","","","","","","","","","key","j","6.053771217712339","960","536","j","true","img/H_ambi40.png","朋友","same",""
"","","","","","html-keyboard-response","191","702553","0.0-9.0-0.0-0.0-0.0-1.57","null","<span style='color:GreenYellow; font-size: 70px;'>正确! </span>","null","","","","","","","","","","","","","","","","","","","","","","","feedback_test"
"","","","","","psychophysics","192","704387","0.0-9.0-0.0-0.0-0.0-0.58","833","","f","","","","","","","","","","","","","key","f","6.0604684385382095","960","536","f","true","img/H_ambi40.png","自我","same",""
"","","","","","html-keyboard-response","193","704890","0.0-9.0-0.0-0.0-0.0-1.58","null","<span style='color:GreenYellow; font-size: 70px;'>正确! </span>","null","","","","","","","","","","","","","","","","","","","","","","","feedback_test"
"","","","","","psychophysics","194","706895","0.0-9.0-0.0-0.0-0.0-0.59","1002","","f","","","","","","","","","","","","","key","f","6.060490909091084","960","536","f","true","img/S_ambi40.png","朋友","same",""
"","","","","","html-keyboard-response","195","707398","0.0-9.0-0.0-0.0-0.0-1.59","null","<span style='color:GreenYellow; font-size: 70px;'>正确! </span>","null","","","","","","","","","","","","","","","","","","","","","","","feedback_test"
"","","","","","psychophysics","196","709059","0.0-9.0-0.0-0.0-0.0-0.60","657","","j","","","","","","","","","","","","","key","j","6.060384615384565","960","536","j","true","img/C_ambi40.png","自我","same",""
"","","","","","html-keyboard-response","197","709569","0.0-9.0-0.0-0.0-0.0-1.60","null","<span style='color:GreenYellow; font-size: 70px;'>正确! </span>","null","","","","","","","","","","","","","","","","","","","","","","","feedback_test"
"","","","","","psychophysics","198","711542","0.0-9.0-0.0-0.0-0.0-0.61","971","","j","","","","","","","","","","","","","key","j","6.06035692307704","960","536","f","false","img/H_ambi40.png","生人","same",""
"","","","","","html-keyboard-response","199","712046","0.0-9.0-0.0-0.0-0.0-1.61","null","<span style='color:red; font-size: 70px;'>错误! </span>","null","","","","","","","","","","","","","","","","","","","","","","","feedback_test"
"","","","","","psychophysics","200","713786","0.0-9.0-0.0-0.0-0.0-0.62","736","","f","","","","","","","","","","","","","key","f","6.0604160839160155","960","536","f","true","img/S_ambi40.png","自我","same",""
"","","","","","html-keyboard-response","201","714290","0.0-9.0-0.0-0.0-0.0-1.62","null","<span style='color:GreenYellow; font-size: 70px;'>正确! </span>","null","","","","","","","","","","","","","","","","","","","","","","","feedback_test"
"","","","","","psychophysics","202","715898","0.0-9.0-0.0-0.0-0.0-0.63","606","","f","","","","","","","","","","","","","key","f","6.060306818181716","960","536","f","true","img/C_ambi40.png","生人","same",""
"","","","","","html-keyboard-response","203","716402","0.0-9.0-0.0-0.0-0.0-1.63","null","<span style='color:GreenYellow; font-size: 70px;'>正确! </span>","null","","","","","","","","","","","","","","","","","","","","","","","feedback_test"
"","","","","","psychophysics","204","717891","0.0-9.0-0.0-0.0-0.0-0.64","489","","j","","","","","","","","","","","","","key","j","6.060446721311281","960","536","j","true","img/T_ambi40.png","をる","same",""
"","","","","","html-keyboard-response","205","718399","0.0-9.0-0.0-0.0-0.0-1.64","null","<span style='color:GreenYellow; font-size: 70px;'>正确! </span>","null","","","","","","","","","","","","","","","","","","","","","","","feedback_test"
"","","","","","psychophysics","206","720030","0.0-9.0-0.0-0.0-0.0-0.65","628","","f","","","","","","","","","","","","","key","f","6.060354477612114","960","536","f","true","img/C_ambi40.png","生人","same",""
"","","","","","html-keyboard-response","207","720535","0.0-9.0-0.0-0.0-0.0-1.65","null","<span style='color:GreenYellow; font-size: 70px;'>正确! </span>","null","","","","","","","","","","","","","","","","","","","","","","","feedback_test"
"","","","","","psychophysics","208","722338","0.0-9.0-0.0-0.0-0.0-0.66","802","","f","","","","","","","","","","","","","key","f","6.060371621621606","960","536","f","true","img/H_ambi40.png","自我","same",""
"","","","","","html-keyboard-response","209","722850","0.0-9.0-0.0-0.0-0.0-1.66","null","<span style='color:GreenYellow; font-size: 70px;'>正确! </span>","null","","","","","","","","","","","","","","","","","","","","","","","feedback_test"
"","","","","","psychophysics","210","724322","0.0-9.0-0.0-0.0-0.0-0.67","466","","j","","","","","","","","","","","","","key","j","6.060460580912848","960","536","j","true","img/T_ambi40.png","をる","same",""
"","","","","","html-keyboard-response","211","724834","0.0-9.0-0.0-0.0-0.0-1.67","null","<span style='color:GreenYellow; font-size: 70px;'>正确! </span>","null","","","","","","","","","","","","","","","","","","","","","","","feedback_test"
"","","","","","psychophysics","212","726378","0.0-9.0-0.0-0.0-0.0-0.68","540","","j","","","","","","","","","","","","","key","j","6.060417322834723","960","536","j","true","img/T_ambi40.png","をる","same",""
"","","","","","html-keyboard-response","213","726888","0.0-9.0-0.0-0.0-0.0-1.68","null","<span style='color:GreenYellow; font-size: 70px;'>正确! </span>","null","","","","","","","","","","","","","","","","","","","","","","","feedback_test"
"","","","","","psychophysics","214","728843","0.0-9.0-0.0-0.0-0.0-0.69","953","","j","","","","","","","","","","","","","key","j","6.060451713395726","960","536","j","true","img/S_ambi40.png","生人","same",""
"","","","","","html-keyboard-response","215","729345","0.0-9.0-0.0-0.0-0.0-1.69","null","<span style='color:GreenYellow; font-size: 70px;'>正确! </span>","null","","","","","","","","","","","","","","","","","","","","","","","feedback_test"
"","","","","","psychophysics","216","730974","0.0-9.0-0.0-0.0-0.0-0.70","627","","f","","","","","","","","","","","","","key","f","6.060470149253752","960","536","f","true","img/S_ambi40.png","朋友","same",""
"","","","","","html-keyboard-response","217","731475","0.0-9.0-0.0-0.0-0.0-1.70","null","<span style='color:GreenYellow; font-size: 70px;'>正确! </span>","null","","","","","","","","","","","","","","","","","","","","","","","feedback_test"
"","","","","","psychophysics","218","733051","0.0-9.0-0.0-0.0-0.0-0.71","574","","j","","","","","","","","","","","","","key","j","6.060471042471086","960","536","j","true","img/C_ambi40.png","自我","same",""
"","","","","","html-keyboard-response","219","733560","0.0-9.0-0.0-0.0-0.0-1.71","null","<span style='color:GreenYellow; font-size: 70px;'>正确! </span>","null","","","","","","","","","","","","","","","","","","","","","","","feedback_test"
"","","","","","psychophysics","220","735393","0.0-9.0-0.0-0.0-0.0-0.72","831","","f","","","","","","","","","","","","","key","f","6.060411960132918","960","536","f","true","img/H_ambi40.png","生人","same",""
"","","","","","html-keyboard-response","221","735908","0.0-9.0-0.0-0.0-0.0-1.72","null","<span style='color:GreenYellow; font-size: 70px;'>正确! </span>","null","","","","","","","","","","","","","","","","","","","","","","","feedback_test"
"","","","","","psychophysics","222","737750","0.0-9.0-0.0-0.0-0.0-0.73","839","","f","","","","","","","","","","","","","key","f","6.0603564356433735","960","536","f","true","img/C_ambi40.png","朋友","same",""
"","","","","","html-keyboard-response","223","738252","0.0-9.0-0.0-0.0-0.0-1.73","null","<span style='color:GreenYellow; font-size: 70px;'>正确! </span>","null","","","","","","","","","","","","","","","","","","","","","","","feedback_test"
"","","","","","psychophysics","224","739814","0.0-9.0-0.0-0.0-0.0-0.74","558","","j","","","","","","","","","","","","","key","j","6.060509727626372","960","536","j","true","img/T_ambi40.png","をる","same",""
"","","","","","html-keyboard-response","225","740328","0.0-9.0-0.0-0.0-0.0-1.74","null","<span style='color:GreenYellow; font-size: 70px;'>正确! </span>","null","","","","","","","","","","","","","","","","","","","","","","","feedback_test"
"","","","","","psychophysics","226","742309","0.0-9.0-0.0-0.0-0.0-0.75","981","","f","","","","","","","","","","","","","key","f","6.060461538461252","960","536","f","true","img/S_ambi40.png","自我","same",""
"","","","","","html-keyboard-response","227","742820","0.0-9.0-0.0-0.0-0.0-1.75","null","<span style='color:GreenYellow; font-size: 70px;'>正确! </span>","null","","","","","","","","","","","","","","","","","","","","","","","feedback_test"
"","","","","","psychophysics","228","744301","0.0-9.0-0.0-0.0-0.0-0.76","477","","j","","","","","","","","","","","","","key","j","6.060497942386835","960","536","j","true","img/C_ambi40.png","自我","same",""
"","","","","","html-keyboard-response","229","744815","0.0-9.0-0.0-0.0-0.0-1.76","null","<span style='color:GreenYellow; font-size: 70px;'>正确! </span>","null","","","","","","","","","","","","","","","","","","","","","","","feedback_test"
"","","","","","psychophysics","230","746477","0.0-9.0-0.0-0.0-0.0-0.77","658","","j","","","","","","","","","","","","","key","j","6.0604688644689775","960","536","j","true","img/H_ambi40.png","朋友","same",""
"","","","","","html-keyboard-response","231","746993","0.0-9.0-0.0-0.0-0.0-1.77","null","<span style='color:GreenYellow; font-size: 70px;'>正确! </span>","null","","","","","","","","","","","","","","","","","","","","","","","feedback_test"
"","","","","","psychophysics","232","748509","0.0-9.0-0.0-0.0-0.0-0.78","516","","f","","","","","","","","","","","","","key","f","6.060558232931368","960","536","f","true","img/C_ambi40.png","生人","same",""
"","","","","","html-keyboard-response","233","749023","0.0-9.0-0.0-0.0-0.0-1.78","null","<span style='color:GreenYellow; font-size: 70px;'>正确! </span>","null","","","","","","","","","","","","","","","","","","","","","","","feedback_test"
"","","","","","psychophysics","234","750754","0.0-9.0-0.0-0.0-0.0-0.79","729","","f","","","","","","","","","","","","","key","f","6.060322807017681","960","536","j","false","img/H_ambi40.png","朋友","same",""
"","","","","","html-keyboard-response","235","751256","0.0-9.0-0.0-0.0-0.0-1.79","null","<span style='color:red; font-size: 70px;'>错误! </span>","null","","","","","","","","","","","","","","","","","","","","","","","feedback_test"
"","","","","","psychophysics","236","752910","0.0-9.0-0.0-0.0-0.0-0.80","648","","f","","","","","","","","","","","","","key","f","6.060476014760024","960","536","f","true","img/S_ambi40.png","朋友","same",""
"","","","","","html-keyboard-response","237","753412","0.0-9.0-0.0-0.0-0.0-1.80","null","<span style='color:GreenYellow; font-size: 70px;'>正确! </span>","null","","","","","","","","","","","","","","","","","","","","","","","feedback_test"
"","","","","","psychophysics","238","754942","0.0-9.0-0.0-0.0-0.0-0.81","528","","j","","","","","","","","","","","","","key","j","6.056541832669015","960","536","j","true","img/T_ambi40.png","をる","same",""
"","","","","","html-keyboard-response","239","755450","0.0-9.0-0.0-0.0-0.0-1.81","null","<span style='color:GreenYellow; font-size: 70px;'>正确! </span>","null","","","","","","","","","","","","","","","","","","","","","","","feedback_test"
"","","","","","psychophysics","240","757433","0.0-9.0-0.0-0.0-0.0-0.82","978","","j","","","","","","","","","","","","","key","j","6.06052760736184","960","536","j","true","img/S_ambi40.png","生人","same",""
"","","","","","html-keyboard-response","241","757943","0.0-9.0-0.0-0.0-0.0-1.82","null","<span style='color:GreenYellow; font-size: 70px;'>正确! </span>","null","","","","","","","","","","","","","","","","","","","","","","","feedback_test"
"","","","","","psychophysics","242","759617","0.0-9.0-0.0-0.0-0.0-0.83","674","","f","","","","","","","","","","","","","key","f","6.060494545454329","960","536","f","true","img/H_ambi40.png","自我","same",""
"","","","","","html-keyboard-response","243","760120","0.0-9.0-0.0-0.0-0.0-1.83","null","<span style='color:GreenYellow; font-size: 70px;'>正确! </span>","null","","","","","","","","","","","","","","","","","","","","","","","feedback_test"
"","","","","","psychophysics","244","761595","0.0-9.0-0.0-0.0-0.0-0.84","472","","j","","","","","","","","","","","","","key","j","6.060347107437743","960","536","j","true","img/T_ambi40.png","をる","same",""
"","","","","","html-keyboard-response","245","762106","0.0-9.0-0.0-0.0-0.0-1.84","null","<span style='color:GreenYellow; font-size: 70px;'>正确! </span>","null","","","","","","","","","","","","","","","","","","","","","","","feedback_test"
"","","","","","psychophysics","246","764068","0.0-9.0-0.0-0.0-0.0-0.85","959","","j","","","","","","","","","","","","","key","j","6.060439628482963","960","536","j","true","img/S_ambi40.png","生人","same",""
"","","","","","html-keyboard-response","247","764569","0.0-9.0-0.0-0.0-0.0-1.85","null","<span style='color:GreenYellow; font-size: 70px;'>正确! </span>","null","","","","","","","","","","","","","","","","","","","","","","","feedback_test"
"","","","","","psychophysics","248","766028","0.0-9.0-0.0-0.0-0.0-0.86","458","","f","","","","","","","","","","","","","key","f","6.060416666666667","960","536","f","true","img/C_ambi40.png","生人","same",""
"","","","","","html-keyboard-response","249","766540","0.0-9.0-0.0-0.0-0.0-1.86","null","<span style='color:GreenYellow; font-size: 70px;'>正确! </span>","null","","","","","","","","","","","","","","","","","","","","","","","feedback_test"
"","","","","","psychophysics","250","768084","0.0-9.0-0.0-0.0-0.0-0.87","540","","j","","","","","","","","","","","","","key","j","6.060415019762514","960","536","j","true","img/C_ambi40.png","自我","same",""
"","","","","","html-keyboard-response","251","768597","0.0-9.0-0.0-0.0-0.0-1.87","null","<span style='color:GreenYellow; font-size: 70px;'>正确! </span>","null","","","","","","","","","","","","","","","","","","","","","","","feedback_test"
"","","","","","psychophysics","252","770300","0.0-9.0-0.0-0.0-0.0-0.88","700","","f","","","","","","","","","","","","","key","f","6.060464285714469","960","536","f","true","img/S_ambi40.png","朋友","same",""
"","","","","","html-keyboard-response","253","770813","0.0-9.0-0.0-0.0-0.0-1.88","null","<span style='color:GreenYellow; font-size: 70px;'>正确! </span>","null","","","","","","","","","","","","","","","","","","","","","","","feedback_test"
"","","","","","psychophysics","254","772517","0.0-9.0-0.0-0.0-0.0-0.89","700","","f","","","","","","","","","","","","","key","f","6.060410714285847","960","536","f","true","img/H_ambi40.png","自我","same",""
"","","","","","html-keyboard-response","255","773026","0.0-9.0-0.0-0.0-0.0-1.89","null","<span style='color:GreenYellow; font-size: 70px;'>正确! </span>","null","","","","","","","","","","","","","","","","","","","","","","","feedback_test"
"","","","","","psychophysics","256","775004","0.0-9.0-0.0-0.0-0.0-0.90","974","","f","","","","","","","","","","","","","key","f","6.060507692307807","960","536","f","true","img/S_ambi40.png","朋友","same",""
"","","","","","html-keyboard-response","257","775520","0.0-9.0-0.0-0.0-0.0-1.90","null","<span style='color:GreenYellow; font-size: 70px;'>正确! </span>","null","","","","","","","","","","","","","","","","","","","","","","","feedback_test"
"","","","","","psychophysics","258","777093","0.0-9.0-0.0-0.0-0.0-0.91","571","","f","","","","","","","","","","","","","key","f","6.060397683397838","960","536","f","true","img/C_ambi40.png","生人","same",""
"","","","","","html-keyboard-response","259","777594","0.0-9.0-0.0-0.0-0.0-1.91","null","<span style='color:GreenYellow; font-size: 70px;'>正确! </span>","null","","","","","","","","","","","","","","","","","","","","","","","feedback_test"
"","","","","","psychophysics","260","779228","0.0-9.0-0.0-0.0-0.0-0.92","633","","f","","","","","","","","","","","","","key","f","6.060473880597213","960","536","f","true","img/C_ambi40.png","朋友","same",""
"","","","","","html-keyboard-response","261","779740","0.0-9.0-0.0-0.0-0.0-1.92","null","<span style='color:GreenYellow; font-size: 70px;'>正确! </span>","null","","","","","","","","","","","","","","","","","","","","","","","feedback_test"
"","","","","","psychophysics","262","781436","0.0-9.0-0.0-0.0-0.0-0.93","691","","f","","","","","","","","","","","","","key","f","6.060489208633063","960","536","f","true","img/H_ambi40.png","生人","same",""
"","","","","","html-keyboard-response","263","781945","0.0-9.0-0.0-0.0-0.0-1.93","null","<span style='color:GreenYellow; font-size: 70px;'>正确! </span>","null","","","","","","","","","","","","","","","","","","","","","","","feedback_test"
"","","","","","psychophysics","264","783473","0.0-9.0-0.0-0.0-0.0-0.94","528","","j","","","","","","","","","","","","","key","j","6.055529880478415","960","536","j","true","img/T_ambi40.png","をる","same",""
"","","","","","html-keyboard-response","265","783977","0.0-9.0-0.0-0.0-0.0-1.94","null","<span style='color:GreenYellow; font-size: 70px;'>正确! </span>","null","","","","","","","","","","","","","","","","","","","","","","","feedback_test"
"","","","","","psychophysics","266","785496","0.0-9.0-0.0-0.0-0.0-0.95","515","","j","","","","","","","","","","","","","key","j","6.0606626506023344","960","536","j","true","img/T_ambi40.png","をる","same",""
"","","","","","html-keyboard-response","267","786007","0.0-9.0-0.0-0.0-0.0-1.95","null","<span style='color:GreenYellow; font-size: 70px;'>正确! </span>","null","","","","","","","","","","","","","","","","","","","","","","","feedback_test"
"","","","","","psychophysics","268","787971","0.0-9.0-0.0-0.0-0.0-0.96","962","","j","","","","","","","","","","","","","key","j","6.060498452012286","960","536","j","true","img/S_ambi40.png","生人","same",""
"","","","","","html-keyboard-response","269","788473","0.0-9.0-0.0-0.0-0.0-1.96","null","<span style='color:GreenYellow; font-size: 70px;'>正确! </span>","null","","","","","","","","","","","","","","","","","","","","","","","feedback_test"
"","","","","","psychophysics","270","789935","0.0-9.0-0.0-0.0-0.0-0.97","457","","f","","","","","","","","","","","","","key","f","6.060479166666725","960","536","j","false","img/C_ambi40.png","自我","same",""
"","","","","","html-keyboard-response","271","790438","0.0-9.0-0.0-0.0-0.0-1.97","null","<span style='color:red; font-size: 70px;'>错误! </span>","null","","","","","","","","","","","","","","","","","","","","","","","feedback_test"
"","","","","","psychophysics","272","792215","0.0-9.0-0.0-0.0-0.0-0.98","774","","f","","","","","","","","","","","","","key","f","6.060496575342594","960","536","f","true","img/S_ambi40.png","朋友","same",""
"","","","","","html-keyboard-response","273","792723","0.0-9.0-0.0-0.0-0.0-1.98","null","<span style='color:GreenYellow; font-size: 70px;'>正确! </span>","null","","","","","","","","","","","","","","","","","","","","","","","feedback_test"
"","","","","","psychophysics","274","794320","0.0-9.0-0.0-0.0-0.0-0.99","593","","f","","","","","","","","","","","","","key","f","6.0604732824424605","960","536","f","true","img/C_ambi40.png","生人","same",""
"","","","","","html-keyboard-response","275","794824","0.0-9.0-0.0-0.0-0.0-1.99","null","<span style='color:GreenYellow; font-size: 70px;'>正确! </span>","null","","","","","","","","","","","","","","","","","","","","","","","feedback_test"
"","","","","","psychophysics","276","796535","0.0-9.0-0.0-0.0-0.0-0.100","706","","j","","","","","","","","","","","","","key","j","6.060444839857602","960","536","j","true","img/H_ambi40.png","朋友","same",""
"","","","","","html-keyboard-response","277","797044","0.0-9.0-0.0-0.0-0.0-1.100","null","<span style='color:GreenYellow; font-size: 70px;'>正确! </span>","null","","","","","","","","","","","","","","","","","","","","","","","feedback_test"
"","","","","","psychophysics","278","798811","0.0-9.0-0.0-0.0-0.0-0.101","763","","f","","","","","","","","","","","","","key","f","6.060448275861764","960","536","f","true","img/S_ambi40.png","自我","same",""
"","","","","","html-keyboard-response","279","799326","0.0-9.0-0.0-0.0-0.0-1.101","null","<span style='color:GreenYellow; font-size: 70px;'>正确! </span>","null","","","","","","","","","","","","","","","","","","","","","","","feedback_test"
"","","","","","psychophysics","280","801195","0.0-9.0-0.0-0.0-0.0-0.102","869","","f","","","","","","","","","","","","","key","f","6.056771986970696","960","536","f","true","img/H_ambi40.png","自我","same",""
"","","","","","html-keyboard-response","281","801708","0.0-9.0-0.0-0.0-0.0-1.102","null","<span style='color:GreenYellow; font-size: 70px;'>正确! </span>","null","","","","","","","","","","","","","","","","","","","","","","","feedback_test"
"","","","","","psychophysics","282","803195","0.0-9.0-0.0-0.0-0.0-0.103","481","","j","","","","","","","","","","","","","key","j","6.0603811475410145","960","536","j","true","img/T_ambi40.png","をる","same",""
"","","","","","html-keyboard-response","283","803707","0.0-9.0-0.0-0.0-0.0-1.103","null","<span style='color:GreenYellow; font-size: 70px;'>正确! </span>","null","","","","","","","","","","","","","","","","","","","","","","","feedback_test"
"","","","","","psychophysics","284","805512","0.0-9.0-0.0-0.0-0.0-0.104","804","","j","","","","","","","","","","","","","key","j","6.053726351351518","960","536","j","true","img/H_ambi40.png","朋友","same",""
"","","","","","html-keyboard-response","285","806018","0.0-9.0-0.0-0.0-0.0-1.104","null","<span style='color:GreenYellow; font-size: 70px;'>正确! </span>","null","","","","","","","","","","","","","","","","","","","","","","","feedback_test"
"","","","","","psychophysics","286","807671","0.0-9.0-0.0-0.0-0.0-0.105","648","","j","","","","","","","","","","","","","key","j","6.060490774907468","960","536","j","true","img/C_ambi40.png","自我","same",""
"","","","","","html-keyboard-response","287","808181","0.0-9.0-0.0-0.0-0.0-1.105","null","<span style='color:GreenYellow; font-size: 70px;'>正确! </span>","null","","","","","","","","","","","","","","","","","","","","","","","feedback_test"
"","","","","","psychophysics","288","809795","0.0-9.0-0.0-0.0-0.0-0.106","608","","f","","","","","","","","","","","","","key","f","6.06046037735848","960","536","f","true","img/H_ambi40.png","自我","same",""
"","","","","","html-keyboard-response","289","810298","0.0-9.0-0.0-0.0-0.0-1.106","null","<span style='color:GreenYellow; font-size: 70px;'>正确! </span>","null","","","","","","","","","","","","","","","","","","","","","","","feedback_test"
"","","","","","psychophysics","290","812067","0.0-9.0-0.0-0.0-0.0-0.107","766","","j","","","","","","","","","","","","","key","j","6.060515463917477","960","536","j","true","img/S_ambi40.png","生人","same",""
"","","","","","html-keyboard-response","291","812571","0.0-9.0-0.0-0.0-0.0-1.107","null","<span style='color:GreenYellow; font-size: 70px;'>正确! </span>","null","","","","","","","","","","","","","","","","","","","","","","","feedback_test"
"","","","","","html-keyboard-response","292","817787","0.0-9.0-0.0-0.0-1.0","5215","<style>.context{color:white; font-size: 35px; line-height:40px}</style>                          <div><p class='context'>您正确回答了94% 的试次。</p><p class='context'>您的平均反应时为712毫秒。</p><p class='context'>请按任意键进入休息</p></div>","j","","","","","","","","","","","","","","","","","","","","","","",""
"","","","","","html-button-response","293","849967","0.0-9.0-0.0-0.0-2.0","32178","
                    <p>您当前还剩余5组实验</p>
                    <p>现在是休息时间，当您结束休息后，您可以点击 结束休息 按钮 继续</p>
                    <p>建议休息时间还剩余<span id=""iii"">60</span>秒</p>","0","","","","","","","","","","","","","","","","","","","","","","",""
"","","","","","psychophysics","294","851950","0.0-9.0-0.0-0.0-0.1-0.108","977","","f","","","","","","","","","","","","","key","f","6.057414110429282","960","536","j","false","img/S_ambi40.png","生人","same",""
"","","","","","html-keyboard-response","295","852452","0.0-9.0-0.0-0.0-0.1-1.108","null","<span style='color:red; font-size: 70px;'>错误! </span>","null","","","","","","","","","","","","","","","","","","","","","","","feedback_test"
"","","","","","psychophysics","296","854294","0.0-9.0-0.0-0.0-0.1-0.109","835","","f","","","","","","","","","","","","","key","f","6.060430463576159","960","536","f","true","img/H_ambi40.png","自我","same",""
"","","","","","html-keyboard-response","297","854795","0.0-9.0-0.0-0.0-0.1-1.109","null","<span style='color:GreenYellow; font-size: 70px;'>正确! </span>","null","","","","","","","","","","","","","","","","","","","","","","","feedback_test"
"","","","","","psychophysics","298","856286","0.0-9.0-0.0-0.0-0.1-0.110","488","","j","","","","","","","","","","","","","key","j","6.060485714285787","960","536","j","true","img/T_ambi40.png","をる","same",""
"","","","","","html-keyboard-response","299","856800","0.0-9.0-0.0-0.0-0.1-1.110","null","<span style='color:GreenYellow; font-size: 70px;'>正确! </span>","null","","","","","","","","","","","","","","","","","","","","","","","feedback_test"
"","","","","","psychophysics","300","858814","0.0-9.0-0.0-0.0-0.1-0.111","1010","","f","","","","","","","","","","","","","key","f","6.060507552869888","960","536","f","true","img/S_ambi40.png","朋友","same",""
"","","","","","html-keyboard-response","301","859318","0.0-9.0-0.0-0.0-0.1-1.111","null","<span style='color:GreenYellow; font-size: 70px;'>正确! </span>","null","","","","","","","","","","","","","","","","","","","","","","","feedback_test"
"","","","","","psychophysics","302","860842","0.0-9.0-0.0-0.0-0.1-0.112","523","","f","","","","","","","","","","","","","key","f","6.053108000000007","960","536","f","true","img/S_ambi40.png","朋友","same",""
"","","","","","html-keyboard-response","303","861344","0.0-9.0-0.0-0.0-0.1-1.112","null","<span style='color:GreenYellow; font-size: 70px;'>正确! </span>","null","","","","","","","","","","","","","","","","","","","","","","","feedback_test"
"","","","","","psychophysics","304","862838","0.0-9.0-0.0-0.0-0.1-0.113","491","","j","","","","","","","","","","","","","key","j","6.060604081632645","960","536","j","true","img/T_ambi40.png","をる","same",""
"","","","","","html-keyboard-response","305","863345","0.0-9.0-0.0-0.0-0.1-1.113","null","<span style='color:GreenYellow; font-size: 70px;'>正确! </span>","null","","","","","","","","","","","","","","","","","","","","","","","feedback_test"
"","","","","","psychophysics","306","865033","0.0-9.0-0.0-0.0-0.1-0.114","684","","f","","","","","","","","","","","","","key","f","6.060519855595547","960","536","f","true","img/C_ambi40.png","生人","same",""
"","","","","","html-keyboard-response","307","865536","0.0-9.0-0.0-0.0-0.1-1.114","null","<span style='color:GreenYellow; font-size: 70px;'>正确! </span>","null","","","","","","","","","","","","","","","","","","","","","","","feedback_test"
"","","","","","psychophysics","308","867025","0.0-9.0-0.0-0.0-0.1-0.115","488","","j","","","","","","","","","","","","","key","j","6.056299180328201","960","536","j","true","img/T_ambi40.png","をる","same",""
"","","","","","html-keyboard-response","309","867530","0.0-9.0-0.0-0.0-0.1-1.115","null","<span style='color:GreenYellow; font-size: 70px;'>正确! </span>","null","","","","","","","","","","","","","","","","","","","","","","","feedback_test"
"","","","","","psychophysics","310","869141","0.0-9.0-0.0-0.0-0.1-0.116","610","","f","","","","","","","","","","","","","key","f","6.0553977272727275","960","536","f","true","img/C_ambi40.png","生人","same",""
"","","","","","html-keyboard-response","311","869650","0.0-9.0-0.0-0.0-0.1-1.116","null","<span style='color:GreenYellow; font-size: 70px;'>正确! </span>","null","","","","","","","","","","","","","","","","","","","","","","","feedback_test"
"","","","","","psychophysics","312","871310","0.0-9.0-0.0-0.0-0.1-0.117","658","","f","","","","","","","","","","","","","key","f","6.060402930402896","960","536","f","true","img/C_ambi40.png","朋友","same",""
"","","","","","html-keyboard-response","313","871822","0.0-9.0-0.0-0.0-0.1-1.117","null","<span style='color:GreenYellow; font-size: 70px;'>正确! </span>","null","","","","","","","","","","","","","","","","","","","","","","","feedback_test"
"","","","","","psychophysics","314","873393","0.0-9.0-0.0-0.0-0.1-0.118","565","","j","","","","","","","","","","","","","key","j","6.060391472868239","960","536","j","true","img/C_ambi40.png","自我","same",""
"","","","","","html-keyboard-response","315","873897","0.0-9.0-0.0-0.0-0.1-1.118","null","<span style='color:GreenYellow; font-size: 70px;'>正确! </span>","null","","","","","","","","","","","","","","","","","","","","","","","feedback_test"
"","","","","","psychophysics","316","875685","0.0-9.0-0.0-0.0-0.1-0.119","785","","j","","","","","","","","","","","","","key","j","6.0604387755101055","960","536","j","true","img/S_ambi40.png","生人","same",""
"","","","","","html-keyboard-response","317","876190","0.0-9.0-0.0-0.0-0.1-1.119","null","<span style='color:GreenYellow; font-size: 70px;'>正确! </span>","null","","","","","","","","","","","","","","","","","","","","","","","feedback_test"
"","","","","","psychophysics","318","877829","0.0-9.0-0.0-0.0-0.1-0.120","638","","f","","","","","","","","","","","","","key","f","6.053148698884835","960","536","f","true","img/H_ambi40.png","自我","same",""
"","","","","","html-keyboard-response","319","878339","0.0-9.0-0.0-0.0-0.1-1.120","null","<span style='color:GreenYellow; font-size: 70px;'>正确! </span>","null","","","","","","","","","","","","","","","","","","","","","","","feedback_test"
"","","","","","psychophysics","320","880113","0.0-9.0-0.0-0.0-0.1-0.121","774","","f","","","","","","","","","","","","","key","f","6.060544520547958","960","536","j","false","img/H_ambi40.png","朋友","same",""
"","","","","","html-keyboard-response","321","880628","0.0-9.0-0.0-0.0-0.1-1.121","null","<span style='color:red; font-size: 70px;'>错误! </span>","null","","","","","","","","","","","","","","","","","","","","","","","feedback_test"
"","","","","","psychophysics","322","882174","0.0-9.0-0.0-0.0-0.1-0.122","540","","f","","","","","","","","","","","","","key","f","6.060452755905438","960","536","f","true","img/H_ambi40.png","生人","same",""
"","","","","","html-keyboard-response","323","882689","0.0-9.0-0.0-0.0-0.1-1.122","null","<span style='color:GreenYellow; font-size: 70px;'>正确! </span>","null","","","","","","","","","","","","","","","","","","","","","","","feedback_test"
"","","","","","psychophysics","324","884265","0.0-9.0-0.0-0.0-0.1-0.123","572","","j","","","","","","","","","","","","","key","j","6.060455598455807","960","536","j","true","img/H_ambi40.png","朋友","same",""
"","","","","","html-keyboard-response","325","884778","0.0-9.0-0.0-0.0-0.1-1.123","null","<span style='color:GreenYellow; font-size: 70px;'>正确! </span>","null","","","","","","","","","","","","","","","","","","","","","","","feedback_test"
"","","","","","psychophysics","326","886229","0.0-9.0-0.0-0.0-0.1-0.124","450","","j","","","","","","","","","","","","","key","j","6.060453781512754","960","536","j","true","img/C_ambi40.png","自我","same",""
"","","","","","html-keyboard-response","327","886745","0.0-9.0-0.0-0.0-0.1-1.124","null","<span style='color:GreenYellow; font-size: 70px;'>正确! </span>","null","","","","","","","","","","","","","","","","","","","","","","","feedback_test"
"","","","","","psychophysics","328","888881","0.0-9.0-0.0-0.0-0.1-0.125","1132","","f","","","","","","","","","","","","","key","f","6.060455840455761","960","536","f","true","img/S_ambi40.png","自我","same",""
"","","","","","html-keyboard-response","329","889393","0.0-9.0-0.0-0.0-0.1-1.125","null","<span style='color:GreenYellow; font-size: 70px;'>正确! </span>","null","","","","","","","","","","","","","","","","","","","","","","","feedback_test"
"","","","","","psychophysics","330","891084","0.0-9.0-0.0-0.0-0.1-0.126","687","","f","","","","","","","","","","","","","key","f","6.060431654676426","960","536","f","true","img/C_ambi40.png","生人","same",""
"","","","","","html-keyboard-response","331","891593","0.0-9.0-0.0-0.0-0.1-1.126","null","<span style='color:GreenYellow; font-size: 70px;'>正确! </span>","null","","","","","","","","","","","","","","","","","","","","","","","feedback_test"
"","","","","","psychophysics","332","893056","0.0-9.0-0.0-0.0-0.1-0.127","460","","j","","","","","","","","","","","","","key","j","6.060470833332996","960","536","j","true","img/T_ambi40.png","をる","same",""
"","","","","","html-keyboard-response","333","893563","0.0-9.0-0.0-0.0-0.1-1.127","null","<span style='color:GreenYellow; font-size: 70px;'>正确! </span>","null","","","","","","","","","","","","","","","","","","","","","","","feedback_test"
"","","","","","psychophysics","334","895204","0.0-9.0-0.0-0.0-0.1-0.128","638","","j","","","","","","","","","","","","","key","j","6.060448148148135","960","536","j","true","img/T_ambi40.png","をる","same",""
"","","","","","html-keyboard-response","335","895709","0.0-9.0-0.0-0.0-0.1-1.128","null","<span style='color:GreenYellow; font-size: 70px;'>正确! </span>","null","","","","","","","","","","","","","","","","","","","","","","","feedback_test"
"","","","","","psychophysics","336","897260","0.0-9.0-0.0-0.0-0.1-0.129","548","","j","","","","","","","","","","","","","key","j","6.060286274509888","960","536","j","true","img/C_ambi40.png","自我","same",""
"","","","","","html-keyboard-response","337","897763","0.0-9.0-0.0-0.0-0.1-1.129","null","<span style='color:GreenYellow; font-size: 70px;'>正确! </span>","null","","","","","","","","","","","","","","","","","","","","","","","feedback_test"
"","","","","","psychophysics","338","899392","0.0-9.0-0.0-0.0-0.1-0.130","626","","f","","","","","","","","","","","","","key","f","6.060440298507369","960","536","f","true","img/S_ambi40.png","朋友","same",""
"","","","","","html-keyboard-response","339","899905","0.0-9.0-0.0-0.0-0.1-1.130","null","<span style='color:GreenYellow; font-size: 70px;'>正确! </span>","null","","","","","","","","","","","","","","","","","","","","","","","feedback_test"
"","","","","","psychophysics","340","901868","0.0-9.0-0.0-0.0-0.1-0.131","962","","f","","","","","","","","","","","","","key","f","6.057357142857271","960","536","f","true","img/S_ambi40.png","自我","same",""
"","","","","","html-keyboard-response","341","902383","0.0-9.0-0.0-0.0-0.1-1.131","null","<span style='color:GreenYellow; font-size: 70px;'>正确! </span>","null","","","","","","","","","","","","","","","","","","","","","","","feedback_test"
"","","","","","psychophysics","342","903840","0.0-9.0-0.0-0.0-0.1-0.132","456","","j","","","","","","","","","","","","","key","j","6.060333333333256","960","536","j","true","img/T_ambi40.png","をる","same",""
"","","","","","html-keyboard-response","343","904355","0.0-9.0-0.0-0.0-0.1-1.132","null","<span style='color:GreenYellow; font-size: 70px;'>正确! </span>","null","","","","","","","","","","","","","","","","","","","","","","","feedback_test"
"","","","","","psychophysics","344","906012","0.0-9.0-0.0-0.0-0.1-0.133","652","","f","","","","","","","","","","","","","key","f","6.060562499999993","960","536","f","true","img/C_ambi40.png","生人","same",""
"","","","","","html-keyboard-response","345","906527","0.0-9.0-0.0-0.0-0.1-1.133","null","<span style='color:GreenYellow; font-size: 70px;'>正确! </span>","null","","","","","","","","","","","","","","","","","","","","","","","feedback_test"
"","","","","","psychophysics","346","908080","0.0-9.0-0.0-0.0-0.1-0.134","550","","j","","","","","","","","","","","","","key","j","6.06027058823509","960","536","j","true","img/C_ambi40.png","自我","same",""
"","","","","","html-keyboard-response","347","908592","0.0-9.0-0.0-0.0-0.1-1.134","null","<span style='color:GreenYellow; font-size: 70px;'>正确! </span>","null","","","","","","","","","","","","","","","","","","","","","","","feedback_test"
"","","","","","psychophysics","348","910156","0.0-9.0-0.0-0.0-0.1-0.135","560","","f","","","","","","","","","","","","","key","f","6.0604747081712675","960","536","f","true","img/H_ambi40.png","自我","same",""
"","","","","","html-keyboard-response","349","910666","0.0-9.0-0.0-0.0-0.1-1.135","null","<span style='color:GreenYellow; font-size: 70px;'>正确! </span>","null","","","","","","","","","","","","","","","","","","","","","","","feedback_test"
"","","","","","psychophysics","350","912208","0.0-9.0-0.0-0.0-0.1-0.136","539","","j","","","","","","","","","","","","","key","j","6.060612648221197","960","536","j","true","img/H_ambi40.png","朋友","same",""
"","","","","","html-keyboard-response","351","912710","0.0-9.0-0.0-0.0-0.1-1.136","null","<span style='color:GreenYellow; font-size: 70px;'>正确! </span>","null","","","","","","","","","","","","","","","","","","","","","","","feedback_test"
"","","","","","psychophysics","352","914276","0.0-9.0-0.0-0.0-0.1-0.137","565","","j","","","","","","","","","","","","","key","j","6.0544513618679545","960","536","j","true","img/H_ambi40.png","朋友","same",""
"","","","","","html-keyboard-response","353","914779","0.0-9.0-0.0-0.0-0.1-1.137","null","<span style='color:GreenYellow; font-size: 70px;'>正确! </span>","null","","","","","","","","","","","","","","","","","","","","","","","feedback_test"
"","","","","","psychophysics","354","916371","0.0-9.0-0.0-0.0-0.1-0.138","587","","f","","","","","","","","","","","","","key","f","6.060455938697243","960","536","f","true","img/H_ambi40.png","自我","same",""
"","","","","","html-keyboard-response","355","916879","0.0-9.0-0.0-0.0-0.1-1.138","null","<span style='color:GreenYellow; font-size: 70px;'>正确! </span>","null","","","","","","","","","","","","","","","","","","","","","","","feedback_test"
"","","","","","psychophysics","356","918911","0.0-9.0-0.0-0.0-0.1-0.139","1030","","f","","","","","","","","","","","","","key","f","6.055099099099094","960","536","f","true","img/H_ambi40.png","生人","same",""
"","","","","","html-keyboard-response","357","919419","0.0-9.0-0.0-0.0-0.1-1.139","null","<span style='color:GreenYellow; font-size: 70px;'>正确! </span>","null","","","","","","","","","","","","","","","","","","","","","","","feedback_test"
"","","","","","psychophysics","358","920935","0.0-9.0-0.0-0.0-0.1-0.140","515","","j","","","","","","","","","","","","","key","j","6.053133064515761","960","536","f","false","img/C_ambi40.png","朋友","same",""
"","","","","","html-keyboard-response","359","921440","0.0-9.0-0.0-0.0-0.1-1.140","null","<span style='color:red; font-size: 70px;'>错误! </span>","null","","","","","","","","","","","","","","","","","","","","","","","feedback_test"
"","","","","","psychophysics","360","923415","0.0-9.0-0.0-0.0-0.1-0.141","971","","f","","","","","","","","","","","","","key","f","6.060440000000123","960","536","f","true","img/S_ambi40.png","朋友","same",""
"","","","","","html-keyboard-response","361","923920","0.0-9.0-0.0-0.0-0.1-1.141","null","<span style='color:GreenYellow; font-size: 70px;'>正确! </span>","null","","","","","","","","","","","","","","","","","","","","","","","feedback_test"
"","","","","","psychophysics","362","925519","0.0-9.0-0.0-0.0-0.1-0.142","597","","j","","","","","","","","","","","","","key","j","6.060395437262212","960","536","j","true","img/S_ambi40.png","生人","same",""
"","","","","","html-keyboard-response","363","926022","0.0-9.0-0.0-0.0-0.1-1.142","null","<span style='color:GreenYellow; font-size: 70px;'>正确! </span>","null","","","","","","","","","","","","","","","","","","","","","","","feedback_test"
"","","","","","psychophysics","364","927587","0.0-9.0-0.0-0.0-0.1-0.143","562","","j","","","","","","","","","","","","","key","j","6.060466926069731","960","536","j","true","img/S_ambi40.png","生人","same",""
"","","","","","html-keyboard-response","365","928096","0.0-9.0-0.0-0.0-0.1-1.143","null","<span style='color:GreenYellow; font-size: 70px;'>正确! </span>","null","","","","","","","","","","","","","","","","","","","","","","","feedback_test"
"","","","","","psychophysics","366","929603","0.0-9.0-0.0-0.0-0.1-0.144","504","","j","","","","","","","","","","","","","key","j","6.06033467741931","960","536","j","true","img/C_ambi40.png","自我","same",""
"","","","","","html-keyboard-response","367","930110","0.0-9.0-0.0-0.0-0.1-1.144","null","<span style='color:GreenYellow; font-size: 70px;'>正确! </span>","null","","","","","","","","","","","","","","","","","","","","","","","feedback_test"
"","","","","","psychophysics","368","931675","0.0-9.0-0.0-0.0-0.1-0.145","564","","f","","","","","","","","","","","","","key","f","6.055708171206378","960","536","f","true","img/H_ambi40.png","自我","same",""
"","","","","","html-keyboard-response","369","932189","0.0-9.0-0.0-0.0-0.1-1.145","null","<span style='color:GreenYellow; font-size: 70px;'>正确! </span>","null","","","","","","","","","","","","","","","","","","","","","","","feedback_test"
"","","","","","psychophysics","370","934011","0.0-9.0-0.0-0.0-0.1-0.146","817","","j","","","","","","","","","","","","","key","j","6.060461538461859","960","536","j","true","img/S_ambi40.png","生人","same",""
"","","","","","html-keyboard-response","371","934512","0.0-9.0-0.0-0.0-0.1-1.146","null","<span style='color:GreenYellow; font-size: 70px;'>正确! </span>","null","","","","","","","","","","","","","","","","","","","","","","","feedback_test"
"","","","","","psychophysics","372","936148","0.0-9.0-0.0-0.0-0.1-0.147","631","","f","","","","","","","","","","","","","key","f","6.06049814126385","960","536","f","true","img/C_ambi40.png","生人","same",""
"","","","","","html-keyboard-response","373","936658","0.0-9.0-0.0-0.0-0.1-1.147","null","<span style='color:GreenYellow; font-size: 70px;'>正确! </span>","null","","","","","","","","","","","","","","","","","","","","","","","feedback_test"
"","","","","","psychophysics","374","938659","0.0-9.0-0.0-0.0-0.1-0.148","997","","f","","","","","","","","","","","","","key","f","6.060209726443794","960","536","f","true","img/C_ambi40.png","生人","same",""
"","","","","","html-keyboard-response","375","939172","0.0-9.0-0.0-0.0-0.1-1.148","null","<span style='color:GreenYellow; font-size: 70px;'>正确! </span>","null","","","","","","","","","","","","","","","","","","","","","","","feedback_test"
"","","","","","psychophysics","376","940651","0.0-9.0-0.0-0.0-0.1-0.149","475","","j","","","","","","","","","","","","","key","j","6.060530864197661","960","536","j","true","img/T_ambi40.png","をる","same",""
"","","","","","html-keyboard-response","377","941162","0.0-9.0-0.0-0.0-0.1-1.149","null","<span style='color:GreenYellow; font-size: 70px;'>正确! </span>","null","","","","","","","","","","","","","","","","","","","","","","","feedback_test"
"","","","","","psychophysics","378","942962","0.0-9.0-0.0-0.0-0.1-0.150","797","","j","","","","","","","","","","","","","key","j","6.060479729729736","960","536","j","true","img/H_ambi40.png","朋友","same",""
"","","","","","html-keyboard-response","379","943465","0.0-9.0-0.0-0.0-0.1-1.150","null","<span style='color:GreenYellow; font-size: 70px;'>正确! </span>","null","","","","","","","","","","","","","","","","","","","","","","","feedback_test"
"","","","","","psychophysics","380","945106","0.0-9.0-0.0-0.0-0.1-0.151","639","","f","","","","","","","","","","","","","key","f","6.060407407407183","960","536","j","false","img/S_ambi40.png","生人","same",""
"","","","","","html-keyboard-response","381","945609","0.0-9.0-0.0-0.0-0.1-1.151","null","<span style='color:red; font-size: 70px;'>错误! </span>","null","","","","","","","","","","","","","","","","","","","","","","","feedback_test"
"","","","","","psychophysics","382","947106","0.0-9.0-0.0-0.0-0.1-0.152","493","","j","","","","","","","","","","","","","key","j","6.060479674796854","960","536","j","true","img/T_ambi40.png","をる","same",""
"","","","","","html-keyboard-response","383","947615","0.0-9.0-0.0-0.0-0.1-1.152","null","<span style='color:GreenYellow; font-size: 70px;'>正确! </span>","null","","","","","","","","","","","","","","","","","","","","","","","feedback_test"
"","","","","","psychophysics","384","949078","0.0-9.0-0.0-0.0-0.1-0.153","459","","j","","","","","","","","","","","","","key","j","6.060508333333321","960","536","j","true","img/T_ambi40.png","をる","same",""
"","","","","","html-keyboard-response","385","949586","0.0-9.0-0.0-0.0-0.1-1.153","null","<span style='color:GreenYellow; font-size: 70px;'>正确! </span>","null","","","","","","","","","","","","","","","","","","","","","","","feedback_test"
"","","","","","psychophysics","386","951482","0.0-9.0-0.0-0.0-0.1-0.154","893","","f","","","","","","","","","","","","","key","f","6.060506410256494","960","536","f","true","img/S_ambi40.png","朋友","same",""
"","","","","","html-keyboard-response","387","951995","0.0-9.0-0.0-0.0-0.1-1.154","null","<span style='color:GreenYellow; font-size: 70px;'>正确! </span>","null","","","","","","","","","","","","","","","","","","","","","","","feedback_test"
"","","","","","psychophysics","388","953686","0.0-9.0-0.0-0.0-0.1-0.155","685","","f","","","","","","","","","","","","","key","f","6.060420863309426","960","536","f","true","img/C_ambi40.png","朋友","same",""
"","","","","","html-keyboard-response","389","954187","0.0-9.0-0.0-0.0-0.1-1.155","null","<span style='color:GreenYellow; font-size: 70px;'>正确! </span>","null","","","","","","","","","","","","","","","","","","","","","","","feedback_test"
"","","","","","psychophysics","390","955906","0.0-9.0-0.0-0.0-0.1-0.156","717","","f","","","","","","","","","","","","","key","f","6.053829787234224","960","536","f","true","img/H_ambi40.png","自我","same",""
"","","","","","html-keyboard-response","391","956411","0.0-9.0-0.0-0.0-0.1-1.156","null","<span style='color:GreenYellow; font-size: 70px;'>正确! </span>","null","","","","","","","","","","","","","","","","","","","","","","","feedback_test"
"","","","","","psychophysics","392","958270","0.0-9.0-0.0-0.0-0.1-0.157","858","","f","","","","","","","","","","","","","key","f","6.054360655737567","960","536","f","true","img/S_ambi40.png","朋友","same",""
"","","","","","html-keyboard-response","393","958776","0.0-9.0-0.0-0.0-0.1-1.157","null","<span style='color:GreenYellow; font-size: 70px;'>正确! </span>","null","","","","","","","","","","","","","","","","","","","","","","","feedback_test"
"","","","","","psychophysics","394","960354","0.0-9.0-0.0-0.0-0.1-0.158","577","","f","","","","","","","","","","","","","key","f","6.0563629343629275","960","536","f","true","img/H_ambi40.png","生人","same",""
"","","","","","html-keyboard-response","395","960869","0.0-9.0-0.0-0.0-0.1-1.158","null","<span style='color:GreenYellow; font-size: 70px;'>正确! </span>","null","","","","","","","","","","","","","","","","","","","","","","","feedback_test"
"","","","","","psychophysics","396","962586","0.0-9.0-0.0-0.0-0.1-0.159","713","","j","","","","","","","","","","","","","key","j","6.060457446808507","960","536","j","true","img/H_ambi40.png","朋友","same",""
"","","","","","html-keyboard-response","397","963093","0.0-9.0-0.0-0.0-0.1-1.159","null","<span style='color:GreenYellow; font-size: 70px;'>正确! </span>","null","","","","","","","","","","","","","","","","","","","","","","","feedback_test"
"","","","","","psychophysics","398","964642","0.0-9.0-0.0-0.0-0.1-0.160","545","","j","","","","","","","","","","","","","key","j","6.060543307086259","960","536","j","true","img/C_ambi40.png","自我","same",""
"","","","","","html-keyboard-response","399","965158","0.0-9.0-0.0-0.0-0.1-1.160","null","<span style='color:GreenYellow; font-size: 70px;'>正确! </span>","null","","","","","","","","","","","","","","","","","","","","","","","feedback_test"
"","","","","","psychophysics","400","966970","0.0-9.0-0.0-0.0-0.1-0.161","806","","f","","","","","","","","","","","","","key","f","6.060434343434419","960","536","f","true","img/S_ambi40.png","自我","same",""
"","","","","","html-keyboard-response","401","967472","0.0-9.0-0.0-0.0-0.1-1.161","null","<span style='color:GreenYellow; font-size: 70px;'>正确! </span>","null","","","","","","","","","","","","","","","","","","","","","","","feedback_test"
"","","","","","psychophysics","402","968986","0.0-9.0-0.0-0.0-0.1-0.162","507","","j","","","","","","","","","","","","","key","j","6.055241935484153","960","536","j","true","img/T_ambi40.png","をる","same",""
"","","","","","html-keyboard-response","403","969497","0.0-9.0-0.0-0.0-0.1-1.162","null","<span style='color:GreenYellow; font-size: 70px;'>正确! </span>","null","","","","","","","","","","","","","","","","","","","","","","","feedback_test"
"","","","","","psychophysics","404","971213","0.0-9.0-0.0-0.0-0.1-0.163","710","","f","","","","","","","","","","","","","key","f","6.060482269503483","960","536","f","true","img/H_ambi40.png","自我","same",""
"","","","","","html-keyboard-response","405","971728","0.0-9.0-0.0-0.0-0.1-1.163","null","<span style='color:GreenYellow; font-size: 70px;'>正确! </span>","null","","","","","","","","","","","","","","","","","","","","","","","feedback_test"
"","","","","","psychophysics","406","973465","0.0-9.0-0.0-0.0-0.1-0.164","732","","f","","","","","","","","","","","","","key","f","6.060547368421235","960","536","f","true","img/H_ambi40.png","自我","same",""
"","","","","","html-keyboard-response","407","973974","0.0-9.0-0.0-0.0-0.1-1.164","null","<span style='color:GreenYellow; font-size: 70px;'>正确! </span>","null","","","","","","","","","","","","","","","","","","","","","","","feedback_test"
"","","","","","psychophysics","408","975441","0.0-9.0-0.0-0.0-0.1-0.165","465","","j","","","","","","","","","","","","","key","j","6.060460580912848","960","536","j","true","img/T_ambi40.png","をる","same",""
"","","","","","html-keyboard-response","409","975943","0.0-9.0-0.0-0.0-0.1-1.165","null","<span style='color:GreenYellow; font-size: 70px;'>正确! </span>","null","","","","","","","","","","","","","","","","","","","","","","","feedback_test"
"","","","","","psychophysics","410","977853","0.0-9.0-0.0-0.0-0.1-0.166","908","","f","","","","","","","","","","","","","key","f","6.060321656050928","960","536","f","true","img/H_ambi40.png","生人","same",""
"","","","","","html-keyboard-response","411","978366","0.0-9.0-0.0-0.0-0.1-1.166","null","<span style='color:GreenYellow; font-size: 70px;'>正确! </span>","null","","","","","","","","","","","","","","","","","","","","","","","feedback_test"
"","","","","","psychophysics","412","979893","0.0-9.0-0.0-0.0-0.1-0.167","524","","j","","","","","","","","","","","","","key","j","6.060410358565971","960","536","j","true","img/C_ambi40.png","自我","same",""
"","","","","","html-keyboard-response","413","980401","0.0-9.0-0.0-0.0-0.1-1.167","null","<span style='color:GreenYellow; font-size: 70px;'>正确! </span>","null","","","","","","","","","","","","","","","","","","","","","","","feedback_test"
"","","","","","psychophysics","414","981945","0.0-9.0-0.0-0.0-0.1-0.168","541","","j","","","","","","","","","","","","","key","j","6.060608695652299","960","536","j","true","img/C_ambi40.png","自我","same",""
"","","","","","html-keyboard-response","415","982449","0.0-9.0-0.0-0.0-0.1-1.168","null","<span style='color:GreenYellow; font-size: 70px;'>正确! </span>","null","","","","","","","","","","","","","","","","","","","","","","","feedback_test"
"","","","","","psychophysics","416","984293","0.0-9.0-0.0-0.0-0.1-0.169","839","","j","","","","","","","","","","","","","key","j","6.060382838283739","960","536","j","true","img/S_ambi40.png","生人","same",""
"","","","","","html-keyboard-response","417","984794","0.0-9.0-0.0-0.0-0.1-1.169","null","<span style='color:GreenYellow; font-size: 70px;'>正确! </span>","null","","","","","","","","","","","","","","","","","","","","","","","feedback_test"
"","","","","","psychophysics","418","986401","0.0-9.0-0.0-0.0-0.1-0.170","604","","f","","","","","","","","","","","","","key","f","6.060420454545458","960","536","f","true","img/C_ambi40.png","生人","same",""
"","","","","","html-keyboard-response","419","986903","0.0-9.0-0.0-0.0-0.1-1.170","null","<span style='color:GreenYellow; font-size: 70px;'>正确! </span>","null","","","","","","","","","","","","","","","","","","","","","","","feedback_test"
"","","","","","psychophysics","420","988877","0.0-9.0-0.0-0.0-0.1-0.171","971","","f","","","","","","","","","","","","","key","f","6.060432098765303","960","536","f","true","img/S_ambi40.png","自我","same",""
"","","","","","html-keyboard-response","421","989377","0.0-9.0-0.0-0.0-0.1-1.171","null","<span style='color:GreenYellow; font-size: 70px;'>正确! </span>","null","","","","","","","","","","","","","","","","","","","","","","","feedback_test"
"","","","","","psychophysics","422","991082","0.0-9.0-0.0-0.0-0.1-0.172","700","","j","","","","","","","","","","","","","key","j","6.060489285713993","960","536","j","true","img/S_ambi40.png","生人","same",""
"","","","","","html-keyboard-response","423","991591","0.0-9.0-0.0-0.0-0.1-1.172","null","<span style='color:GreenYellow; font-size: 70px;'>正确! </span>","null","","","","","","","","","","","","","","","","","","","","","","","feedback_test"
"","","","","","psychophysics","424","993104","0.0-9.0-0.0-0.0-0.1-0.173","511","","j","","","","","","","","","","","","","key","j","6.060349397590369","960","536","j","true","img/T_ambi40.png","をる","same",""
"","","","","","html-keyboard-response","425","993606","0.0-9.0-0.0-0.0-0.1-1.173","null","<span style='color:GreenYellow; font-size: 70px;'>正确! </span>","null","","","","","","","","","","","","","","","","","","","","","","","feedback_test"
"","","","","","psychophysics","426","995252","0.0-9.0-0.0-0.0-0.1-0.174","641","","f","","","","","","","","","","","","","key","f","6.060429629629598","960","536","f","true","img/C_ambi40.png","生人","same",""
"","","","","","html-keyboard-response","427","995767","0.0-9.0-0.0-0.0-0.1-1.174","null","<span style='color:GreenYellow; font-size: 70px;'>正确! </span>","null","","","","","","","","","","","","","","","","","","","","","","","feedback_test"
"","","","","","psychophysics","428","997272","0.0-9.0-0.0-0.0-0.1-0.175","503","","j","","","","","","","","","","","","","key","j","6.060133603238878","960","536","j","true","img/H_ambi40.png","朋友","same",""
"","","","","","html-keyboard-response","429","997775","0.0-9.0-0.0-0.0-0.1-1.175","null","<span style='color:GreenYellow; font-size: 70px;'>正确! </span>","null","","","","","","","","","","","","","","","","","","","","","","","feedback_test"
"","","","","","psychophysics","430","999612","0.0-9.0-0.0-0.0-0.1-0.176","831","","f","","","","","","","","","","","","","key","f","6.0604735099338924","960","536","f","true","img/S_ambi40.png","朋友","same",""
"","","","","","html-keyboard-response","431","1000114","0.0-9.0-0.0-0.0-0.1-1.176","null","<span style='color:GreenYellow; font-size: 70px;'>正确! </span>","null","","","","","","","","","","","","","","","","","","","","","","","feedback_test"
"","","","","","psychophysics","432","1001925","0.0-9.0-0.0-0.0-0.1-0.177","810","","j","","","","","","","","","","","","","key","j","6.055468013467775","960","536","j","true","img/H_ambi40.png","朋友","same",""
"","","","","","html-keyboard-response","433","1002425","0.0-9.0-0.0-0.0-0.1-1.177","null","<span style='color:GreenYellow; font-size: 70px;'>正确! </span>","null","","","","","","","","","","","","","","","","","","","","","","","feedback_test"
"","","","","","psychophysics","434","1004052","0.0-9.0-0.0-0.0-0.1-0.178","623","","f","","","","","","","","","","","","","key","f","6.060490636704385","960","536","f","true","img/S_ambi40.png","朋友","same",""
"","","","","","html-keyboard-response","435","1004559","0.0-9.0-0.0-0.0-0.1-1.178","null","<span style='color:GreenYellow; font-size: 70px;'>正确! </span>","null","","","","","","","","","","","","","","","","","","","","","","","feedback_test"
"","","","","","psychophysics","436","1006248","0.0-9.0-0.0-0.0-0.1-0.179","686","","f","","","","","","","","","","","","","key","f","6.060453237410008","960","536","f","true","img/C_ambi40.png","朋友","same",""
"","","","","","html-keyboard-response","437","1006758","0.0-9.0-0.0-0.0-0.1-1.179","null","<span style='color:GreenYellow; font-size: 70px;'>正确! </span>","null","","","","","","","","","","","","","","","","","","","","","","","feedback_test"
"","","","","","psychophysics","438","1008360","0.0-9.0-0.0-0.0-0.1-0.180","597","","j","","","","","","","","","","","","","key","j","6.060501901140727","960","536","j","true","img/H_ambi40.png","朋友","same",""
"","","","","","html-keyboard-response","439","1008875","0.0-9.0-0.0-0.0-0.1-1.180","null","<span style='color:GreenYellow; font-size: 70px;'>正确! </span>","null","","","","","","","","","","","","","","","","","","","","","","","feedback_test"
"","","","","","psychophysics","440","1010396","0.0-9.0-0.0-0.0-0.1-0.181","518","","j","","","","","","","","","","","","","key","j","6.060531999999657","960","536","j","true","img/T_ambi40.png","をる","same",""
"","","","","","html-keyboard-response","441","1010908","0.0-9.0-0.0-0.0-0.1-1.181","null","<span style='color:GreenYellow; font-size: 70px;'>正确! </span>","null","","","","","","","","","","","","","","","","","","","","","","","feedback_test"
