"success","timeout","failed_images","failed_audio","failed_video","trial_type","trial_index","time_elapsed","internal_node_id","rt","stimulus","response","value","item_width_mm","item_height_mm","item_width_px","px2mm","view_dist_mm","item_width_deg","px2deg","scale_factor","win_width_deg","win_height_deg","view_history","response_type","key_press","avg_frame_time","center_x","center_y","correct_response","correct","Image","word","condition","screen_id"
"true","false","[]","[]","[]","preload","0","403","0.0-0.0","","","","","","","","","","","","","","","","","","","","","","","","","",""
"","","","","","html-keyboard-response","1","4829","0.0-1.0","4424","
     <p>您好，欢迎参加本次实验。</p>
     <p>为充分保障您的权利，请确保您已经知晓并同意《参与实验同意书》以及《数据公开知情同意书》。</p>
     <p>如果您未见过上述内容，请咨询实验员。</p>
     <p>如果您选择继续实验，则表示您已经清楚两份知情同意书的内容并同意。</p>
     <p> <div style = ""color: green""><按任意键至下页></div> </p>
     ","arrowright","","","","","","","","","","","","","","","","","","","","","","",""
"","","","","","html-keyboard-response","2","7219","0.0-2.0","2390","
     <p>本实验首先需要您填写一些基本个人信息。</p>
     <p> <div style = ""color: green""><按任意键至下页></div></p>
     ","arrowright","","","","","","","","","","","","","","","","","","","","","","",""
"","","","","","call-function","3","7221","0.0-3.0-0.0","","","","","","","","","","","","","","","","","","","","","","","","","",""
"","","","","","survey-html-form","4","67847","0.0-3.0-1.0","60624","","{""Q0"":""14""}","","","","","","","","","","","","","","","","","","","","","","",""
"","","","","","html-button-response","5","69141","0.0-3.0-2.0","1293","<p style = 'color : white'>您的性别</p>","0","","","","","","","","","","","","","","","","","","","","","","",""
"","","","","","survey-html-form","6","77637","0.0-3.0-3.0","8495","","{""Q0"":""2004""}","","","","","","","","","","","","","","","","","","","","","","",""
"","","","","","survey-html-form","7","80682","0.0-3.0-4.0","3044","","{""Q0"":""5""}","","","","","","","","","","","","","","","","","","","","","","",""
"","","","","","virtual-chinrest","8","166792","0.0-4.0","86107","","","","85.6","53.98","533.9584567191927","6.234174651747642","457.93","10.679169134383853","50","0.7154114616839804","30.72","14.22","","","","","","","","","","","",""
"true","","","","","fullscreen","9","169751","0.0-5.0","","","","","","","","","","","","","","","","","","","","","","","","","",""
"","","","","","instructions","10","232748","0.0-6.0","62996","","","","","","","","","","","","","","[{""page_index"":0,""viewing_time"":17278},{""page_index"":1,""viewing_time"":39988},{""page_index"":2,""viewing_time"":2843},{""page_index"":3,""viewing_time"":2887}]","","","","","","","","","","",""
"","","","","","psychophysics","11","235258","0.0-7.0-0.0","null","","null","","","","","","","","","","","","","key","null","16.667640000000052","768","428","f","false","img/T_ambi40.png","をる","prac",""
"","","","","","html-keyboard-response","12","235765","0.0-7.0-1.0","null","<span class='add_' style='color:yellow; font-size: 70px;'> 太慢! </span>","null","","","","","","","","","","","","","","","","","","","","","","","feedback_test"
"","","","","","psychophysics","13","237720","0.0-7.0-0.1","954","","j","","","","","","","","","","","","","key","j","16.659094827586095","768","428","f","false","img/T_ambi40.png","をる","prac",""
"","","","","","html-keyboard-response","14","238230","0.0-7.0-1.1","null","<span style='color:red; font-size: 70px;'>错误! </span>","null","","","","","","","","","","","","","","","","","","","","","","","feedback_test"
"","","","","","psychophysics","15","240196","0.0-7.0-0.2","965","","j","","","","","","","","","","","","","key","j","16.666504273504273","768","428","f","false","img/S_ambi40.png","自我","prac",""
"","","","","","html-keyboard-response","16","240707","0.0-7.0-1.2","null","<span style='color:red; font-size: 70px;'>错误! </span>","null","","","","","","","","","","","","","","","","","","","","","","","feedback_test"
"","","","","","psychophysics","17","242911","0.0-7.0-0.3","1202","","f","","","","","","","","","","","","","key","f","16.66454198473277","768","428","j","false","img/S_ambi40.png","生人","prac",""
"","","","","","html-keyboard-response","18","243416","0.0-7.0-1.3","null","<span style='color:red; font-size: 70px;'>错误! </span>","null","","","","","","","","","","","","","","","","","","","","","","","feedback_test"
"","","","","","psychophysics","19","245920","0.0-7.0-0.4","null","","null","","","","","","","","","","","","","key","null","16.66706711409403","768","428","j","false","img/H_ambi40.png","朋友","prac",""
"","","","","","html-keyboard-response","20","246435","0.0-7.0-1.4","null","<span class='add_' style='color:yellow; font-size: 70px;'> 太慢! </span>","null","","","","","","","","","","","","","","","","","","","","","","","feedback_test"
"","","","","","psychophysics","21","248894","0.0-7.0-0.5","1458","","f","","","","","","","","","","","","","key","f","16.666557823129228","768","428","f","true","img/H_ambi40.png","生人","prac",""
"","","","","","html-keyboard-response","22","249399","0.0-7.0-1.5","null","<span style='color:GreenYellow; font-size: 70px;'>正确! </span>","null","","","","","","","","","","","","","","","","","","","","","","","feedback_test"
"","","","","","psychophysics","23","251140","0.0-7.0-0.6","740","","j","","","","","","","","","","","","","key","j","16.6685922330099","768","428","j","true","img/C_ambi40.png","自我","prac",""
"","","","","","html-keyboard-response","24","251651","0.0-7.0-1.6","null","<span style='color:GreenYellow; font-size: 70px;'>正确! </span>","null","","","","","","","","","","","","","","","","","","","","","","","feedback_test"
"","","","","","psychophysics","25","254084","0.0-7.0-0.7","1428","","f","","","","","","","","","","","","","key","f","16.668255172413772","768","428","f","true","img/T_ambi40.png","をる","prac",""
"","","","","","html-keyboard-response","26","254589","0.0-7.0-1.7","null","<span style='color:GreenYellow; font-size: 70px;'>正确! </span>","null","","","","","","","","","","","","","","","","","","","","","","","feedback_test"
"","","","","","psychophysics","27","256774","0.0-7.0-0.8","1184","","f","","","","","","","","","","","","","key","f","16.665984615384456","768","428","j","false","img/C_ambi40.png","生人","prac",""
"","","","","","html-keyboard-response","28","257280","0.0-7.0-1.8","null","<span style='color:red; font-size: 70px;'>错误! </span>","null","","","","","","","","","","","","","","","","","","","","","","","feedback_test"
"","","","","","psychophysics","29","259421","0.0-7.0-0.9","1138","","j","","","","","","","","","","","","","key","j","16.664952755905457","768","428","j","true","img/S_ambi40.png","朋友","prac",""
"","","","","","html-keyboard-response","30","259930","0.0-7.0-1.9","null","<span style='color:GreenYellow; font-size: 70px;'>正确! </span>","null","","","","","","","","","","","","","","","","","","","","","","","feedback_test"
"","","","","","psychophysics","31","262342","0.0-7.0-0.10","1411","","j","","","","","","","","","","","","","key","j","16.667069444444376","768","428","f","false","img/C_ambi40.png","朋友","prac",""
"","","","","","html-keyboard-response","32","262844","0.0-7.0-1.10","null","<span style='color:red; font-size: 70px;'>错误! </span>","null","","","","","","","","","","","","","","","","","","","","","","","feedback_test"
"","","","","","psychophysics","33","265190","0.0-7.0-0.11","1343","","f","","","","","","","","","","","","","key","f","16.66328057553954","768","428","f","true","img/H_ambi40.png","生人","prac",""
"","","","","","html-keyboard-response","34","265697","0.0-7.0-1.11","null","<span style='color:GreenYellow; font-size: 70px;'>正确! </span>","null","","","","","","","","","","","","","","","","","","","","","","","feedback_test"
"","","","","","psychophysics","35","267709","0.0-7.0-0.12","1011","","j","","","","","","","","","","","","","key","j","16.670283333333405","768","428","f","false","img/T_ambi40.png","をる","prac",""
"","","","","","html-keyboard-response","36","268213","0.0-7.0-1.12","null","<span style='color:red; font-size: 70px;'>错误! </span>","null","","","","","","","","","","","","","","","","","","","","","","","feedback_test"
"","","","","","psychophysics","37","270719","0.0-7.0-0.13","null","","null","","","","","","","","","","","","","key","null","16.668677852349198","768","428","f","false","img/S_ambi40.png","自我","prac",""
"","","","","","html-keyboard-response","38","271236","0.0-7.0-1.13","null","<span class='add_' style='color:yellow; font-size: 70px;'> 太慢! </span>","null","","","","","","","","","","","","","","","","","","","","","","","feedback_test"
"","","","","","psychophysics","39","273367","0.0-7.0-0.14","1128","","f","","","","","","","","","","","","","key","f","16.667629921259763","768","428","j","false","img/H_ambi40.png","自我","prac",""
"","","","","","html-keyboard-response","40","273870","0.0-7.0-1.14","null","<span style='color:red; font-size: 70px;'>错误! </span>","null","","","","","","","","","","","","","","","","","","","","","","","feedback_test"
"","","","","","psychophysics","41","276372","0.0-7.0-0.15","null","","null","","","","","","","","","","","","","key","null","16.66691275167782","768","428","f","false","img/C_ambi40.png","朋友","prac",""
"","","","","","html-keyboard-response","42","276876","0.0-7.0-1.15","null","<span class='add_' style='color:yellow; font-size: 70px;'> 太慢! </span>","null","","","","","","","","","","","","","","","","","","","","","","","feedback_test"
"","","","","","psychophysics","43","279382","0.0-7.0-0.16","null","","null","","","","","","","","","","","","","key","null","16.667013422818854","768","428","f","false","img/T_ambi40.png","をる","prac",""
"","","","","","html-keyboard-response","44","279896","0.0-7.0-1.16","null","<span class='add_' style='color:yellow; font-size: 70px;'> 太慢! </span>","null","","","","","","","","","","","","","","","","","","","","","","","feedback_test"
"","","","","","psychophysics","45","281697","0.0-7.0-0.17","799","","f","","","","","","","","","","","","","key","f","16.665336448598598","768","428","f","true","img/S_ambi40.png","自我","prac",""
"","","","","","html-keyboard-response","46","282203","0.0-7.0-1.17","null","<span style='color:GreenYellow; font-size: 70px;'>正确! </span>","null","","","","","","","","","","","","","","","","","","","","","","","feedback_test"
"","","","","","psychophysics","47","284497","0.0-7.0-0.18","1290","","f","","","","","","","","","","","","","key","f","16.666576642335738","768","428","f","true","img/C_ambi40.png","朋友","prac",""
"","","","","","html-keyboard-response","48","285006","0.0-7.0-1.18","null","<span style='color:GreenYellow; font-size: 70px;'>正确! </span>","null","","","","","","","","","","","","","","","","","","","","","","","feedback_test"
"","","","","","psychophysics","49","287027","0.0-7.0-0.19","1018","","f","","","","","","","","","","","","","key","f","16.666399999999946","768","428","f","true","img/H_ambi40.png","生人","prac",""
"","","","","","html-keyboard-response","50","287540","0.0-7.0-1.19","null","<span style='color:GreenYellow; font-size: 70px;'>正确! </span>","null","","","","","","","","","","","","","","","","","","","","","","","feedback_test"
"","","","","","psychophysics","51","289820","0.0-7.0-0.20","1278","","j","","","","","","","","","","","","","key","j","16.666711111111066","768","428","j","true","img/S_ambi40.png","生人","prac",""
"","","","","","html-keyboard-response","52","290323","0.0-7.0-1.20","null","<span style='color:GreenYellow; font-size: 70px;'>正确! </span>","null","","","","","","","","","","","","","","","","","","","","","","","feedback_test"
"","","","","","psychophysics","53","292410","0.0-7.0-0.21","1085","","j","","","","","","","","","","","","","key","j","16.666475806451935","768","428","j","true","img/S_ambi40.png","朋友","prac",""
"","","","","","html-keyboard-response","54","292926","0.0-7.0-1.21","null","<span style='color:GreenYellow; font-size: 70px;'>正确! </span>","null","","","","","","","","","","","","","","","","","","","","","","","feedback_test"
"","","","","","psychophysics","55","294876","0.0-7.0-0.22","948","","j","","","","","","","","","","","","","key","j","16.6588017241382","768","428","f","false","img/T_ambi40.png","をる","prac",""
"","","","","","html-keyboard-response","56","295379","0.0-7.0-1.22","null","<span style='color:red; font-size: 70px;'>错误! </span>","null","","","","","","","","","","","","","","","","","","","","","","","feedback_test"
"","","","","","psychophysics","57","297309","0.0-7.0-0.23","926","","j","","","","","","","","","","","","","key","j","16.662634782608517","768","428","f","false","img/T_ambi40.png","をる","prac",""
"","","","","","html-keyboard-response","58","297814","0.0-7.0-1.23","null","<span style='color:red; font-size: 70px;'>错误! </span>","null","","","","","","","","","","","","","","","","","","","","","","","feedback_test"
"","","","","","psychophysics","59","299930","0.0-7.0-0.24","1112","","f","","","","","","","","","","","","","key","f","16.665960317460492","768","428","f","true","img/H_ambi40.png","生人","prac",""
"","","","","","html-keyboard-response","60","300433","0.0-7.0-1.24","null","<span style='color:GreenYellow; font-size: 70px;'>正确! </span>","null","","","","","","","","","","","","","","","","","","","","","","","feedback_test"
"","","","","","psychophysics","61","302329","0.0-7.0-0.25","892","","f","","","","","","","","","","","","","key","f","16.669407079646373","768","428","f","true","img/T_ambi40.png","をる","prac",""
"","","","","","html-keyboard-response","62","302844","0.0-7.0-1.25","null","<span style='color:GreenYellow; font-size: 70px;'>正确! </span>","null","","","","","","","","","","","","","","","","","","","","","","","feedback_test"
"","","","","","psychophysics","63","304680","0.0-7.0-0.26","835","","j","","","","","","","","","","","","","key","j","16.660266055045714","768","428","j","true","img/H_ambi40.png","自我","prac",""
"","","","","","html-keyboard-response","64","305194","0.0-7.0-1.26","null","<span style='color:GreenYellow; font-size: 70px;'>正确! </span>","null","","","","","","","","","","","","","","","","","","","","","","","feedback_test"
"","","","","","psychophysics","65","306883","0.0-7.0-0.27","687","","f","","","","","","","","","","","","","key","f","16.659739999999875","768","428","j","false","img/H_ambi40.png","朋友","prac",""
"","","","","","html-keyboard-response","66","307397","0.0-7.0-1.27","null","<span style='color:red; font-size: 70px;'>错误! </span>","null","","","","","","","","","","","","","","","","","","","","","","","feedback_test"
"","","","","","psychophysics","67","309261","0.0-7.0-0.28","863","","f","","","","","","","","","","","","","key","f","16.66627027027032","768","428","j","false","img/C_ambi40.png","自我","prac",""
"","","","","","html-keyboard-response","68","309774","0.0-7.0-1.28","null","<span style='color:red; font-size: 70px;'>错误! </span>","null","","","","","","","","","","","","","","","","","","","","","","","feedback_test"
"","","","","","psychophysics","69","311541","0.0-7.0-0.29","766","","f","","","","","","","","","","","","","key","f","16.665790476190438","768","428","f","true","img/C_ambi40.png","朋友","prac",""
"","","","","","html-keyboard-response","70","312055","0.0-7.0-1.29","null","<span style='color:GreenYellow; font-size: 70px;'>正确! </span>","null","","","","","","","","","","","","","","","","","","","","","","","feedback_test"
"","","","","","psychophysics","71","313833","0.0-7.0-0.30","777","","f","","","","","","","","","","","","","key","f","16.661590476190515","768","428","f","true","img/S_ambi40.png","自我","prac",""
"","","","","","html-keyboard-response","72","314336","0.0-7.0-1.30","null","<span style='color:GreenYellow; font-size: 70px;'>正确! </span>","null","","","","","","","","","","","","","","","","","","","","","","","feedback_test"
"","","","","","psychophysics","73","316245","0.0-7.0-0.31","908","","f","","","","","","","","","","","","","key","f","16.66449557522114","768","428","j","false","img/C_ambi40.png","生人","prac",""
"","","","","","html-keyboard-response","74","316746","0.0-7.0-1.31","null","<span style='color:red; font-size: 70px;'>错误! </span>","null","","","","","","","","","","","","","","","","","","","","","","","feedback_test"
"","","","","","psychophysics","75","318814","0.0-8.0-0.0-0.0","1067","","j","","","","","","","","","","","","","key","j","16.65956097560967","768","428","j","true","img/C_ambi40.png","生人","prac",""
"","","","","","html-keyboard-response","76","319317","0.0-8.0-0.0-1.0","null","<span style='color:GreenYellow; font-size: 70px;'>正确! </span>","null","","","","","","","","","","","","","","","","","","","","","","","feedback_test"
"","","","","","psychophysics","77","321215","0.0-8.0-0.0-0.1","896","","j","","","","","","","","","","","","","key","j","16.668778761062335","768","428","j","true","img/C_ambi40.png","自我","prac",""
"","","","","","html-keyboard-response","78","321718","0.0-8.0-0.0-1.1","null","<span style='color:GreenYellow; font-size: 70px;'>正确! </span>","null","","","","","","","","","","","","","","","","","","","","","","","feedback_test"
"","","","","","psychophysics","79","323543","0.0-8.0-0.0-0.2","823","","j","","","","","","","","","","","","","key","j","16.54419444444486","768","428","f","false","img/T_ambi40.png","をる","prac",""
"","","","","","html-keyboard-response","80","324051","0.0-8.0-0.0-1.2","null","<span style='color:red; font-size: 70px;'>错误! </span>","null","","","","","","","","","","","","","","","","","","","","","","","feedback_test"
"","","","","","psychophysics","81","326091","0.0-8.0-0.0-0.3","1038","","f","","","","","","","","","","","","","key","f","16.558214876033013","768","428","f","true","img/C_ambi40.png","朋友","prac",""
"","","","","","html-keyboard-response","82","326597","0.0-8.0-0.0-1.3","null","<span style='color:GreenYellow; font-size: 70px;'>正确! </span>","null","","","","","","","","","","","","","","","","","","","","","","","feedback_test"
"","","","","","psychophysics","83","328606","0.0-8.0-0.0-0.4","1007","","f","","","","","","","","","","","","","key","f","16.6634666666665","768","428","f","true","img/H_ambi40.png","生人","prac",""
"","","","","","html-keyboard-response","84","329120","0.0-8.0-0.0-1.4","null","<span style='color:GreenYellow; font-size: 70px;'>正确! </span>","null","","","","","","","","","","","","","","","","","","","","","","","feedback_test"
"","","","","","psychophysics","85","331405","0.0-8.0-0.0-0.5","1283","","f","","","","","","","","","","","","","key","f","16.66601470588263","768","428","j","false","img/S_ambi40.png","生人","prac",""
"","","","","","html-keyboard-response","86","331913","0.0-8.0-0.0-1.5","null","<span style='color:red; font-size: 70px;'>错误! </span>","null","","","","","","","","","","","","","","","","","","","","","","","feedback_test"
"","","","","","psychophysics","87","333949","0.0-8.0-0.0-0.6","1035","","f","","","","","","","","","","","","","key","f","16.667082644628135","768","428","j","false","img/H_ambi40.png","自我","prac",""
"","","","","","html-keyboard-response","88","334464","0.0-8.0-0.0-1.6","null","<span style='color:red; font-size: 70px;'>错误! </span>","null","","","","","","","","","","","","","","","","","","","","","","","feedback_test"
"","","","","","psychophysics","89","336101","0.0-8.0-0.0-0.7","636","","f","","","","","","","","","","","","","key","f","16.667144329896793","768","428","f","true","img/S_ambi40.png","自我","prac",""
"","","","","","html-keyboard-response","90","336611","0.0-8.0-0.0-1.7","null","<span style='color:GreenYellow; font-size: 70px;'>正确! </span>","null","","","","","","","","","","","","","","","","","","","","","","","feedback_test"
"","","","","","psychophysics","91","338602","0.0-8.0-0.0-0.8","989","","f","","","","","","","","","","","","","key","f","16.665254237288135","768","428","f","true","img/H_ambi40.png","生人","prac",""
"","","","","","html-keyboard-response","92","339113","0.0-8.0-0.0-1.8","null","<span style='color:GreenYellow; font-size: 70px;'>正确! </span>","null","","","","","","","","","","","","","","","","","","","","","","","feedback_test"
"","","","","","psychophysics","93","340819","0.0-8.0-0.0-0.9","705","","f","","","","","","","","","","","","","key","f","16.662872549019728","768","428","f","true","img/S_ambi40.png","自我","prac",""
"","","","","","html-keyboard-response","94","341331","0.0-8.0-0.0-1.9","null","<span style='color:GreenYellow; font-size: 70px;'>正确! </span>","null","","","","","","","","","","","","","","","","","","","","","","","feedback_test"
"","","","","","psychophysics","95","343141","0.0-8.0-0.0-0.10","807","","j","","","","","","","","","","","","","key","j","16.648277777777466","768","428","f","false","img/T_ambi40.png","をる","prac",""
"","","","","","html-keyboard-response","96","343655","0.0-8.0-0.0-1.10","null","<span style='color:red; font-size: 70px;'>错误! </span>","null","","","","","","","","","","","","","","","","","","","","","","","feedback_test"
"","","","","","psychophysics","97","345447","0.0-8.0-0.0-0.11","791","","f","","","","","","","","","","","","","key","f","16.66580188679256","768","428","f","true","img/T_ambi40.png","をる","prac",""
"","","","","","html-keyboard-response","98","345961","0.0-8.0-0.0-1.11","null","<span style='color:GreenYellow; font-size: 70px;'>正确! </span>","null","","","","","","","","","","","","","","","","","","","","","","","feedback_test"
"","","","","","psychophysics","99","347827","0.0-8.0-0.0-0.12","864","","f","","","","","","","","","","","","","key","f","16.665432432432542","768","428","f","true","img/C_ambi40.png","朋友","prac",""
"","","","","","html-keyboard-response","100","348334","0.0-8.0-0.0-1.12","null","<span style='color:GreenYellow; font-size: 70px;'>正确! </span>","null","","","","","","","","","","","","","","","","","","","","","","","feedback_test"
"","","","","","psychophysics","101","349918","0.0-8.0-0.0-0.13","583","","f","","","","","","","","","","","","","key","f","16.662563829786798","768","428","f","true","img/T_ambi40.png","をる","prac",""
"","","","","","html-keyboard-response","102","350429","0.0-8.0-0.0-1.13","null","<span style='color:GreenYellow; font-size: 70px;'>正确! </span>","null","","","","","","","","","","","","","","","","","","","","","","","feedback_test"
"","","","","","psychophysics","103","352436","0.0-8.0-0.0-0.14","1006","","f","","","","","","","","","","","","","key","f","16.6657249999999","768","428","j","false","img/H_ambi40.png","朋友","prac",""
"","","","","","html-keyboard-response","104","352942","0.0-8.0-0.0-1.14","null","<span style='color:red; font-size: 70px;'>错误! </span>","null","","","","","","","","","","","","","","","","","","","","","","","feedback_test"
"","","","","","psychophysics","105","354873","0.0-8.0-0.0-0.15","930","","j","","","","","","","","","","","","","key","j","16.667095652174044","768","428","j","true","img/S_ambi40.png","朋友","prac",""
"","","","","","html-keyboard-response","106","355387","0.0-8.0-0.0-1.15","null","<span style='color:GreenYellow; font-size: 70px;'>正确! </span>","null","","","","","","","","","","","","","","","","","","","","","","","feedback_test"
"","","","","","psychophysics","107","357237","0.0-8.0-0.0-0.16","847","","f","","","","","","","","","","","","","key","f","16.664472727272237","768","428","f","true","img/T_ambi40.png","をる","prac",""
"","","","","","html-keyboard-response","108","357741","0.0-8.0-0.0-1.16","null","<span style='color:GreenYellow; font-size: 70px;'>正确! </span>","null","","","","","","","","","","","","","","","","","","","","","","","feedback_test"
"","","","","","psychophysics","109","359497","0.0-8.0-0.0-0.17","755","","j","","","","","","","","","","","","","key","j","16.666163461538627","768","428","j","true","img/H_ambi40.png","朋友","prac",""
"","","","","","html-keyboard-response","110","360010","0.0-8.0-0.0-1.17","null","<span style='color:GreenYellow; font-size: 70px;'>正确! </span>","null","","","","","","","","","","","","","","","","","","","","","","","feedback_test"
"","","","","","psychophysics","111","361674","0.0-8.0-0.0-0.18","663","","f","","","","","","","","","","","","","key","f","16.665939393938952","768","428","f","true","img/H_ambi40.png","生人","prac",""
"","","","","","html-keyboard-response","112","362184","0.0-8.0-0.0-1.18","null","<span style='color:GreenYellow; font-size: 70px;'>正确! </span>","null","","","","","","","","","","","","","","","","","","","","","","","feedback_test"
"","","","","","psychophysics","113","363871","0.0-8.0-0.0-0.19","684","","f","","","","","","","","","","","","","key","f","16.665540000000036","768","428","f","true","img/S_ambi40.png","自我","prac",""
"","","","","","html-keyboard-response","114","364386","0.0-8.0-0.0-1.19","null","<span style='color:GreenYellow; font-size: 70px;'>正确! </span>","null","","","","","","","","","","","","","","","","","","","","","","","feedback_test"
"","","","","","psychophysics","115","366072","0.0-8.0-0.0-0.20","684","","f","","","","","","","","","","","","","key","f","16.660599999999977","768","428","f","true","img/S_ambi40.png","自我","prac",""
"","","","","","html-keyboard-response","116","366586","0.0-8.0-0.0-1.20","null","<span style='color:GreenYellow; font-size: 70px;'>正确! </span>","null","","","","","","","","","","","","","","","","","","","","","","","feedback_test"
"","","","","","psychophysics","117","368406","0.0-8.0-0.0-0.21","817","","j","","","","","","","","","","","","","key","j","16.66462962962989","768","428","j","true","img/C_ambi40.png","生人","prac",""
"","","","","","html-keyboard-response","118","368908","0.0-8.0-0.0-1.21","null","<span style='color:GreenYellow; font-size: 70px;'>正确! </span>","null","","","","","","","","","","","","","","","","","","","","","","","feedback_test"
"","","","","","psychophysics","119","370814","0.0-8.0-0.0-0.22","904","","f","","","","","","","","","","","","","key","f","16.666415929203477","768","428","j","false","img/S_ambi40.png","生人","prac",""
"","","","","","html-keyboard-response","120","371327","0.0-8.0-0.0-1.22","null","<span style='color:red; font-size: 70px;'>错误! </span>","null","","","","","","","","","","","","","","","","","","","","","","","feedback_test"
"","","","","","psychophysics","121","373060","0.0-8.0-0.0-0.23","731","","f","","","","","","","","","","","","","key","f","16.666106796116473","768","428","f","true","img/T_ambi40.png","をる","prac",""
"","","","","","html-keyboard-response","122","373568","0.0-8.0-0.0-1.23","null","<span style='color:GreenYellow; font-size: 70px;'>正确! </span>","null","","","","","","","","","","","","","","","","","","","","","","","feedback_test"
"","","","","","psychophysics","123","375010","0.0-8.0-0.0-0.24","440","","f","","","","","","","","","","","","","key","f","16.66452941176454","768","428","f","true","img/C_ambi40.png","朋友","prac",""
"","","","","","html-keyboard-response","124","375513","0.0-8.0-0.0-1.24","null","<span style='color:GreenYellow; font-size: 70px;'>正确! </span>","null","","","","","","","","","","","","","","","","","","","","","","","feedback_test"
"","","","","","psychophysics","125","376972","0.0-8.0-0.0-0.25","457","","f","","","","","","","","","","","","","key","f","16.666126436781372","768","428","f","true","img/C_ambi40.png","朋友","prac",""
"","","","","","html-keyboard-response","126","377475","0.0-8.0-0.0-1.25","null","<span style='color:GreenYellow; font-size: 70px;'>正确! </span>","null","","","","","","","","","","","","","","","","","","","","","","","feedback_test"
"","","","","","psychophysics","127","379297","0.0-8.0-0.0-0.26","821","","j","","","","","","","","","","","","","key","j","16.66639814814833","768","428","j","true","img/S_ambi40.png","朋友","prac",""
"","","","","","html-keyboard-response","128","379812","0.0-8.0-0.0-1.26","null","<span style='color:GreenYellow; font-size: 70px;'>正确! </span>","null","","","","","","","","","","","","","","","","","","","","","","","feedback_test"
"","","","","","psychophysics","129","381701","0.0-8.0-0.0-0.27","887","","j","","","","","","","","","","","","","key","j","16.661991150442415","768","428","f","false","img/T_ambi40.png","をる","prac",""
"","","","","","html-keyboard-response","130","382215","0.0-8.0-0.0-1.27","null","<span style='color:red; font-size: 70px;'>错误! </span>","null","","","","","","","","","","","","","","","","","","","","","","","feedback_test"
"","","","","","psychophysics","131","383696","0.0-8.0-0.0-0.28","480","","f","","","","","","","","","","","","","key","f","16.509540229884575","768","428","j","false","img/C_ambi40.png","自我","prac",""
"","","","","","html-keyboard-response","132","384211","0.0-8.0-0.0-1.28","null","<span style='color:red; font-size: 70px;'>错误! </span>","null","","","","","","","","","","","","","","","","","","","","","","","feedback_test"
"","","","","","psychophysics","133","385774","0.0-8.0-0.0-0.29","561","","j","","","","","","","","","","","","","key","j","16.674913978494544","768","428","j","true","img/H_ambi40.png","自我","prac",""
"","","","","","html-keyboard-response","134","386286","0.0-8.0-0.0-1.29","null","<span style='color:GreenYellow; font-size: 70px;'>正确! </span>","null","","","","","","","","","","","","","","","","","","","","","","","feedback_test"
"","","","","","psychophysics","135","387596","0.0-8.0-0.0-0.30","310","","f","","","","","","","","","","","","","key","f","16.668376623376957","768","428","f","true","img/H_ambi40.png","生人","prac",""
"","","","","","html-keyboard-response","136","388111","0.0-8.0-0.0-1.30","null","<span style='color:GreenYellow; font-size: 70px;'>正确! </span>","null","","","","","","","","","","","","","","","","","","","","","","","feedback_test"
"","","","","","psychophysics","137","389437","0.0-8.0-0.0-0.31","326","","f","","","","","","","","","","","","","key","f","16.663253164556927","768","428","f","true","img/T_ambi40.png","をる","prac",""
"","","","","","html-keyboard-response","138","389940","0.0-8.0-0.0-1.31","null","<span style='color:GreenYellow; font-size: 70px;'>正确! </span>","null","","","","","","","","","","","","","","","","","","","","","","","feedback_test"
"","","","","","html-keyboard-response","139","405308","0.0-9.0","15366","<style>.context{color:white; font-size: 35px; line-height:40px}</style>                          <div><p class='context'>您正确回答了75% 的试次。</p ><p class='context'>您的平均反应时为733毫秒。</p ><p class='context'>恭喜您完成练习。按任意键进入正式实验。</p ><p class='footer' style='font-size: 35px; line-height:40px;'>请在进入正式实验实验之前将您的<span style='color: lightgreen;'>食指</span>放在电脑键盘的相应键位上进行按键。</p >","j","","","","","","","","","","","","","","","","","","","","","","",""
"","","","","","psychophysics","140","406901","0.0-10.0-0.0-0.0-0.0-0.0","588","","f","","","","","","","","","","","","","key","f","16.667284210526237","768","428","f","true","img/T_ambi40.png","をる","same",""
"","","","","","html-keyboard-response","141","407407","0.0-10.0-0.0-0.0-0.0-1.0","null","<span style='color:GreenYellow; font-size: 70px;'>正确! </span>","null","","","","","","","","","","","","","","","","","","","","","","","feedback_test"
"","","","","","psychophysics","142","409018","0.0-10.0-0.0-0.0-0.0-0.1","608","","f","","","","","","","","","","","","","key","f","16.65395833333302","768","428","j","false","img/H_ambi40.png","朋友","same",""
"","","","","","html-keyboard-response","143","409529","0.0-10.0-0.0-0.0-0.0-1.1","null","<span style='color:red; font-size: 70px;'>错误! </span>","null","","","","","","","","","","","","","","","","","","","","","","","feedback_test"
"","","","","","psychophysics","144","411420","0.0-10.0-0.0-0.0-0.0-0.2","891","","f","","","","","","","","","","","","","key","f","16.667442477875866","768","428","f","true","img/H_ambi40.png","生人","same",""
"","","","","","html-keyboard-response","145","411932","0.0-10.0-0.0-0.0-0.0-1.2","null","<span style='color:GreenYellow; font-size: 70px;'>正确! </span>","null","","","","","","","","","","","","","","","","","","","","","","","feedback_test"
"","","","","","psychophysics","146","413590","0.0-10.0-0.0-0.0-0.0-0.3","656","","j","","","","","","","","","","","","","key","j","16.66608163265319","768","428","j","true","img/C_ambi40.png","自我","same",""
"","","","","","html-keyboard-response","147","414104","0.0-10.0-0.0-0.0-0.0-1.3","null","<span style='color:GreenYellow; font-size: 70px;'>正确! </span>","null","","","","","","","","","","","","","","","","","","","","","","","feedback_test"
"","","","","","psychophysics","148","415842","0.0-10.0-0.0-0.0-0.0-0.4","737","","j","","","","","","","","","","","","","key","j","16.66636893203882","768","428","j","true","img/C_ambi40.png","自我","same",""
"","","","","","html-keyboard-response","149","416348","0.0-10.0-0.0-0.0-0.0-1.4","null","<span style='color:GreenYellow; font-size: 70px;'>正确! </span>","null","","","","","","","","","","","","","","","","","","","","","","","feedback_test"
"","","","","","psychophysics","150","418144","0.0-10.0-0.0-0.0-0.0-0.5","795","","f","","","","","","","","","","","","","key","f","16.668952830188537","768","428","f","true","img/H_ambi40.png","生人","same",""
"","","","","","html-keyboard-response","151","418657","0.0-10.0-0.0-0.0-0.0-1.5","null","<span style='color:GreenYellow; font-size: 70px;'>正确! </span>","null","","","","","","","","","","","","","","","","","","","","","","","feedback_test"
"","","","","","psychophysics","152","420489","0.0-10.0-0.0-0.0-0.0-0.6","831","","f","","","","","","","","","","","","","key","f","16.668577981651374","768","428","f","true","img/T_ambi40.png","をる","same",""
"","","","","","html-keyboard-response","153","421001","0.0-10.0-0.0-0.0-0.0-1.6","null","<span style='color:GreenYellow; font-size: 70px;'>正确! </span>","null","","","","","","","","","","","","","","","","","","","","","","","feedback_test"
"","","","","","psychophysics","154","422834","0.0-10.0-0.0-0.0-0.0-0.7","831","","j","","","","","","","","","","","","","key","j","16.665779816513826","768","428","j","true","img/H_ambi40.png","朋友","same",""
"","","","","","html-keyboard-response","155","423342","0.0-10.0-0.0-0.0-0.0-1.7","null","<span style='color:GreenYellow; font-size: 70px;'>正确! </span>","null","","","","","","","","","","","","","","","","","","","","","","","feedback_test"
"","","","","","psychophysics","156","424951","0.0-10.0-0.0-0.0-0.0-0.8","608","","f","","","","","","","","","","","","","key","f","16.66697916666696","768","428","f","true","img/S_ambi40.png","自我","same",""
"","","","","","html-keyboard-response","157","425462","0.0-10.0-0.0-0.0-0.0-1.8","null","<span style='color:GreenYellow; font-size: 70px;'>正确! </span>","null","","","","","","","","","","","","","","","","","","","","","","","feedback_test"
"","","","","","psychophysics","158","427138","0.0-10.0-0.0-0.0-0.0-0.9","674","","j","","","","","","","","","","","","","key","j","16.667060000000056","768","428","f","false","img/S_ambi40.png","自我","same",""
"","","","","","html-keyboard-response","159","427646","0.0-10.0-0.0-0.0-0.0-1.9","null","<span style='color:red; font-size: 70px;'>错误! </span>","null","","","","","","","","","","","","","","","","","","","","","","","feedback_test"
"","","","","","psychophysics","160","429525","0.0-10.0-0.0-0.0-0.0-0.10","877","","j","","","","","","","","","","","","","key","j","16.546072072072086","768","428","f","false","img/C_ambi40.png","朋友","same",""
"","","","","","html-keyboard-response","161","430035","0.0-10.0-0.0-0.0-0.0-1.10","null","<span style='color:red; font-size: 70px;'>错误! </span>","null","","","","","","","","","","","","","","","","","","","","","","","feedback_test"
"","","","","","psychophysics","162","431630","0.0-10.0-0.0-0.0-0.0-0.11","594","","f","","","","","","","","","","","","","key","f","16.666489361702375","768","428","f","true","img/C_ambi40.png","朋友","same",""
"","","","","","html-keyboard-response","163","432136","0.0-10.0-0.0-0.0-0.0-1.11","null","<span style='color:GreenYellow; font-size: 70px;'>正确! </span>","null","","","","","","","","","","","","","","","","","","","","","","","feedback_test"
"","","","","","psychophysics","164","433867","0.0-10.0-0.0-0.0-0.0-0.12","729","","j","","","","","","","","","","","","","key","j","16.665029126213234","768","428","j","true","img/S_ambi40.png","朋友","same",""
"","","","","","html-keyboard-response","165","434368","0.0-10.0-0.0-0.0-0.0-1.12","null","<span style='color:GreenYellow; font-size: 70px;'>正确! </span>","null","","","","","","","","","","","","","","","","","","","","","","","feedback_test"
"","","","","","psychophysics","166","436357","0.0-10.0-0.0-0.0-0.0-0.13","987","","f","","","","","","","","","","","","","key","f","16.66411864406812","768","428","j","false","img/C_ambi40.png","生人","same",""
"","","","","","html-keyboard-response","167","436862","0.0-10.0-0.0-0.0-0.0-1.13","null","<span style='color:red; font-size: 70px;'>错误! </span>","null","","","","","","","","","","","","","","","","","","","","","","","feedback_test"
"","","","","","psychophysics","168","438823","0.0-10.0-0.0-0.0-0.0-0.14","960","","f","","","","","","","","","","","","","key","f","16.559422413792948","768","428","f","true","img/T_ambi40.png","をる","same",""
"","","","","","html-keyboard-response","169","439326","0.0-10.0-0.0-0.0-0.0-1.14","null","<span style='color:GreenYellow; font-size: 70px;'>正确! </span>","null","","","","","","","","","","","","","","","","","","","","","","","feedback_test"
"","","","","","psychophysics","170","441092","0.0-10.0-0.0-0.0-0.0-0.15","765","","j","","","","","","","","","","","","","key","j","16.657685714285996","768","428","j","true","img/S_ambi40.png","生人","same",""
"","","","","","html-keyboard-response","171","441596","0.0-10.0-0.0-0.0-0.0-1.15","null","<span style='color:GreenYellow; font-size: 70px;'>正确! </span>","null","","","","","","","","","","","","","","","","","","","","","","","feedback_test"
"","","","","","psychophysics","172","443058","0.0-10.0-0.0-0.0-0.0-0.16","460","","f","","","","","","","","","","","","","key","f","16.66430232558145","768","428","j","false","img/H_ambi40.png","自我","same",""
"","","","","","html-keyboard-response","173","443565","0.0-10.0-0.0-0.0-0.0-1.16","null","<span style='color:red; font-size: 70px;'>错误! </span>","null","","","","","","","","","","","","","","","","","","","","","","","feedback_test"
"","","","","","psychophysics","174","445213","0.0-10.0-0.0-0.0-0.0-0.17","646","","j","","","","","","","","","","","","","key","j","16.66495876288649","768","428","j","true","img/S_ambi40.png","生人","same",""
"","","","","","html-keyboard-response","175","445716","0.0-10.0-0.0-0.0-0.0-1.17","null","<span style='color:GreenYellow; font-size: 70px;'>正确! </span>","null","","","","","","","","","","","","","","","","","","","","","","","feedback_test"
"","","","","","psychophysics","176","447592","0.0-10.0-0.0-0.0-0.0-0.18","874","","f","","","","","","","","","","","","","key","f","16.66537837837854","768","428","f","true","img/H_ambi40.png","生人","same",""
"","","","","","html-keyboard-response","177","448104","0.0-10.0-0.0-0.0-0.0-1.18","null","<span style='color:GreenYellow; font-size: 70px;'>正确! </span>","null","","","","","","","","","","","","","","","","","","","","","","","feedback_test"
"","","","","","psychophysics","178","449798","0.0-10.0-0.0-0.0-0.0-0.19","692","","j","","","","","","","","","","","","","key","j","16.662891089108815","768","428","j","true","img/C_ambi40.png","自我","same",""
"","","","","","html-keyboard-response","179","450300","0.0-10.0-0.0-0.0-0.0-1.19","null","<span style='color:GreenYellow; font-size: 70px;'>正确! </span>","null","","","","","","","","","","","","","","","","","","","","","","","feedback_test"
"","","","","","psychophysics","180","452190","0.0-10.0-0.0-0.0-0.0-0.20","888","","j","","","","","","","","","","","","","key","j","16.664080357142666","768","428","j","true","img/C_ambi40.png","自我","same",""
"","","","","","html-keyboard-response","181","452703","0.0-10.0-0.0-0.0-0.0-1.20","null","<span style='color:GreenYellow; font-size: 70px;'>正确! </span>","null","","","","","","","","","","","","","","","","","","","","","","","feedback_test"
"","","","","","psychophysics","182","454664","0.0-10.0-0.0-0.0-0.0-0.21","959","","j","","","","","","","","","","","","","key","j","16.671560344827693","768","428","j","true","img/H_ambi40.png","朋友","same",""
"","","","","","html-keyboard-response","183","455178","0.0-10.0-0.0-0.0-0.0-1.21","null","<span style='color:GreenYellow; font-size: 70px;'>正确! </span>","null","","","","","","","","","","","","","","","","","","","","","","","feedback_test"
"","","","","","psychophysics","184","457058","0.0-10.0-0.0-0.0-0.0-0.22","878","","f","","","","","","","","","","","","","key","f","16.672428571428878","768","428","f","true","img/T_ambi40.png","をる","same",""
"","","","","","html-keyboard-response","185","457571","0.0-10.0-0.0-0.0-0.0-1.22","null","<span style='color:GreenYellow; font-size: 70px;'>正确! </span>","null","","","","","","","","","","","","","","","","","","","","","","","feedback_test"
"","","","","","psychophysics","186","459178","0.0-10.0-0.0-0.0-0.0-0.23","605","","j","","","","","","","","","","","","","key","j","16.664978947368525","768","428","f","false","img/C_ambi40.png","朋友","same",""
"","","","","","html-keyboard-response","187","459689","0.0-10.0-0.0-0.0-0.0-1.23","null","<span style='color:red; font-size: 70px;'>错误! </span>","null","","","","","","","","","","","","","","","","","","","","","","","feedback_test"
"","","","","","psychophysics","188","461561","0.0-10.0-0.0-0.0-0.0-0.24","871","","j","","","","","","","","","","","","","key","j","16.66537837837854","768","428","j","true","img/C_ambi40.png","生人","same",""
"","","","","","html-keyboard-response","189","462067","0.0-10.0-0.0-0.0-0.0-1.24","null","<span style='color:GreenYellow; font-size: 70px;'>正确! </span>","null","","","","","","","","","","","","","","","","","","","","","","","feedback_test"
"","","","","","psychophysics","190","464385","0.0-10.0-0.0-0.0-0.0-0.25","1317","","f","","","","","","","","","","","","","key","f","16.664934782608686","768","428","f","true","img/H_ambi40.png","生人","same",""
"","","","","","html-keyboard-response","191","464895","0.0-10.0-0.0-0.0-0.0-1.25","null","<span style='color:GreenYellow; font-size: 70px;'>正确! </span>","null","","","","","","","","","","","","","","","","","","","","","","","feedback_test"
"","","","","","psychophysics","192","466710","0.0-10.0-0.0-0.0-0.0-0.26","814","","j","","","","","","","","","","","","","key","j","16.66580373831757","768","428","j","true","img/S_ambi40.png","生人","same",""
"","","","","","html-keyboard-response","193","467217","0.0-10.0-0.0-0.0-0.0-1.26","null","<span style='color:GreenYellow; font-size: 70px;'>正确! </span>","null","","","","","","","","","","","","","","","","","","","","","","","feedback_test"
"","","","","","psychophysics","194","469392","0.0-10.0-0.0-0.0-0.0-0.27","1175","","f","","","","","","","","","","","","","key","f","16.66297674418631","768","428","f","true","img/C_ambi40.png","朋友","same",""
"","","","","","html-keyboard-response","195","469909","0.0-10.0-0.0-0.0-0.0-1.27","null","<span style='color:GreenYellow; font-size: 70px;'>正确! </span>","null","","","","","","","","","","","","","","","","","","","","","","","feedback_test"
"","","","","","psychophysics","196","471726","0.0-10.0-0.0-0.0-0.0-0.28","814","","f","","","","","","","","","","","","","key","f","16.669314814815017","768","428","f","true","img/T_ambi40.png","をる","same",""
"","","","","","html-keyboard-response","197","472232","0.0-10.0-0.0-0.0-0.0-1.28","null","<span style='color:GreenYellow; font-size: 70px;'>正确! </span>","null","","","","","","","","","","","","","","","","","","","","","","","feedback_test"
"","","","","","psychophysics","198","474103","0.0-10.0-0.0-0.0-0.0-0.29","868","","j","","","","","","","","","","","","","key","j","16.656666666666794","768","428","j","true","img/S_ambi40.png","朋友","same",""
"","","","","","html-keyboard-response","199","474604","0.0-10.0-0.0-0.0-0.0-1.29","null","<span style='color:GreenYellow; font-size: 70px;'>正确! </span>","null","","","","","","","","","","","","","","","","","","","","","","","feedback_test"
"","","","","","psychophysics","200","476254","0.0-10.0-0.0-0.0-0.0-0.30","648","","f","","","","","","","","","","","","","key","f","16.6669591836737","768","428","f","true","img/S_ambi40.png","自我","same",""
"","","","","","html-keyboard-response","201","476761","0.0-10.0-0.0-0.0-0.0-1.30","null","<span style='color:GreenYellow; font-size: 70px;'>正确! </span>","null","","","","","","","","","","","","","","","","","","","","","","","feedback_test"
"","","","","","psychophysics","202","478401","0.0-10.0-0.0-0.0-0.0-0.31","639","","j","","","","","","","","","","","","","key","j","16.66784536082492","768","428","f","false","img/S_ambi40.png","自我","same",""
"","","","","","html-keyboard-response","203","478910","0.0-10.0-0.0-0.0-0.0-1.31","null","<span style='color:red; font-size: 70px;'>错误! </span>","null","","","","","","","","","","","","","","","","","","","","","","","feedback_test"
"","","","","","psychophysics","204","481192","0.0-10.0-0.0-0.0-0.0-0.32","1281","","j","","","","","","","","","","","","","key","j","16.666669117647174","768","428","j","true","img/H_ambi40.png","朋友","same",""
"","","","","","html-keyboard-response","205","481696","0.0-10.0-0.0-0.0-0.0-1.32","null","<span style='color:GreenYellow; font-size: 70px;'>正确! </span>","null","","","","","","","","","","","","","","","","","","","","","","","feedback_test"
"","","","","","psychophysics","206","483770","0.0-10.0-0.0-0.0-0.0-0.33","1074","","j","","","","","","","","","","","","","key","j","16.66713008130058","768","428","j","true","img/S_ambi40.png","生人","same",""
"","","","","","html-keyboard-response","207","484274","0.0-10.0-0.0-0.0-0.0-1.33","null","<span style='color:GreenYellow; font-size: 70px;'>正确! </span>","null","","","","","","","","","","","","","","","","","","","","","","","feedback_test"
"","","","","","psychophysics","208","486306","0.0-10.0-0.0-0.0-0.0-0.34","1030","","j","","","","","","","","","","","","","key","j","16.666256198347334","768","428","j","true","img/H_ambi40.png","自我","same",""
"","","","","","html-keyboard-response","209","486811","0.0-10.0-0.0-0.0-0.0-1.34","null","<span style='color:GreenYellow; font-size: 70px;'>正确! </span>","null","","","","","","","","","","","","","","","","","","","","","","","feedback_test"
"","","","","","psychophysics","210","488563","0.0-10.0-0.0-0.0-0.0-0.35","738","","f","","","","","","","","","","","","","key","f","16.53088461538461","768","428","f","true","img/T_ambi40.png","をる","same",""
"","","","","","html-keyboard-response","211","489076","0.0-10.0-0.0-0.0-0.0-1.35","null","<span style='color:GreenYellow; font-size: 70px;'>正确! </span>","null","","","","","","","","","","","","","","","","","","","","","","","feedback_test"
"","","","","","psychophysics","212","491349","0.0-10.0-0.0-0.0-0.0-0.36","1271","","j","","","","","","","","","","","","","key","j","16.66599264705848","768","428","f","false","img/H_ambi40.png","生人","same",""
"","","","","","html-keyboard-response","213","491858","0.0-10.0-0.0-0.0-0.0-1.36","null","<span style='color:red; font-size: 70px;'>错误! </span>","null","","","","","","","","","","","","","","","","","","","","","","","feedback_test"
"","","","","","psychophysics","214","493661","0.0-10.0-0.0-0.0-0.0-0.37","801","","j","","","","","","","","","","","","","key","j","16.66715887850466","768","428","j","true","img/C_ambi40.png","自我","same",""
"","","","","","html-keyboard-response","215","494168","0.0-10.0-0.0-0.0-0.0-1.37","null","<span style='color:GreenYellow; font-size: 70px;'>正确! </span>","null","","","","","","","","","","","","","","","","","","","","","","","feedback_test"
"","","","","","psychophysics","216","495907","0.0-10.0-0.0-0.0-0.0-0.38","737","","f","","","","","","","","","","","","","key","f","16.665553398058496","768","428","f","true","img/T_ambi40.png","をる","same",""
"","","","","","html-keyboard-response","217","496416","0.0-10.0-0.0-0.0-0.0-1.38","null","<span style='color:GreenYellow; font-size: 70px;'>正确! </span>","null","","","","","","","","","","","","","","","","","","","","","","","feedback_test"
"","","","","","psychophysics","218","498192","0.0-10.0-0.0-0.0-0.0-0.39","775","","j","","","","","","","","","","","","","key","j","16.666800000000237","768","428","j","true","img/H_ambi40.png","朋友","same",""
"","","","","","html-keyboard-response","219","498702","0.0-10.0-0.0-0.0-0.0-1.39","null","<span style='color:GreenYellow; font-size: 70px;'>正确! </span>","null","","","","","","","","","","","","","","","","","","","","","","","feedback_test"
"","","","","","psychophysics","220","500502","0.0-10.0-0.0-0.0-0.0-0.40","800","","f","","","","","","","","","","","","","key","f","16.66527102803692","768","428","j","false","img/H_ambi40.png","自我","same",""
"","","","","","html-keyboard-response","221","501007","0.0-10.0-0.0-0.0-0.0-1.40","null","<span style='color:red; font-size: 70px;'>错误! </span>","null","","","","","","","","","","","","","","","","","","","","","","","feedback_test"
"","","","","","psychophysics","222","502619","0.0-10.0-0.0-0.0-0.0-0.41","611","","f","","","","","","","","","","","","","key","f","16.669239583333063","768","428","f","true","img/S_ambi40.png","自我","same",""
"","","","","","html-keyboard-response","223","503132","0.0-10.0-0.0-0.0-0.0-1.41","null","<span style='color:GreenYellow; font-size: 70px;'>正确! </span>","null","","","","","","","","","","","","","","","","","","","","","","","feedback_test"
"","","","","","psychophysics","224","504779","0.0-10.0-0.0-0.0-0.0-0.42","646","","f","","","","","","","","","","","","","key","f","16.665948979591604","768","428","j","false","img/C_ambi40.png","生人","same",""
"","","","","","html-keyboard-response","225","505294","0.0-10.0-0.0-0.0-0.0-1.42","null","<span style='color:red; font-size: 70px;'>错误! </span>","null","","","","","","","","","","","","","","","","","","","","","","","feedback_test"
"","","","","","psychophysics","226","507658","0.0-10.0-0.0-0.0-0.0-0.43","1364","","j","","","","","","","","","","","","","key","j","16.66453571428553","768","428","f","false","img/H_ambi40.png","生人","same",""
"","","","","","html-keyboard-response","227","508174","0.0-10.0-0.0-0.0-0.0-1.43","null","<span style='color:red; font-size: 70px;'>错误! </span>","null","","","","","","","","","","","","","","","","","","","","","","","feedback_test"
"","","","","","psychophysics","228","510087","0.0-10.0-0.0-0.0-0.0-0.44","910","","f","","","","","","","","","","","","","key","f","16.668368421052275","768","428","f","true","img/C_ambi40.png","朋友","same",""
"","","","","","html-keyboard-response","229","510588","0.0-10.0-0.0-0.0-0.0-1.44","null","<span style='color:GreenYellow; font-size: 70px;'>正确! </span>","null","","","","","","","","","","","","","","","","","","","","","","","feedback_test"
"","","","","","psychophysics","230","512321","0.0-10.0-0.0-0.0-0.0-0.45","731","","f","","","","","","","","","","","","","key","f","16.66685436893191","768","428","f","true","img/T_ambi40.png","をる","same",""
"","","","","","html-keyboard-response","231","512832","0.0-10.0-0.0-0.0-0.0-1.45","null","<span style='color:GreenYellow; font-size: 70px;'>正确! </span>","null","","","","","","","","","","","","","","","","","","","","","","","feedback_test"
"","","","","","psychophysics","232","514511","0.0-10.0-0.0-0.0-0.0-0.46","677","","j","","","","","","","","","","","","","key","j","16.663340000000318","768","428","f","false","img/T_ambi40.png","をる","same",""
"","","","","","html-keyboard-response","233","515015","0.0-10.0-0.0-0.0-0.0-1.46","null","<span style='color:red; font-size: 70px;'>错误! </span>","null","","","","","","","","","","","","","","","","","","","","","","","feedback_test"
"","","","","","psychophysics","234","517090","0.0-10.0-0.0-0.0-0.0-0.47","1074","","j","","","","","","","","","","","","","key","j","16.665951219512287","768","428","j","true","img/H_ambi40.png","朋友","same",""
"","","","","","html-keyboard-response","235","517604","0.0-10.0-0.0-0.0-0.0-1.47","null","<span style='color:GreenYellow; font-size: 70px;'>正确! </span>","null","","","","","","","","","","","","","","","","","","","","","","","feedback_test"
"","","","","","psychophysics","236","519341","0.0-10.0-0.0-0.0-0.0-0.48","734","","j","","","","","","","","","","","","","key","j","16.66833009708727","768","428","j","true","img/S_ambi40.png","朋友","same",""
"","","","","","html-keyboard-response","237","519852","0.0-10.0-0.0-0.0-0.0-1.48","null","<span style='color:GreenYellow; font-size: 70px;'>正确! </span>","null","","","","","","","","","","","","","","","","","","","","","","","feedback_test"
"","","","","","psychophysics","238","521713","0.0-10.0-0.0-0.0-0.0-0.49","858","","j","","","","","","","","","","","","","key","j","16.667252252252272","768","428","j","true","img/C_ambi40.png","自我","same",""
"","","","","","html-keyboard-response","239","522228","0.0-10.0-0.0-0.0-0.0-1.49","null","<span style='color:GreenYellow; font-size: 70px;'>正确! </span>","null","","","","","","","","","","","","","","","","","","","","","","","feedback_test"
"","","","","","psychophysics","240","524291","0.0-10.0-0.0-0.0-0.0-0.50","1062","","f","","","","","","","","","","","","","key","f","16.665786885245623","768","428","f","true","img/C_ambi40.png","朋友","same",""
"","","","","","html-keyboard-response","241","524806","0.0-10.0-0.0-0.0-0.0-1.50","null","<span style='color:GreenYellow; font-size: 70px;'>正确! </span>","null","","","","","","","","","","","","","","","","","","","","","","","feedback_test"
"","","","","","psychophysics","242","526822","0.0-10.0-0.0-0.0-0.0-0.51","1014","","j","","","","","","","","","","","","","key","j","16.664949999999955","768","428","j","true","img/S_ambi40.png","生人","same",""
"","","","","","html-keyboard-response","243","527332","0.0-10.0-0.0-0.0-0.0-1.51","null","<span style='color:GreenYellow; font-size: 70px;'>正确! </span>","null","","","","","","","","","","","","","","","","","","","","","","","feedback_test"
"","","","","","psychophysics","244","528963","0.0-10.0-0.0-0.0-0.0-0.52","630","","j","","","","","","","","","","","","","key","j","16.66863917525781","768","428","j","true","img/S_ambi40.png","生人","same",""
"","","","","","html-keyboard-response","245","529476","0.0-10.0-0.0-0.0-0.0-1.52","null","<span style='color:GreenYellow; font-size: 70px;'>正确! </span>","null","","","","","","","","","","","","","","","","","","","","","","","feedback_test"
"","","","","","psychophysics","246","530985","0.0-10.0-0.0-0.0-0.0-0.53","509","","f","","","","","","","","","","","","","key","f","16.660932584269382","768","428","f","true","img/S_ambi40.png","自我","same",""
"","","","","","html-keyboard-response","247","531491","0.0-10.0-0.0-0.0-0.0-1.53","null","<span style='color:GreenYellow; font-size: 70px;'>正确! </span>","null","","","","","","","","","","","","","","","","","","","","","","","feedback_test"
"","","","","","psychophysics","248","533855","0.0-10.0-0.0-0.0-0.0-0.54","1362","","j","","","","","","","","","","","","","key","j","16.561564285713914","768","428","f","false","img/H_ambi40.png","生人","same",""
"","","","","","html-keyboard-response","249","534367","0.0-10.0-0.0-0.0-0.0-1.54","null","<span style='color:red; font-size: 70px;'>错误! </span>","null","","","","","","","","","","","","","","","","","","","","","","","feedback_test"
"","","","","","psychophysics","250","536416","0.0-10.0-0.0-0.0-0.0-0.55","1047","","f","","","","","","","","","","","","","key","f","16.6604344262293","768","428","f","true","img/S_ambi40.png","自我","same",""
"","","","","","html-keyboard-response","251","536928","0.0-10.0-0.0-0.0-0.0-1.55","null","<span style='color:GreenYellow; font-size: 70px;'>正确! </span>","null","","","","","","","","","","","","","","","","","","","","","","","feedback_test"
"","","","","","psychophysics","252","538636","0.0-10.0-0.0-0.0-0.0-0.56","705","","j","","","","","","","","","","","","","key","j","16.66439603960446","768","428","j","true","img/S_ambi40.png","朋友","same",""
"","","","","","html-keyboard-response","253","539139","0.0-10.0-0.0-0.0-0.0-1.56","null","<span style='color:GreenYellow; font-size: 70px;'>正确! </span>","null","","","","","","","","","","","","","","","","","","","","","","","feedback_test"
"","","","","","psychophysics","254","541094","0.0-10.0-0.0-0.0-0.0-0.57","953","","j","","","","","","","","","","","","","key","j","16.668299145299073","768","428","f","false","img/C_ambi40.png","朋友","same",""
"","","","","","html-keyboard-response","255","541608","0.0-10.0-0.0-0.0-0.0-1.57","null","<span style='color:red; font-size: 70px;'>错误! </span>","null","","","","","","","","","","","","","","","","","","","","","","","feedback_test"
"","","","","","psychophysics","256","543448","0.0-10.0-0.0-0.0-0.0-0.58","838","","j","","","","","","","","","","","","","key","j","16.66262385321123","768","428","j","true","img/H_ambi40.png","自我","same",""
"","","","","","html-keyboard-response","257","543952","0.0-10.0-0.0-0.0-0.0-1.58","null","<span style='color:GreenYellow; font-size: 70px;'>正确! </span>","null","","","","","","","","","","","","","","","","","","","","","","","feedback_test"
"","","","","","psychophysics","258","545801","0.0-10.0-0.0-0.0-0.0-0.59","847","","j","","","","","","","","","","","","","key","j","16.666554545454513","768","428","j","true","img/S_ambi40.png","生人","same",""
"","","","","","html-keyboard-response","259","546317","0.0-10.0-0.0-0.0-0.0-1.59","null","<span style='color:GreenYellow; font-size: 70px;'>正确! </span>","null","","","","","","","","","","","","","","","","","","","","","","","feedback_test"
"","","","","","psychophysics","260","548343","0.0-10.0-0.0-0.0-0.0-0.60","1025","","f","","","","","","","","","","","","","key","f","16.665173553719285","768","428","f","true","img/H_ambi40.png","生人","same",""
"","","","","","html-keyboard-response","261","548857","0.0-10.0-0.0-0.0-0.0-1.60","null","<span style='color:GreenYellow; font-size: 70px;'>正确! </span>","null","","","","","","","","","","","","","","","","","","","","","","","feedback_test"
"","","","","","psychophysics","262","550642","0.0-10.0-0.0-0.0-0.0-0.61","784","","f","","","","","","","","","","","","","key","f","16.541095238095814","768","428","f","true","img/T_ambi40.png","をる","same",""
"","","","","","html-keyboard-response","263","551146","0.0-10.0-0.0-0.0-0.0-1.61","null","<span style='color:GreenYellow; font-size: 70px;'>正确! </span>","null","","","","","","","","","","","","","","","","","","","","","","","feedback_test"
"","","","","","psychophysics","264","552945","0.0-10.0-0.0-0.0-0.0-0.62","787","","j","","","","","","","","","","","","","key","j","16.66377570093435","768","428","j","true","img/C_ambi40.png","自我","same",""
"","","","","","html-keyboard-response","265","553455","0.0-10.0-0.0-0.0-0.0-1.62","null","<span style='color:GreenYellow; font-size: 70px;'>正确! </span>","null","","","","","","","","","","","","","","","","","","","","","","","feedback_test"
"","","","","","psychophysics","266","555761","0.0-10.0-0.0-0.0-0.0-0.63","1303","","j","","","","","","","","","","","","","key","j","16.664681159420464","768","428","j","true","img/C_ambi40.png","自我","same",""
"","","","","","html-keyboard-response","267","556277","0.0-10.0-0.0-0.0-0.0-1.63","null","<span style='color:GreenYellow; font-size: 70px;'>正确! </span>","null","","","","","","","","","","","","","","","","","","","","","","","feedback_test"
"","","","","","psychophysics","268","557937","0.0-10.0-0.0-0.0-0.0-0.64","659","","f","","","","","","","","","","","","","key","f","16.663806122448534","768","428","f","true","img/T_ambi40.png","をる","same",""
"","","","","","html-keyboard-response","269","558442","0.0-10.0-0.0-0.0-0.0-1.64","null","<span style='color:GreenYellow; font-size: 70px;'>正确! </span>","null","","","","","","","","","","","","","","","","","","","","","","","feedback_test"
"","","","","","psychophysics","270","560240","0.0-10.0-0.0-0.0-0.0-0.65","796","","f","","","","","","","","","","","","","key","f","16.666358490565678","768","428","f","true","img/T_ambi40.png","をる","same",""
"","","","","","html-keyboard-response","271","560748","0.0-10.0-0.0-0.0-0.0-1.65","null","<span style='color:GreenYellow; font-size: 70px;'>正确! </span>","null","","","","","","","","","","","","","","","","","","","","","","","feedback_test"
"","","","","","psychophysics","272","562520","0.0-10.0-0.0-0.0-0.0-0.66","771","","j","","","","","","","","","","","","","key","j","16.66248571428559","768","428","j","true","img/S_ambi40.png","生人","same",""
"","","","","","html-keyboard-response","273","563020","0.0-10.0-0.0-0.0-0.0-1.66","null","<span style='color:GreenYellow; font-size: 70px;'>正确! </span>","null","","","","","","","","","","","","","","","","","","","","","","","feedback_test"
"","","","","","psychophysics","274","565043","0.0-10.0-0.0-0.0-0.0-0.67","1022","","j","","","","","","","","","","","","","key","j","16.66820661157027","768","428","j","true","img/H_ambi40.png","朋友","same",""
"","","","","","html-keyboard-response","275","565548","0.0-10.0-0.0-0.0-0.0-1.67","null","<span style='color:GreenYellow; font-size: 70px;'>正确! </span>","null","","","","","","","","","","","","","","","","","","","","","","","feedback_test"
"","","","","","psychophysics","276","567763","0.0-10.0-0.0-0.0-0.0-0.68","1214","","j","","","","","","","","","","","","","key","j","16.665325757575566","768","428","j","true","img/H_ambi40.png","朋友","same",""
"","","","","","html-keyboard-response","277","568270","0.0-10.0-0.0-0.0-0.0-1.68","null","<span style='color:GreenYellow; font-size: 70px;'>正确! </span>","null","","","","","","","","","","","","","","","","","","","","","","","feedback_test"
"","","","","","psychophysics","278","569987","0.0-10.0-0.0-0.0-0.0-0.69","715","","f","","","","","","","","","","","","","key","f","16.66614705882396","768","428","f","true","img/C_ambi40.png","朋友","same",""
"","","","","","html-keyboard-response","279","570502","0.0-10.0-0.0-0.0-0.0-1.69","null","<span style='color:GreenYellow; font-size: 70px;'>正确! </span>","null","","","","","","","","","","","","","","","","","","","","","","","feedback_test"
"","","","","","psychophysics","280","572300","0.0-10.0-0.0-0.0-0.0-0.70","796","","j","","","","","","","","","","","","","key","j","16.668168224299666","768","428","j","true","img/C_ambi40.png","生人","same",""
"","","","","","html-keyboard-response","281","572807","0.0-10.0-0.0-0.0-0.0-1.70","null","<span style='color:GreenYellow; font-size: 70px;'>正确! </span>","null","","","","","","","","","","","","","","","","","","","","","","","feedback_test"
"","","","","","psychophysics","282","574565","0.0-10.0-0.0-0.0-0.0-0.71","757","","f","","","","","","","","","","","","","key","f","16.664999999999193","768","428","f","true","img/S_ambi40.png","自我","same",""
"","","","","","html-keyboard-response","283","575069","0.0-10.0-0.0-0.0-0.0-1.71","null","<span style='color:GreenYellow; font-size: 70px;'>正确! </span>","null","","","","","","","","","","","","","","","","","","","","","","","feedback_test"
"","","","","","psychophysics","284","577336","0.0-10.0-0.0-0.0-0.0-0.72","1263","","f","","","","","","","","","","","","","key","f","16.66799259259262","768","428","f","true","img/H_ambi40.png","生人","same",""
"","","","","","html-keyboard-response","285","577842","0.0-10.0-0.0-0.0-0.0-1.72","null","<span style='color:GreenYellow; font-size: 70px;'>正确! </span>","null","","","","","","","","","","","","","","","","","","","","","","","feedback_test"
"","","","","","psychophysics","286","580041","0.0-10.0-0.0-0.0-0.0-0.73","1197","","f","","","","","","","","","","","","","key","f","16.665061068701565","768","428","f","true","img/C_ambi40.png","朋友","same",""
"","","","","","html-keyboard-response","287","580555","0.0-10.0-0.0-0.0-0.0-1.73","null","<span style='color:GreenYellow; font-size: 70px;'>正确! </span>","null","","","","","","","","","","","","","","","","","","","","","","","feedback_test"
"","","","","","psychophysics","288","582344","0.0-10.0-0.0-0.0-0.0-0.74","787","","j","","","","","","","","","","","","","key","j","16.53750000000088","768","428","j","true","img/H_ambi40.png","自我","same",""
"","","","","","html-keyboard-response","289","582859","0.0-10.0-0.0-0.0-0.0-1.74","null","<span style='color:GreenYellow; font-size: 70px;'>正确! </span>","null","","","","","","","","","","","","","","","","","","","","","","","feedback_test"
"","","","","","psychophysics","290","584666","0.0-10.0-0.0-0.0-0.0-0.75","806","","j","","","","","","","","","","","","","key","j","16.66642056074794","768","428","j","true","img/S_ambi40.png","生人","same",""
"","","","","","html-keyboard-response","291","585172","0.0-10.0-0.0-0.0-0.0-1.75","null","<span style='color:GreenYellow; font-size: 70px;'>正确! </span>","null","","","","","","","","","","","","","","","","","","","","","","","feedback_test"
"","","","","","psychophysics","292","587035","0.0-10.0-0.0-0.0-0.0-0.76","862","","j","","","","","","","","","","","","","key","j","16.663536363635846","768","428","j","true","img/C_ambi40.png","自我","same",""
"","","","","","html-keyboard-response","293","587541","0.0-10.0-0.0-0.0-0.0-1.76","null","<span style='color:GreenYellow; font-size: 70px;'>正确! </span>","null","","","","","","","","","","","","","","","","","","","","","","","feedback_test"
"","","","","","psychophysics","294","589383","0.0-10.0-0.0-0.0-0.0-0.77","840","","j","","","","","","","","","","","","","key","j","16.663018348623588","768","428","j","true","img/S_ambi40.png","生人","same",""
"","","","","","html-keyboard-response","295","589893","0.0-10.0-0.0-0.0-0.0-1.77","null","<span style='color:GreenYellow; font-size: 70px;'>正确! </span>","null","","","","","","","","","","","","","","","","","","","","","","","feedback_test"
"","","","","","psychophysics","296","592398","0.0-10.0-0.0-0.0-0.0-0.78","null","","null","","","","","","","","","","","","","key","null","16.666697986577105","768","428","f","false","img/H_ambi40.png","生人","same",""
"","","","","","html-keyboard-response","297","592908","0.0-10.0-0.0-0.0-0.0-1.78","null","<span class='add_' style='color:yellow; font-size: 70px;'> 太慢! </span>","null","","","","","","","","","","","","","","","","","","","","","","","feedback_test"
"","","","","","psychophysics","298","594523","0.0-10.0-0.0-0.0-0.0-0.79","614","","f","","","","","","","","","","","","","key","f","16.66523958333346","768","428","f","true","img/S_ambi40.png","自我","same",""
"","","","","","html-keyboard-response","299","595028","0.0-10.0-0.0-0.0-0.0-1.79","null","<span style='color:GreenYellow; font-size: 70px;'>正确! </span>","null","","","","","","","","","","","","","","","","","","","","","","","feedback_test"
"","","","","","psychophysics","300","596729","0.0-10.0-0.0-0.0-0.0-0.80","700","","f","","","","","","","","","","","","","key","f","16.6653168316836","768","428","f","true","img/T_ambi40.png","をる","same",""
"","","","","","html-keyboard-response","301","597246","0.0-10.0-0.0-0.0-0.0-1.80","null","<span style='color:GreenYellow; font-size: 70px;'>正确! </span>","null","","","","","","","","","","","","","","","","","","","","","","","feedback_test"
"","","","","","psychophysics","302","598892","0.0-10.0-0.0-0.0-0.0-0.81","645","","f","","","","","","","","","","","","","key","f","16.666744897959337","768","428","f","true","img/S_ambi40.png","自我","same",""
"","","","","","html-keyboard-response","303","599405","0.0-10.0-0.0-0.0-0.0-1.81","null","<span style='color:GreenYellow; font-size: 70px;'>正确! </span>","null","","","","","","","","","","","","","","","","","","","","","","","feedback_test"
"","","","","","psychophysics","304","601029","0.0-10.0-0.0-0.0-0.0-0.82","623","","f","","","","","","","","","","","","","key","f","16.663239583333052","768","428","f","true","img/T_ambi40.png","をる","same",""
"","","","","","html-keyboard-response","305","601531","0.0-10.0-0.0-0.0-0.0-1.82","null","<span style='color:GreenYellow; font-size: 70px;'>正确! </span>","null","","","","","","","","","","","","","","","","","","","","","","","feedback_test"
"","","","","","psychophysics","306","603688","0.0-10.0-0.0-0.0-0.0-0.83","1155","","j","","","","","","","","","","","","","key","j","16.666124999999738","768","428","j","true","img/H_ambi40.png","朋友","same",""
"","","","","","html-keyboard-response","307","604195","0.0-10.0-0.0-0.0-0.0-1.83","null","<span style='color:GreenYellow; font-size: 70px;'>正确! </span>","null","","","","","","","","","","","","","","","","","","","","","","","feedback_test"
"","","","","","psychophysics","308","606489","0.0-10.0-0.0-0.0-0.0-0.84","1291","","j","","","","","","","","","","","","","key","j","16.661742647059487","768","428","j","true","img/H_ambi40.png","朋友","same",""
"","","","","","html-keyboard-response","309","606990","0.0-10.0-0.0-0.0-0.0-1.84","null","<span style='color:GreenYellow; font-size: 70px;'>正确! </span>","null","","","","","","","","","","","","","","","","","","","","","","","feedback_test"
"","","","","","psychophysics","310","609124","0.0-10.0-0.0-0.0-0.0-0.85","1133","","j","","","","","","","","","","","","","key","j","16.664645669290678","768","428","j","true","img/C_ambi40.png","生人","same",""
"","","","","","html-keyboard-response","311","609636","0.0-10.0-0.0-0.0-0.0-1.85","null","<span style='color:GreenYellow; font-size: 70px;'>正确! </span>","null","","","","","","","","","","","","","","","","","","","","","","","feedback_test"
"","","","","","psychophysics","312","611442","0.0-10.0-0.0-0.0-0.0-0.86","804","","j","","","","","","","","","","","","","key","j","16.668796296297202","768","428","j","true","img/C_ambi40.png","自我","same",""
"","","","","","html-keyboard-response","313","611948","0.0-10.0-0.0-0.0-0.0-1.86","null","<span style='color:GreenYellow; font-size: 70px;'>正确! </span>","null","","","","","","","","","","","","","","","","","","","","","","","feedback_test"
"","","","","","psychophysics","314","614062","0.0-10.0-0.0-0.0-0.0-0.87","1112","","j","","","","","","","","","","","","","key","j","16.665023809523387","768","428","j","true","img/S_ambi40.png","朋友","same",""
"","","","","","html-keyboard-response","315","614576","0.0-10.0-0.0-0.0-0.0-1.87","null","<span style='color:GreenYellow; font-size: 70px;'>正确! </span>","null","","","","","","","","","","","","","","","","","","","","","","","feedback_test"
"","","","","","psychophysics","316","616122","0.0-10.0-0.0-0.0-0.0-0.88","545","","f","","","","","","","","","","","","","key","f","16.66800000000006","768","428","f","true","img/T_ambi40.png","をる","same",""
"","","","","","html-keyboard-response","317","616625","0.0-10.0-0.0-0.0-0.0-1.88","null","<span style='color:GreenYellow; font-size: 70px;'>正确! </span>","null","","","","","","","","","","","","","","","","","","","","","","","feedback_test"
"","","","","","psychophysics","318","618596","0.0-10.0-0.0-0.0-0.0-0.89","969","","f","","","","","","","","","","","","","key","f","16.660726495726934","768","428","f","true","img/C_ambi40.png","朋友","same",""
"","","","","","html-keyboard-response","319","619104","0.0-10.0-0.0-0.0-0.0-1.89","null","<span style='color:GreenYellow; font-size: 70px;'>正确! </span>","null","","","","","","","","","","","","","","","","","","","","","","","feedback_test"
"","","","","","psychophysics","320","620919","0.0-10.0-0.0-0.0-0.0-0.90","813","","j","","","","","","","","","","","","","key","j","16.667158878504114","768","428","j","true","img/H_ambi40.png","朋友","same",""
"","","","","","html-keyboard-response","321","621429","0.0-10.0-0.0-0.0-0.0-1.90","null","<span style='color:GreenYellow; font-size: 70px;'>正确! </span>","null","","","","","","","","","","","","","","","","","","","","","","","feedback_test"
"","","","","","psychophysics","322","623129","0.0-10.0-0.0-0.0-0.0-0.91","697","","f","","","","","","","","","","","","","key","f","16.66614851485108","768","428","f","true","img/S_ambi40.png","自我","same",""
"","","","","","html-keyboard-response","323","623631","0.0-10.0-0.0-0.0-0.0-1.91","null","<span style='color:GreenYellow; font-size: 70px;'>正确! </span>","null","","","","","","","","","","","","","","","","","","","","","","","feedback_test"
"","","","","","psychophysics","324","625445","0.0-10.0-0.0-0.0-0.0-0.92","812","","j","","","","","","","","","","","","","key","j","16.665629629629958","768","428","j","true","img/H_ambi40.png","朋友","same",""
"","","","","","html-keyboard-response","325","625951","0.0-10.0-0.0-0.0-0.0-1.92","null","<span style='color:GreenYellow; font-size: 70px;'>正确! </span>","null","","","","","","","","","","","","","","","","","","","","","","","feedback_test"
"","","","","","psychophysics","326","627754","0.0-10.0-0.0-0.0-0.0-0.93","802","","j","","","","","","","","","","","","","key","j","16.65440186915841","768","428","j","true","img/S_ambi40.png","朋友","same",""
"","","","","","html-keyboard-response","327","628262","0.0-10.0-0.0-0.0-0.0-1.93","null","<span style='color:GreenYellow; font-size: 70px;'>正确! </span>","null","","","","","","","","","","","","","","","","","","","","","","","feedback_test"
"","","","","","psychophysics","328","629942","0.0-10.0-0.0-0.0-0.0-0.94","678","","f","","","","","","","","","","","","","key","f","16.666080000000076","768","428","f","true","img/S_ambi40.png","自我","same",""
"","","","","","html-keyboard-response","329","630444","0.0-10.0-0.0-0.0-0.0-1.94","null","<span style='color:GreenYellow; font-size: 70px;'>正确! </span>","null","","","","","","","","","","","","","","","","","","","","","","","feedback_test"
"","","","","","psychophysics","330","632001","0.0-10.0-0.0-0.0-0.0-0.95","555","","f","","","","","","","","","","","","","key","f","16.66240217391295","768","428","f","true","img/T_ambi40.png","をる","same",""
"","","","","","html-keyboard-response","331","632502","0.0-10.0-0.0-0.0-0.0-1.95","null","<span style='color:GreenYellow; font-size: 70px;'>正确! </span>","null","","","","","","","","","","","","","","","","","","","","","","","feedback_test"
"","","","","","psychophysics","332","634249","0.0-10.0-0.0-0.0-0.0-0.96","744","","j","","","","","","","","","","","","","key","j","16.666144230769042","768","428","j","true","img/C_ambi40.png","自我","same",""
"","","","","","html-keyboard-response","333","634752","0.0-10.0-0.0-0.0-0.0-1.96","null","<span style='color:GreenYellow; font-size: 70px;'>正确! </span>","null","","","","","","","","","","","","","","","","","","","","","","","feedback_test"
"","","","","","psychophysics","334","636803","0.0-10.0-0.0-0.0-0.0-0.97","1050","","f","","","","","","","","","","","","","key","f","16.66728688524578","768","428","f","true","img/H_ambi40.png","生人","same",""
"","","","","","html-keyboard-response","335","637305","0.0-10.0-0.0-0.0-0.0-1.97","null","<span style='color:GreenYellow; font-size: 70px;'>正确! </span>","null","","","","","","","","","","","","","","","","","","","","","","","feedback_test"
"","","","","","psychophysics","336","638889","0.0-10.0-0.0-0.0-0.0-0.98","583","","f","","","","","","","","","","","","","key","f","16.667563829786502","768","428","f","true","img/T_ambi40.png","をる","same",""
"","","","","","html-keyboard-response","337","639396","0.0-10.0-0.0-0.0-0.0-1.98","null","<span style='color:GreenYellow; font-size: 70px;'>正确! </span>","null","","","","","","","","","","","","","","","","","","","","","","","feedback_test"
"","","","","","psychophysics","338","641021","0.0-10.0-0.0-0.0-0.0-0.99","623","","f","","","","","","","","","","","","","key","f","16.664874999999785","768","428","f","true","img/T_ambi40.png","をる","same",""
"","","","","","html-keyboard-response","339","641536","0.0-10.0-0.0-0.0-0.0-1.99","null","<span style='color:GreenYellow; font-size: 70px;'>正确! </span>","null","","","","","","","","","","","","","","","","","","","","","","","feedback_test"
"","","","","","psychophysics","340","643027","0.0-10.0-0.0-0.0-0.0-0.100","489","","f","","","","","","","","","","","","","key","f","16.519818181818913","768","428","j","false","img/H_ambi40.png","自我","same",""
"","","","","","html-keyboard-response","341","643540","0.0-10.0-0.0-0.0-0.0-1.100","null","<span style='color:red; font-size: 70px;'>错误! </span>","null","","","","","","","","","","","","","","","","","","","","","","","feedback_test"
"","","","","","psychophysics","342","645274","0.0-10.0-0.0-0.0-0.0-0.101","733","","j","","","","","","","","","","","","","key","j","16.66461165048616","768","428","j","true","img/S_ambi40.png","生人","same",""
"","","","","","html-keyboard-response","343","645785","0.0-10.0-0.0-0.0-0.0-1.101","null","<span style='color:GreenYellow; font-size: 70px;'>正确! </span>","null","","","","","","","","","","","","","","","","","","","","","","","feedback_test"
"","","","","","psychophysics","344","647909","0.0-10.0-0.0-0.0-0.0-0.102","1121","","f","","","","","","","","","","","","","key","f","16.571095238096035","768","428","f","true","img/H_ambi40.png","生人","same",""
"","","","","","html-keyboard-response","345","648421","0.0-10.0-0.0-0.0-0.0-1.102","null","<span style='color:GreenYellow; font-size: 70px;'>正确! </span>","null","","","","","","","","","","","","","","","","","","","","","","","feedback_test"
"","","","","","psychophysics","346","650030","0.0-10.0-0.0-0.0-0.0-0.103","609","","j","","","","","","","","","","","","","key","j","16.66434736842118","768","428","j","true","img/C_ambi40.png","自我","same",""
"","","","","","html-keyboard-response","347","650540","0.0-10.0-0.0-0.0-0.0-1.103","null","<span style='color:GreenYellow; font-size: 70px;'>正确! </span>","null","","","","","","","","","","","","","","","","","","","","","","","feedback_test"
"","","","","","psychophysics","348","652253","0.0-10.0-0.0-0.0-0.0-0.104","711","","j","","","","","","","","","","","","","key","j","16.666990099010278","768","428","f","false","img/C_ambi40.png","朋友","same",""
"","","","","","html-keyboard-response","349","652760","0.0-10.0-0.0-0.0-0.0-1.104","null","<span style='color:red; font-size: 70px;'>错误! </span>","null","","","","","","","","","","","","","","","","","","","","","","","feedback_test"
"","","","","","psychophysics","350","654430","0.0-10.0-0.0-0.0-0.0-0.105","669","","j","","","","","","","","","","","","","key","j","16.66564646464622","768","428","j","true","img/S_ambi40.png","生人","same",""
"","","","","","html-keyboard-response","351","654940","0.0-10.0-0.0-0.0-0.0-1.105","null","<span style='color:GreenYellow; font-size: 70px;'>正确! </span>","null","","","","","","","","","","","","","","","","","","","","","","","feedback_test"
"","","","","","psychophysics","352","656683","0.0-10.0-0.0-0.0-0.0-0.106","742","","j","","","","","","","","","","","","","key","j","16.664398058252047","768","428","j","true","img/C_ambi40.png","生人","same",""
"","","","","","html-keyboard-response","353","657186","0.0-10.0-0.0-0.0-0.0-1.106","null","<span style='color:GreenYellow; font-size: 70px;'>正确! </span>","null","","","","","","","","","","","","","","","","","","","","","","","feedback_test"
"","","","","","psychophysics","354","659012","0.0-10.0-0.0-0.0-0.0-0.107","825","","f","","","","","","","","","","","","","key","f","16.66537037037024","768","428","f","true","img/C_ambi40.png","朋友","same",""
"","","","","","html-keyboard-response","355","659525","0.0-10.0-0.0-0.0-0.0-1.107","null","<span style='color:GreenYellow; font-size: 70px;'>正确! </span>","null","","","","","","","","","","","","","","","","","","","","","","","feedback_test"
"","","","","","html-keyboard-response","356","667436","0.0-10.0-0.0-0.0-1.0","7909","<style>.context{color:white; font-size: 35px; line-height:40px}</style>                          <div><p class='context'>您正确回答了84% 的试次。</p><p class='context'>您的平均反应时为840毫秒。</p><p class='context'>请按任意键进入休息</p></div>"," ","","","","","","","","","","","","","","","","","","","","","","",""
"","","","","","html-button-response","357","700252","0.0-10.0-0.0-0.0-2.0","32813","
                    <p>您当前还剩余5组实验</p>
                    <p>现在是休息时间，当您结束休息后，您可以点击 结束休息 按钮 继续</p>
                    <p>建议休息时间还剩余<span id=""iii"">60</span>秒</p>","0","","","","","","","","","","","","","","","","","","","","","","",""
"","","","","","psychophysics","358","701963","0.0-10.0-0.0-0.0-0.1-0.108","708","","j","","","","","","","","","","","","","key","j","16.66826732673263","768","428","j","true","img/C_ambi40.png","自我","same",""
"","","","","","html-keyboard-response","359","702473","0.0-10.0-0.0-0.0-0.1-1.108","null","<span style='color:GreenYellow; font-size: 70px;'>正确! </span>","null","","","","","","","","","","","","","","","","","","","","","","","feedback_test"
"","","","","","psychophysics","360","704672","0.0-10.0-0.0-0.0-0.1-0.109","1198","","j","","","","","","","","","","","","","key","j","16.660496183206284","768","428","j","true","img/H_ambi40.png","朋友","same",""
"","","","","","html-keyboard-response","361","705188","0.0-10.0-0.0-0.0-0.1-1.109","null","<span style='color:GreenYellow; font-size: 70px;'>正确! </span>","null","","","","","","","","","","","","","","","","","","","","","","","feedback_test"
"","","","","","psychophysics","362","707011","0.0-10.0-0.0-0.0-0.1-0.110","821","","f","","","","","","","","","","","","","key","f","16.66690740740806","768","428","f","true","img/S_ambi40.png","自我","same",""
"","","","","","html-keyboard-response","363","707522","0.0-10.0-0.0-0.0-0.1-1.110","null","<span style='color:GreenYellow; font-size: 70px;'>正确! </span>","null","","","","","","","","","","","","","","","","","","","","","","","feedback_test"
"","","","","","psychophysics","364","709221","0.0-10.0-0.0-0.0-0.1-0.111","697","","j","","","","","","","","","","","","","key","j","16.65680198019859","768","428","j","true","img/S_ambi40.png","生人","same",""
"","","","","","html-keyboard-response","365","709728","0.0-10.0-0.0-0.0-0.1-1.111","null","<span style='color:GreenYellow; font-size: 70px;'>正确! </span>","null","","","","","","","","","","","","","","","","","","","","","","","feedback_test"
"","","","","","psychophysics","366","711862","0.0-10.0-0.0-0.0-0.1-0.112","1134","","f","","","","","","","","","","","","","key","f","16.666818897637693","768","428","f","true","img/C_ambi40.png","朋友","same",""
"","","","","","html-keyboard-response","367","712369","0.0-10.0-0.0-0.0-0.1-1.112","null","<span style='color:GreenYellow; font-size: 70px;'>正确! </span>","null","","","","","","","","","","","","","","","","","","","","","","","feedback_test"
"","","","","","psychophysics","368","714180","0.0-10.0-0.0-0.0-0.1-0.113","809","","f","","","","","","","","","","","","","key","f","16.661803738317435","768","428","f","true","img/C_ambi40.png","朋友","same",""
"","","","","","html-keyboard-response","369","714689","0.0-10.0-0.0-0.0-0.1-1.113","null","<span style='color:GreenYellow; font-size: 70px;'>正确! </span>","null","","","","","","","","","","","","","","","","","","","","","","","feedback_test"
"","","","","","psychophysics","370","716329","0.0-10.0-0.0-0.0-0.1-0.114","639","","f","","","","","","","","","","","","","key","f","16.66414432989712","768","428","f","true","img/T_ambi40.png","をる","same",""
"","","","","","html-keyboard-response","371","716842","0.0-10.0-0.0-0.0-0.1-1.114","null","<span style='color:GreenYellow; font-size: 70px;'>正确! </span>","null","","","","","","","","","","","","","","","","","","","","","","","feedback_test"
"","","","","","psychophysics","372","718965","0.0-10.0-0.0-0.0-0.1-0.115","1121","","f","","","","","","","","","","","","","key","f","16.66617460317433","768","428","f","true","img/H_ambi40.png","生人","same",""
"","","","","","html-keyboard-response","373","719467","0.0-10.0-0.0-0.0-0.1-1.115","null","<span style='color:GreenYellow; font-size: 70px;'>正确! </span>","null","","","","","","","","","","","","","","","","","","","","","","","feedback_test"
"","","","","","psychophysics","374","721105","0.0-10.0-0.0-0.0-0.1-0.116","636","","f","","","","","","","","","","","","","key","f","16.66406185567","768","428","f","true","img/T_ambi40.png","をる","same",""
"","","","","","html-keyboard-response","375","721606","0.0-10.0-0.0-0.0-0.1-1.116","null","<span style='color:GreenYellow; font-size: 70px;'>正确! </span>","null","","","","","","","","","","","","","","","","","","","","","","","feedback_test"
"","","","","","psychophysics","376","723155","0.0-10.0-0.0-0.0-0.1-0.117","548","","f","","","","","","","","","","","","","key","f","16.667293478260273","768","428","f","true","img/T_ambi40.png","をる","same",""
"","","","","","html-keyboard-response","377","723665","0.0-10.0-0.0-0.0-0.1-1.117","null","<span style='color:GreenYellow; font-size: 70px;'>正确! </span>","null","","","","","","","","","","","","","","","","","","","","","","","feedback_test"
"","","","","","psychophysics","378","725487","0.0-10.0-0.0-0.0-0.1-0.118","820","","f","","","","","","","","","","","","","key","f","16.667944444443695","768","428","f","true","img/S_ambi40.png","自我","same",""
"","","","","","html-keyboard-response","379","726001","0.0-10.0-0.0-0.0-0.1-1.118","null","<span style='color:GreenYellow; font-size: 70px;'>正确! </span>","null","","","","","","","","","","","","","","","","","","","","","","","feedback_test"
"","","","","","psychophysics","380","727672","0.0-10.0-0.0-0.0-0.1-0.119","669","","j","","","","","","","","","","","","","key","j","16.662414141414413","768","428","j","true","img/S_ambi40.png","生人","same",""
"","","","","","html-keyboard-response","381","728173","0.0-10.0-0.0-0.0-0.1-1.119","null","<span style='color:GreenYellow; font-size: 70px;'>正确! </span>","null","","","","","","","","","","","","","","","","","","","","","","","feedback_test"
"","","","","","psychophysics","382","729916","0.0-10.0-0.0-0.0-0.1-0.120","741","","f","","","","","","","","","","","","","key","f","16.66825242718519","768","428","f","true","img/H_ambi40.png","生人","same",""
"","","","","","html-keyboard-response","383","730422","0.0-10.0-0.0-0.0-0.1-1.120","null","<span style='color:GreenYellow; font-size: 70px;'>正确! </span>","null","","","","","","","","","","","","","","","","","","","","","","","feedback_test"
"","","","","","psychophysics","384","732093","0.0-10.0-0.0-0.0-0.1-0.121","670","","j","","","","","","","","","","","","","key","j","16.665101010101903","768","428","j","true","img/C_ambi40.png","自我","same",""
"","","","","","html-keyboard-response","385","732603","0.0-10.0-0.0-0.0-0.1-1.121","null","<span style='color:GreenYellow; font-size: 70px;'>正确! </span>","null","","","","","","","","","","","","","","","","","","","","","","","feedback_test"
"","","","","","psychophysics","386","734357","0.0-10.0-0.0-0.0-0.1-0.122","751","","j","","","","","","","","","","","","","key","j","16.667798076923084","768","428","j","true","img/H_ambi40.png","自我","same",""
"","","","","","html-keyboard-response","387","734863","0.0-10.0-0.0-0.0-0.1-1.122","null","<span style='color:GreenYellow; font-size: 70px;'>正确! </span>","null","","","","","","","","","","","","","","","","","","","","","","","feedback_test"
"","","","","","psychophysics","388","736808","0.0-10.0-0.0-0.0-0.1-0.123","944","","j","","","","","","","","","","","","","key","j","16.668543103448084","768","428","j","true","img/S_ambi40.png","朋友","same",""
"","","","","","html-keyboard-response","389","737311","0.0-10.0-0.0-0.0-0.1-1.123","null","<span style='color:GreenYellow; font-size: 70px;'>正确! </span>","null","","","","","","","","","","","","","","","","","","","","","","","feedback_test"
"","","","","","psychophysics","390","739319","0.0-10.0-0.0-0.0-0.1-0.124","1004","","j","","","","","","","","","","","","","key","j","16.66919166666727","768","428","j","true","img/C_ambi40.png","生人","same",""
"","","","","","html-keyboard-response","391","739825","0.0-10.0-0.0-0.0-0.1-1.124","null","<span style='color:GreenYellow; font-size: 70px;'>正确! </span>","null","","","","","","","","","","","","","","","","","","","","","","","feedback_test"
"","","","","","psychophysics","392","741574","0.0-10.0-0.0-0.0-0.1-0.125","748","","j","","","","","","","","","","","","","key","j","16.668173076922987","768","428","j","true","img/H_ambi40.png","朋友","same",""
"","","","","","html-keyboard-response","393","742086","0.0-10.0-0.0-0.0-0.1-1.125","null","<span style='color:GreenYellow; font-size: 70px;'>正确! </span>","null","","","","","","","","","","","","","","","","","","","","","","","feedback_test"
"","","","","","psychophysics","394","743825","0.0-10.0-0.0-0.0-0.1-0.126","737","","j","","","","","","","","","","","","","key","j","16.66366019417437","768","428","j","true","img/C_ambi40.png","生人","same",""
"","","","","","html-keyboard-response","395","744331","0.0-10.0-0.0-0.0-0.1-1.126","null","<span style='color:GreenYellow; font-size: 70px;'>正确! </span>","null","","","","","","","","","","","","","","","","","","","","","","","feedback_test"
"","","","","","psychophysics","396","746636","0.0-10.0-0.0-0.0-0.1-0.127","1303","","j","","","","","","","","","","","","","key","j","16.665642335766204","768","428","f","false","img/C_ambi40.png","朋友","same",""
"","","","","","html-keyboard-response","397","747140","0.0-10.0-0.0-0.0-0.1-1.127","null","<span style='color:red; font-size: 70px;'>错误! </span>","null","","","","","","","","","","","","","","","","","","","","","","","feedback_test"
"","","","","","psychophysics","398","748993","0.0-10.0-0.0-0.0-0.1-0.128","852","","f","","","","","","","","","","","","","key","f","16.658563636362935","768","428","f","true","img/S_ambi40.png","自我","same",""
"","","","","","html-keyboard-response","399","749497","0.0-10.0-0.0-0.0-0.1-1.128","null","<span style='color:GreenYellow; font-size: 70px;'>正确! </span>","null","","","","","","","","","","","","","","","","","","","","","","","feedback_test"
"","","","","","psychophysics","400","751145","0.0-10.0-0.0-0.0-0.1-0.129","647","","f","","","","","","","","","","","","","key","f","16.525144329897042","768","428","f","true","img/T_ambi40.png","をる","same",""
"","","","","","html-keyboard-response","401","751650","0.0-10.0-0.0-0.0-0.1-1.129","null","<span style='color:GreenYellow; font-size: 70px;'>正确! </span>","null","","","","","","","","","","","","","","","","","","","","","","","feedback_test"
"","","","","","psychophysics","402","753372","0.0-10.0-0.0-0.0-0.1-0.130","720","","j","","","","","","","","","","","","","key","j","16.658284313725673","768","428","j","true","img/S_ambi40.png","生人","same",""
"","","","","","html-keyboard-response","403","753879","0.0-10.0-0.0-0.0-0.1-1.130","null","<span style='color:GreenYellow; font-size: 70px;'>正确! </span>","null","","","","","","","","","","","","","","","","","","","","","","","feedback_test"
"","","","","","psychophysics","404","755523","0.0-10.0-0.0-0.0-0.1-0.131","643","","f","","","","","","","","","","","","","key","f","16.66594897959101","768","428","f","true","img/T_ambi40.png","をる","same",""
"","","","","","html-keyboard-response","405","756034","0.0-10.0-0.0-0.0-0.1-1.131","null","<span style='color:GreenYellow; font-size: 70px;'>正确! </span>","null","","","","","","","","","","","","","","","","","","","","","","","feedback_test"
"","","","","","psychophysics","406","757670","0.0-10.0-0.0-0.0-0.1-0.132","634","","f","","","","","","","","","","","","","key","f","16.657711340205687","768","428","f","true","img/T_ambi40.png","をる","same",""
"","","","","","html-keyboard-response","407","758179","0.0-10.0-0.0-0.0-0.1-1.132","null","<span style='color:GreenYellow; font-size: 70px;'>正确! </span>","null","","","","","","","","","","","","","","","","","","","","","","","feedback_test"
"","","","","","psychophysics","408","759771","0.0-10.0-0.0-0.0-0.1-0.133","591","","j","","","","","","","","","","","","","key","j","16.666505263157582","768","428","j","true","img/C_ambi40.png","自我","same",""
"","","","","","html-keyboard-response","409","760274","0.0-10.0-0.0-0.0-0.1-1.133","null","<span style='color:GreenYellow; font-size: 70px;'>正确! </span>","null","","","","","","","","","","","","","","","","","","","","","","","feedback_test"
"","","","","","psychophysics","410","762241","0.0-10.0-0.0-0.0-0.1-0.134","964","","f","","","","","","","","","","","","","key","f","16.66660683760698","768","428","f","true","img/C_ambi40.png","朋友","same",""
"","","","","","html-keyboard-response","411","762752","0.0-10.0-0.0-0.0-0.1-1.134","null","<span style='color:GreenYellow; font-size: 70px;'>正确! </span>","null","","","","","","","","","","","","","","","","","","","","","","","feedback_test"
"","","","","","psychophysics","412","764432","0.0-10.0-0.0-0.0-0.1-0.135","677","","j","","","","","","","","","","","","","key","j","16.663860000000568","768","428","j","true","img/C_ambi40.png","自我","same",""
"","","","","","html-keyboard-response","413","764946","0.0-10.0-0.0-0.0-0.1-1.135","null","<span style='color:GreenYellow; font-size: 70px;'>正确! </span>","null","","","","","","","","","","","","","","","","","","","","","","","feedback_test"
"","","","","","psychophysics","414","766795","0.0-10.0-0.0-0.0-0.1-0.136","847","","j","","","","","","","","","","","","","key","j","16.66928181818115","768","428","j","true","img/S_ambi40.png","朋友","same",""
"","","","","","html-keyboard-response","415","767305","0.0-10.0-0.0-0.0-0.1-1.136","null","<span style='color:GreenYellow; font-size: 70px;'>正确! </span>","null","","","","","","","","","","","","","","","","","","","","","","","feedback_test"
"","","","","","psychophysics","416","769062","0.0-10.0-0.0-0.0-0.1-0.137","756","","j","","","","","","","","","","","","","key","j","16.66264423076959","768","428","j","true","img/H_ambi40.png","朋友","same",""
"","","","","","html-keyboard-response","417","769572","0.0-10.0-0.0-0.0-0.1-1.137","null","<span style='color:GreenYellow; font-size: 70px;'>正确! </span>","null","","","","","","","","","","","","","","","","","","","","","","","feedback_test"
"","","","","","psychophysics","418","771314","0.0-10.0-0.0-0.0-0.1-0.138","741","","j","","","","","","","","","","","","","key","j","16.668174757281978","768","428","j","true","img/S_ambi40.png","生人","same",""
"","","","","","html-keyboard-response","419","771818","0.0-10.0-0.0-0.0-0.1-1.138","null","<span style='color:GreenYellow; font-size: 70px;'>正确! </span>","null","","","","","","","","","","","","","","","","","","","","","","","feedback_test"
"","","","","","psychophysics","420","773727","0.0-10.0-0.0-0.0-0.1-0.139","908","","j","","","","","","","","","","","","","key","j","16.665893805310112","768","428","j","true","img/H_ambi40.png","自我","same",""
"","","","","","html-keyboard-response","421","774238","0.0-10.0-0.0-0.0-0.1-1.139","null","<span style='color:GreenYellow; font-size: 70px;'>正确! </span>","null","","","","","","","","","","","","","","","","","","","","","","","feedback_test"
"","","","","","psychophysics","422","776218","0.0-10.0-0.0-0.0-0.1-0.140","979","","f","","","","","","","","","","","","","key","f","16.660576271186226","768","428","f","true","img/S_ambi40.png","自我","same",""
"","","","","","html-keyboard-response","423","776724","0.0-10.0-0.0-0.0-0.1-1.140","null","<span style='color:GreenYellow; font-size: 70px;'>正确! </span>","null","","","","","","","","","","","","","","","","","","","","","","","feedback_test"
"","","","","","psychophysics","424","778651","0.0-10.0-0.0-0.0-0.1-0.141","925","","j","","","","","","","","","","","","","key","j","16.666313043478674","768","428","f","false","img/H_ambi40.png","生人","same",""
"","","","","","html-keyboard-response","425","779159","0.0-10.0-0.0-0.0-0.1-1.141","null","<span style='color:red; font-size: 70px;'>错误! </span>","null","","","","","","","","","","","","","","","","","","","","","","","feedback_test"
"","","","","","psychophysics","426","780914","0.0-10.0-0.0-0.0-0.1-0.142","752","","j","","","","","","","","","","","","","key","j","16.667182692307577","768","428","j","true","img/H_ambi40.png","朋友","same",""
"","","","","","html-keyboard-response","427","781418","0.0-10.0-0.0-0.0-0.1-1.142","null","<span style='color:GreenYellow; font-size: 70px;'>正确! </span>","null","","","","","","","","","","","","","","","","","","","","","","","feedback_test"
"","","","","","psychophysics","428","783396","0.0-10.0-0.0-0.0-0.1-0.143","976","","f","","","","","","","","","","","","","key","f","16.664264957265306","768","428","f","true","img/H_ambi40.png","生人","same",""
"","","","","","html-keyboard-response","429","783904","0.0-10.0-0.0-0.0-0.1-1.143","null","<span style='color:GreenYellow; font-size: 70px;'>正确! </span>","null","","","","","","","","","","","","","","","","","","","","","","","feedback_test"
"","","","","","psychophysics","430","785623","0.0-10.0-0.0-0.0-0.1-0.144","717","","f","","","","","","","","","","","","","key","f","16.669490196079007","768","428","f","true","img/H_ambi40.png","生人","same",""
"","","","","","html-keyboard-response","431","786124","0.0-10.0-0.0-0.0-0.1-1.144","null","<span style='color:GreenYellow; font-size: 70px;'>正确! </span>","null","","","","","","","","","","","","","","","","","","","","","","","feedback_test"
"","","","","","psychophysics","432","787750","0.0-10.0-0.0-0.0-0.1-0.145","623","","j","","","","","","","","","","","","","key","j","16.666546391751666","768","428","j","true","img/S_ambi40.png","生人","same",""
"","","","","","html-keyboard-response","433","788260","0.0-10.0-0.0-0.0-0.1-1.145","null","<span style='color:GreenYellow; font-size: 70px;'>正确! </span>","null","","","","","","","","","","","","","","","","","","","","","","","feedback_test"
"","","","","","psychophysics","434","789817","0.0-10.0-0.0-0.0-0.1-0.146","555","","f","","","","","","","","","","","","","key","f","16.667397849463296","768","428","f","true","img/T_ambi40.png","をる","same",""
"","","","","","html-keyboard-response","435","790333","0.0-10.0-0.0-0.0-0.1-1.146","null","<span style='color:GreenYellow; font-size: 70px;'>正确! </span>","null","","","","","","","","","","","","","","","","","","","","","","","feedback_test"
"","","","","","psychophysics","436","791966","0.0-10.0-0.0-0.0-0.1-0.147","631","","f","","","","","","","","","","","","","key","f","16.66073195876304","768","428","f","true","img/S_ambi40.png","自我","same",""
"","","","","","html-keyboard-response","437","792472","0.0-10.0-0.0-0.0-0.1-1.147","null","<span style='color:GreenYellow; font-size: 70px;'>正确! </span>","null","","","","","","","","","","","","","","","","","","","","","","","feedback_test"
"","","","","","psychophysics","438","794157","0.0-10.0-0.0-0.0-0.1-0.148","683","","j","","","","","","","","","","","","","key","j","16.65704000000027","768","428","j","true","img/C_ambi40.png","自我","same",""
"","","","","","html-keyboard-response","439","794659","0.0-10.0-0.0-0.0-0.1-1.148","null","<span style='color:GreenYellow; font-size: 70px;'>正确! </span>","null","","","","","","","","","","","","","","","","","","","","","","","feedback_test"
"","","","","","psychophysics","440","796538","0.0-10.0-0.0-0.0-0.1-0.149","876","","f","","","","","","","","","","","","","key","f","16.6683571428574","768","428","f","true","img/H_ambi40.png","生人","same",""
"","","","","","html-keyboard-response","441","797046","0.0-10.0-0.0-0.0-0.1-1.149","null","<span style='color:GreenYellow; font-size: 70px;'>正确! </span>","null","","","","","","","","","","","","","","","","","","","","","","","feedback_test"
"","","","","","psychophysics","442","798790","0.0-10.0-0.0-0.0-0.1-0.150","739","","f","","","","","","","","","","","","","key","f","16.666864077670237","768","428","f","true","img/S_ambi40.png","自我","same",""
"","","","","","html-keyboard-response","443","799306","0.0-10.0-0.0-0.0-0.1-1.150","null","<span style='color:GreenYellow; font-size: 70px;'>正确! </span>","null","","","","","","","","","","","","","","","","","","","","","","","feedback_test"
