"success","timeout","failed_images","failed_audio","failed_video","trial_type","trial_index","time_elapsed","internal_node_id","rt","stimulus","response","value","item_width_mm","item_height_mm","item_width_px","px2mm","view_dist_mm","item_width_deg","px2deg","scale_factor","win_width_deg","win_height_deg","view_history","response_type","key_press","avg_frame_time","center_x","center_y","correct_response","correct","Image","word","condition","screen_id"
"true","false","[]","[]","[]","preload","0","3","0.0-0.0","","","","","","","","","","","","","","","","","","","","","","","","","",""
"","","","","","html-keyboard-response","1","1346","0.0-1.0","1342","
     <p>您好，欢迎参加本次实验。</p>
     <p>为充分保障您的权利，请确保您已经知晓并同意《参与实验同意书》以及《数据公开知情同意书》。</p>
     <p>如果您未见过上述内容，请咨询实验员。</p>
     <p>如果您选择继续实验，则表示您已经清楚两份知情同意书的内容并同意。</p>
     <p> <div style = ""color: green""><按任意键至下页></div> </p>
     "," ","","","","","","","","","","","","","","","","","","","","","","",""
"","","","","","html-keyboard-response","2","1708","0.0-2.0","361","
     <p>本实验首先需要您填写一些基本个人信息。</p>
     <p> <div style = ""color: green""><按任意键至下页></div></p>
     "," ","","","","","","","","","","","","","","","","","","","","","","",""
"","","","","","call-function","3","1709","0.0-3.0-0.0","","","","","","","","","","","","","","","","","","","","","","","","","",""
"","","","","","survey-html-form","4","5022","0.0-3.0-1.0","3313","","{""Q0"":""004""}","","","","","","","","","","","","","","","","","","","","","","",""
"","","","","","html-button-response","5","5852","0.0-3.0-2.0","828","<p style = 'color : white'>您的性别</p>","1","","","","","","","","","","","","","","","","","","","","","","",""
"","","","","","survey-html-form","6","7993","0.0-3.0-3.0","2140","","{""Q0"":""2001""}","","","","","","","","","","","","","","","","","","","","","","",""
"","","","","","survey-html-form","7","10995","0.0-3.0-4.0","3000","","{""Q0"":""5""}","","","","","","","","","","","","","","","","","","","","","","",""
"","","","","","virtual-chinrest","8","142793","0.0-4.0","131797","","","","85.6","53.98","395.87940614650154","4.6260065437344","618.46","7.917588122930031","50","0.8992637517200288","30.64","15.26","","","","","","","","","","","",""
"true","","","","","fullscreen","9","145910","0.0-5.0","","","","","","","","","","","","","","","","","","","","","","","","","",""
"","","","","","instructions","10","174369","0.0-6.0","28458","","","","","","","","","","","","","","[{""page_index"":0,""viewing_time"":2852},{""page_index"":1,""viewing_time"":22184},{""page_index"":2,""viewing_time"":2158},{""page_index"":3,""viewing_time"":1264}]","","","","","","","","","","",""
"","","","","","psychophysics","11","176874","0.0-7.0-0.0","null","","null","","","","","","","","","","","","","key","null","7.331429411764668","768.8","428.8","f","false","img/C_ambi40.png","生人","prac",""
"","","","","","html-keyboard-response","12","177375","0.0-7.0-1.0","null","<span class='add_' style='color:yellow; font-size: 70px;'> 太慢! </span>","null","","","","","","","","","","","","","","","","","","","","","","","feedback_test"
"","","","","","psychophysics","13","178495","0.0-7.0-0.1","119","","f","","","","","","","","","","","","","key","f","7.030987341772202","768.8","428.8","f","true","img/T_ambi40.png","をる","prac",""
"","","","","","html-keyboard-response","14","178996","0.0-7.0-1.1","null","<span style='color:yellow; font-size: 70px;'>过快! </span>","null","","","","","","","","","","","","","","","","","","","","","","","feedback_test"
"","","","","","psychophysics","15","180204","0.0-7.0-0.2","207","","j","","","","","","","","","","","","","key","j","6.943283236994189","768.8","428.8","f","false","img/H_ambi40.png","朋友","prac",""
"","","","","","html-keyboard-response","16","180705","0.0-7.0-1.2","null","<span style='color:red; font-size: 70px;'>错误! </span>","null","","","","","","","","","","","","","","","","","","","","","","","feedback_test"
"","","","","","psychophysics","17","181905","0.0-7.0-0.3","199","","f","","","","","","","","","","","","","key","f","6.943343023255672","768.8","428.8","j","false","img/H_ambi40.png","生人","prac",""
"","","","","","html-keyboard-response","18","182406","0.0-7.0-1.3","null","<span style='color:yellow; font-size: 70px;'>过快! </span>","null","","","","","","","","","","","","","","","","","","","","","","","feedback_test"
"","","","","","psychophysics","19","183679","0.0-7.0-0.4","272","","f","","","","","","","","","","","","","key","f","6.944524590163924","768.8","428.8","f","true","img/T_ambi40.png","をる","prac",""
"","","","","","html-keyboard-response","20","184181","0.0-7.0-1.4","null","<span style='color:GreenYellow; font-size: 70px;'>正确! </span>","null","","","","","","","","","","","","","","","","","","","","","","","feedback_test"
"","","","","","psychophysics","21","185375","0.0-7.0-0.5","192","","f","","","","","","","","","","","","","key","f","6.944380116959072","768.8","428.8","j","false","img/C_ambi40.png","朋友","prac",""
"","","","","","html-keyboard-response","22","185877","0.0-7.0-1.5","null","<span style='color:yellow; font-size: 70px;'>过快! </span>","null","","","","","","","","","","","","","","","","","","","","","","","feedback_test"
"","","","","","psychophysics","23","186954","0.0-7.0-0.6","76","","f","","","","","","","","","","","","","key","f","6.943272727272698","768.8","428.8","j","false","img/C_ambi40.png","自我","prac",""
"","","","","","html-keyboard-response","24","187456","0.0-7.0-1.6","null","<span style='color:yellow; font-size: 70px;'>过快! </span>","null","","","","","","","","","","","","","","","","","","","","","","","feedback_test"
"","","","","","psychophysics","25","188730","0.0-7.0-0.7","273","","j","","","","","","","","","","","","","key","j","6.943697802197786","768.8","428.8","j","true","img/S_ambi40.png","朋友","prac",""
"","","","","","html-keyboard-response","26","189239","0.0-7.0-1.7","null","<span style='color:GreenYellow; font-size: 70px;'>正确! </span>","null","","","","","","","","","","","","","","","","","","","","","","","feedback_test"
"","","","","","psychophysics","27","190528","0.0-7.0-0.8","287","","f","","","","","","","","","","","","","key","f","6.928129729729719","768.8","428.8","f","true","img/H_ambi40.png","朋友","prac",""
"","","","","","html-keyboard-response","28","191028","0.0-7.0-1.8","null","<span style='color:GreenYellow; font-size: 70px;'>正确! </span>","null","","","","","","","","","","","","","","","","","","","","","","","feedback_test"
"","","","","","psychophysics","29","192265","0.0-7.0-0.9","236","","j","","","","","","","","","","","","","key","j","6.943463276836253","768.8","428.8","j","true","img/H_ambi40.png","自我","prac",""
"","","","","","html-keyboard-response","30","192766","0.0-7.0-1.9","null","<span style='color:GreenYellow; font-size: 70px;'>正确! </span>","null","","","","","","","","","","","","","","","","","","","","","","","feedback_test"
"","","","","","psychophysics","31","193957","0.0-7.0-0.10","189","","f","","","","","","","","","","","","","key","f","6.943479532163695","768.8","428.8","f","true","img/S_ambi40.png","自我","prac",""
"","","","","","html-keyboard-response","32","194458","0.0-7.0-1.10","null","<span style='color:yellow; font-size: 70px;'>过快! </span>","null","","","","","","","","","","","","","","","","","","","","","","","feedback_test"
"","","","","","psychophysics","33","195569","0.0-7.0-0.11","108","","j","","","","","","","","","","","","","key","j","6.943371069182294","768.8","428.8","f","false","img/T_ambi40.png","をる","prac",""
"","","","","","html-keyboard-response","34","196070","0.0-7.0-1.11","null","<span style='color:yellow; font-size: 70px;'>过快! </span>","null","","","","","","","","","","","","","","","","","","","","","","","feedback_test"
"","","","","","psychophysics","35","197267","0.0-7.0-0.12","196","","f","","","","","","","","","","","","","key","f","6.943220930232539","768.8","428.8","f","true","img/T_ambi40.png","をる","prac",""
"","","","","","html-keyboard-response","36","197768","0.0-7.0-1.12","null","<span style='color:yellow; font-size: 70px;'>过快! </span>","null","","","","","","","","","","","","","","","","","","","","","","","feedback_test"
"","","","","","psychophysics","37","200273","0.0-7.0-0.13","null","","null","","","","","","","","","","","","","key","null","6.943565459610083","768.8","428.8","f","false","img/S_ambi40.png","自我","prac",""
"","","","","","html-keyboard-response","38","200775","0.0-7.0-1.13","null","<span class='add_' style='color:yellow; font-size: 70px;'> 太慢! </span>","null","","","","","","","","","","","","","","","","","","","","","","","feedback_test"
"","","","","","psychophysics","39","202076","0.0-7.0-0.14","300","","f","","","","","","","","","","","","","key","f","6.943145161290416","768.8","428.8","j","false","img/S_ambi40.png","生人","prac",""
"","","","","","html-keyboard-response","40","202577","0.0-7.0-1.14","null","<span style='color:red; font-size: 70px;'>错误! </span>","null","","","","","","","","","","","","","","","","","","","","","","","feedback_test"
"","","","","","psychophysics","41","205079","0.0-7.0-0.15","null","","null","","","","","","","","","","","","","key","null","6.943524999999984","768.8","428.8","f","false","img/C_ambi40.png","生人","prac",""
"","","","","","html-keyboard-response","42","205580","0.0-7.0-1.15","null","<span class='add_' style='color:yellow; font-size: 70px;'> 太慢! </span>","null","","","","","","","","","","","","","","","","","","","","","","","feedback_test"
"","","","","","psychophysics","43","206967","0.0-7.0-0.16","385","","j","","","","","","","","","","","","","key","j","6.944150753768837","768.8","428.8","f","false","img/T_ambi40.png","をる","prac",""
"","","","","","html-keyboard-response","44","207469","0.0-7.0-1.16","null","<span style='color:red; font-size: 70px;'>错误! </span>","null","","","","","","","","","","","","","","","","","","","","","","","feedback_test"
"","","","","","psychophysics","45","208651","0.0-7.0-0.17","181","","f","","","","","","","","","","","","","key","f","6.943508875739696","768.8","428.8","f","true","img/H_ambi40.png","朋友","prac",""
"","","","","","html-keyboard-response","46","209153","0.0-7.0-1.17","null","<span style='color:yellow; font-size: 70px;'>过快! </span>","null","","","","","","","","","","","","","","","","","","","","","","","feedback_test"
"","","","","","psychophysics","47","210349","0.0-7.0-0.18","196","","j","","","","","","","","","","","","","key","j","6.943476744186165","768.8","428.8","j","true","img/C_ambi40.png","朋友","prac",""
"","","","","","html-keyboard-response","48","210851","0.0-7.0-1.18","null","<span style='color:yellow; font-size: 70px;'>过快! </span>","null","","","","","","","","","","","","","","","","","","","","","","","feedback_test"
"","","","","","psychophysics","49","213354","0.0-7.0-0.19","null","","null","","","","","","","","","","","","","key","null","6.963265363128457","768.8","428.8","f","false","img/T_ambi40.png","をる","prac",""
"","","","","","html-keyboard-response","50","213856","0.0-7.0-1.19","null","<span class='add_' style='color:yellow; font-size: 70px;'> 太慢! </span>","null","","","","","","","","","","","","","","","","","","","","","","","feedback_test"
"","","","","","psychophysics","51","214975","0.0-7.0-0.20","117","","j","","","","","","","","","","","","","key","j","6.94325000000008","768.8","428.8","j","true","img/S_ambi40.png","朋友","prac",""
"","","","","","html-keyboard-response","52","215477","0.0-7.0-1.20","null","<span style='color:yellow; font-size: 70px;'>过快! </span>","null","","","","","","","","","","","","","","","","","","","","","","","feedback_test"
"","","","","","psychophysics","53","216713","0.0-7.0-0.21","235","","j","","","","","","","","","","","","","key","j","6.94372316384175","768.8","428.8","f","false","img/C_ambi40.png","生人","prac",""
"","","","","","html-keyboard-response","54","217214","0.0-7.0-1.21","null","<span style='color:red; font-size: 70px;'>错误! </span>","null","","","","","","","","","","","","","","","","","","","","","","","feedback_test"
"","","","","","psychophysics","55","218396","0.0-7.0-0.22","181","","f","","","","","","","","","","","","","key","f","6.943341176470516","768.8","428.8","j","false","img/S_ambi40.png","生人","prac",""
"","","","","","html-keyboard-response","56","218897","0.0-7.0-1.22","null","<span style='color:yellow; font-size: 70px;'>过快! </span>","null","","","","","","","","","","","","","","","","","","","","","","","feedback_test"
"","","","","","psychophysics","57","220142","0.0-7.0-0.23","243","","j","","","","","","","","","","","","","key","j","6.9435337078651305","768.8","428.8","f","false","img/S_ambi40.png","自我","prac",""
"","","","","","html-keyboard-response","58","220643","0.0-7.0-1.23","null","<span style='color:red; font-size: 70px;'>错误! </span>","null","","","","","","","","","","","","","","","","","","","","","","","feedback_test"
"","","","","","psychophysics","59","221727","0.0-7.0-0.24","82","","j","","","","","","","","","","","","","key","j","6.943490322580704","768.8","428.8","j","true","img/H_ambi40.png","自我","prac",""
"","","","","","html-keyboard-response","60","222229","0.0-7.0-1.24","null","<span style='color:yellow; font-size: 70px;'>过快! </span>","null","","","","","","","","","","","","","","","","","","","","","","","feedback_test"
"","","","","","psychophysics","61","223274","0.0-7.0-0.25","44","","f","","","","","","","","","","","","","key","f","6.943127516778608","768.8","428.8","j","false","img/C_ambi40.png","自我","prac",""
"","","","","","html-keyboard-response","62","223775","0.0-7.0-1.25","null","<span style='color:yellow; font-size: 70px;'>过快! </span>","null","","","","","","","","","","","","","","","","","","","","","","","feedback_test"
"","","","","","psychophysics","63","224879","0.0-7.0-0.26","103","","j","","","","","","","","","","","","","key","j","6.944316455696141","768.8","428.8","f","false","img/C_ambi40.png","生人","prac",""
"","","","","","html-keyboard-response","64","225379","0.0-7.0-1.26","null","<span style='color:yellow; font-size: 70px;'>过快! </span>","null","","","","","","","","","","","","","","","","","","","","","","","feedback_test"
"","","","","","psychophysics","65","226612","0.0-7.0-0.27","232","","f","","","","","","","","","","","","","key","f","6.9826988636362906","768.8","428.8","f","true","img/T_ambi40.png","をる","prac",""
"","","","","","html-keyboard-response","66","227114","0.0-7.0-1.27","null","<span style='color:GreenYellow; font-size: 70px;'>正确! </span>","null","","","","","","","","","","","","","","","","","","","","","","","feedback_test"
"","","","","","psychophysics","67","228308","0.0-7.0-0.28","193","","f","","","","","","","","","","","","","key","f","6.944070175438521","768.8","428.8","f","true","img/T_ambi40.png","をる","prac",""
"","","","","","html-keyboard-response","68","228809","0.0-7.0-1.28","null","<span style='color:yellow; font-size: 70px;'>过快! </span>","null","","","","","","","","","","","","","","","","","","","","","","","feedback_test"
"","","","","","psychophysics","69","230022","0.0-7.0-0.29","211","","f","","","","","","","","","","","","","key","f","6.943218390804571","768.8","428.8","f","true","img/S_ambi40.png","自我","prac",""
"","","","","","html-keyboard-response","70","230523","0.0-7.0-1.29","null","<span style='color:GreenYellow; font-size: 70px;'>正确! </span>","null","","","","","","","","","","","","","","","","","","","","","","","feedback_test"
"","","","","","psychophysics","71","231737","0.0-7.0-0.30","213","","f","","","","","","","","","","","","","key","f","6.944436781609333","768.8","428.8","j","false","img/H_ambi40.png","生人","prac",""
"","","","","","html-keyboard-response","72","232238","0.0-7.0-1.30","null","<span style='color:red; font-size: 70px;'>错误! </span>","null","","","","","","","","","","","","","","","","","","","","","","","feedback_test"
"","","","","","psychophysics","73","233409","0.0-7.0-0.31","170","","j","","","","","","","","","","","","","key","j","6.943755952380992","768.8","428.8","f","false","img/H_ambi40.png","朋友","prac",""
"","","","","","html-keyboard-response","74","233911","0.0-7.0-1.31","null","<span style='color:yellow; font-size: 70px;'>过快! </span>","null","","","","","","","","","","","","","","","","","","","","","","","feedback_test"
"","","","","","psychophysics","75","235111","0.0-8.0-0.0-0.0","199","","f","","","","","","","","","","","","","key","f","6.943744186046472","768.8","428.8","f","true","img/T_ambi40.png","をる","prac",""
"","","","","","html-keyboard-response","76","235612","0.0-8.0-0.0-1.0","null","<span style='color:yellow; font-size: 70px;'>过快! </span>","null","","","","","","","","","","","","","","","","","","","","","","","feedback_test"
"","","","","","psychophysics","77","236819","0.0-8.0-0.0-0.1","206","","j","","","","","","","","","","","","","key","j","6.943751445086707","768.8","428.8","f","false","img/T_ambi40.png","をる","prac",""
"","","","","","html-keyboard-response","78","237320","0.0-8.0-0.0-1.1","null","<span style='color:red; font-size: 70px;'>错误! </span>","null","","","","","","","","","","","","","","","","","","","","","","","feedback_test"
"","","","","","psychophysics","79","238426","0.0-8.0-0.0-0.2","106","","f","","","","","","","","","","","","","key","f","6.94311392405074","768.8","428.8","f","true","img/T_ambi40.png","をる","prac",""
"","","","","","html-keyboard-response","80","238927","0.0-8.0-0.0-1.2","null","<span style='color:yellow; font-size: 70px;'>过快! </span>","null","","","","","","","","","","","","","","","","","","","","","","","feedback_test"
"","","","","","psychophysics","81","240028","0.0-8.0-0.0-0.3","99","","j","","","","","","","","","","","","","key","j","6.942885350318445","768.8","428.8","j","true","img/C_ambi40.png","朋友","prac",""
"","","","","","html-keyboard-response","82","240529","0.0-8.0-0.0-1.3","null","<span style='color:yellow; font-size: 70px;'>过快! </span>","null","","","","","","","","","","","","","","","","","","","","","","","feedback_test"
"","","","","","psychophysics","83","243031","0.0-8.0-0.0-0.4","null","","null","","","","","","","","","","","","","key","null","6.943462395543199","768.8","428.8","f","false","img/C_ambi40.png","生人","prac",""
"","","","","","html-keyboard-response","84","243545","0.0-8.0-0.0-1.4","null","<span class='add_' style='color:yellow; font-size: 70px;'> 太慢! </span>","null","","","","","","","","","","","","","","","","","","","","","","","feedback_test"
"","","","","","psychophysics","85","244809","0.0-8.0-0.0-0.5","263","","f","","","","","","","","","","","","","key","f","6.943513812154605","768.8","428.8","j","false","img/H_ambi40.png","生人","prac",""
"","","","","","html-keyboard-response","86","245310","0.0-8.0-0.0-1.5","null","<span style='color:red; font-size: 70px;'>错误! </span>","null","","","","","","","","","","","","","","","","","","","","","","","feedback_test"
"","","","","","psychophysics","87","246524","0.0-8.0-0.0-0.6","213","","j","","","","","","","","","","","","","key","j","6.943706896551817","768.8","428.8","j","true","img/C_ambi40.png","自我","prac",""
"","","","","","html-keyboard-response","88","247026","0.0-8.0-0.0-1.6","null","<span style='color:GreenYellow; font-size: 70px;'>正确! </span>","null","","","","","","","","","","","","","","","","","","","","","","","feedback_test"
"","","","","","psychophysics","89","248128","0.0-8.0-0.0-0.7","101","","j","","","","","","","","","","","","","key","j","6.943455696202663","768.8","428.8","j","true","img/S_ambi40.png","生人","prac",""
"","","","","","html-keyboard-response","90","248635","0.0-8.0-0.0-1.7","null","<span style='color:yellow; font-size: 70px;'>过快! </span>","null","","","","","","","","","","","","","","","","","","","","","","","feedback_test"
"","","","","","psychophysics","91","249787","0.0-8.0-0.0-0.8","149","","f","","","","","","","","","","","","","key","f","7.1166999999999465","768.8","428.8","f","true","img/H_ambi40.png","朋友","prac",""
"","","","","","html-keyboard-response","92","250289","0.0-8.0-0.0-1.8","null","<span style='color:yellow; font-size: 70px;'>过快! </span>","null","","","","","","","","","","","","","","","","","","","","","","","feedback_test"
"","","","","","psychophysics","93","252791","0.0-8.0-0.0-0.9","null","","null","","","","","","","","","","","","","key","null","6.9435041782729625","768.8","428.8","f","false","img/T_ambi40.png","をる","prac",""
"","","","","","html-keyboard-response","94","253292","0.0-8.0-0.0-1.9","null","<span class='add_' style='color:yellow; font-size: 70px;'> 太慢! </span>","null","","","","","","","","","","","","","","","","","","","","","","","feedback_test"
"","","","","","psychophysics","95","254540","0.0-8.0-0.0-0.10","247","","f","","","","","","","","","","","","","key","f","6.9437709497206574","768.8","428.8","f","true","img/S_ambi40.png","自我","prac",""
"","","","","","html-keyboard-response","96","255040","0.0-8.0-0.0-1.10","null","<span style='color:GreenYellow; font-size: 70px;'>正确! </span>","null","","","","","","","","","","","","","","","","","","","","","","","feedback_test"
"","","","","","psychophysics","97","256268","0.0-8.0-0.0-0.11","226","","f","","","","","","","","","","","","","key","f","6.94422727272732","768.8","428.8","f","true","img/H_ambi40.png","朋友","prac",""
"","","","","","html-keyboard-response","98","256769","0.0-8.0-0.0-1.11","null","<span style='color:GreenYellow; font-size: 70px;'>正确! </span>","null","","","","","","","","","","","","","","","","","","","","","","","feedback_test"
"","","","","","psychophysics","99","258000","0.0-8.0-0.0-0.12","230","","f","","","","","","","","","","","","","key","f","6.9442159090909135","768.8","428.8","f","true","img/C_ambi40.png","生人","prac",""
"","","","","","html-keyboard-response","100","258507","0.0-8.0-0.0-1.12","null","<span style='color:GreenYellow; font-size: 70px;'>正确! </span>","null","","","","","","","","","","","","","","","","","","","","","","","feedback_test"
"","","","","","psychophysics","101","259746","0.0-8.0-0.0-0.13","238","","f","","","","","","","","","","","","","key","f","6.943651685393265","768.8","428.8","j","false","img/S_ambi40.png","朋友","prac",""
"","","","","","html-keyboard-response","102","260247","0.0-8.0-0.0-1.13","null","<span style='color:red; font-size: 70px;'>错误! </span>","null","","","","","","","","","","","","","","","","","","","","","","","feedback_test"
"","","","","","psychophysics","103","261553","0.0-8.0-0.0-0.14","305","","j","","","","","","","","","","","","","key","j","6.943310160427678","768.8","428.8","j","true","img/H_ambi40.png","自我","prac",""
"","","","","","html-keyboard-response","104","262054","0.0-8.0-0.0-1.14","null","<span style='color:GreenYellow; font-size: 70px;'>正确! </span>","null","","","","","","","","","","","","","","","","","","","","","","","feedback_test"
"","","","","","psychophysics","105","263324","0.0-8.0-0.0-0.15","270","","j","","","","","","","","","","","","","key","j","6.943901098900984","768.8","428.8","f","false","img/S_ambi40.png","自我","prac",""
"","","","","","html-keyboard-response","106","263826","0.0-8.0-0.0-1.15","null","<span style='color:red; font-size: 70px;'>错误! </span>","null","","","","","","","","","","","","","","","","","","","","","","","feedback_test"
"","","","","","psychophysics","107","264990","0.0-8.0-0.0-0.16","162","","f","","","","","","","","","","","","","key","f","6.94410179640706","768.8","428.8","j","false","img/C_ambi40.png","自我","prac",""
"","","","","","html-keyboard-response","108","265491","0.0-8.0-0.0-1.16","null","<span style='color:yellow; font-size: 70px;'>过快! </span>","null","","","","","","","","","","","","","","","","","","","","","","","feedback_test"
"","","","","","psychophysics","109","266729","0.0-8.0-0.0-0.17","236","","j","","","","","","","","","","","","","key","j","6.944011299434844","768.8","428.8","f","false","img/T_ambi40.png","をる","prac",""
"","","","","","html-keyboard-response","110","267230","0.0-8.0-0.0-1.17","null","<span style='color:red; font-size: 70px;'>错误! </span>","null","","","","","","","","","","","","","","","","","","","","","","","feedback_test"
"","","","","","psychophysics","111","268316","0.0-8.0-0.0-0.18","83","","f","","","","","","","","","","","","","key","f","6.944161290322776","768.8","428.8","f","true","img/C_ambi40.png","生人","prac",""
"","","","","","html-keyboard-response","112","268822","0.0-8.0-0.0-1.18","null","<span style='color:yellow; font-size: 70px;'>过快! </span>","null","","","","","","","","","","","","","","","","","","","","","","","feedback_test"
"","","","","","psychophysics","113","270021","0.0-8.0-0.0-0.19","197","","j","","","","","","","","","","","","","key","j","6.9435232558137425","768.8","428.8","f","false","img/H_ambi40.png","朋友","prac",""
"","","","","","html-keyboard-response","114","270523","0.0-8.0-0.0-1.19","null","<span style='color:yellow; font-size: 70px;'>过快! </span>","null","","","","","","","","","","","","","","","","","","","","","","","feedback_test"
"","","","","","psychophysics","115","271629","0.0-8.0-0.0-0.20","106","","f","","","","","","","","","","","","","key","f","6.943746835443182","768.8","428.8","f","true","img/C_ambi40.png","生人","prac",""
"","","","","","html-keyboard-response","116","272131","0.0-8.0-0.0-1.20","null","<span style='color:yellow; font-size: 70px;'>过快! </span>","null","","","","","","","","","","","","","","","","","","","","","","","feedback_test"
"","","","","","psychophysics","117","273335","0.0-8.0-0.0-0.21","202","","f","","","","","","","","","","","","","key","f","6.943610465116487","768.8","428.8","f","true","img/T_ambi40.png","をる","prac",""
"","","","","","html-keyboard-response","118","273837","0.0-8.0-0.0-1.21","null","<span style='color:GreenYellow; font-size: 70px;'>正确! </span>","null","","","","","","","","","","","","","","","","","","","","","","","feedback_test"
"","","","","","psychophysics","119","275100","0.0-8.0-0.0-0.22","261","","f","","","","","","","","","","","","","key","f","6.943375690607676","768.8","428.8","j","false","img/H_ambi40.png","自我","prac",""
"","","","","","html-keyboard-response","120","275601","0.0-8.0-0.0-1.22","null","<span style='color:red; font-size: 70px;'>错误! </span>","null","","","","","","","","","","","","","","","","","","","","","","","feedback_test"
"","","","","","psychophysics","121","276608","0.0-8.0-0.0-0.23","6","","f","","","","","","","","","","","","","key","f","6.943645833333398","768.8","428.8","f","true","img/H_ambi40.png","朋友","prac",""
"","","","","","html-keyboard-response","122","277110","0.0-8.0-0.0-1.23","null","<span style='color:yellow; font-size: 70px;'>过快! </span>","null","","","","","","","","","","","","","","","","","","","","","","","feedback_test"
"","","","","","psychophysics","123","278298","0.0-8.0-0.0-0.24","188","","j","","","","","","","","","","","","","key","j","6.943511764705866","768.8","428.8","f","false","img/T_ambi40.png","をる","prac",""
"","","","","","html-keyboard-response","124","278800","0.0-8.0-0.0-1.24","null","<span style='color:yellow; font-size: 70px;'>过快! </span>","null","","","","","","","","","","","","","","","","","","","","","","","feedback_test"
"","","","","","psychophysics","125","279849","0.0-8.0-0.0-0.25","48","","f","","","","","","","","","","","","","key","f","6.944126666666707","768.8","428.8","j","false","img/C_ambi40.png","朋友","prac",""
"","","","","","html-keyboard-response","126","280350","0.0-8.0-0.0-1.25","null","<span style='color:yellow; font-size: 70px;'>过快! </span>","null","","","","","","","","","","","","","","","","","","","","","","","feedback_test"
"","","","","","psychophysics","127","281533","0.0-8.0-0.0-0.26","183","","f","","","","","","","","","","","","","key","f","6.943505882352645","768.8","428.8","j","false","img/H_ambi40.png","生人","prac",""
"","","","","","html-keyboard-response","128","282033","0.0-8.0-0.0-1.26","null","<span style='color:yellow; font-size: 70px;'>过快! </span>","null","","","","","","","","","","","","","","","","","","","","","","","feedback_test"
"","","","","","psychophysics","129","283113","0.0-8.0-0.0-0.27","78","","j","","","","","","","","","","","","","key","j","6.943571428571413","768.8","428.8","f","false","img/S_ambi40.png","自我","prac",""
"","","","","","html-keyboard-response","130","283613","0.0-8.0-0.0-1.27","null","<span style='color:yellow; font-size: 70px;'>过快! </span>","null","","","","","","","","","","","","","","","","","","","","","","","feedback_test"
"","","","","","psychophysics","131","284805","0.0-8.0-0.0-0.28","191","","f","","","","","","","","","","","","","key","f","6.944093567251476","768.8","428.8","j","false","img/S_ambi40.png","朋友","prac",""
"","","","","","html-keyboard-response","132","285307","0.0-8.0-0.0-1.28","null","<span style='color:yellow; font-size: 70px;'>过快! </span>","null","","","","","","","","","","","","","","","","","","","","","","","feedback_test"
"","","","","","psychophysics","133","286596","0.0-8.0-0.0-0.29","288","","f","","","","","","","","","","","","","key","f","6.9442972972970205","768.8","428.8","f","true","img/S_ambi40.png","自我","prac",""
"","","","","","html-keyboard-response","134","287097","0.0-8.0-0.0-1.29","null","<span style='color:GreenYellow; font-size: 70px;'>正确! </span>","null","","","","","","","","","","","","","","","","","","","","","","","feedback_test"
"","","","","","psychophysics","135","288357","0.0-8.0-0.0-0.30","257","","f","","","","","","","","","","","","","key","f","6.943511111111083","768.8","428.8","f","true","img/T_ambi40.png","をる","prac",""
"","","","","","html-keyboard-response","136","288858","0.0-8.0-0.0-1.30","null","<span style='color:GreenYellow; font-size: 70px;'>正确! </span>","null","","","","","","","","","","","","","","","","","","","","","","","feedback_test"
"","","","","","psychophysics","137","290137","0.0-8.0-0.0-0.31","277","","j","","","","","","","","","","","","","key","j","6.943721311475415","768.8","428.8","j","true","img/S_ambi40.png","生人","prac",""
"","","","","","html-keyboard-response","138","290639","0.0-8.0-0.0-1.31","null","<span style='color:GreenYellow; font-size: 70px;'>正确! </span>","null","","","","","","","","","","","","","","","","","","","","","","","feedback_test"
"","","","","","html-keyboard-response","139","303642","0.0-8.0-1.0-0.0","13002","<style>.context{color:white; font-size: 35px; line-height:40px}</style>                          <div><p class='context'>您正确回答了53% 的试次。</p ><p class='context'>您的平均反应时为182毫秒。</p >"," ","","","","","","","","","","","","","","","","","","","","","","",""
"","","","","","instructions","140","328745","0.0-8.0-1.0-1.0","25100","","","","","","","","","","","","","","[{""page_index"":0,""viewing_time"":3401},{""page_index"":1,""viewing_time"":20096},{""page_index"":2,""viewing_time"":1604}]","","","","","","","","","","",""
"","","","","","psychophysics","141","330042","0.0-8.1-0.1-0.32","295","","f","","","","","","","","","","","","","key","f","7.255499999999955","768.8","428.8","f","true","img/T_ambi40.png","をる","prac",""
"","","","","","html-keyboard-response","142","330544","0.0-8.1-0.1-1.32","null","<span style='color:GreenYellow; font-size: 70px;'>正确! </span>","null","","","","","","","","","","","","","","","","","","","","","","","feedback_test"
"","","","","","psychophysics","143","331586","0.0-8.1-0.1-0.33","42","","f","","","","","","","","","","","","","key","f","6.94375167785239","768.8","428.8","f","true","img/H_ambi40.png","朋友","prac",""
"","","","","","html-keyboard-response","144","332088","0.0-8.1-0.1-1.33","null","<span style='color:yellow; font-size: 70px;'>过快! </span>","null","","","","","","","","","","","","","","","","","","","","","","","feedback_test"
"","","","","","psychophysics","145","333292","0.0-8.1-0.1-0.34","204","","f","","","","","","","","","","","","","key","f","6.943331395348989","768.8","428.8","j","false","img/S_ambi40.png","朋友","prac",""
"","","","","","html-keyboard-response","146","333794","0.0-8.1-0.1-1.34","null","<span style='color:red; font-size: 70px;'>错误! </span>","null","","","","","","","","","","","","","","","","","","","","","","","feedback_test"
"","","","","","psychophysics","147","334945","0.0-8.1-0.1-0.35","149","","j","","","","","","","","","","","","","key","j","6.943018181818523","768.8","428.8","j","true","img/H_ambi40.png","生人","prac",""
"","","","","","html-keyboard-response","148","335446","0.0-8.1-0.1-1.35","null","<span style='color:yellow; font-size: 70px;'>过快! </span>","null","","","","","","","","","","","","","","","","","","","","","","","feedback_test"
"","","","","","psychophysics","149","336622","0.0-8.1-0.1-0.36","175","","f","","","","","","","","","","","","","key","f","6.944357142857154","768.8","428.8","f","true","img/T_ambi40.png","をる","prac",""
"","","","","","html-keyboard-response","150","337132","0.0-8.1-0.1-1.36","null","<span style='color:yellow; font-size: 70px;'>过快! </span>","null","","","","","","","","","","","","","","","","","","","","","","","feedback_test"
"","","","","","psychophysics","151","338275","0.0-8.1-0.1-0.37","141","","f","","","","","","","","","","","","","key","f","6.943762195121963","768.8","428.8","f","true","img/C_ambi40.png","生人","prac",""
"","","","","","html-keyboard-response","152","338777","0.0-8.1-0.1-1.37","null","<span style='color:yellow; font-size: 70px;'>过快! </span>","null","","","","","","","","","","","","","","","","","","","","","","","feedback_test"
"","","","","","psychophysics","153","339954","0.0-8.1-0.1-0.38","176","","j","","","","","","","","","","","","","key","j","6.944386904761943","768.8","428.8","j","true","img/H_ambi40.png","自我","prac",""
"","","","","","html-keyboard-response","154","340458","0.0-8.1-0.1-1.38","null","<span style='color:yellow; font-size: 70px;'>过快! </span>","null","","","","","","","","","","","","","","","","","","","","","","","feedback_test"
"","","","","","psychophysics","155","341685","0.0-8.1-0.1-0.39","225","","j","","","","","","","","","","","","","key","j","6.943374999999915","768.8","428.8","f","false","img/H_ambi40.png","朋友","prac",""
"","","","","","html-keyboard-response","156","342186","0.0-8.1-0.1-1.39","null","<span style='color:red; font-size: 70px;'>错误! </span>","null","","","","","","","","","","","","","","","","","","","","","","","feedback_test"
"","","","","","psychophysics","157","343343","0.0-8.1-0.1-0.40","156","","f","","","","","","","","","","","","","key","f","6.943060606060493","768.8","428.8","j","false","img/S_ambi40.png","生人","prac",""
"","","","","","html-keyboard-response","158","343844","0.0-8.1-0.1-1.40","null","<span style='color:yellow; font-size: 70px;'>过快! </span>","null","","","","","","","","","","","","","","","","","","","","","","","feedback_test"
"","","","","","psychophysics","159","345014","0.0-8.1-0.1-0.41","169","","j","","","","","","","","","","","","","key","j","6.943377245508948","768.8","428.8","f","false","img/T_ambi40.png","をる","prac",""
"","","","","","html-keyboard-response","160","345515","0.0-8.1-0.1-1.41","null","<span style='color:yellow; font-size: 70px;'>过快! </span>","null","","","","","","","","","","","","","","","","","","","","","","","feedback_test"
"","","","","","psychophysics","161","346677","0.0-8.1-0.1-0.42","160","","f","","","","","","","","","","","","","key","f","6.943251497006256","768.8","428.8","f","true","img/T_ambi40.png","をる","prac",""
"","","","","","html-keyboard-response","162","347178","0.0-8.1-0.1-1.42","null","<span style='color:yellow; font-size: 70px;'>过快! </span>","null","","","","","","","","","","","","","","","","","","","","","","","feedback_test"
"","","","","","psychophysics","163","348354","0.0-8.1-0.1-0.43","174","","f","","","","","","","","","","","","","key","f","6.9435119047619605","768.8","428.8","j","false","img/C_ambi40.png","自我","prac",""
"","","","","","html-keyboard-response","164","348855","0.0-8.1-0.1-1.43","null","<span style='color:yellow; font-size: 70px;'>过快! </span>","null","","","","","","","","","","","","","","","","","","","","","","","feedback_test"
"","","","","","psychophysics","165","350111","0.0-8.1-0.1-0.44","255","","f","","","","","","","","","","","","","key","f","6.944016666666398","768.8","428.8","f","true","img/C_ambi40.png","生人","prac",""
"","","","","","html-keyboard-response","166","350612","0.0-8.1-0.1-1.44","null","<span style='color:GreenYellow; font-size: 70px;'>正确! </span>","null","","","","","","","","","","","","","","","","","","","","","","","feedback_test"
"","","","","","psychophysics","167","351897","0.0-8.1-0.1-0.45","284","","f","","","","","","","","","","","","","key","f","6.943233695652136","768.8","428.8","f","true","img/S_ambi40.png","自我","prac",""
"","","","","","html-keyboard-response","168","352398","0.0-8.1-0.1-1.45","null","<span style='color:GreenYellow; font-size: 70px;'>正确! </span>","null","","","","","","","","","","","","","","","","","","","","","","","feedback_test"
"","","","","","psychophysics","169","353676","0.0-8.1-0.1-0.46","277","","f","","","","","","","","","","","","","key","f","6.943502732240557","768.8","428.8","j","false","img/C_ambi40.png","朋友","prac",""
"","","","","","html-keyboard-response","170","354177","0.0-8.1-0.1-1.46","null","<span style='color:red; font-size: 70px;'>错误! </span>","null","","","","","","","","","","","","","","","","","","","","","","","feedback_test"
"","","","","","psychophysics","171","355388","0.0-8.1-0.1-0.47","210","","j","","","","","","","","","","","","","key","j","6.944057803468125","768.8","428.8","f","false","img/S_ambi40.png","自我","prac",""
"","","","","","html-keyboard-response","172","355889","0.0-8.1-0.1-1.47","null","<span style='color:red; font-size: 70px;'>错误! </span>","null","","","","","","","","","","","","","","","","","","","","","","","feedback_test"
"","","","","","psychophysics","173","357043","0.0-8.1-0.1-0.48","152","","f","","","","","","","","","","","","","key","f","6.943472727272787","768.8","428.8","f","true","img/H_ambi40.png","朋友","prac",""
"","","","","","html-keyboard-response","174","357544","0.0-8.1-0.1-1.48","null","<span style='color:yellow; font-size: 70px;'>过快! </span>","null","","","","","","","","","","","","","","","","","","","","","","","feedback_test"
"","","","","","psychophysics","175","358783","0.0-8.1-0.1-0.49","236","","f","","","","","","","","","","","","","key","f","6.943768361582037","768.8","428.8","j","false","img/H_ambi40.png","自我","prac",""
"","","","","","html-keyboard-response","176","359285","0.0-8.1-0.1-1.49","null","<span style='color:red; font-size: 70px;'>错误! </span>","null","","","","","","","","","","","","","","","","","","","","","","","feedback_test"
"","","","","","psychophysics","177","360499","0.0-8.1-0.1-0.50","214","","j","","","","","","","","","","","","","key","j","6.944098265895773","768.8","428.8","j","true","img/C_ambi40.png","朋友","prac",""
"","","","","","html-keyboard-response","178","361001","0.0-8.1-0.1-1.50","null","<span style='color:GreenYellow; font-size: 70px;'>正确! </span>","null","","","","","","","","","","","","","","","","","","","","","","","feedback_test"
"","","","","","psychophysics","179","362746","0.0-8.1-0.1-0.51","744","","f","","","","","","","","","","","","","key","f","6.943403999999864","768.8","428.8","f","true","img/T_ambi40.png","をる","prac",""
"","","","","","html-keyboard-response","180","363247","0.0-8.1-0.1-1.51","null","<span style='color:GreenYellow; font-size: 70px;'>正确! </span>","null","","","","","","","","","","","","","","","","","","","","","","","feedback_test"
"","","","","","psychophysics","181","364736","0.0-8.1-0.1-0.52","487","","j","","","","","","","","","","","","","key","j","6.942808411214947","768.8","428.8","f","false","img/C_ambi40.png","生人","prac",""
"","","","","","html-keyboard-response","182","365237","0.0-8.1-0.1-1.52","null","<span style='color:red; font-size: 70px;'>错误! </span>","null","","","","","","","","","","","","","","","","","","","","","","","feedback_test"
"","","","","","psychophysics","183","366459","0.0-8.1-0.1-0.53","221","","f","","","","","","","","","","","","","key","f","6.94349142857162","768.8","428.8","j","false","img/C_ambi40.png","自我","prac",""
"","","","","","html-keyboard-response","184","366960","0.0-8.1-0.1-1.53","null","<span style='color:red; font-size: 70px;'>错误! </span>","null","","","","","","","","","","","","","","","","","","","","","","","feedback_test"
"","","","","","psychophysics","185","368355","0.0-8.1-0.1-0.54","393","","j","","","","","","","","","","","","","key","j","6.943060000000114","768.8","428.8","f","false","img/T_ambi40.png","をる","prac",""
"","","","","","html-keyboard-response","186","368857","0.0-8.1-0.1-1.54","null","<span style='color:red; font-size: 70px;'>错误! </span>","null","","","","","","","","","","","","","","","","","","","","","","","feedback_test"
"","","","","","psychophysics","187","370016","0.0-8.1-0.1-0.55","158","","f","","","","","","","","","","","","","key","f","6.944228915662466","768.8","428.8","f","true","img/C_ambi40.png","生人","prac",""
"","","","","","html-keyboard-response","188","370517","0.0-8.1-0.1-1.55","null","<span style='color:yellow; font-size: 70px;'>过快! </span>","null","","","","","","","","","","","","","","","","","","","","","","","feedback_test"
"","","","","","psychophysics","189","371786","0.0-8.1-0.1-0.56","268","","f","","","","","","","","","","","","","key","f","6.944203296703143","768.8","428.8","f","true","img/S_ambi40.png","自我","prac",""
"","","","","","html-keyboard-response","190","372286","0.0-8.1-0.1-1.56","null","<span style='color:GreenYellow; font-size: 70px;'>正确! </span>","null","","","","","","","","","","","","","","","","","","","","","","","feedback_test"
"","","","","","psychophysics","191","373603","0.0-8.1-0.1-0.57","315","","f","","","","","","","","","","","","","key","f","6.943640211640202","768.8","428.8","j","false","img/S_ambi40.png","生人","prac",""
"","","","","","html-keyboard-response","192","374104","0.0-8.1-0.1-1.57","null","<span style='color:red; font-size: 70px;'>错误! </span>","null","","","","","","","","","","","","","","","","","","","","","","","feedback_test"
"","","","","","psychophysics","193","375351","0.0-8.1-0.1-0.58","245","","j","","","","","","","","","","","","","key","j","6.943741573033569","768.8","428.8","f","false","img/S_ambi40.png","自我","prac",""
"","","","","","html-keyboard-response","194","375854","0.0-8.1-0.1-1.58","null","<span style='color:red; font-size: 70px;'>错误! </span>","null","","","","","","","","","","","","","","","","","","","","","","","feedback_test"
"","","","","","psychophysics","195","377038","0.0-8.1-0.1-0.59","183","","f","","","","","","","","","","","","","key","f","6.943514792899568","768.8","428.8","f","true","img/T_ambi40.png","をる","prac",""
"","","","","","html-keyboard-response","196","377538","0.0-8.1-0.1-1.59","null","<span style='color:yellow; font-size: 70px;'>过快! </span>","null","","","","","","","","","","","","","","","","","","","","","","","feedback_test"
"","","","","","psychophysics","197","378722","0.0-8.1-0.1-0.60","182","","f","","","","","","","","","","","","","key","f","6.9436764705885095","768.8","428.8","j","false","img/H_ambi40.png","生人","prac",""
"","","","","","html-keyboard-response","198","379222","0.0-8.1-0.1-1.60","null","<span style='color:yellow; font-size: 70px;'>过快! </span>","null","","","","","","","","","","","","","","","","","","","","","","","feedback_test"
"","","","","","psychophysics","199","380263","0.0-8.1-0.1-0.61","39","","j","","","","","","","","","","","","","key","j","6.943865771812071","768.8","428.8","f","false","img/T_ambi40.png","をる","prac",""
"","","","","","html-keyboard-response","200","380764","0.0-8.1-0.1-1.61","null","<span style='color:yellow; font-size: 70px;'>过快! </span>","null","","","","","","","","","","","","","","","","","","","","","","","feedback_test"
"","","","","","psychophysics","201","381910","0.0-8.1-0.1-0.62","143","","f","","","","","","","","","","","","","key","f","6.943280487804724","768.8","428.8","f","true","img/H_ambi40.png","朋友","prac",""
"","","","","","html-keyboard-response","202","382411","0.0-8.1-0.1-1.62","null","<span style='color:yellow; font-size: 70px;'>过快! </span>","null","","","","","","","","","","","","","","","","","","","","","","","feedback_test"
"","","","","","psychophysics","203","383674","0.0-8.1-0.1-0.63","262","","f","","","","","","","","","","","","","key","f","6.9433314917128","768.8","428.8","j","false","img/S_ambi40.png","朋友","prac",""
"","","","","","html-keyboard-response","204","384176","0.0-8.1-0.1-1.63","null","<span style='color:red; font-size: 70px;'>错误! </span>","null","","","","","","","","","","","","","","","","","","","","","","","feedback_test"
"","","","","","html-keyboard-response","205","387154","0.0-8.1-1.1-0.1","2977","<style>.context{color:white; font-size: 35px; line-height:40px}</style>                          <div><p class='context'>您正确回答了50% 的试次。</p ><p class='context'>您的平均反应时为221毫秒。</p >"," ","","","","","","","","","","","","","","","","","","","","","","",""
"","","","","","instructions","206","426412","0.0-8.1-1.1-1.1","39256","","","","","","","","","","","","","","[{""page_index"":0,""viewing_time"":23074},{""page_index"":1,""viewing_time"":14664},{""page_index"":2,""viewing_time"":1518}]","","","","","","","","","","",""
"","","","","","psychophysics","207","427666","0.0-8.2-0.2-0.64","251","","f","","","","","","","","","","","","","key","f","6.943800000000111","768.8","428.8","f","true","img/S_ambi40.png","自我","prac",""
"","","","","","html-keyboard-response","208","428166","0.0-8.2-0.2-1.64","null","<span style='color:GreenYellow; font-size: 70px;'>正确! </span>","null","","","","","","","","","","","","","","","","","","","","","","","feedback_test"
"","","","","","psychophysics","209","429414","0.0-8.2-0.2-0.65","247","","f","","","","","","","","","","","","","key","f","7.063314285714046","768.8","428.8","j","false","img/S_ambi40.png","朋友","prac",""
"","","","","","html-keyboard-response","210","429915","0.0-8.2-0.2-1.65","null","<span style='color:red; font-size: 70px;'>错误! </span>","null","","","","","","","","","","","","","","","","","","","","","","","feedback_test"
"","","","","","psychophysics","211","431294","0.0-8.2-0.2-0.66","378","","f","","","","","","","","","","","","","key","f","6.943385786802075","768.8","428.8","f","true","img/T_ambi40.png","をる","prac",""
"","","","","","html-keyboard-response","212","431796","0.0-8.2-0.2-1.66","null","<span style='color:GreenYellow; font-size: 70px;'>正确! </span>","null","","","","","","","","","","","","","","","","","","","","","","","feedback_test"
"","","","","","psychophysics","213","433087","0.0-8.2-0.2-0.67","291","","f","","","","","","","","","","","","","key","f","6.943086956521691","768.8","428.8","f","true","img/S_ambi40.png","自我","prac",""
"","","","","","html-keyboard-response","214","433588","0.0-8.2-0.2-1.67","null","<span style='color:GreenYellow; font-size: 70px;'>正确! </span>","null","","","","","","","","","","","","","","","","","","","","","","","feedback_test"
"","","","","","psychophysics","215","434791","0.0-8.2-0.2-0.68","202","","f","","","","","","","","","","","","","key","f","6.943517441860655","768.8","428.8","j","false","img/H_ambi40.png","自我","prac",""
"","","","","","html-keyboard-response","216","435293","0.0-8.2-0.2-1.68","null","<span style='color:red; font-size: 70px;'>错误! </span>","null","","","","","","","","","","","","","","","","","","","","","","","feedback_test"
"","","","","","psychophysics","217","436813","0.0-8.2-0.2-0.69","519","","f","","","","","","","","","","","","","key","f","6.94357798165143","768.8","428.8","j","false","img/S_ambi40.png","生人","prac",""
"","","","","","html-keyboard-response","218","437315","0.0-8.2-0.2-1.69","null","<span style='color:red; font-size: 70px;'>错误! </span>","null","","","","","","","","","","","","","","","","","","","","","","","feedback_test"
"","","","","","psychophysics","219","439060","0.0-8.2-0.2-0.70","744","","j","","","","","","","","","","","","","key","j","6.943657370517958","768.8","428.8","j","true","img/C_ambi40.png","自我","prac",""
"","","","","","html-keyboard-response","220","439562","0.0-8.2-0.2-1.70","null","<span style='color:GreenYellow; font-size: 70px;'>正确! </span>","null","","","","","","","","","","","","","","","","","","","","","","","feedback_test"
"","","","","","psychophysics","221","441176","0.0-8.2-0.2-0.71","612","","j","","","","","","","","","","","","","key","j","6.943675324675331","768.8","428.8","f","false","img/T_ambi40.png","をる","prac",""
"","","","","","html-keyboard-response","222","441678","0.0-8.2-0.2-1.71","null","<span style='color:red; font-size: 70px;'>错误! </span>","null","","","","","","","","","","","","","","","","","","","","","","","feedback_test"
"","","","","","psychophysics","223","442910","0.0-8.2-0.2-0.72","231","","f","","","","","","","","","","","","","key","f","6.9437386363636255","768.8","428.8","j","false","img/C_ambi40.png","朋友","prac",""
"","","","","","html-keyboard-response","224","443412","0.0-8.2-0.2-1.72","null","<span style='color:red; font-size: 70px;'>错误! </span>","null","","","","","","","","","","","","","","","","","","","","","","","feedback_test"
"","","","","","psychophysics","225","445010","0.0-8.2-0.2-0.73","597","","f","","","","","","","","","","","","","key","f","6.943326086956633","768.8","428.8","f","true","img/H_ambi40.png","朋友","prac",""
"","","","","","html-keyboard-response","226","445511","0.0-8.2-0.2-1.73","null","<span style='color:GreenYellow; font-size: 70px;'>正确! </span>","null","","","","","","","","","","","","","","","","","","","","","","","feedback_test"
"","","","","","psychophysics","227","447256","0.0-8.2-0.2-0.74","744","","f","","","","","","","","","","","","","key","f","6.943175999999978","768.8","428.8","f","true","img/C_ambi40.png","生人","prac",""
"","","","","","html-keyboard-response","228","447757","0.0-8.2-0.2-1.74","null","<span style='color:GreenYellow; font-size: 70px;'>正确! </span>","null","","","","","","","","","","","","","","","","","","","","","","","feedback_test"
"","","","","","psychophysics","229","449760","0.0-8.2-0.2-0.75","1001","","j","","","","","","","","","","","","","key","j","6.943434027777887","768.8","428.8","j","true","img/H_ambi40.png","生人","prac",""
"","","","","","html-keyboard-response","230","450261","0.0-8.2-0.2-1.75","null","<span style='color:GreenYellow; font-size: 70px;'>正确! </span>","null","","","","","","","","","","","","","","","","","","","","","","","feedback_test"
"","","","","","psychophysics","231","451969","0.0-8.2-0.2-0.76","706","","f","","","","","","","","","","","","","key","f","6.944204081632482","768.8","428.8","f","true","img/T_ambi40.png","をる","prac",""
"","","","","","html-keyboard-response","232","452470","0.0-8.2-0.2-1.76","null","<span style='color:GreenYellow; font-size: 70px;'>正确! </span>","null","","","","","","","","","","","","","","","","","","","","","","","feedback_test"
"","","","","","psychophysics","233","454494","0.0-8.2-0.2-0.77","1022","","f","","","","","","","","","","","","","key","f","6.943255172413774","768.8","428.8","f","true","img/T_ambi40.png","をる","prac",""
"","","","","","html-keyboard-response","234","454996","0.0-8.2-0.2-1.77","null","<span style='color:GreenYellow; font-size: 70px;'>正确! </span>","null","","","","","","","","","","","","","","","","","","","","","","","feedback_test"
"","","","","","psychophysics","235","456816","0.0-8.2-0.2-0.78","819","","f","","","","","","","","","","","","","key","f","6.943555555555486","768.8","428.8","f","true","img/H_ambi40.png","朋友","prac",""
"","","","","","html-keyboard-response","236","457316","0.0-8.2-0.2-1.78","null","<span style='color:GreenYellow; font-size: 70px;'>正确! </span>","null","","","","","","","","","","","","","","","","","","","","","","","feedback_test"
"","","","","","psychophysics","237","458947","0.0-8.2-0.2-0.79","630","","f","","","","","","","","","","","","","key","f","6.943559829059851","768.8","428.8","f","true","img/C_ambi40.png","生人","prac",""
"","","","","","html-keyboard-response","238","459448","0.0-8.2-0.2-1.79","null","<span style='color:GreenYellow; font-size: 70px;'>正确! </span>","null","","","","","","","","","","","","","","","","","","","","","","","feedback_test"
"","","","","","psychophysics","239","461226","0.0-8.2-0.2-0.80","776","","j","","","","","","","","","","","","","key","j","6.94356470588234","768.8","428.8","j","true","img/H_ambi40.png","自我","prac",""
"","","","","","html-keyboard-response","240","461728","0.0-8.2-0.2-1.80","null","<span style='color:GreenYellow; font-size: 70px;'>正确! </span>","null","","","","","","","","","","","","","","","","","","","","","","","feedback_test"
"","","","","","psychophysics","241","463513","0.0-8.2-0.2-0.81","784","","f","","","","","","","","","","","","","key","f","6.943367187499916","768.8","428.8","f","true","img/H_ambi40.png","朋友","prac",""
"","","","","","html-keyboard-response","242","464015","0.0-8.2-0.2-1.81","null","<span style='color:GreenYellow; font-size: 70px;'>正确! </span>","null","","","","","","","","","","","","","","","","","","","","","","","feedback_test"
"","","","","","psychophysics","243","465776","0.0-8.2-0.2-0.82","759","","f","","","","","","","","","","","","","key","f","6.943761904762054","768.8","428.8","f","true","img/C_ambi40.png","生人","prac",""
"","","","","","html-keyboard-response","244","466278","0.0-8.2-0.2-1.82","null","<span style='color:GreenYellow; font-size: 70px;'>正确! </span>","null","","","","","","","","","","","","","","","","","","","","","","","feedback_test"
"","","","","","psychophysics","245","467864","0.0-8.2-0.2-0.83","585","","j","","","","","","","","","","","","","key","j","6.943462555066196","768.8","428.8","f","false","img/T_ambi40.png","をる","prac",""
"","","","","","html-keyboard-response","246","468365","0.0-8.2-0.2-1.83","null","<span style='color:red; font-size: 70px;'>错误! </span>","null","","","","","","","","","","","","","","","","","","","","","","","feedback_test"
"","","","","","psychophysics","247","470171","0.0-8.2-0.2-0.84","805","","j","","","","","","","","","","","","","key","j","6.943822393822439","768.8","428.8","j","true","img/C_ambi40.png","自我","prac",""
"","","","","","html-keyboard-response","248","470672","0.0-8.2-0.2-1.84","null","<span style='color:GreenYellow; font-size: 70px;'>正确! </span>","null","","","","","","","","","","","","","","","","","","","","","","","feedback_test"
"","","","","","psychophysics","249","472357","0.0-8.2-0.2-0.85","685","","f","","","","","","","","","","","","","key","f","6.943120331950273","768.8","428.8","f","true","img/C_ambi40.png","生人","prac",""
"","","","","","html-keyboard-response","250","472858","0.0-8.2-0.2-1.85","null","<span style='color:GreenYellow; font-size: 70px;'>正确! </span>","null","","","","","","","","","","","","","","","","","","","","","","","feedback_test"
"","","","","","psychophysics","251","474522","0.0-8.2-0.2-0.86","663","","f","","","","","","","","","","","","","key","f","6.943476987447615","768.8","428.8","f","true","img/S_ambi40.png","自我","prac",""
"","","","","","html-keyboard-response","252","475024","0.0-8.2-0.2-1.86","null","<span style='color:GreenYellow; font-size: 70px;'>正确! </span>","null","","","","","","","","","","","","","","","","","","","","","","","feedback_test"
"","","","","","psychophysics","253","476777","0.0-8.2-0.2-0.87","752","","f","","","","","","","","","","","","","key","f","6.943988095238132","768.8","428.8","j","false","img/C_ambi40.png","朋友","prac",""
"","","","","","html-keyboard-response","254","477277","0.0-8.2-0.2-1.87","null","<span style='color:red; font-size: 70px;'>错误! </span>","null","","","","","","","","","","","","","","","","","","","","","","","feedback_test"
"","","","","","psychophysics","255","478961","0.0-8.2-0.2-0.88","683","","f","","","","","","","","","","","","","key","f","6.943684647302964","768.8","428.8","f","true","img/T_ambi40.png","をる","prac",""
"","","","","","html-keyboard-response","256","479462","0.0-8.2-0.2-1.88","null","<span style='color:GreenYellow; font-size: 70px;'>正确! </span>","null","","","","","","","","","","","","","","","","","","","","","","","feedback_test"
"","","","","","psychophysics","257","481308","0.0-8.2-0.2-0.89","845","","f","","","","","","","","","","","","","key","f","6.943977358490492","768.8","428.8","f","true","img/H_ambi40.png","朋友","prac",""
"","","","","","html-keyboard-response","258","481810","0.0-8.2-0.2-1.89","null","<span style='color:GreenYellow; font-size: 70px;'>正确! </span>","null","","","","","","","","","","","","","","","","","","","","","","","feedback_test"
"","","","","","psychophysics","259","483509","0.0-8.2-0.2-0.90","698","","f","","","","","","","","","","","","","key","f","6.943728395061732","768.8","428.8","f","true","img/T_ambi40.png","をる","prac",""
"","","","","","html-keyboard-response","260","484017","0.0-8.2-0.2-1.90","null","<span style='color:GreenYellow; font-size: 70px;'>正确! </span>","null","","","","","","","","","","","","","","","","","","","","","","","feedback_test"
"","","","","","psychophysics","261","485595","0.0-8.2-0.2-0.91","577","","f","","","","","","","","","","","","","key","f","6.943823008849574","768.8","428.8","f","true","img/S_ambi40.png","自我","prac",""
"","","","","","html-keyboard-response","262","486096","0.0-8.2-0.2-1.91","null","<span style='color:GreenYellow; font-size: 70px;'>正确! </span>","null","","","","","","","","","","","","","","","","","","","","","","","feedback_test"
"","","","","","psychophysics","263","488223","0.0-8.2-0.2-0.92","1127","","j","","","","","","","","","","","","","key","j","6.943495081967224","768.8","428.8","j","true","img/H_ambi40.png","生人","prac",""
"","","","","","html-keyboard-response","264","488725","0.0-8.2-0.2-1.92","null","<span style='color:GreenYellow; font-size: 70px;'>正确! </span>","null","","","","","","","","","","","","","","","","","","","","","","","feedback_test"
"","","","","","psychophysics","265","490539","0.0-8.2-0.2-0.93","813","","j","","","","","","","","","","","","","key","j","7.0519610894941325","768.8","428.8","j","true","img/S_ambi40.png","朋友","prac",""
"","","","","","html-keyboard-response","266","491040","0.0-8.2-0.2-1.93","null","<span style='color:GreenYellow; font-size: 70px;'>正确! </span>","null","","","","","","","","","","","","","","","","","","","","","","","feedback_test"
"","","","","","psychophysics","267","492943","0.0-8.2-0.2-0.94","902","","j","","","","","","","","","","","","","key","j","6.943681318681318","768.8","428.8","j","true","img/S_ambi40.png","生人","prac",""
"","","","","","html-keyboard-response","268","493444","0.0-8.2-0.2-1.94","null","<span style='color:GreenYellow; font-size: 70px;'>正确! </span>","null","","","","","","","","","","","","","","","","","","","","","","","feedback_test"
"","","","","","psychophysics","269","495137","0.0-8.2-0.2-0.95","692","","f","","","","","","","","","","","","","key","f","6.943592592592374","768.8","428.8","f","true","img/T_ambi40.png","をる","prac",""
"","","","","","html-keyboard-response","270","495638","0.0-8.2-0.2-1.95","null","<span style='color:GreenYellow; font-size: 70px;'>正确! </span>","null","","","","","","","","","","","","","","","","","","","","","","","feedback_test"
"","","","","","html-keyboard-response","271","501134","0.0-9.0","5494","<style>.context{color:white; font-size: 35px; line-height:40px}</style>                          <div><p class='context'>您正确回答了78% 的试次。</p ><p class='context'>您的平均反应时为720毫秒。</p ><p class='context'>恭喜您完成练习。按任意键进入正式实验。</p ><p class='footer' style='font-size: 35px; line-height:40px;'>请在进入正式实验实验之前将您的<span style='color: lightgreen;'>食指</span>放在电脑键盘的相应键位上进行按键。</p >"," ","","","","","","","","","","","","","","","","","","","","","","",""
"","","","","","psychophysics","272","503640","0.0-10.0-0.0-0.0-0.0-0.0","null","","null","","","","","","","","","","","","","key","null","6.943635097493075","768.8","428.8","f","false","img/T_ambi40.png","をる","same",""
"","","","","","html-keyboard-response","273","504141","0.0-10.0-0.0-0.0-0.0-1.0","null","<span class='add_' style='color:yellow; font-size: 70px;'> 太慢! </span>","null","","","","","","","","","","","","","","","","","","","","","","","feedback_test"
"","","","","","psychophysics","274","505804","0.0-10.0-0.0-0.0-0.0-0.1","661","","f","","","","","","","","","","","","","key","f","6.943512605042187","768.8","428.8","f","true","img/S_ambi40.png","自我","same",""
"","","","","","html-keyboard-response","275","506305","0.0-10.0-0.0-0.0-0.0-1.1","null","<span style='color:GreenYellow; font-size: 70px;'>正确! </span>","null","","","","","","","","","","","","","","","","","","","","","","","feedback_test"
"","","","","","psychophysics","276","507954","0.0-10.0-0.0-0.0-0.0-0.2","648","","j","","","","","","","","","","","","","key","j","6.943502109704583","768.8","428.8","j","true","img/C_ambi40.png","自我","same",""
"","","","","","html-keyboard-response","277","508456","0.0-10.0-0.0-0.0-0.0-1.2","null","<span style='color:GreenYellow; font-size: 70px;'>正确! </span>","null","","","","","","","","","","","","","","","","","","","","","","","feedback_test"
"","","","","","psychophysics","278","510116","0.0-10.0-0.0-0.0-0.0-0.3","658","","f","","","","","","","","","","","","","key","f","6.943533613445323","768.8","428.8","f","true","img/T_ambi40.png","をる","same",""
"","","","","","html-keyboard-response","279","510617","0.0-10.0-0.0-0.0-0.0-1.3","null","<span style='color:GreenYellow; font-size: 70px;'>正确! </span>","null","","","","","","","","","","","","","","","","","","","","","","","feedback_test"
"","","","","","psychophysics","280","512361","0.0-10.0-0.0-0.0-0.0-0.4","743","","j","","","","","","","","","","","","","key","j","7.027947368421253","768.8","428.8","f","false","img/S_ambi40.png","自我","same",""
"","","","","","html-keyboard-response","281","512862","0.0-10.0-0.0-0.0-0.0-1.4","null","<span style='color:red; font-size: 70px;'>错误! </span>","null","","","","","","","","","","","","","","","","","","","","","","","feedback_test"
"","","","","","psychophysics","282","514451","0.0-10.0-0.0-0.0-0.0-0.5","588","","j","","","","","","","","","","","","","key","j","6.943245614035077","768.8","428.8","j","true","img/H_ambi40.png","自我","same",""
"","","","","","html-keyboard-response","283","514952","0.0-10.0-0.0-0.0-0.0-1.5","null","<span style='color:GreenYellow; font-size: 70px;'>正确! </span>","null","","","","","","","","","","","","","","","","","","","","","","","feedback_test"
"","","","","","psychophysics","284","517146","0.0-10.0-0.0-0.0-0.0-0.6","1193","","j","","","","","","","","","","","","","key","j","6.943409523809521","768.8","428.8","j","true","img/H_ambi40.png","生人","same",""
"","","","","","html-keyboard-response","285","517648","0.0-10.0-0.0-0.0-0.0-1.6","null","<span style='color:GreenYellow; font-size: 70px;'>正确! </span>","null","","","","","","","","","","","","","","","","","","","","","","","feedback_test"
"","","","","","psychophysics","286","519338","0.0-10.0-0.0-0.0-0.0-0.7","690","","f","","","","","","","","","","","","","key","f","6.944082644628073","768.8","428.8","f","true","img/C_ambi40.png","生人","same",""
"","","","","","html-keyboard-response","287","519839","0.0-10.0-0.0-0.0-0.0-1.7","null","<span style='color:GreenYellow; font-size: 70px;'>正确! </span>","null","","","","","","","","","","","","","","","","","","","","","","","feedback_test"
"","","","","","psychophysics","288","521820","0.0-10.0-0.0-0.0-0.0-0.8","980","","j","","","","","","","","","","","","","key","j","6.943415492957722","768.8","428.8","j","true","img/H_ambi40.png","生人","same",""
"","","","","","html-keyboard-response","289","522321","0.0-10.0-0.0-0.0-0.0-1.8","null","<span style='color:GreenYellow; font-size: 70px;'>正确! </span>","null","","","","","","","","","","","","","","","","","","","","","","","feedback_test"
"","","","","","psychophysics","290","524079","0.0-10.0-0.0-0.0-0.0-0.9","756","","j","","","","","","","","","","","","","key","j","6.943575396825234","768.8","428.8","j","true","img/S_ambi40.png","朋友","same",""
"","","","","","html-keyboard-response","291","524580","0.0-10.0-0.0-0.0-0.0-1.9","null","<span style='color:GreenYellow; font-size: 70px;'>正确! </span>","null","","","","","","","","","","","","","","","","","","","","","","","feedback_test"
"","","","","","psychophysics","292","526070","0.0-10.0-0.0-0.0-0.0-0.10","489","","f","","","","","","","","","","","","","key","f","6.943593457943942","768.8","428.8","f","true","img/T_ambi40.png","をる","same",""
"","","","","","html-keyboard-response","293","526571","0.0-10.0-0.0-0.0-0.0-1.10","null","<span style='color:GreenYellow; font-size: 70px;'>正确! </span>","null","","","","","","","","","","","","","","","","","","","","","","","feedback_test"
"","","","","","psychophysics","294","528338","0.0-10.0-0.0-0.0-0.0-0.11","766","","j","","","","","","","","","","","","","key","j","6.943622047243838","768.8","428.8","j","true","img/C_ambi40.png","自我","same",""
"","","","","","html-keyboard-response","295","528839","0.0-10.0-0.0-0.0-0.0-1.11","null","<span style='color:GreenYellow; font-size: 70px;'>正确! </span>","null","","","","","","","","","","","","","","","","","","","","","","","feedback_test"
"","","","","","psychophysics","296","530626","0.0-10.0-0.0-0.0-0.0-0.12","786","","f","","","","","","","","","","","","","key","f","6.943453124999905","768.8","428.8","j","false","img/S_ambi40.png","生人","same",""
"","","","","","html-keyboard-response","297","531128","0.0-10.0-0.0-0.0-0.0-1.12","null","<span style='color:red; font-size: 70px;'>错误! </span>","null","","","","","","","","","","","","","","","","","","","","","","","feedback_test"
"","","","","","psychophysics","298","532959","0.0-10.0-0.0-0.0-0.0-0.13","829","","j","","","","","","","","","","","","","key","j","6.943422053231921","768.8","428.8","j","true","img/C_ambi40.png","朋友","same",""
"","","","","","html-keyboard-response","299","533459","0.0-10.0-0.0-0.0-0.0-1.13","null","<span style='color:GreenYellow; font-size: 70px;'>正确! </span>","null","","","","","","","","","","","","","","","","","","","","","","","feedback_test"
"","","","","","psychophysics","300","535155","0.0-10.0-0.0-0.0-0.0-0.14","694","","j","","","","","","","","","","","","","key","j","6.942987654320781","768.8","428.8","f","false","img/H_ambi40.png","朋友","same",""
"","","","","","html-keyboard-response","301","535656","0.0-10.0-0.0-0.0-0.0-1.14","null","<span style='color:red; font-size: 70px;'>错误! </span>","null","","","","","","","","","","","","","","","","","","","","","","","feedback_test"
"","","","","","psychophysics","302","537542","0.0-10.0-0.0-0.0-0.0-0.15","885","","j","","","","","","","","","","","","","key","j","6.943512915129296","768.8","428.8","j","true","img/S_ambi40.png","朋友","same",""
"","","","","","html-keyboard-response","303","538043","0.0-10.0-0.0-0.0-0.0-1.15","null","<span style='color:GreenYellow; font-size: 70px;'>正确! </span>","null","","","","","","","","","","","","","","","","","","","","","","","feedback_test"
"","","","","","psychophysics","304","540195","0.0-10.0-0.0-0.0-0.0-0.16","1150","","f","","","","","","","","","","","","","key","f","6.94339158576024","768.8","428.8","f","true","img/C_ambi40.png","生人","same",""
"","","","","","html-keyboard-response","305","540696","0.0-10.0-0.0-0.0-0.0-1.16","null","<span style='color:GreenYellow; font-size: 70px;'>正确! </span>","null","","","","","","","","","","","","","","","","","","","","","","","feedback_test"
"","","","","","psychophysics","306","542376","0.0-10.0-0.0-0.0-0.0-0.17","679","","f","","","","","","","","","","","","","key","f","6.943473029045554","768.8","428.8","f","true","img/H_ambi40.png","朋友","same",""
"","","","","","html-keyboard-response","307","542878","0.0-10.0-0.0-0.0-0.0-1.17","null","<span style='color:GreenYellow; font-size: 70px;'>正确! </span>","null","","","","","","","","","","","","","","","","","","","","","","","feedback_test"
"","","","","","psychophysics","308","544563","0.0-10.0-0.0-0.0-0.0-0.18","683","","j","","","","","","","","","","","","","key","j","6.9439170124483605","768.8","428.8","j","true","img/H_ambi40.png","自我","same",""
"","","","","","html-keyboard-response","309","545064","0.0-10.0-0.0-0.0-0.0-1.18","null","<span style='color:GreenYellow; font-size: 70px;'>正确! </span>","null","","","","","","","","","","","","","","","","","","","","","","","feedback_test"
"","","","","","psychophysics","310","546930","0.0-10.0-0.0-0.0-0.0-0.19","865","","j","","","","","","","","","","","","","key","j","6.943496268656567","768.8","428.8","j","true","img/S_ambi40.png","朋友","same",""
"","","","","","html-keyboard-response","311","547431","0.0-10.0-0.0-0.0-0.0-1.19","null","<span style='color:GreenYellow; font-size: 70px;'>正确! </span>","null","","","","","","","","","","","","","","","","","","","","","","","feedback_test"
"","","","","","psychophysics","312","549447","0.0-10.0-0.0-0.0-0.0-0.20","1015","","f","","","","","","","","","","","","","key","f","7.040562937062615","768.8","428.8","f","true","img/S_ambi40.png","自我","same",""
"","","","","","html-keyboard-response","313","549948","0.0-10.0-0.0-0.0-0.0-1.20","null","<span style='color:GreenYellow; font-size: 70px;'>正确! </span>","null","","","","","","","","","","","","","","","","","","","","","","","feedback_test"
"","","","","","psychophysics","314","551647","0.0-10.0-0.0-0.0-0.0-0.21","697","","f","","","","","","","","","","","","","key","f","6.943362139918029","768.8","428.8","f","true","img/S_ambi40.png","自我","same",""
"","","","","","html-keyboard-response","315","552148","0.0-10.0-0.0-0.0-0.0-1.21","null","<span style='color:GreenYellow; font-size: 70px;'>正确! </span>","null","","","","","","","","","","","","","","","","","","","","","","","feedback_test"
"","","","","","psychophysics","316","553773","0.0-10.0-0.0-0.0-0.0-0.22","624","","j","","","","","","","","","","","","","key","j","6.943849785407793","768.8","428.8","j","true","img/C_ambi40.png","自我","same",""
"","","","","","html-keyboard-response","317","554274","0.0-10.0-0.0-0.0-0.0-1.22","null","<span style='color:GreenYellow; font-size: 70px;'>正确! </span>","null","","","","","","","","","","","","","","","","","","","","","","","feedback_test"
"","","","","","psychophysics","318","555992","0.0-10.0-0.0-0.0-0.0-0.23","717","","f","","","","","","","","","","","","","key","f","6.9435975609756095","768.8","428.8","f","true","img/C_ambi40.png","生人","same",""
"","","","","","html-keyboard-response","319","556494","0.0-10.0-0.0-0.0-0.0-1.23","null","<span style='color:GreenYellow; font-size: 70px;'>正确! </span>","null","","","","","","","","","","","","","","","","","","","","","","","feedback_test"
"","","","","","psychophysics","320","558177","0.0-10.0-0.0-0.0-0.0-0.24","683","","j","","","","","","","","","","","","","key","j","6.943580912862792","768.8","428.8","j","true","img/S_ambi40.png","生人","same",""
"","","","","","html-keyboard-response","321","558679","0.0-10.0-0.0-0.0-0.0-1.24","null","<span style='color:GreenYellow; font-size: 70px;'>正确! </span>","null","","","","","","","","","","","","","","","","","","","","","","","feedback_test"
"","","","","","psychophysics","322","560387","0.0-10.0-0.0-0.0-0.0-0.25","706","","j","","","","","","","","","","","","","key","j","6.943469387754722","768.8","428.8","j","true","img/C_ambi40.png","自我","same",""
"","","","","","html-keyboard-response","323","560889","0.0-10.0-0.0-0.0-0.0-1.25","null","<span style='color:GreenYellow; font-size: 70px;'>正确! </span>","null","","","","","","","","","","","","","","","","","","","","","","","feedback_test"
"","","","","","psychophysics","324","562552","0.0-10.0-0.0-0.0-0.0-0.26","661","","j","","","","","","","","","","","","","key","j","6.943046218487669","768.8","428.8","j","true","img/S_ambi40.png","朋友","same",""
"","","","","","html-keyboard-response","325","563054","0.0-10.0-0.0-0.0-0.0-1.26","null","<span style='color:GreenYellow; font-size: 70px;'>正确! </span>","null","","","","","","","","","","","","","","","","","","","","","","","feedback_test"
"","","","","","psychophysics","326","564840","0.0-10.0-0.0-0.0-0.0-0.27","785","","f","","","","","","","","","","","","","key","f","6.943571984435881","768.8","428.8","f","true","img/H_ambi40.png","朋友","same",""
"","","","","","html-keyboard-response","327","565342","0.0-10.0-0.0-0.0-0.0-1.27","null","<span style='color:GreenYellow; font-size: 70px;'>正确! </span>","null","","","","","","","","","","","","","","","","","","","","","","","feedback_test"
"","","","","","psychophysics","328","567126","0.0-10.0-0.0-0.0-0.0-0.28","782","","f","","","","","","","","","","","","","key","f","6.943914062500426","768.8","428.8","f","true","img/C_ambi40.png","生人","same",""
"","","","","","html-keyboard-response","329","567627","0.0-10.0-0.0-0.0-0.0-1.28","null","<span style='color:GreenYellow; font-size: 70px;'>正确! </span>","null","","","","","","","","","","","","","","","","","","","","","","","feedback_test"
"","","","","","psychophysics","330","569306","0.0-10.0-0.0-0.0-0.0-0.29","678","","j","","","","","","","","","","","","","key","j","6.9440829875517665","768.8","428.8","j","true","img/C_ambi40.png","朋友","same",""
"","","","","","html-keyboard-response","331","569807","0.0-10.0-0.0-0.0-0.0-1.29","null","<span style='color:GreenYellow; font-size: 70px;'>正确! </span>","null","","","","","","","","","","","","","","","","","","","","","","","feedback_test"
"","","","","","psychophysics","332","571956","0.0-10.0-0.0-0.0-0.0-0.30","1148","","f","","","","","","","","","","","","","key","f","7.058306930693122","768.8","428.8","f","true","img/H_ambi40.png","朋友","same",""
"","","","","","html-keyboard-response","333","572457","0.0-10.0-0.0-0.0-0.0-1.30","null","<span style='color:GreenYellow; font-size: 70px;'>正确! </span>","null","","","","","","","","","","","","","","","","","","","","","","","feedback_test"
"","","","","","psychophysics","334","574274","0.0-10.0-0.0-0.0-0.0-0.31","817","","j","","","","","","","","","","","","","key","j","6.943303846153699","768.8","428.8","j","true","img/H_ambi40.png","生人","same",""
"","","","","","html-keyboard-response","335","574775","0.0-10.0-0.0-0.0-0.0-1.31","null","<span style='color:GreenYellow; font-size: 70px;'>正确! </span>","null","","","","","","","","","","","","","","","","","","","","","","","feedback_test"
"","","","","","psychophysics","336","576449","0.0-10.0-0.0-0.0-0.0-0.32","673","","f","","","","","","","","","","","","","key","f","6.9438833333333605","768.8","428.8","f","true","img/T_ambi40.png","をる","same",""
"","","","","","html-keyboard-response","337","576951","0.0-10.0-0.0-0.0-0.0-1.32","null","<span style='color:GreenYellow; font-size: 70px;'>正确! </span>","null","","","","","","","","","","","","","","","","","","","","","","","feedback_test"
"","","","","","psychophysics","338","578583","0.0-10.0-0.0-0.0-0.0-0.33","631","","f","","","","","","","","","","","","","key","f","6.943324786324838","768.8","428.8","f","true","img/T_ambi40.png","をる","same",""
"","","","","","html-keyboard-response","339","579084","0.0-10.0-0.0-0.0-0.0-1.33","null","<span style='color:GreenYellow; font-size: 70px;'>正确! </span>","null","","","","","","","","","","","","","","","","","","","","","","","feedback_test"
"","","","","","psychophysics","340","580550","0.0-10.0-0.0-0.0-0.0-0.34","465","","f","","","","","","","","","","","","","key","f","6.943833333333688","768.8","428.8","f","true","img/T_ambi40.png","をる","same",""
"","","","","","html-keyboard-response","341","581051","0.0-10.0-0.0-0.0-0.0-1.34","null","<span style='color:GreenYellow; font-size: 70px;'>正确! </span>","null","","","","","","","","","","","","","","","","","","","","","","","feedback_test"
"","","","","","psychophysics","342","583131","0.0-10.0-0.0-0.0-0.0-0.35","1079","","j","","","","","","","","","","","","","key","j","6.943428093645361","768.8","428.8","j","true","img/H_ambi40.png","生人","same",""
"","","","","","html-keyboard-response","343","583632","0.0-10.0-0.0-0.0-0.0-1.35","null","<span style='color:GreenYellow; font-size: 70px;'>正确! </span>","null","","","","","","","","","","","","","","","","","","","","","","","feedback_test"
"","","","","","psychophysics","344","585397","0.0-10.0-0.0-0.0-0.0-0.36","763","","j","","","","","","","","","","","","","key","j","6.943150197628337","768.8","428.8","j","true","img/S_ambi40.png","朋友","same",""
"","","","","","html-keyboard-response","345","585912","0.0-10.0-0.0-0.0-0.0-1.36","null","<span style='color:GreenYellow; font-size: 70px;'>正确! </span>","null","","","","","","","","","","","","","","","","","","","","","","","feedback_test"
"","","","","","psychophysics","346","587461","0.0-10.0-0.0-0.0-0.0-0.37","548","","f","","","","","","","","","","","","","key","f","6.944049549549147","768.8","428.8","f","true","img/T_ambi40.png","をる","same",""
"","","","","","html-keyboard-response","347","587969","0.0-10.0-0.0-0.0-0.0-1.37","null","<span style='color:GreenYellow; font-size: 70px;'>正确! </span>","null","","","","","","","","","","","","","","","","","","","","","","","feedback_test"
"","","","","","psychophysics","348","589814","0.0-10.0-0.0-0.0-0.0-0.38","843","","f","","","","","","","","","","","","","key","f","6.943246212121184","768.8","428.8","f","true","img/S_ambi40.png","自我","same",""
"","","","","","html-keyboard-response","349","590314","0.0-10.0-0.0-0.0-0.0-1.38","null","<span style='color:GreenYellow; font-size: 70px;'>正确! </span>","null","","","","","","","","","","","","","","","","","","","","","","","feedback_test"
"","","","","","psychophysics","350","592307","0.0-10.0-0.0-0.0-0.0-0.39","993","","j","","","","","","","","","","","","","key","j","6.943772727272708","768.8","428.8","j","true","img/H_ambi40.png","生人","same",""
"","","","","","html-keyboard-response","351","592808","0.0-10.0-0.0-0.0-0.0-1.39","null","<span style='color:GreenYellow; font-size: 70px;'>正确! </span>","null","","","","","","","","","","","","","","","","","","","","","","","feedback_test"
"","","","","","psychophysics","352","594446","0.0-10.0-0.0-0.0-0.0-0.40","638","","f","","","","","","","","","","","","","key","f","6.944042735043057","768.8","428.8","f","true","img/S_ambi40.png","自我","same",""
"","","","","","html-keyboard-response","353","594947","0.0-10.0-0.0-0.0-0.0-1.40","null","<span style='color:GreenYellow; font-size: 70px;'>正确! </span>","null","","","","","","","","","","","","","","","","","","","","","","","feedback_test"
"","","","","","psychophysics","354","596820","0.0-10.0-0.0-0.0-0.0-0.41","871","","f","","","","","","","","","","","","","key","f","6.943283582089726","768.8","428.8","f","true","img/C_ambi40.png","生人","same",""
"","","","","","html-keyboard-response","355","597321","0.0-10.0-0.0-0.0-0.0-1.41","null","<span style='color:GreenYellow; font-size: 70px;'>正确! </span>","null","","","","","","","","","","","","","","","","","","","","","","","feedback_test"
"","","","","","psychophysics","356","599119","0.0-10.0-0.0-0.0-0.0-0.42","798","","j","","","","","","","","","","","","","key","j","6.943755813953268","768.8","428.8","j","true","img/S_ambi40.png","生人","same",""
"","","","","","html-keyboard-response","357","599620","0.0-10.0-0.0-0.0-0.0-1.42","null","<span style='color:GreenYellow; font-size: 70px;'>正确! </span>","null","","","","","","","","","","","","","","","","","","","","","","","feedback_test"
"","","","","","psychophysics","358","600927","0.0-10.0-0.0-0.0-0.0-0.43","305","","f","","","","","","","","","","","","","key","f","6.94322994652386","768.8","428.8","f","true","img/H_ambi40.png","朋友","same",""
"","","","","","html-keyboard-response","359","601428","0.0-10.0-0.0-0.0-0.0-1.43","null","<span style='color:GreenYellow; font-size: 70px;'>正确! </span>","null","","","","","","","","","","","","","","","","","","","","","","","feedback_test"
"","","","","","psychophysics","360","602982","0.0-10.0-0.0-0.0-0.0-0.44","552","","f","","","","","","","","","","","","","key","f","6.943748878923792","768.8","428.8","f","true","img/H_ambi40.png","朋友","same",""
"","","","","","html-keyboard-response","361","603484","0.0-10.0-0.0-0.0-0.0-1.44","null","<span style='color:GreenYellow; font-size: 70px;'>正确! </span>","null","","","","","","","","","","","","","","","","","","","","","","","feedback_test"
"","","","","","psychophysics","362","605051","0.0-10.0-0.0-0.0-0.0-0.45","566","","j","","","","","","","","","","","","","key","j","6.94357333333335","768.8","428.8","j","true","img/H_ambi40.png","自我","same",""
"","","","","","html-keyboard-response","363","605552","0.0-10.0-0.0-0.0-0.0-1.45","null","<span style='color:GreenYellow; font-size: 70px;'>正确! </span>","null","","","","","","","","","","","","","","","","","","","","","","","feedback_test"
"","","","","","psychophysics","364","607288","0.0-10.0-0.0-0.0-0.0-0.46","734","","j","","","","","","","","","","","","","key","j","6.943489959839372","768.8","428.8","j","true","img/S_ambi40.png","朋友","same",""
"","","","","","html-keyboard-response","365","607790","0.0-10.0-0.0-0.0-0.0-1.46","null","<span style='color:GreenYellow; font-size: 70px;'>正确! </span>","null","","","","","","","","","","","","","","","","","","","","","","","feedback_test"
"","","","","","psychophysics","366","609553","0.0-10.0-0.0-0.0-0.0-0.47","763","","f","","","","","","","","","","","","","key","f","6.971309523809598","768.8","428.8","f","true","img/T_ambi40.png","をる","same",""
"","","","","","html-keyboard-response","367","610054","0.0-10.0-0.0-0.0-0.0-1.47","null","<span style='color:GreenYellow; font-size: 70px;'>正确! </span>","null","","","","","","","","","","","","","","","","","","","","","","","feedback_test"
"","","","","","psychophysics","368","611702","0.0-10.0-0.0-0.0-0.0-0.48","647","","j","","","","","","","","","","","","","key","j","6.943911392405287","768.8","428.8","j","true","img/C_ambi40.png","自我","same",""
"","","","","","html-keyboard-response","369","612204","0.0-10.0-0.0-0.0-0.0-1.48","null","<span style='color:GreenYellow; font-size: 70px;'>正确! </span>","null","","","","","","","","","","","","","","","","","","","","","","","feedback_test"
"","","","","","psychophysics","370","613738","0.0-10.0-0.0-0.0-0.0-0.49","534","","f","","","","","","","","","","","","","key","f","6.9435636363637805","768.8","428.8","j","false","img/C_ambi40.png","自我","same",""
"","","","","","html-keyboard-response","371","614240","0.0-10.0-0.0-0.0-0.0-1.49","null","<span style='color:red; font-size: 70px;'>错误! </span>","null","","","","","","","","","","","","","","","","","","","","","","","feedback_test"
"","","","","","psychophysics","372","615803","0.0-10.0-0.0-0.0-0.0-0.50","561","","f","","","","","","","","","","","","","key","f","6.9435089285709966","768.8","428.8","f","true","img/T_ambi40.png","をる","same",""
"","","","","","html-keyboard-response","373","616303","0.0-10.0-0.0-0.0-0.0-1.50","null","<span style='color:GreenYellow; font-size: 70px;'>正确! </span>","null","","","","","","","","","","","","","","","","","","","","","","","feedback_test"
"","","","","","psychophysics","374","617850","0.0-10.0-0.0-0.0-0.0-0.51","546","","j","","","","","","","","","","","","","key","j","6.944049549549671","768.8","428.8","j","true","img/C_ambi40.png","朋友","same",""
"","","","","","html-keyboard-response","375","618359","0.0-10.0-0.0-0.0-0.0-1.51","null","<span style='color:GreenYellow; font-size: 70px;'>正确! </span>","null","","","","","","","","","","","","","","","","","","","","","","","feedback_test"
"","","","","","psychophysics","376","620017","0.0-10.0-0.0-0.0-0.0-0.52","658","","f","","","","","","","","","","","","","key","f","6.943294117646879","768.8","428.8","f","true","img/C_ambi40.png","生人","same",""
"","","","","","html-keyboard-response","377","620519","0.0-10.0-0.0-0.0-0.0-1.52","null","<span style='color:GreenYellow; font-size: 70px;'>正确! </span>","null","","","","","","","","","","","","","","","","","","","","","","","feedback_test"
"","","","","","psychophysics","378","622067","0.0-10.0-0.0-0.0-0.0-0.53","546","","j","","","","","","","","","","","","","key","j","6.943411764705647","768.8","428.8","j","true","img/H_ambi40.png","生人","same",""
"","","","","","html-keyboard-response","379","622568","0.0-10.0-0.0-0.0-0.0-1.53","null","<span style='color:GreenYellow; font-size: 70px;'>正确! </span>","null","","","","","","","","","","","","","","","","","","","","","","","feedback_test"
"","","","","","psychophysics","380","624045","0.0-10.0-0.0-0.0-0.0-0.54","475","","f","","","","","","","","","","","","","key","f","6.9438436018955185","768.8","428.8","f","true","img/T_ambi40.png","をる","same",""
"","","","","","html-keyboard-response","381","624557","0.0-10.0-0.0-0.0-0.0-1.54","null","<span style='color:GreenYellow; font-size: 70px;'>正确! </span>","null","","","","","","","","","","","","","","","","","","","","","","","feedback_test"
"","","","","","psychophysics","382","626437","0.0-10.0-0.0-0.0-0.0-0.55","880","","j","","","","","","","","","","","","","key","j","6.943881481481474","768.8","428.8","j","true","img/H_ambi40.png","生人","same",""
"","","","","","html-keyboard-response","383","626938","0.0-10.0-0.0-0.0-0.0-1.55","null","<span style='color:GreenYellow; font-size: 70px;'>正确! </span>","null","","","","","","","","","","","","","","","","","","","","","","","feedback_test"
"","","","","","psychophysics","384","628428","0.0-10.0-0.0-0.0-0.0-0.56","489","","f","","","","","","","","","","","","","key","f","6.943504672896805","768.8","428.8","f","true","img/C_ambi40.png","生人","same",""
"","","","","","html-keyboard-response","385","628930","0.0-10.0-0.0-0.0-0.0-1.56","null","<span style='color:GreenYellow; font-size: 70px;'>正确! </span>","null","","","","","","","","","","","","","","","","","","","","","","","feedback_test"
"","","","","","psychophysics","386","630342","0.0-10.0-0.0-0.0-0.0-0.57","412","","f","","","","","","","","","","","","","key","f","6.943693069307166","768.8","428.8","j","false","img/C_ambi40.png","自我","same",""
"","","","","","html-keyboard-response","387","630843","0.0-10.0-0.0-0.0-0.0-1.57","null","<span style='color:red; font-size: 70px;'>错误! </span>","null","","","","","","","","","","","","","","","","","","","","","","","feedback_test"
"","","","","","psychophysics","388","632619","0.0-10.0-0.0-0.0-0.0-0.58","774","","f","","","","","","","","","","","","","key","f","7.02619444444454","768.8","428.8","f","true","img/C_ambi40.png","生人","same",""
"","","","","","html-keyboard-response","389","633120","0.0-10.0-0.0-0.0-0.0-1.58","null","<span style='color:GreenYellow; font-size: 70px;'>正确! </span>","null","","","","","","","","","","","","","","","","","","","","","","","feedback_test"
"","","","","","psychophysics","390","634622","0.0-10.0-0.0-0.0-0.0-0.59","501","","f","","","","","","","","","","","","","key","f","6.9434583333333855","768.8","428.8","f","true","img/T_ambi40.png","をる","same",""
"","","","","","html-keyboard-response","391","635123","0.0-10.0-0.0-0.0-0.0-1.59","null","<span style='color:GreenYellow; font-size: 70px;'>正确! </span>","null","","","","","","","","","","","","","","","","","","","","","","","feedback_test"
"","","","","","psychophysics","392","636806","0.0-10.0-0.0-0.0-0.0-0.60","682","","j","","","","","","","","","","","","","key","j","6.943307053941665","768.8","428.8","j","true","img/C_ambi40.png","朋友","same",""
"","","","","","html-keyboard-response","393","637307","0.0-10.0-0.0-0.0-0.0-1.60","null","<span style='color:GreenYellow; font-size: 70px;'>正确! </span>","null","","","","","","","","","","","","","","","","","","","","","","","feedback_test"
"","","","","","psychophysics","394","638867","0.0-10.0-0.0-0.0-0.0-0.61","559","","f","","","","","","","","","","","","","key","f","6.943455357142999","768.8","428.8","f","true","img/S_ambi40.png","自我","same",""
"","","","","","html-keyboard-response","395","639367","0.0-10.0-0.0-0.0-0.0-1.61","null","<span style='color:GreenYellow; font-size: 70px;'>正确! </span>","null","","","","","","","","","","","","","","","","","","","","","","","feedback_test"
"","","","","","psychophysics","396","641027","0.0-10.0-0.0-0.0-0.0-0.62","659","","j","","","","","","","","","","","","","key","j","6.944004201680468","768.8","428.8","j","true","img/C_ambi40.png","自我","same",""
"","","","","","html-keyboard-response","397","641528","0.0-10.0-0.0-0.0-0.0-1.62","null","<span style='color:GreenYellow; font-size: 70px;'>正确! </span>","null","","","","","","","","","","","","","","","","","","","","","","","feedback_test"
"","","","","","psychophysics","398","643616","0.0-10.0-0.0-0.0-0.0-0.63","1087","","f","","","","","","","","","","","","","key","f","6.943436666666918","768.8","428.8","f","true","img/H_ambi40.png","朋友","same",""
"","","","","","html-keyboard-response","399","644118","0.0-10.0-0.0-0.0-0.0-1.63","null","<span style='color:GreenYellow; font-size: 70px;'>正确! </span>","null","","","","","","","","","","","","","","","","","","","","","","","feedback_test"
"","","","","","psychophysics","400","645663","0.0-10.0-0.0-0.0-0.0-0.64","544","","f","","","","","","","","","","","","","key","f","6.943896396396585","768.8","428.8","f","true","img/T_ambi40.png","をる","same",""
"","","","","","html-keyboard-response","401","646164","0.0-10.0-0.0-0.0-0.0-1.64","null","<span style='color:GreenYellow; font-size: 70px;'>正确! </span>","null","","","","","","","","","","","","","","","","","","","","","","","feedback_test"
"","","","","","psychophysics","402","648104","0.0-10.0-0.0-0.0-0.0-0.65","938","","j","","","","","","","","","","","","","key","j","6.943410071942171","768.8","428.8","j","true","img/H_ambi40.png","生人","same",""
"","","","","","html-keyboard-response","403","648619","0.0-10.0-0.0-0.0-0.0-1.65","null","<span style='color:GreenYellow; font-size: 70px;'>正确! </span>","null","","","","","","","","","","","","","","","","","","","","","","","feedback_test"
"","","","","","psychophysics","404","650390","0.0-10.0-0.0-0.0-0.0-0.66","770","","f","","","","","","","","","","","","","key","f","6.9430905511812675","768.8","428.8","j","false","img/H_ambi40.png","自我","same",""
"","","","","","html-keyboard-response","405","650892","0.0-10.0-0.0-0.0-0.0-1.66","null","<span style='color:red; font-size: 70px;'>错误! </span>","null","","","","","","","","","","","","","","","","","","","","","","","feedback_test"
"","","","","","psychophysics","406","652936","0.0-10.0-0.0-0.0-0.0-0.67","1043","","f","","","","","","","","","","","","","key","f","6.943474402730258","768.8","428.8","f","true","img/H_ambi40.png","朋友","same",""
"","","","","","html-keyboard-response","407","653436","0.0-10.0-0.0-0.0-0.0-1.67","null","<span style='color:GreenYellow; font-size: 70px;'>正确! </span>","null","","","","","","","","","","","","","","","","","","","","","","","feedback_test"
"","","","","","psychophysics","408","655155","0.0-10.0-0.0-0.0-0.0-0.68","717","","j","","","","","","","","","","","","","key","j","6.9435465587048535","768.8","428.8","j","true","img/S_ambi40.png","朋友","same",""
"","","","","","html-keyboard-response","409","655655","0.0-10.0-0.0-0.0-0.0-1.68","null","<span style='color:GreenYellow; font-size: 70px;'>正确! </span>","null","","","","","","","","","","","","","","","","","","","","","","","feedback_test"
"","","","","","psychophysics","410","657266","0.0-10.0-0.0-0.0-0.0-0.69","609","","f","","","","","","","","","","","","","key","f","6.943532467532492","768.8","428.8","f","true","img/S_ambi40.png","自我","same",""
"","","","","","html-keyboard-response","411","657767","0.0-10.0-0.0-0.0-0.0-1.69","null","<span style='color:GreenYellow; font-size: 70px;'>正确! </span>","null","","","","","","","","","","","","","","","","","","","","","","","feedback_test"
"","","","","","psychophysics","412","659292","0.0-10.0-0.0-0.0-0.0-0.70","524","","j","","","","","","","","","","","","","key","j","6.943342465753178","768.8","428.8","j","true","img/S_ambi40.png","生人","same",""
"","","","","","html-keyboard-response","413","659794","0.0-10.0-0.0-0.0-0.0-1.70","null","<span style='color:GreenYellow; font-size: 70px;'>正确! </span>","null","","","","","","","","","","","","","","","","","","","","","","","feedback_test"
"","","","","","psychophysics","414","661287","0.0-10.0-0.0-0.0-0.0-0.71","491","","f","","","","","","","","","","","","","key","f","6.943504672896805","768.8","428.8","j","false","img/S_ambi40.png","朋友","same",""
"","","","","","html-keyboard-response","415","661787","0.0-10.0-0.0-0.0-0.0-1.71","null","<span style='color:red; font-size: 70px;'>错误! </span>","null","","","","","","","","","","","","","","","","","","","","","","","feedback_test"
"","","","","","psychophysics","416","663226","0.0-10.0-0.0-0.0-0.0-0.72","436","","j","","","","","","","","","","","","","key","j","6.943500000000163","768.8","428.8","j","true","img/H_ambi40.png","生人","same",""
"","","","","","html-keyboard-response","417","663728","0.0-10.0-0.0-0.0-0.0-1.72","null","<span style='color:GreenYellow; font-size: 70px;'>正确! </span>","null","","","","","","","","","","","","","","","","","","","","","","","feedback_test"
"","","","","","psychophysics","418","665790","0.0-10.0-0.0-0.0-0.0-0.73","1061","","j","","","","","","","","","","","","","key","j","6.943308474576116","768.8","428.8","f","false","img/H_ambi40.png","朋友","same",""
"","","","","","html-keyboard-response","419","666290","0.0-10.0-0.0-0.0-0.0-1.73","null","<span style='color:red; font-size: 70px;'>错误! </span>","null","","","","","","","","","","","","","","","","","","","","","","","feedback_test"
"","","","","","psychophysics","420","667860","0.0-10.0-0.0-0.0-0.0-0.74","568","","f","","","","","","","","","","","","","key","f","6.943323008849521","768.8","428.8","f","true","img/T_ambi40.png","をる","same",""
"","","","","","html-keyboard-response","421","668361","0.0-10.0-0.0-0.0-0.0-1.74","null","<span style='color:GreenYellow; font-size: 70px;'>正确! </span>","null","","","","","","","","","","","","","","","","","","","","","","","feedback_test"
"","","","","","psychophysics","422","670124","0.0-10.0-0.0-0.0-0.0-0.75","761","","f","","","","","","","","","","","","","key","f","6.970916666666559","768.8","428.8","f","true","img/H_ambi40.png","朋友","same",""
"","","","","","html-keyboard-response","423","670625","0.0-10.0-0.0-0.0-0.0-1.75","null","<span style='color:GreenYellow; font-size: 70px;'>正确! </span>","null","","","","","","","","","","","","","","","","","","","","","","","feedback_test"
"","","","","","psychophysics","424","672257","0.0-10.0-0.0-0.0-0.0-0.76","629","","j","","","","","","","","","","","","","key","j","6.94350854700887","768.8","428.8","j","true","img/H_ambi40.png","自我","same",""
"","","","","","html-keyboard-response","425","672758","0.0-10.0-0.0-0.0-0.0-1.76","null","<span style='color:GreenYellow; font-size: 70px;'>正确! </span>","null","","","","","","","","","","","","","","","","","","","","","","","feedback_test"
"","","","","","psychophysics","426","674360","0.0-10.0-0.0-0.0-0.0-0.77","602","","f","","","","","","","","","","","","","key","f","6.943269565217096","768.8","428.8","f","true","img/S_ambi40.png","自我","same",""
"","","","","","html-keyboard-response","427","674862","0.0-10.0-0.0-0.0-0.0-1.77","null","<span style='color:GreenYellow; font-size: 70px;'>正确! </span>","null","","","","","","","","","","","","","","","","","","","","","","","feedback_test"
"","","","","","psychophysics","428","676545","0.0-10.0-0.0-0.0-0.0-0.78","682","","j","","","","","","","","","","","","","key","j","6.9439170124483605","768.8","428.8","f","false","img/C_ambi40.png","生人","same",""
"","","","","","html-keyboard-response","429","677045","0.0-10.0-0.0-0.0-0.0-1.78","null","<span style='color:red; font-size: 70px;'>错误! </span>","null","","","","","","","","","","","","","","","","","","","","","","","feedback_test"
"","","","","","psychophysics","430","678749","0.0-10.0-0.0-0.0-0.0-0.79","703","","j","","","","","","","","","","","","","key","j","6.943351020407863","768.8","428.8","j","true","img/S_ambi40.png","朋友","same",""
"","","","","","html-keyboard-response","431","679250","0.0-10.0-0.0-0.0-0.0-1.79","null","<span style='color:GreenYellow; font-size: 70px;'>正确! </span>","null","","","","","","","","","","","","","","","","","","","","","","","feedback_test"
"","","","","","psychophysics","432","681041","0.0-10.0-0.0-0.0-0.0-0.80","788","","f","","","","","","","","","","","","","key","f","6.94355642023326","768.8","428.8","f","true","img/C_ambi40.png","生人","same",""
"","","","","","html-keyboard-response","433","681552","0.0-10.0-0.0-0.0-0.0-1.80","null","<span style='color:GreenYellow; font-size: 70px;'>正确! </span>","null","","","","","","","","","","","","","","","","","","","","","","","feedback_test"
"","","","","","psychophysics","434","683114","0.0-10.0-0.0-0.0-0.0-0.81","559","","f","","","","","","","","","","","","","key","f","6.943753363228938","768.8","428.8","f","true","img/T_ambi40.png","をる","same",""
"","","","","","html-keyboard-response","435","683615","0.0-10.0-0.0-0.0-0.0-1.81","null","<span style='color:GreenYellow; font-size: 70px;'>正确! </span>","null","","","","","","","","","","","","","","","","","","","","","","","feedback_test"
"","","","","","psychophysics","436","685382","0.0-10.0-0.0-0.0-0.0-0.82","766","","j","","","","","","","","","","","","","key","j","6.944043478260844","768.8","428.8","j","true","img/C_ambi40.png","自我","same",""
"","","","","","html-keyboard-response","437","685883","0.0-10.0-0.0-0.0-0.0-1.82","null","<span style='color:GreenYellow; font-size: 70px;'>正确! </span>","null","","","","","","","","","","","","","","","","","","","","","","","feedback_test"
"","","","","","psychophysics","438","687417","0.0-10.0-0.0-0.0-0.0-0.83","533","","f","","","","","","","","","","","","","key","f","6.944109090908684","768.8","428.8","f","true","img/S_ambi40.png","自我","same",""
"","","","","","html-keyboard-response","439","687917","0.0-10.0-0.0-0.0-0.0-1.83","null","<span style='color:GreenYellow; font-size: 70px;'>正确! </span>","null","","","","","","","","","","","","","","","","","","","","","","","feedback_test"
"","","","","","psychophysics","440","689458","0.0-10.0-0.0-0.0-0.0-0.84","540","","f","","","","","","","","","","","","","key","f","6.943384615384144","768.8","428.8","f","true","img/T_ambi40.png","をる","same",""
"","","","","","html-keyboard-response","441","689961","0.0-10.0-0.0-0.0-0.0-1.84","null","<span style='color:GreenYellow; font-size: 70px;'>正确! </span>","null","","","","","","","","","","","","","","","","","","","","","","","feedback_test"
"","","","","","psychophysics","442","691632","0.0-10.0-0.0-0.0-0.0-0.85","671","","j","","","","","","","","","","","","","key","j","6.943711297071215","768.8","428.8","j","true","img/H_ambi40.png","生人","same",""
"","","","","","html-keyboard-response","443","692135","0.0-10.0-0.0-0.0-0.0-1.85","null","<span style='color:GreenYellow; font-size: 70px;'>正确! </span>","null","","","","","","","","","","","","","","","","","","","","","","","feedback_test"
"","","","","","psychophysics","444","693598","0.0-10.0-0.0-0.0-0.0-0.86","461","","f","","","","","","","","","","","","","key","f","6.943765550239667","768.8","428.8","j","false","img/S_ambi40.png","生人","same",""
"","","","","","html-keyboard-response","445","694098","0.0-10.0-0.0-0.0-0.0-1.86","null","<span style='color:red; font-size: 70px;'>错误! </span>","null","","","","","","","","","","","","","","","","","","","","","","","feedback_test"
"","","","","","psychophysics","446","695709","0.0-10.0-0.0-0.0-0.0-0.87","611","","j","","","","","","","","","","","","","key","j","6.94339826839847","768.8","428.8","j","true","img/S_ambi40.png","朋友","same",""
