"success","timeout","failed_images","failed_audio","failed_video","trial_type","trial_index","time_elapsed","internal_node_id","rt","stimulus","response","value","item_width_mm","item_height_mm","item_width_px","px2mm","view_dist_mm","item_width_deg","px2deg","scale_factor","win_width_deg","win_height_deg","view_history","response_type","key_press","avg_frame_time","center_x","center_y","correct_response","correct","Image","word","condition","screen_id"
"true","false","[]","[]","[]","preload","0","2244","0.0-0.0","","","","","","","","","","","","","","","","","","","","","","","","","",""
"","","","","","html-keyboard-response","1","58418","0.0-1.0","56173","
     <p>您好，欢迎参加本次实验。</p>
     <p>为充分保障您的权利，请确保您已经知晓并同意《参与实验同意书》以及《数据公开知情同意书》。</p>
     <p>如果您未见过上述内容，请咨询实验员。</p>
     <p>如果您选择继续实验，则表示您已经清楚两份知情同意书的内容并同意。</p>
     <p> <div style = ""color: green""><按任意键至下页></div> </p>
     "," ","","","","","","","","","","","","","","","","","","","","","","",""
"","","","","","html-keyboard-response","2","59620","0.0-2.0","1201","
     <p>本实验首先需要您填写一些基本个人信息。</p>
     <p> <div style = ""color: green""><按任意键至下页></div></p>
     "," ","","","","","","","","","","","","","","","","","","","","","","",""
"","","","","","call-function","3","59621","0.0-3.0-0.0","","","","","","","","","","","","","","","","","","","","","","","","","",""
"","","","","","survey-html-form","4","66527","0.0-3.0-1.0","6904","","{""Q0"":""29""}","","","","","","","","","","","","","","","","","","","","","","",""
"","","","","","html-button-response","5","68432","0.0-3.0-2.0","1904","<p style = 'color : white'>您的性别</p>","1","","","","","","","","","","","","","","","","","","","","","","",""
"","","","","","survey-html-form","6","73975","0.0-3.0-3.0","5542","","{""Q0"":""2003""}","","","","","","","","","","","","","","","","","","","","","","",""
"","","","","","survey-html-form","7","90950","0.0-3.0-4.0","16975","","{""Q0"":""5""}","","","","","","","","","","","","","","","","","","","","","","",""
"","","","","","virtual-chinrest","8","328120","0.0-4.0","237168","","","","85.6","53.98","371.63011523941185","4.3373541751661815","658.94","7.4326023047882375","50","0.9983044559265443","30.72","13.4","","","","","","","","","","","",""
"true","","","","","fullscreen","9","337043","0.0-5.0","","","","","","","","","","","","","","","","","","","","","","","","","",""
"","","","","","instructions","10","371159","0.0-6.0","34115","","","","","","","","","","","","","","[{""page_index"":0,""viewing_time"":3833},{""page_index"":1,""viewing_time"":23854},{""page_index"":2,""viewing_time"":2069},{""page_index"":3,""viewing_time"":4358}]","","","","","","","","","","",""
"","","","","","psychophysics","11","373653","0.0-7.0-0.0-0.0","1491","","j","","","","","","","","","","","","","key","j","16.659731543624083","768","405.2","j","true","img/C_ambi40.png","生人","prac",""
"","","","","","html-keyboard-response","12","374156","0.0-7.0-0.0-1.0","null","<span style='color:GreenYellow; font-size: 70px;'>正确! </span>","null","","","","","","","","","","","","","","","","","","","","","","","feedback_test"
"","","","","","psychophysics","13","376312","0.0-7.0-0.0-0.1","1153","","f","","","","","","","","","","","","","key","f","16.65689922480613","768","405.2","f","true","img/S_ambi40.png","生人","prac",""
"","","","","","html-keyboard-response","14","376818","0.0-7.0-0.0-1.1","null","<span style='color:GreenYellow; font-size: 70px;'>正确! </span>","null","","","","","","","","","","","","","","","","","","","","","","","feedback_test"
"","","","","","psychophysics","15","379144","0.0-7.0-0.0-0.2","1319","","f","","","","","","","","","","","","","key","f","16.656863309352545","768","405.2","f","true","img/T_ambi40.png","をる","prac",""
"","","","","","html-keyboard-response","16","379656","0.0-7.0-0.0-1.2","null","<span style='color:GreenYellow; font-size: 70px;'>正确! </span>","null","","","","","","","","","","","","","","","","","","","","","","","feedback_test"
"","","","","","psychophysics","17","382044","0.0-7.0-0.0-0.3","1387","","j","","","","","","","","","","","","","key","j","16.654126760563372","768","405.2","j","true","img/H_ambi40.png","自我","prac",""
"","","","","","html-keyboard-response","18","382550","0.0-7.0-0.0-1.3","null","<span style='color:GreenYellow; font-size: 70px;'>正确! </span>","null","","","","","","","","","","","","","","","","","","","","","","","feedback_test"
"","","","","","psychophysics","19","384638","0.0-7.0-0.0-0.4","1083","","f","","","","","","","","","","","","","key","f","16.660007999999916","768","405.2","f","true","img/S_ambi40.png","自我","prac",""
"","","","","","html-keyboard-response","20","385149","0.0-7.0-0.0-1.4","null","<span style='color:GreenYellow; font-size: 70px;'>正确! </span>","null","","","","","","","","","","","","","","","","","","","","","","","feedback_test"
"","","","","","psychophysics","21","387020","0.0-7.0-0.0-0.5","866","","f","","","","","","","","","","","","","key","f","16.657633928571677","768","405.2","f","true","img/T_ambi40.png","をる","prac",""
"","","","","","html-keyboard-response","22","387534","0.0-7.0-0.0-1.5","null","<span style='color:GreenYellow; font-size: 70px;'>正确! </span>","null","","","","","","","","","","","","","","","","","","","","","","","feedback_test"
"","","","","","psychophysics","23","389381","0.0-7.0-0.0-0.6","844","","j","","","","","","","","","","","","","key","j","16.657227272727123","768","405.2","f","false","img/C_ambi40.png","自我","prac",""
"","","","","","html-keyboard-response","24","389887","0.0-7.0-0.0-1.6","null","<span style='color:red; font-size: 70px;'>错误! </span>","null","","","","","","","","","","","","","","","","","","","","","","","feedback_test"
"","","","","","psychophysics","25","392178","0.0-7.0-0.0-0.7","1278","","j","","","","","","","","","","","","","key","j","16.657404411764755","768","405.2","j","true","img/S_ambi40.png","朋友","prac",""
"","","","","","html-keyboard-response","26","392692","0.0-7.0-0.0-1.7","null","<span style='color:GreenYellow; font-size: 70px;'>正确! </span>","null","","","","","","","","","","","","","","","","","","","","","","","feedback_test"
"","","","","","psychophysics","27","394429","0.0-7.0-0.0-0.8","730","","f","","","","","","","","","","","","","key","f","16.662359223300953","768","405.2","f","true","img/T_ambi40.png","をる","prac",""
"","","","","","html-keyboard-response","28","394935","0.0-7.0-0.0-1.8","null","<span style='color:GreenYellow; font-size: 70px;'>正确! </span>","null","","","","","","","","","","","","","","","","","","","","","","","feedback_test"
"","","","","","psychophysics","29","396795","0.0-7.0-0.0-0.9","851","","f","","","","","","","","","","","","","key","f","16.65785454545456","768","405.2","f","true","img/T_ambi40.png","をる","prac",""
"","","","","","html-keyboard-response","30","397303","0.0-7.0-0.0-1.9","null","<span style='color:GreenYellow; font-size: 70px;'>正确! </span>","null","","","","","","","","","","","","","","","","","","","","","","","feedback_test"
"","","","","","psychophysics","31","399802","0.0-7.0-0.0-0.10","1490","","j","","","","","","","","","","","","","key","j","16.659375838926","768","405.2","f","false","img/H_ambi40.png","生人","prac",""
"","","","","","html-keyboard-response","32","400310","0.0-7.0-0.0-1.10","null","<span style='color:red; font-size: 70px;'>错误! </span>","null","","","","","","","","","","","","","","","","","","","","","","","feedback_test"
"","","","","","psychophysics","33","402812","0.0-7.0-0.0-0.11","null","","null","","","","","","","","","","","","","key","null","16.66","768","405.2","f","false","img/H_ambi40.png","朋友","prac",""
"","","","","","html-keyboard-response","34","403328","0.0-7.0-0.0-1.11","null","<span class='add_' style='color:yellow; font-size: 70px;'> 太慢! </span>","null","","","","","","","","","","","","","","","","","","","","","","","feedback_test"
"","","","","","psychophysics","35","405435","0.0-7.0-0.0-0.12","1100","","f","","","","","","","","","","","","","key","f","16.65772800000012","768","405.2","f","true","img/C_ambi40.png","朋友","prac",""
"","","","","","html-keyboard-response","36","405937","0.0-7.0-0.0-1.12","null","<span style='color:GreenYellow; font-size: 70px;'>正确! </span>","null","","","","","","","","","","","","","","","","","","","","","","","feedback_test"
"","","","","","psychophysics","37","407772","0.0-7.0-0.0-0.13","830","","j","","","","","","","","","","","","","key","j","16.659944954128516","768","405.2","j","true","img/H_ambi40.png","自我","prac",""
"","","","","","html-keyboard-response","38","408276","0.0-7.0-0.0-1.13","null","<span style='color:GreenYellow; font-size: 70px;'>正确! </span>","null","","","","","","","","","","","","","","","","","","","","","","","feedback_test"
"","","","","","psychophysics","39","410250","0.0-7.0-0.0-0.14","961","","j","","","","","","","","","","","","","key","j","16.653367521367674","768","405.2","j","true","img/S_ambi40.png","朋友","prac",""
"","","","","","html-keyboard-response","40","410756","0.0-7.0-0.0-1.14","null","<span style='color:GreenYellow; font-size: 70px;'>正确! </span>","null","","","","","","","","","","","","","","","","","","","","","","","feedback_test"
"","","","","","psychophysics","41","412587","0.0-7.0-0.0-0.15","816","","j","","","","","","","","","","","","","key","j","16.656740740740876","768","405.2","j","true","img/C_ambi40.png","生人","prac",""
"","","","","","html-keyboard-response","42","413094","0.0-7.0-0.0-1.15","null","<span style='color:GreenYellow; font-size: 70px;'>正确! </span>","null","","","","","","","","","","","","","","","","","","","","","","","feedback_test"
"","","","","","psychophysics","43","415094","0.0-7.0-0.0-0.16","991","","f","","","","","","","","","","","","","key","f","16.654613445377947","768","405.2","j","false","img/C_ambi40.png","生人","prac",""
"","","","","","html-keyboard-response","44","415610","0.0-7.0-0.0-1.16","null","<span style='color:red; font-size: 70px;'>错误! </span>","null","","","","","","","","","","","","","","","","","","","","","","","feedback_test"
"","","","","","psychophysics","45","417775","0.0-7.0-0.0-0.17","1156","","f","","","","","","","","","","","","","key","f","16.657248062015757","768","405.2","f","true","img/S_ambi40.png","自我","prac",""
"","","","","","html-keyboard-response","46","418280","0.0-7.0-0.0-1.17","null","<span style='color:GreenYellow; font-size: 70px;'>正确! </span>","null","","","","","","","","","","","","","","","","","","","","","","","feedback_test"
"","","","","","psychophysics","47","420033","0.0-7.0-0.0-0.18","748","","f","","","","","","","","","","","","","key","f","16.653923076923373","768","405.2","f","true","img/T_ambi40.png","をる","prac",""
"","","","","","html-keyboard-response","48","420540","0.0-7.0-0.0-1.18","null","<span style='color:GreenYellow; font-size: 70px;'>正确! </span>","null","","","","","","","","","","","","","","","","","","","","","","","feedback_test"
"","","","","","psychophysics","49","422521","0.0-7.0-0.0-0.19","970","","j","","","","","","","","","","","","","key","j","16.653788135593196","768","405.2","j","true","img/C_ambi40.png","生人","prac",""
"","","","","","html-keyboard-response","50","423031","0.0-7.0-0.0-1.19","null","<span style='color:GreenYellow; font-size: 70px;'>正确! </span>","null","","","","","","","","","","","","","","","","","","","","","","","feedback_test"
"","","","","","psychophysics","51","424683","0.0-7.0-0.0-0.20","649","","f","","","","","","","","","","","","","key","f","16.6569494949495","768","405.2","f","true","img/T_ambi40.png","をる","prac",""
"","","","","","html-keyboard-response","52","425197","0.0-7.0-0.0-1.20","null","<span style='color:GreenYellow; font-size: 70px;'>正确! </span>","null","","","","","","","","","","","","","","","","","","","","","","","feedback_test"
"","","","","","psychophysics","53","427714","0.0-7.0-0.0-0.21","null","","null","","","","","","","","","","","","","key","null","16.657533333333365","768","405.2","f","false","img/H_ambi40.png","朋友","prac",""
"","","","","","html-keyboard-response","54","428223","0.0-7.0-0.0-1.21","null","<span class='add_' style='color:yellow; font-size: 70px;'> 太慢! </span>","null","","","","","","","","","","","","","","","","","","","","","","","feedback_test"
"","","","","","psychophysics","55","430167","0.0-7.0-0.0-0.22","937","","f","","","","","","","","","","","","","key","f","16.660362068965632","768","405.2","j","false","img/S_ambi40.png","朋友","prac",""
"","","","","","html-keyboard-response","56","430674","0.0-7.0-0.0-1.22","null","<span style='color:red; font-size: 70px;'>错误! </span>","null","","","","","","","","","","","","","","","","","","","","","","","feedback_test"
"","","","","","psychophysics","57","432968","0.0-7.0-0.0-0.23","1290","","f","","","","","","","","","","","","","key","f","16.65583211678823","768","405.2","f","true","img/C_ambi40.png","朋友","prac",""
"","","","","","html-keyboard-response","58","433471","0.0-7.0-0.0-1.23","null","<span style='color:GreenYellow; font-size: 70px;'>正确! </span>","null","","","","","","","","","","","","","","","","","","","","","","","feedback_test"
"","","","","","psychophysics","59","435110","0.0-7.0-0.0-0.24","633","","f","","","","","","","","","","","","","key","f","16.656244897958942","768","405.2","f","true","img/T_ambi40.png","をる","prac",""
"","","","","","html-keyboard-response","60","435624","0.0-7.0-0.0-1.24","null","<span style='color:GreenYellow; font-size: 70px;'>正确! </span>","null","","","","","","","","","","","","","","","","","","","","","","","feedback_test"
"","","","","","psychophysics","61","437871","0.0-7.0-0.0-0.25","1245","","f","","","","","","","","","","","","","key","f","16.65994029850725","768","405.2","j","false","img/S_ambi40.png","朋友","prac",""
"","","","","","html-keyboard-response","62","438382","0.0-7.0-0.0-1.25","null","<span style='color:red; font-size: 70px;'>错误! </span>","null","","","","","","","","","","","","","","","","","","","","","","","feedback_test"
"","","","","","psychophysics","63","440196","0.0-7.0-0.0-0.26","805","","j","","","","","","","","","","","","","key","j","16.657861111111103","768","405.2","j","true","img/H_ambi40.png","自我","prac",""
"","","","","","html-keyboard-response","64","440703","0.0-7.0-0.0-1.26","null","<span style='color:GreenYellow; font-size: 70px;'>正确! </span>","null","","","","","","","","","","","","","","","","","","","","","","","feedback_test"
"","","","","","psychophysics","65","442914","0.0-7.0-0.0-0.27","1207","","f","","","","","","","","","","","","","key","f","16.65674242424244","768","405.2","f","true","img/C_ambi40.png","自我","prac",""
"","","","","","html-keyboard-response","66","443415","0.0-7.0-0.0-1.27","null","<span style='color:GreenYellow; font-size: 70px;'>正确! </span>","null","","","","","","","","","","","","","","","","","","","","","","","feedback_test"
"","","","","","psychophysics","67","445813","0.0-7.0-0.0-0.28","1392","","f","","","","","","","","","","","","","key","f","16.655916083915894","768","405.2","f","true","img/H_ambi40.png","生人","prac",""
"","","","","","html-keyboard-response","68","446313","0.0-7.0-0.0-1.28","null","<span style='color:GreenYellow; font-size: 70px;'>正确! </span>","null","","","","","","","","","","","","","","","","","","","","","","","feedback_test"
"","","","","","psychophysics","69","447879","0.0-7.0-0.0-0.29","560","","f","","","","","","","","","","","","","key","f","16.661645161290277","768","405.2","f","true","img/T_ambi40.png","をる","prac",""
"","","","","","html-keyboard-response","70","448388","0.0-7.0-0.0-1.29","null","<span style='color:GreenYellow; font-size: 70px;'>正确! </span>","null","","","","","","","","","","","","","","","","","","","","","","","feedback_test"
"","","","","","psychophysics","71","450248","0.0-7.0-0.0-0.30","848","","f","","","","","","","","","","","","","key","f","16.657072727272645","768","405.2","f","true","img/S_ambi40.png","生人","prac",""
"","","","","","html-keyboard-response","72","450760","0.0-7.0-0.0-1.30","null","<span style='color:GreenYellow; font-size: 70px;'>正确! </span>","null","","","","","","","","","","","","","","","","","","","","","","","feedback_test"
"","","","","","psychophysics","73","452520","0.0-7.0-0.0-0.31","759","","f","","","","","","","","","","","","","key","f","16.658438095238083","768","405.2","j","false","img/H_ambi40.png","自我","prac",""
"","","","","","html-keyboard-response","74","453021","0.0-7.0-0.0-1.31","null","<span style='color:red; font-size: 70px;'>错误! </span>","null","","","","","","","","","","","","","","","","","","","","","","","feedback_test"
"","","","","","html-keyboard-response","75","457534","0.0-8.0","4510","<style>.context{color:white; font-size: 35px; line-height:40px}</style>                          <div><p class='context'>您正确回答了75% 的试次。</p ><p class='context'>您的平均反应时为1005毫秒。</p ><p class='context'>恭喜您完成练习。按任意键进入正式实验。</p ><p class='footer' style='font-size: 35px; line-height:40px;'>请在进入正式实验实验之前将您的<span style='color: lightgreen;'>食指</span>放在电脑键盘的相应键位上进行按键。</p >"," ","","","","","","","","","","","","","","","","","","","","","","",""
"","","","","","psychophysics","76","459243","0.0-9.0-0.0-0.0-0.0-0.0","697","","f","","","","","","","","","","","","","key","f","16.657881188118775","768","405.2","f","true","img/T_ambi40.png","をる","same",""
"","","","","","html-keyboard-response","77","459755","0.0-9.0-0.0-0.0-0.0-1.0","null","<span style='color:GreenYellow; font-size: 70px;'>正确! </span>","null","","","","","","","","","","","","","","","","","","","","","","","feedback_test"
"","","","","","psychophysics","78","461637","0.0-9.0-0.0-0.0-0.0-0.1","875","","f","","","","","","","","","","","","","key","f","16.657071428571466","768","405.2","f","true","img/H_ambi40.png","朋友","same",""
"","","","","","html-keyboard-response","79","462142","0.0-9.0-0.0-0.0-0.0-1.1","null","<span style='color:GreenYellow; font-size: 70px;'>正确! </span>","null","","","","","","","","","","","","","","","","","","","","","","","feedback_test"
"","","","","","psychophysics","80","463710","0.0-9.0-0.0-0.0-0.0-0.2","566","","f","","","","","","","","","","","","","key","f","16.658734042553522","768","405.2","f","true","img/T_ambi40.png","をる","same",""
"","","","","","html-keyboard-response","81","464226","0.0-9.0-0.0-0.0-0.0-1.2","null","<span style='color:GreenYellow; font-size: 70px;'>正确! </span>","null","","","","","","","","","","","","","","","","","","","","","","","feedback_test"
"","","","","","psychophysics","82","466454","0.0-9.0-0.0-0.0-0.0-0.3","1228","","j","","","","","","","","","","","","","key","j","16.657090909090723","768","405.2","f","false","img/C_ambi40.png","朋友","same",""
"","","","","","html-keyboard-response","83","466970","0.0-9.0-0.0-0.0-0.0-1.3","null","<span style='color:red; font-size: 70px;'>错误! </span>","null","","","","","","","","","","","","","","","","","","","","","","","feedback_test"
"","","","","","psychophysics","84","469244","0.0-9.0-0.0-0.0-0.0-0.4","1269","","f","","","","","","","","","","","","","key","f","16.656970588235282","768","405.2","f","true","img/C_ambi40.png","自我","same",""
"","","","","","html-keyboard-response","85","469756","0.0-9.0-0.0-0.0-0.0-1.4","null","<span style='color:GreenYellow; font-size: 70px;'>正确! </span>","null","","","","","","","","","","","","","","","","","","","","","","","feedback_test"
"","","","","","psychophysics","86","471779","0.0-9.0-0.0-0.0-0.0-0.5","1022","","j","","","","","","","","","","","","","key","j","16.65765833333377","768","405.2","j","true","img/H_ambi40.png","自我","same",""
"","","","","","html-keyboard-response","87","472282","0.0-9.0-0.0-0.0-0.0-1.5","null","<span style='color:GreenYellow; font-size: 70px;'>正确! </span>","null","","","","","","","","","","","","","","","","","","","","","","","feedback_test"
"","","","","","psychophysics","88","474184","0.0-9.0-0.0-0.0-0.0-0.6","896","","f","","","","","","","","","","","","","key","f","16.661106194689893","768","405.2","j","false","img/C_ambi40.png","生人","same",""
"","","","","","html-keyboard-response","89","474696","0.0-9.0-0.0-0.0-0.0-1.6","null","<span style='color:red; font-size: 70px;'>错误! </span>","null","","","","","","","","","","","","","","","","","","","","","","","feedback_test"
"","","","","","psychophysics","90","476559","0.0-9.0-0.0-0.0-0.0-0.7","856","","f","","","","","","","","","","","","","key","f","16.659126126125607","768","405.2","f","true","img/S_ambi40.png","自我","same",""
"","","","","","html-keyboard-response","91","477068","0.0-9.0-0.0-0.0-0.0-1.7","null","<span style='color:GreenYellow; font-size: 70px;'>正确! </span>","null","","","","","","","","","","","","","","","","","","","","","","","feedback_test"
"","","","","","psychophysics","92","479230","0.0-9.0-0.0-0.0-0.0-0.8","1162","","f","","","","","","","","","","","","","key","f","16.653601562499716","768","405.2","f","true","img/H_ambi40.png","生人","same",""
"","","","","","html-keyboard-response","93","479737","0.0-9.0-0.0-0.0-0.0-1.8","null","<span style='color:GreenYellow; font-size: 70px;'>正确! </span>","null","","","","","","","","","","","","","","","","","","","","","","","feedback_test"
"","","","","","psychophysics","94","481490","0.0-9.0-0.0-0.0-0.0-0.9","744","","f","","","","","","","","","","","","","key","f","16.655009615385026","768","405.2","j","false","img/H_ambi40.png","自我","same",""
"","","","","","html-keyboard-response","95","481997","0.0-9.0-0.0-0.0-0.0-1.9","null","<span style='color:red; font-size: 70px;'>错误! </span>","null","","","","","","","","","","","","","","","","","","","","","","","feedback_test"
"","","","","","psychophysics","96","484261","0.0-9.0-0.0-0.0-0.0-0.10","1262","","j","","","","","","","","","","","","","key","j","16.65621481481422","768","405.2","j","true","img/C_ambi40.png","生人","same",""
"","","","","","html-keyboard-response","97","484776","0.0-9.0-0.0-0.0-0.0-1.10","null","<span style='color:GreenYellow; font-size: 70px;'>正确! </span>","null","","","","","","","","","","","","","","","","","","","","","","","feedback_test"
"","","","","","psychophysics","98","486581","0.0-9.0-0.0-0.0-0.0-0.11","800","","f","","","","","","","","","","","","","key","f","16.656564814814676","768","405.2","j","false","img/S_ambi40.png","朋友","same",""
"","","","","","html-keyboard-response","99","487087","0.0-9.0-0.0-0.0-0.0-1.11","null","<span style='color:red; font-size: 70px;'>错误! </span>","null","","","","","","","","","","","","","","","","","","","","","","","feedback_test"
"","","","","","psychophysics","100","488754","0.0-9.0-0.0-0.0-0.0-0.12","658","","f","","","","","","","","","","","","","key","f","16.658404040404342","768","405.2","f","true","img/T_ambi40.png","をる","same",""
"","","","","","html-keyboard-response","101","489266","0.0-9.0-0.0-0.0-0.0-1.12","null","<span style='color:GreenYellow; font-size: 70px;'>正确! </span>","null","","","","","","","","","","","","","","","","","","","","","","","feedback_test"
"","","","","","psychophysics","102","491296","0.0-9.0-0.0-0.0-0.0-0.13","1017","","f","","","","","","","","","","","","","key","f","16.66068595041394","768","405.2","f","true","img/S_ambi40.png","生人","same",""
"","","","","","html-keyboard-response","103","491803","0.0-9.0-0.0-0.0-0.0-1.13","null","<span style='color:GreenYellow; font-size: 70px;'>正确! </span>","null","","","","","","","","","","","","","","","","","","","","","","","feedback_test"
"","","","","","psychophysics","104","493934","0.0-9.0-0.0-0.0-0.0-0.14","1123","","j","","","","","","","","","","","","","key","j","16.660165354330825","768","405.2","j","true","img/C_ambi40.png","生人","same",""
"","","","","","html-keyboard-response","105","494436","0.0-9.0-0.0-0.0-0.0-1.14","null","<span style='color:GreenYellow; font-size: 70px;'>正确! </span>","null","","","","","","","","","","","","","","","","","","","","","","","feedback_test"
"","","","","","psychophysics","106","496496","0.0-9.0-0.0-0.0-0.0-0.15","1054","","j","","","","","","","","","","","","","key","j","16.657813008129786","768","405.2","j","true","img/S_ambi40.png","朋友","same",""
"","","","","","html-keyboard-response","107","497002","0.0-9.0-0.0-0.0-0.0-1.15","null","<span style='color:GreenYellow; font-size: 70px;'>正确! </span>","null","","","","","","","","","","","","","","","","","","","","","","","feedback_test"
"","","","","","psychophysics","108","499201","0.0-9.0-0.0-0.0-0.0-0.16","1194","","j","","","","","","","","","","","","","key","j","16.657908396946464","768","405.2","j","true","img/S_ambi40.png","朋友","same",""
"","","","","","html-keyboard-response","109","499705","0.0-9.0-0.0-0.0-0.0-1.16","null","<span style='color:GreenYellow; font-size: 70px;'>正确! </span>","null","","","","","","","","","","","","","","","","","","","","","","","feedback_test"
"","","","","","psychophysics","110","501856","0.0-9.0-0.0-0.0-0.0-0.17","1149","","j","","","","","","","","","","","","","key","j","16.66009302325583","768","405.2","j","true","img/H_ambi40.png","自我","same",""
"","","","","","html-keyboard-response","111","502358","0.0-9.0-0.0-0.0-0.0-1.17","null","<span style='color:GreenYellow; font-size: 70px;'>正确! </span>","null","","","","","","","","","","","","","","","","","","","","","","","feedback_test"
"","","","","","psychophysics","112","504428","0.0-9.0-0.0-0.0-0.0-0.18","1056","","j","","","","","","","","","","","","","key","j","16.654284552845166","768","405.2","j","true","img/C_ambi40.png","生人","same",""
"","","","","","html-keyboard-response","113","504938","0.0-9.0-0.0-0.0-0.0-1.18","null","<span style='color:GreenYellow; font-size: 70px;'>正确! </span>","null","","","","","","","","","","","","","","","","","","","","","","","feedback_test"
"","","","","","psychophysics","114","506642","0.0-9.0-0.0-0.0-0.0-0.19","691","","f","","","","","","","","","","","","","key","f","16.661861386138597","768","405.2","f","true","img/T_ambi40.png","をる","same",""
"","","","","","html-keyboard-response","115","507149","0.0-9.0-0.0-0.0-0.0-1.19","null","<span style='color:GreenYellow; font-size: 70px;'>正确! </span>","null","","","","","","","","","","","","","","","","","","","","","","","feedback_test"
"","","","","","psychophysics","116","509577","0.0-9.0-0.0-0.0-0.0-0.20","1426","","f","","","","","","","","","","","","","key","f","16.657248275862717","768","405.2","j","false","img/S_ambi40.png","朋友","same",""
"","","","","","html-keyboard-response","117","510082","0.0-9.0-0.0-0.0-0.0-1.20","null","<span style='color:red; font-size: 70px;'>错误! </span>","null","","","","","","","","","","","","","","","","","","","","","","","feedback_test"
"","","","","","psychophysics","118","512233","0.0-9.0-0.0-0.0-0.0-0.21","1151","","f","","","","","","","","","","","","","key","f","16.659984375000022","768","405.2","f","true","img/H_ambi40.png","生人","same",""
"","","","","","html-keyboard-response","119","512741","0.0-9.0-0.0-0.0-0.0-1.21","null","<span style='color:GreenYellow; font-size: 70px;'>正确! </span>","null","","","","","","","","","","","","","","","","","","","","","","","feedback_test"
"","","","","","psychophysics","120","514503","0.0-9.0-0.0-0.0-0.0-0.22","758","","f","","","","","","","","","","","","","key","f","16.658323809523356","768","405.2","f","true","img/C_ambi40.png","朋友","same",""
"","","","","","html-keyboard-response","121","515006","0.0-9.0-0.0-0.0-0.0-1.22","null","<span style='color:GreenYellow; font-size: 70px;'>正确! </span>","null","","","","","","","","","","","","","","","","","","","","","","","feedback_test"
"","","","","","psychophysics","122","516729","0.0-9.0-0.0-0.0-0.0-0.23","714","","f","","","","","","","","","","","","","key","f","16.656274509803374","768","405.2","j","false","img/H_ambi40.png","自我","same",""
"","","","","","html-keyboard-response","123","517242","0.0-9.0-0.0-0.0-0.0-1.23","null","<span style='color:red; font-size: 70px;'>错误! </span>","null","","","","","","","","","","","","","","","","","","","","","","","feedback_test"
"","","","","","psychophysics","124","519135","0.0-9.0-0.0-0.0-0.0-0.24","888","","f","","","","","","","","","","","","","key","f","16.657123893805352","768","405.2","j","false","img/S_ambi40.png","朋友","same",""
"","","","","","html-keyboard-response","125","519647","0.0-9.0-0.0-0.0-0.0-1.24","null","<span style='color:red; font-size: 70px;'>错误! </span>","null","","","","","","","","","","","","","","","","","","","","","","","feedback_test"
"","","","","","psychophysics","126","521418","0.0-9.0-0.0-0.0-0.0-0.25","757","","j","","","","","","","","","","","","","key","j","16.656980952381023","768","405.2","j","true","img/C_ambi40.png","生人","same",""
"","","","","","html-keyboard-response","127","521933","0.0-9.0-0.0-0.0-0.0-1.25","null","<span style='color:GreenYellow; font-size: 70px;'>正确! </span>","null","","","","","","","","","","","","","","","","","","","","","","","feedback_test"
"","","","","","psychophysics","128","523796","0.0-9.0-0.0-0.0-0.0-0.26","862","","f","","","","","","","","","","","","","key","f","16.655612612613016","768","405.2","f","true","img/S_ambi40.png","生人","same",""
"","","","","","html-keyboard-response","129","524306","0.0-9.0-0.0-0.0-0.0-1.26","null","<span style='color:GreenYellow; font-size: 70px;'>正确! </span>","null","","","","","","","","","","","","","","","","","","","","","","","feedback_test"
"","","","","","psychophysics","130","526283","0.0-9.0-0.0-0.0-0.0-0.27","974","","j","","","","","","","","","","","","","key","j","16.65795762711836","768","405.2","j","true","img/S_ambi40.png","朋友","same",""
"","","","","","html-keyboard-response","131","526787","0.0-9.0-0.0-0.0-0.0-1.27","null","<span style='color:GreenYellow; font-size: 70px;'>正确! </span>","null","","","","","","","","","","","","","","","","","","","","","","","feedback_test"
"","","","","","psychophysics","132","528667","0.0-9.0-0.0-0.0-0.0-0.28","876","","f","","","","","","","","","","","","","key","f","16.658053571429004","768","405.2","f","true","img/H_ambi40.png","朋友","same",""
"","","","","","html-keyboard-response","133","529172","0.0-9.0-0.0-0.0-0.0-1.28","null","<span style='color:GreenYellow; font-size: 70px;'>正确! </span>","null","","","","","","","","","","","","","","","","","","","","","","","feedback_test"
"","","","","","psychophysics","134","531081","0.0-9.0-0.0-0.0-0.0-0.29","907","","j","","","","","","","","","","","","","key","j","16.659833333333506","768","405.2","f","false","img/S_ambi40.png","自我","same",""
"","","","","","html-keyboard-response","135","531591","0.0-9.0-0.0-0.0-0.0-1.29","null","<span style='color:red; font-size: 70px;'>错误! </span>","null","","","","","","","","","","","","","","","","","","","","","","","feedback_test"
"","","","","","psychophysics","136","533679","0.0-9.0-0.0-0.0-0.0-0.30","1076","","f","","","","","","","","","","","","","key","f","16.65732258064541","768","405.2","f","true","img/C_ambi40.png","自我","same",""
"","","","","","html-keyboard-response","137","534195","0.0-9.0-0.0-0.0-0.0-1.30","null","<span style='color:GreenYellow; font-size: 70px;'>正确! </span>","null","","","","","","","","","","","","","","","","","","","","","","","feedback_test"
"","","","","","psychophysics","138","535914","0.0-9.0-0.0-0.0-0.0-0.31","710","","j","","","","","","","","","","","","","key","j","16.657617647058157","768","405.2","j","true","img/H_ambi40.png","自我","same",""
"","","","","","html-keyboard-response","139","536423","0.0-9.0-0.0-0.0-0.0-1.31","null","<span style='color:GreenYellow; font-size: 70px;'>正确! </span>","null","","","","","","","","","","","","","","","","","","","","","","","feedback_test"
"","","","","","psychophysics","140","538227","0.0-9.0-0.0-0.0-0.0-0.32","802","","j","","","","","","","","","","","","","key","j","16.65972897196167","768","405.2","j","true","img/H_ambi40.png","自我","same",""
"","","","","","html-keyboard-response","141","538737","0.0-9.0-0.0-0.0-0.0-1.32","null","<span style='color:GreenYellow; font-size: 70px;'>正确! </span>","null","","","","","","","","","","","","","","","","","","","","","","","feedback_test"
"","","","","","psychophysics","142","540341","0.0-9.0-0.0-0.0-0.0-0.33","602","","f","","","","","","","","","","","","","key","f","16.6579473684211","768","405.2","f","true","img/T_ambi40.png","をる","same",""
"","","","","","html-keyboard-response","143","540841","0.0-9.0-0.0-0.0-0.0-1.33","null","<span style='color:GreenYellow; font-size: 70px;'>正确! </span>","null","","","","","","","","","","","","","","","","","","","","","","","feedback_test"
"","","","","","psychophysics","144","543291","0.0-9.0-0.0-0.0-0.0-0.34","1449","","f","","","","","","","","","","","","","key","f","16.656869863014037","768","405.2","j","false","img/C_ambi40.png","生人","same",""
"","","","","","html-keyboard-response","145","543801","0.0-9.0-0.0-0.0-0.0-1.34","null","<span style='color:red; font-size: 70px;'>错误! </span>","null","","","","","","","","","","","","","","","","","","","","","","","feedback_test"
"","","","","","psychophysics","146","545691","0.0-9.0-0.0-0.0-0.0-0.35","877","","f","","","","","","","","","","","","","key","f","16.65495535714269","768","405.2","f","true","img/T_ambi40.png","をる","same",""
"","","","","","html-keyboard-response","147","546199","0.0-9.0-0.0-0.0-0.0-1.35","null","<span style='color:GreenYellow; font-size: 70px;'>正确! </span>","null","","","","","","","","","","","","","","","","","","","","","","","feedback_test"
"","","","","","psychophysics","148","548220","0.0-9.0-0.0-0.0-0.0-0.36","1006","","f","","","","","","","","","","","","","key","f","16.657666666667016","768","405.2","j","false","img/S_ambi40.png","朋友","same",""
"","","","","","html-keyboard-response","149","548724","0.0-9.0-0.0-0.0-0.0-1.36","null","<span style='color:red; font-size: 70px;'>错误! </span>","null","","","","","","","","","","","","","","","","","","","","","","","feedback_test"
"","","","","","psychophysics","150","550355","0.0-9.0-0.0-0.0-0.0-0.37","626","","f","","","","","","","","","","","","","key","f","16.661865979381453","768","405.2","f","true","img/T_ambi40.png","をる","same",""
"","","","","","html-keyboard-response","151","550861","0.0-9.0-0.0-0.0-0.0-1.37","null","<span style='color:GreenYellow; font-size: 70px;'>正确! </span>","null","","","","","","","","","","","","","","","","","","","","","","","feedback_test"
"","","","","","psychophysics","152","552883","0.0-9.0-0.0-0.0-0.0-0.38","1021","","f","","","","","","","","","","","","","key","f","16.654308333333272","768","405.2","f","true","img/S_ambi40.png","自我","same",""
"","","","","","html-keyboard-response","153","553390","0.0-9.0-0.0-0.0-0.0-1.38","null","<span style='color:GreenYellow; font-size: 70px;'>正确! </span>","null","","","","","","","","","","","","","","","","","","","","","","","feedback_test"
"","","","","","psychophysics","154","555111","0.0-9.0-0.0-0.0-0.0-0.39","717","","j","","","","","","","","","","","","","key","j","16.657378640776336","768","405.2","j","true","img/H_ambi40.png","自我","same",""
"","","","","","html-keyboard-response","155","555619","0.0-9.0-0.0-0.0-0.0-1.39","null","<span style='color:GreenYellow; font-size: 70px;'>正确! </span>","null","","","","","","","","","","","","","","","","","","","","","","","feedback_test"
"","","","","","psychophysics","156","557324","0.0-9.0-0.0-0.0-0.0-0.40","699","","f","","","","","","","","","","","","","key","f","16.654940594059166","768","405.2","f","true","img/T_ambi40.png","をる","same",""
"","","","","","html-keyboard-response","157","557840","0.0-9.0-0.0-0.0-0.0-1.40","null","<span style='color:GreenYellow; font-size: 70px;'>正确! </span>","null","","","","","","","","","","","","","","","","","","","","","","","feedback_test"
"","","","","","psychophysics","158","559617","0.0-9.0-0.0-0.0-0.0-0.41","766","","f","","","","","","","","","","","","","key","f","16.655714285714065","768","405.2","j","false","img/S_ambi40.png","朋友","same",""
"","","","","","html-keyboard-response","159","560133","0.0-9.0-0.0-0.0-0.0-1.41","null","<span style='color:red; font-size: 70px;'>错误! </span>","null","","","","","","","","","","","","","","","","","","","","","","","feedback_test"
"","","","","","psychophysics","160","562146","0.0-9.0-0.0-0.0-0.0-0.42","1007","","f","","","","","","","","","","","","","key","f","16.659066666666572","768","405.2","j","false","img/S_ambi40.png","朋友","same",""
"","","","","","html-keyboard-response","161","562655","0.0-9.0-0.0-0.0-0.0-1.42","null","<span style='color:red; font-size: 70px;'>错误! </span>","null","","","","","","","","","","","","","","","","","","","","","","","feedback_test"
"","","","","","psychophysics","162","564305","0.0-9.0-0.0-0.0-0.0-0.43","649","","j","","","","","","","","","","","","","key","j","16.65951020408146","768","405.2","j","true","img/C_ambi40.png","生人","same",""
"","","","","","html-keyboard-response","163","564821","0.0-9.0-0.0-0.0-0.0-1.43","null","<span style='color:GreenYellow; font-size: 70px;'>正确! </span>","null","","","","","","","","","","","","","","","","","","","","","","","feedback_test"
"","","","","","psychophysics","164","566364","0.0-9.0-0.0-0.0-0.0-0.44","528","","f","","","","","","","","","","","","","key","f","16.65734065934161","768","405.2","f","true","img/T_ambi40.png","をる","same",""
"","","","","","html-keyboard-response","165","566878","0.0-9.0-0.0-0.0-0.0-1.44","null","<span style='color:GreenYellow; font-size: 70px;'>正确! </span>","null","","","","","","","","","","","","","","","","","","","","","","","feedback_test"
"","","","","","psychophysics","166","568690","0.0-9.0-0.0-0.0-0.0-0.45","805","","f","","","","","","","","","","","","","key","f","16.657324074074428","768","405.2","f","true","img/H_ambi40.png","生人","same",""
"","","","","","html-keyboard-response","167","569201","0.0-9.0-0.0-0.0-0.0-1.45","null","<span style='color:GreenYellow; font-size: 70px;'>正确! </span>","null","","","","","","","","","","","","","","","","","","","","","","","feedback_test"
"","","","","","psychophysics","168","571146","0.0-9.0-0.0-0.0-0.0-0.46","929","","f","","","","","","","","","","","","","key","f","16.66063478260868","768","405.2","f","true","img/S_ambi40.png","生人","same",""
"","","","","","html-keyboard-response","169","571650","0.0-9.0-0.0-0.0-0.0-1.46","null","<span style='color:GreenYellow; font-size: 70px;'>正确! </span>","null","","","","","","","","","","","","","","","","","","","","","","","feedback_test"
"","","","","","psychophysics","170","573585","0.0-9.0-0.0-0.0-0.0-0.47","924","","j","","","","","","","","","","","","","key","j","16.658278260869988","768","405.2","j","true","img/C_ambi40.png","生人","same",""
"","","","","","html-keyboard-response","171","574091","0.0-9.0-0.0-0.0-0.0-1.47","null","<span style='color:GreenYellow; font-size: 70px;'>正确! </span>","null","","","","","","","","","","","","","","","","","","","","","","","feedback_test"
"","","","","","psychophysics","172","576170","0.0-9.0-0.0-0.0-0.0-0.48","1072","","f","","","","","","","","","","","","","key","f","16.659169354839364","768","405.2","f","true","img/C_ambi40.png","自我","same",""
"","","","","","html-keyboard-response","173","576673","0.0-9.0-0.0-0.0-0.0-1.48","null","<span style='color:GreenYellow; font-size: 70px;'>正确! </span>","null","","","","","","","","","","","","","","","","","","","","","","","feedback_test"
"","","","","","psychophysics","174","578857","0.0-9.0-0.0-0.0-0.0-0.49","1178","","j","","","","","","","","","","","","","key","j","16.65735384615389","768","405.2","j","true","img/H_ambi40.png","自我","same",""
"","","","","","html-keyboard-response","175","579364","0.0-9.0-0.0-0.0-0.0-1.49","null","<span style='color:GreenYellow; font-size: 70px;'>正确! </span>","null","","","","","","","","","","","","","","","","","","","","","","","feedback_test"
"","","","","","psychophysics","176","581132","0.0-9.0-0.0-0.0-0.0-0.50","754","","j","","","","","","","","","","","","","key","j","16.654561904761277","768","405.2","f","false","img/C_ambi40.png","朋友","same",""
"","","","","","html-keyboard-response","177","581640","0.0-9.0-0.0-0.0-0.0-1.50","null","<span style='color:red; font-size: 70px;'>错误! </span>","null","","","","","","","","","","","","","","","","","","","","","","","feedback_test"
"","","","","","psychophysics","178","583238","0.0-9.0-0.0-0.0-0.0-0.51","593","","j","","","","","","","","","","","","","key","j","16.658463157894776","768","405.2","j","true","img/C_ambi40.png","生人","same",""
"","","","","","html-keyboard-response","179","583746","0.0-9.0-0.0-0.0-0.0-1.51","null","<span style='color:GreenYellow; font-size: 70px;'>正确! </span>","null","","","","","","","","","","","","","","","","","","","","","","","feedback_test"
"","","","","","psychophysics","180","585652","0.0-9.0-0.0-0.0-0.0-0.52","902","","f","","","","","","","","","","","","","key","f","16.658743362832585","768","405.2","f","true","img/H_ambi40.png","朋友","same",""
"","","","","","html-keyboard-response","181","586154","0.0-9.0-0.0-0.0-0.0-1.52","null","<span style='color:GreenYellow; font-size: 70px;'>正确! </span>","null","","","","","","","","","","","","","","","","","","","","","","","feedback_test"
"","","","","","psychophysics","182","588006","0.0-9.0-0.0-0.0-0.0-0.53","848","","j","","","","","","","","","","","","","key","j","16.65429999999998","768","405.2","j","true","img/H_ambi40.png","自我","same",""
"","","","","","html-keyboard-response","183","588521","0.0-9.0-0.0-0.0-0.0-1.53","null","<span style='color:GreenYellow; font-size: 70px;'>正确! </span>","null","","","","","","","","","","","","","","","","","","","","","","","feedback_test"
"","","","","","psychophysics","184","590283","0.0-9.0-0.0-0.0-0.0-0.54","760","","j","","","","","","","","","","","","","key","j","16.65781904761901","768","405.2","j","true","img/H_ambi40.png","自我","same",""
"","","","","","html-keyboard-response","185","590786","0.0-9.0-0.0-0.0-0.0-1.54","null","<span style='color:GreenYellow; font-size: 70px;'>正确! </span>","null","","","","","","","","","","","","","","","","","","","","","","","feedback_test"
"","","","","","psychophysics","186","592838","0.0-9.0-0.0-0.0-0.0-0.55","1050","","j","","","","","","","","","","","","","key","j","16.657617886178762","768","405.2","j","true","img/H_ambi40.png","自我","same",""
"","","","","","html-keyboard-response","187","593347","0.0-9.0-0.0-0.0-0.0-1.55","null","<span style='color:GreenYellow; font-size: 70px;'>正确! </span>","null","","","","","","","","","","","","","","","","","","","","","","","feedback_test"
"","","","","","psychophysics","188","595296","0.0-9.0-0.0-0.0-0.0-0.56","941","","f","","","","","","","","","","","","","key","f","16.653215517241765","768","405.2","f","true","img/T_ambi40.png","をる","same",""
"","","","","","html-keyboard-response","189","595800","0.0-9.0-0.0-0.0-0.0-1.56","null","<span style='color:GreenYellow; font-size: 70px;'>正确! </span>","null","","","","","","","","","","","","","","","","","","","","","","","feedback_test"
"","","","","","psychophysics","190","597832","0.0-9.0-0.0-0.0-0.0-0.57","1029","","j","","","","","","","","","","","","","key","j","16.65771900826376","768","405.2","j","true","img/S_ambi40.png","朋友","same",""
"","","","","","html-keyboard-response","191","598340","0.0-9.0-0.0-0.0-0.0-1.57","null","<span style='color:GreenYellow; font-size: 70px;'>正确! </span>","null","","","","","","","","","","","","","","","","","","","","","","","feedback_test"
"","","","","","psychophysics","192","599999","0.0-9.0-0.0-0.0-0.0-0.58","648","","f","","","","","","","","","","","","","key","f","16.658530612244526","768","405.2","f","true","img/T_ambi40.png","をる","same",""
"","","","","","html-keyboard-response","193","600508","0.0-9.0-0.0-0.0-0.0-1.58","null","<span style='color:GreenYellow; font-size: 70px;'>正确! </span>","null","","","","","","","","","","","","","","","","","","","","","","","feedback_test"
"","","","","","psychophysics","194","602176","0.0-9.0-0.0-0.0-0.0-0.59","659","","j","","","","","","","","","","","","","key","j","16.661050505050685","768","405.2","f","false","img/H_ambi40.png","生人","same",""
"","","","","","html-keyboard-response","195","602687","0.0-9.0-0.0-0.0-0.0-1.59","null","<span style='color:red; font-size: 70px;'>错误! </span>","null","","","","","","","","","","","","","","","","","","","","","","","feedback_test"
"","","","","","psychophysics","196","604291","0.0-9.0-0.0-0.0-0.0-0.60","601","","f","","","","","","","","","","","","","key","f","16.657178947368735","768","405.2","f","true","img/T_ambi40.png","をる","same",""
"","","","","","html-keyboard-response","197","604795","0.0-9.0-0.0-0.0-0.0-1.60","null","<span style='color:GreenYellow; font-size: 70px;'>正确! </span>","null","","","","","","","","","","","","","","","","","","","","","","","feedback_test"
"","","","","","psychophysics","198","606740","0.0-9.0-0.0-0.0-0.0-0.61","943","","j","","","","","","","","","","","","","key","j","16.658146551723895","768","405.2","f","false","img/S_ambi40.png","自我","same",""
"","","","","","html-keyboard-response","199","607243","0.0-9.0-0.0-0.0-0.0-1.61","null","<span style='color:red; font-size: 70px;'>错误! </span>","null","","","","","","","","","","","","","","","","","","","","","","","feedback_test"
"","","","","","psychophysics","200","609147","0.0-9.0-0.0-0.0-0.0-0.62","901","","j","","","","","","","","","","","","","key","j","16.657184210526268","768","405.2","j","true","img/H_ambi40.png","自我","same",""
"","","","","","html-keyboard-response","201","609653","0.0-9.0-0.0-0.0-0.0-1.62","null","<span style='color:GreenYellow; font-size: 70px;'>正确! </span>","null","","","","","","","","","","","","","","","","","","","","","","","feedback_test"
"","","","","","psychophysics","202","611402","0.0-9.0-0.0-0.0-0.0-0.63","740","","f","","","","","","","","","","","","","key","f","16.656673076923024","768","405.2","f","true","img/H_ambi40.png","朋友","same",""
"","","","","","html-keyboard-response","203","611917","0.0-9.0-0.0-0.0-0.0-1.63","null","<span style='color:GreenYellow; font-size: 70px;'>正确! </span>","null","","","","","","","","","","","","","","","","","","","","","","","feedback_test"
"","","","","","psychophysics","204","613585","0.0-9.0-0.0-0.0-0.0-0.64","667","","j","","","","","","","","","","","","","key","j","16.657707070707193","768","405.2","j","true","img/S_ambi40.png","朋友","same",""
"","","","","","html-keyboard-response","205","614098","0.0-9.0-0.0-0.0-0.0-1.64","null","<span style='color:GreenYellow; font-size: 70px;'>正确! </span>","null","","","","","","","","","","","","","","","","","","","","","","","feedback_test"
"","","","","","psychophysics","206","616040","0.0-9.0-0.0-0.0-0.0-0.65","932","","f","","","","","","","","","","","","","key","f","16.657443478261122","768","405.2","j","false","img/C_ambi40.png","生人","same",""
"","","","","","html-keyboard-response","207","616544","0.0-9.0-0.0-0.0-0.0-1.65","null","<span style='color:red; font-size: 70px;'>错误! </span>","null","","","","","","","","","","","","","","","","","","","","","","","feedback_test"
"","","","","","psychophysics","208","618609","0.0-9.0-0.0-0.0-0.0-0.66","1054","","f","","","","","","","","","","","","","key","f","16.65500813008123","768","405.2","f","true","img/S_ambi40.png","生人","same",""
"","","","","","html-keyboard-response","209","619113","0.0-9.0-0.0-0.0-0.0-1.66","null","<span style='color:GreenYellow; font-size: 70px;'>正确! </span>","null","","","","","","","","","","","","","","","","","","","","","","","feedback_test"
"","","","","","psychophysics","210","621124","0.0-9.0-0.0-0.0-0.0-0.67","1002","","f","","","","","","","","","","","","","key","f","16.65507499999949","768","405.2","j","false","img/S_ambi40.png","朋友","same",""
"","","","","","html-keyboard-response","211","621629","0.0-9.0-0.0-0.0-0.0-1.67","null","<span style='color:red; font-size: 70px;'>错误! </span>","null","","","","","","","","","","","","","","","","","","","","","","","feedback_test"
"","","","","","psychophysics","212","623432","0.0-9.0-0.0-0.0-0.0-0.68","794","","j","","","","","","","","","","","","","key","j","16.65721495327144","768","405.2","j","true","img/C_ambi40.png","生人","same",""
"","","","","","html-keyboard-response","213","623942","0.0-9.0-0.0-0.0-0.0-1.68","null","<span style='color:GreenYellow; font-size: 70px;'>正确! </span>","null","","","","","","","","","","","","","","","","","","","","","","","feedback_test"
"","","","","","psychophysics","214","625518","0.0-9.0-0.0-0.0-0.0-0.69","564","","j","","","","","","","","","","","","","key","j","16.657225806451333","768","405.2","j","true","img/C_ambi40.png","生人","same",""
"","","","","","html-keyboard-response","215","626033","0.0-9.0-0.0-0.0-0.0-1.69","null","<span style='color:GreenYellow; font-size: 70px;'>正确! </span>","null","","","","","","","","","","","","","","","","","","","","","","","feedback_test"
"","","","","","psychophysics","216","627895","0.0-9.0-0.0-0.0-0.0-0.70","859","","f","","","","","","","","","","","","","key","f","16.657225225224614","768","405.2","f","true","img/C_ambi40.png","自我","same",""
"","","","","","html-keyboard-response","217","628399","0.0-9.0-0.0-0.0-0.0-1.70","null","<span style='color:GreenYellow; font-size: 70px;'>正确! </span>","null","","","","","","","","","","","","","","","","","","","","","","","feedback_test"
"","","","","","psychophysics","218","630489","0.0-9.0-0.0-0.0-0.0-0.71","1089","","f","","","","","","","","","","","","","key","f","16.660320000000297","768","405.2","f","true","img/C_ambi40.png","朋友","same",""
"","","","","","html-keyboard-response","219","631005","0.0-9.0-0.0-0.0-0.0-1.71","null","<span style='color:GreenYellow; font-size: 70px;'>正确! </span>","null","","","","","","","","","","","","","","","","","","","","","","","feedback_test"
"","","","","","psychophysics","220","632938","0.0-9.0-0.0-0.0-0.0-0.72","922","","j","","","","","","","","","","","","","key","j","16.654026086956424","768","405.2","j","true","img/S_ambi40.png","朋友","same",""
"","","","","","html-keyboard-response","221","633452","0.0-9.0-0.0-0.0-0.0-1.72","null","<span style='color:GreenYellow; font-size: 70px;'>正确! </span>","null","","","","","","","","","","","","","","","","","","","","","","","feedback_test"
"","","","","","psychophysics","222","635347","0.0-9.0-0.0-0.0-0.0-0.73","883","","f","","","","","","","","","","","","","key","f","16.65849999999981","768","405.2","f","true","img/T_ambi40.png","をる","same",""
"","","","","","html-keyboard-response","223","635854","0.0-9.0-0.0-0.0-0.0-1.73","null","<span style='color:GreenYellow; font-size: 70px;'>正确! </span>","null","","","","","","","","","","","","","","","","","","","","","","","feedback_test"
"","","","","","psychophysics","224","638186","0.0-9.0-0.0-0.0-0.0-0.74","1322","","f","","","","","","","","","","","","","key","f","16.656043165467224","768","405.2","f","true","img/S_ambi40.png","生人","same",""
"","","","","","html-keyboard-response","225","638689","0.0-9.0-0.0-0.0-0.0-1.74","null","<span style='color:GreenYellow; font-size: 70px;'>正确! </span>","null","","","","","","","","","","","","","","","","","","","","","","","feedback_test"
"","","","","","psychophysics","226","640854","0.0-9.0-0.0-0.0-0.0-0.75","1158","","f","","","","","","","","","","","","","key","f","16.654410852713134","768","405.2","f","true","img/H_ambi40.png","生人","same",""
"","","","","","html-keyboard-response","227","641366","0.0-9.0-0.0-0.0-0.0-1.75","null","<span style='color:GreenYellow; font-size: 70px;'>正确! </span>","null","","","","","","","","","","","","","","","","","","","","","","","feedback_test"
"","","","","","psychophysics","228","643135","0.0-9.0-0.0-0.0-0.0-0.76","758","","f","","","","","","","","","","","","","key","f","16.658247619047984","768","405.2","f","true","img/T_ambi40.png","をる","same",""
"","","","","","html-keyboard-response","229","643649","0.0-9.0-0.0-0.0-0.0-1.76","null","<span style='color:GreenYellow; font-size: 70px;'>正确! </span>","null","","","","","","","","","","","","","","","","","","","","","","","feedback_test"
"","","","","","psychophysics","230","645880","0.0-9.0-0.0-0.0-0.0-0.77","1221","","j","","","","","","","","","","","","","key","j","16.65921052631614","768","405.2","j","true","img/C_ambi40.png","生人","same",""
"","","","","","html-keyboard-response","231","646389","0.0-9.0-0.0-0.0-0.0-1.77","null","<span style='color:GreenYellow; font-size: 70px;'>正确! </span>","null","","","","","","","","","","","","","","","","","","","","","","","feedback_test"
"","","","","","psychophysics","232","648077","0.0-9.0-0.0-0.0-0.0-0.78","686","","f","","","","","","","","","","","","","key","f","16.66079207920783","768","405.2","j","false","img/S_ambi40.png","朋友","same",""
"","","","","","html-keyboard-response","233","648587","0.0-9.0-0.0-0.0-0.0-1.78","null","<span style='color:red; font-size: 70px;'>错误! </span>","null","","","","","","","","","","","","","","","","","","","","","","","feedback_test"
"","","","","","psychophysics","234","650289","0.0-9.0-0.0-0.0-0.0-0.79","700","","f","","","","","","","","","","","","","key","f","16.657382352940747","768","405.2","f","true","img/T_ambi40.png","をる","same",""
"","","","","","html-keyboard-response","235","650803","0.0-9.0-0.0-0.0-0.0-1.79","null","<span style='color:GreenYellow; font-size: 70px;'>正确! </span>","null","","","","","","","","","","","","","","","","","","","","","","","feedback_test"
"","","","","","psychophysics","236","652660","0.0-9.0-0.0-0.0-0.0-0.80","855","","j","","","","","","","","","","","","","key","j","16.65754954954966","768","405.2","j","true","img/H_ambi40.png","自我","same",""
"","","","","","html-keyboard-response","237","653174","0.0-9.0-0.0-0.0-0.0-1.80","null","<span style='color:GreenYellow; font-size: 70px;'>正确! </span>","null","","","","","","","","","","","","","","","","","","","","","","","feedback_test"
"","","","","","psychophysics","238","654937","0.0-9.0-0.0-0.0-0.0-0.81","751","","f","","","","","","","","","","","","","key","f","16.660685714285467","768","405.2","f","true","img/S_ambi40.png","自我","same",""
"","","","","","html-keyboard-response","239","655445","0.0-9.0-0.0-0.0-0.0-1.81","null","<span style='color:GreenYellow; font-size: 70px;'>正确! </span>","null","","","","","","","","","","","","","","","","","","","","","","","feedback_test"
"","","","","","psychophysics","240","657305","0.0-9.0-0.0-0.0-0.0-0.82","853","","j","","","","","","","","","","","","","key","j","16.653945945945846","768","405.2","f","false","img/H_ambi40.png","朋友","same",""
"","","","","","html-keyboard-response","241","657816","0.0-9.0-0.0-0.0-0.0-1.82","null","<span style='color:red; font-size: 70px;'>错误! </span>","null","","","","","","","","","","","","","","","","","","","","","","","feedback_test"
"","","","","","psychophysics","242","659854","0.0-9.0-0.0-0.0-0.0-0.83","1036","","j","","","","","","","","","","","","","key","j","16.658934426229624","768","405.2","f","false","img/C_ambi40.png","自我","same",""
"","","","","","html-keyboard-response","243","660360","0.0-9.0-0.0-0.0-0.0-1.83","null","<span style='color:red; font-size: 70px;'>错误! </span>","null","","","","","","","","","","","","","","","","","","","","","","","feedback_test"
"","","","","","psychophysics","244","662147","0.0-9.0-0.0-0.0-0.0-0.84","780","","j","","","","","","","","","","","","","key","j","16.661056603773996","768","405.2","j","true","img/C_ambi40.png","生人","same",""
"","","","","","html-keyboard-response","245","662659","0.0-9.0-0.0-0.0-0.0-1.84","null","<span style='color:GreenYellow; font-size: 70px;'>正确! </span>","null","","","","","","","","","","","","","","","","","","","","","","","feedback_test"
"","","","","","psychophysics","246","664507","0.0-9.0-0.0-0.0-0.0-0.85","842","","j","","","","","","","","","","","","","key","j","16.65769999999955","768","405.2","j","true","img/H_ambi40.png","自我","same",""
"","","","","","html-keyboard-response","247","665010","0.0-9.0-0.0-0.0-0.0-1.85","null","<span style='color:GreenYellow; font-size: 70px;'>正确! </span>","null","","","","","","","","","","","","","","","","","","","","","","","feedback_test"
"","","","","","psychophysics","248","666764","0.0-9.0-0.0-0.0-0.0-0.86","753","","j","","","","","","","","","","","","","key","j","16.657895238095495","768","405.2","j","true","img/H_ambi40.png","自我","same",""
"","","","","","html-keyboard-response","249","667273","0.0-9.0-0.0-0.0-0.0-1.86","null","<span style='color:GreenYellow; font-size: 70px;'>正确! </span>","null","","","","","","","","","","","","","","","","","","","","","","","feedback_test"
"","","","","","psychophysics","250","669590","0.0-9.0-0.0-0.0-0.0-0.87","1311","","j","","","","","","","","","","","","","key","j","16.65960144927553","768","405.2","j","true","img/C_ambi40.png","生人","same",""
"","","","","","html-keyboard-response","251","670092","0.0-9.0-0.0-0.0-0.0-1.87","null","<span style='color:GreenYellow; font-size: 70px;'>正确! </span>","null","","","","","","","","","","","","","","","","","","","","","","","feedback_test"
"","","","","","psychophysics","252","672259","0.0-9.0-0.0-0.0-0.0-0.88","1165","","j","","","","","","","","","","","","","key","j","16.65798449612407","768","405.2","j","true","img/S_ambi40.png","朋友","same",""
"","","","","","html-keyboard-response","253","672760","0.0-9.0-0.0-0.0-0.0-1.88","null","<span style='color:GreenYellow; font-size: 70px;'>正确! </span>","null","","","","","","","","","","","","","","","","","","","","","","","feedback_test"
"","","","","","psychophysics","254","675212","0.0-9.0-0.0-0.0-0.0-0.89","1442","","f","","","","","","","","","","","","","key","f","16.6570547945209","768","405.2","f","true","img/C_ambi40.png","朋友","same",""
"","","","","","html-keyboard-response","255","675719","0.0-9.0-0.0-0.0-0.0-1.89","null","<span style='color:GreenYellow; font-size: 70px;'>正确! </span>","null","","","","","","","","","","","","","","","","","","","","","","","feedback_test"
"","","","","","psychophysics","256","677469","0.0-9.0-0.0-0.0-0.0-0.90","744","","j","","","","","","","","","","","","","key","j","16.653884615384204","768","405.2","j","true","img/C_ambi40.png","生人","same",""
"","","","","","html-keyboard-response","257","677978","0.0-9.0-0.0-0.0-0.0-1.90","null","<span style='color:GreenYellow; font-size: 70px;'>正确! </span>","null","","","","","","","","","","","","","","","","","","","","","","","feedback_test"
"","","","","","psychophysics","258","679848","0.0-9.0-0.0-0.0-0.0-0.91","858","","j","","","","","","","","","","","","","key","j","16.658000000000527","768","405.2","j","true","img/S_ambi40.png","朋友","same",""
"","","","","","html-keyboard-response","259","680349","0.0-9.0-0.0-0.0-0.0-1.91","null","<span style='color:GreenYellow; font-size: 70px;'>正确! </span>","null","","","","","","","","","","","","","","","","","","","","","","","feedback_test"
"","","","","","psychophysics","260","682142","0.0-9.0-0.0-0.0-0.0-0.92","786","","j","","","","","","","","","","","","","key","j","16.655327102803696","768","405.2","j","true","img/H_ambi40.png","自我","same",""
"","","","","","html-keyboard-response","261","682657","0.0-9.0-0.0-0.0-0.0-1.92","null","<span style='color:GreenYellow; font-size: 70px;'>正确! </span>","null","","","","","","","","","","","","","","","","","","","","","","","feedback_test"
"","","","","","psychophysics","262","684822","0.0-9.0-0.0-0.0-0.0-0.93","1152","","f","","","","","","","","","","","","","key","f","16.654240310077498","768","405.2","f","true","img/H_ambi40.png","生人","same",""
"","","","","","html-keyboard-response","263","685337","0.0-9.0-0.0-0.0-0.0-1.93","null","<span style='color:GreenYellow; font-size: 70px;'>正确! </span>","null","","","","","","","","","","","","","","","","","","","","","","","feedback_test"
"","","","","","psychophysics","264","687270","0.0-9.0-0.0-0.0-0.0-0.94","919","","f","","","","","","","","","","","","","key","f","16.656443478261203","768","405.2","f","true","img/T_ambi40.png","をる","same",""
"","","","","","html-keyboard-response","265","687780","0.0-9.0-0.0-0.0-0.0-1.94","null","<span style='color:GreenYellow; font-size: 70px;'>正确! </span>","null","","","","","","","","","","","","","","","","","","","","","","","feedback_test"
"","","","","","psychophysics","266","689711","0.0-9.0-0.0-0.0-0.0-0.95","929","","f","","","","","","","","","","","","","key","f","16.65672173912981","768","405.2","f","true","img/T_ambi40.png","をる","same",""
"","","","","","html-keyboard-response","267","690216","0.0-9.0-0.0-0.0-0.0-1.95","null","<span style='color:GreenYellow; font-size: 70px;'>正确! </span>","null","","","","","","","","","","","","","","","","","","","","","","","feedback_test"
"","","","","","psychophysics","268","692133","0.0-9.0-0.0-0.0-0.0-0.96","916","","j","","","","","","","","","","","","","key","j","16.65004385964896","768","405.2","f","false","img/C_ambi40.png","自我","same",""
"","","","","","html-keyboard-response","269","692643","0.0-9.0-0.0-0.0-0.0-1.96","null","<span style='color:red; font-size: 70px;'>错误! </span>","null","","","","","","","","","","","","","","","","","","","","","","","feedback_test"
"","","","","","psychophysics","270","694689","0.0-9.0-0.0-0.0-0.0-0.97","1041","","f","","","","","","","","","","","","","key","f","16.65733606557335","768","405.2","f","true","img/S_ambi40.png","生人","same",""
"","","","","","html-keyboard-response","271","695192","0.0-9.0-0.0-0.0-0.0-1.97","null","<span style='color:GreenYellow; font-size: 70px;'>正确! </span>","null","","","","","","","","","","","","","","","","","","","","","","","feedback_test"
"","","","","","psychophysics","272","697136","0.0-9.0-0.0-0.0-0.0-0.98","938","","j","","","","","","","","","","","","","key","j","16.658336206896287","768","405.2","j","true","img/S_ambi40.png","朋友","same",""
"","","","","","html-keyboard-response","273","697638","0.0-9.0-0.0-0.0-0.0-1.98","null","<span style='color:GreenYellow; font-size: 70px;'>正确! </span>","null","","","","","","","","","","","","","","","","","","","","","","","feedback_test"
"","","","","","psychophysics","274","699531","0.0-9.0-0.0-0.0-0.0-0.99","885","","f","","","","","","","","","","","","","key","f","16.65550442477915","768","405.2","f","true","img/S_ambi40.png","自我","same",""
"","","","","","html-keyboard-response","275","700038","0.0-9.0-0.0-0.0-0.0-1.99","null","<span style='color:GreenYellow; font-size: 70px;'>正确! </span>","null","","","","","","","","","","","","","","","","","","","","","","","feedback_test"
"","","","","","psychophysics","276","701895","0.0-9.0-0.0-0.0-0.0-0.100","855","","f","","","","","","","","","","","","","key","f","16.65618918918866","768","405.2","f","true","img/T_ambi40.png","をる","same",""
"","","","","","html-keyboard-response","277","702398","0.0-9.0-0.0-0.0-0.0-1.100","null","<span style='color:GreenYellow; font-size: 70px;'>正确! </span>","null","","","","","","","","","","","","","","","","","","","","","","","feedback_test"
"","","","","","psychophysics","278","704909","0.0-9.0-0.0-0.0-0.0-0.101","null","","null","","","","","","","","","","","","","key","null","16.65539333333339","768","405.2","j","false","img/H_ambi40.png","自我","same",""
"","","","","","html-keyboard-response","279","705423","0.0-9.0-0.0-0.0-0.0-1.101","null","<span class='add_' style='color:yellow; font-size: 70px;'> 太慢! </span>","null","","","","","","","","","","","","","","","","","","","","","","","feedback_test"
"","","","","","psychophysics","280","707448","0.0-9.0-0.0-0.0-0.0-0.102","1023","","j","","","","","","","","","","","","","key","j","16.648216666667334","768","405.2","j","true","img/S_ambi40.png","朋友","same",""
"","","","","","html-keyboard-response","281","707953","0.0-9.0-0.0-0.0-0.0-1.102","null","<span style='color:GreenYellow; font-size: 70px;'>正确! </span>","null","","","","","","","","","","","","","","","","","","","","","","","feedback_test"
"","","","","","psychophysics","282","709746","0.0-9.0-0.0-0.0-0.0-0.103","790","","j","","","","","","","","","","","","","key","j","16.658504672896846","768","405.2","j","true","img/C_ambi40.png","生人","same",""
"","","","","","html-keyboard-response","283","710260","0.0-9.0-0.0-0.0-0.0-1.103","null","<span style='color:GreenYellow; font-size: 70px;'>正确! </span>","null","","","","","","","","","","","","","","","","","","","","","","","feedback_test"
"","","","","","psychophysics","284","712154","0.0-9.0-0.0-0.0-0.0-0.104","890","","f","","","","","","","","","","","","","key","f","16.65677678571436","768","405.2","f","true","img/H_ambi40.png","朋友","same",""
"","","","","","html-keyboard-response","285","712655","0.0-9.0-0.0-0.0-0.0-1.104","null","<span style='color:GreenYellow; font-size: 70px;'>正确! </span>","null","","","","","","","","","","","","","","","","","","","","","","","feedback_test"
"","","","","","psychophysics","286","715009","0.0-9.0-0.0-0.0-0.0-0.105","1351","","j","","","","","","","","","","","","","key","j","16.657164285714472","768","405.2","j","true","img/C_ambi40.png","生人","same",""
"","","","","","html-keyboard-response","287","715523","0.0-9.0-0.0-0.0-0.0-1.105","null","<span style='color:GreenYellow; font-size: 70px;'>正确! </span>","null","","","","","","","","","","","","","","","","","","","","","","","feedback_test"
"","","","","","psychophysics","288","717476","0.0-9.0-0.0-0.0-0.0-0.106","940","","j","","","","","","","","","","","","","key","j","16.657051724138878","768","405.2","f","false","img/C_ambi40.png","朋友","same",""
"","","","","","html-keyboard-response","289","717978","0.0-9.0-0.0-0.0-0.0-1.106","null","<span style='color:red; font-size: 70px;'>错误! </span>","null","","","","","","","","","","","","","","","","","","","","","","","feedback_test"
"","","","","","psychophysics","290","719840","0.0-9.0-0.0-0.0-0.0-0.107","856","","j","","","","","","","","","","","","","key","j","16.658306306306702","768","405.2","j","true","img/H_ambi40.png","自我","same",""
"","","","","","html-keyboard-response","291","720354","0.0-9.0-0.0-0.0-0.0-1.107","null","<span style='color:GreenYellow; font-size: 70px;'>正确! </span>","null","","","","","","","","","","","","","","","","","","","","","","","feedback_test"
"","","","","","html-keyboard-response","292","722117","0.0-9.0-0.0-0.0-1.0","1762","<style>.context{color:white; font-size: 35px; line-height:40px}</style>                          <div><p class='context'>您正确回答了79% 的试次。</p><p class='context'>您的平均反应时为908毫秒。</p><p class='context'>请按任意键进入休息</p></div>"," ","","","","","","","","","","","","","","","","","","","","","","",""
"","","","","","html-button-response","293","726413","0.0-9.0-0.0-0.0-2.0","4293","
                    <p>您当前还剩余5组实验</p>
                    <p>现在是休息时间，当您结束休息后，您可以点击 结束休息 按钮 继续</p>
                    <p>建议休息时间还剩余<span id=""iii"">60</span>秒</p>","0","","","","","","","","","","","","","","","","","","","","","","",""
"","","","","","psychophysics","294","728451","0.0-9.0-0.0-0.0-0.1-0.108","1029","","j","","","","","","","","","","","","","key","j","16.65294214876076","768","405.2","j","true","img/H_ambi40.png","自我","same",""
"","","","","","html-keyboard-response","295","728955","0.0-9.0-0.0-0.0-0.1-1.108","null","<span style='color:GreenYellow; font-size: 70px;'>正确! </span>","null","","","","","","","","","","","","","","","","","","","","","","","feedback_test"
"","","","","","psychophysics","296","731177","0.0-9.0-0.0-0.0-0.1-0.109","1222","","f","","","","","","","","","","","","","key","f","16.657736842105642","768","405.2","j","false","img/C_ambi40.png","生人","same",""
"","","","","","html-keyboard-response","297","731684","0.0-9.0-0.0-0.0-0.1-1.109","null","<span style='color:red; font-size: 70px;'>错误! </span>","null","","","","","","","","","","","","","","","","","","","","","","","feedback_test"
"","","","","","psychophysics","298","733659","0.0-9.0-0.0-0.0-0.1-0.110","966","","f","","","","","","","","","","","","","key","f","16.654550847457326","768","405.2","f","true","img/C_ambi40.png","自我","same",""
"","","","","","html-keyboard-response","299","734166","0.0-9.0-0.0-0.0-0.1-1.110","null","<span style='color:GreenYellow; font-size: 70px;'>正确! </span>","null","","","","","","","","","","","","","","","","","","","","","","","feedback_test"
"","","","","","psychophysics","300","735819","0.0-9.0-0.0-0.0-0.1-0.111","645","","f","","","","","","","","","","","","","key","f","16.654693877551352","768","405.2","f","true","img/T_ambi40.png","をる","same",""
"","","","","","html-keyboard-response","301","736335","0.0-9.0-0.0-0.0-0.1-1.111","null","<span style='color:GreenYellow; font-size: 70px;'>正确! </span>","null","","","","","","","","","","","","","","","","","","","","","","","feedback_test"
"","","","","","psychophysics","302","737907","0.0-9.0-0.0-0.0-0.1-0.112","571","","j","","","","","","","","","","","","","key","j","16.66229787234098","768","405.2","j","true","img/S_ambi40.png","朋友","same",""
"","","","","","html-keyboard-response","303","738415","0.0-9.0-0.0-0.0-0.1-1.112","null","<span style='color:GreenYellow; font-size: 70px;'>正确! </span>","null","","","","","","","","","","","","","","","","","","","","","","","feedback_test"
"","","","","","psychophysics","304","740310","0.0-9.0-0.0-0.0-0.1-0.113","887","","j","","","","","","","","","","","","","key","j","16.65420353982342","768","405.2","j","true","img/C_ambi40.png","生人","same",""
"","","","","","html-keyboard-response","305","740813","0.0-9.0-0.0-0.0-0.1-1.113","null","<span style='color:GreenYellow; font-size: 70px;'>正确! </span>","null","","","","","","","","","","","","","","","","","","","","","","","feedback_test"
"","","","","","psychophysics","306","742662","0.0-9.0-0.0-0.0-0.1-0.114","841","","f","","","","","","","","","","","","","key","f","16.65724545454564","768","405.2","f","true","img/H_ambi40.png","生人","same",""
"","","","","","html-keyboard-response","307","743170","0.0-9.0-0.0-0.0-0.1-1.114","null","<span style='color:GreenYellow; font-size: 70px;'>正确! </span>","null","","","","","","","","","","","","","","","","","","","","","","","feedback_test"
"","","","","","psychophysics","308","744808","0.0-9.0-0.0-0.0-0.1-0.115","636","","f","","","","","","","","","","","","","key","f","16.65919587628906","768","405.2","f","true","img/T_ambi40.png","をる","same",""
"","","","","","html-keyboard-response","309","745316","0.0-9.0-0.0-0.0-0.1-1.115","null","<span style='color:GreenYellow; font-size: 70px;'>正确! </span>","null","","","","","","","","","","","","","","","","","","","","","","","feedback_test"
"","","","","","psychophysics","310","747024","0.0-9.0-0.0-0.0-0.1-0.116","707","","j","","","","","","","","","","","","","key","j","16.66181372549024","768","405.2","j","true","img/H_ambi40.png","自我","same",""
"","","","","","html-keyboard-response","311","747533","0.0-9.0-0.0-0.0-0.1-1.116","null","<span style='color:GreenYellow; font-size: 70px;'>正确! </span>","null","","","","","","","","","","","","","","","","","","","","","","","feedback_test"
"","","","","","psychophysics","312","749349","0.0-9.0-0.0-0.0-0.1-0.117","814","","j","","","","","","","","","","","","","key","j","16.649719626168398","768","405.2","f","false","img/C_ambi40.png","朋友","same",""
"","","","","","html-keyboard-response","313","749864","0.0-9.0-0.0-0.0-0.1-1.117","null","<span style='color:red; font-size: 70px;'>错误! </span>","null","","","","","","","","","","","","","","","","","","","","","","","feedback_test"
"","","","","","psychophysics","314","751544","0.0-9.0-0.0-0.0-0.1-0.118","677","","j","","","","","","","","","","","","","key","j","16.657929999999467","768","405.2","j","true","img/S_ambi40.png","朋友","same",""
"","","","","","html-keyboard-response","315","752047","0.0-9.0-0.0-0.0-0.1-1.118","null","<span style='color:GreenYellow; font-size: 70px;'>正确! </span>","null","","","","","","","","","","","","","","","","","","","","","","","feedback_test"
"","","","","","psychophysics","316","754500","0.0-9.0-0.0-0.0-0.1-0.119","1451","","j","","","","","","","","","","","","","key","j","16.64837671232837","768","405.2","f","false","img/S_ambi40.png","自我","same",""
"","","","","","html-keyboard-response","317","755002","0.0-9.0-0.0-0.0-0.1-1.119","null","<span style='color:red; font-size: 70px;'>错误! </span>","null","","","","","","","","","","","","","","","","","","","","","","","feedback_test"
"","","","","","psychophysics","318","756680","0.0-9.0-0.0-0.0-0.1-0.120","666","","j","","","","","","","","","","","","","key","j","16.655029999999098","768","405.2","j","true","img/H_ambi40.png","自我","same",""
"","","","","","html-keyboard-response","319","757184","0.0-9.0-0.0-0.0-0.1-1.120","null","<span style='color:GreenYellow; font-size: 70px;'>正确! </span>","null","","","","","","","","","","","","","","","","","","","","","","","feedback_test"
"","","","","","psychophysics","320","759037","0.0-9.0-0.0-0.0-0.1-0.121","841","","f","","","","","","","","","","","","","key","f","16.655000000000424","768","405.2","j","false","img/S_ambi40.png","朋友","same",""
"","","","","","html-keyboard-response","321","759552","0.0-9.0-0.0-0.0-0.1-1.121","null","<span style='color:red; font-size: 70px;'>错误! </span>","null","","","","","","","","","","","","","","","","","","","","","","","feedback_test"
"","","","","","psychophysics","322","761972","0.0-9.0-0.0-0.0-0.1-0.122","1412","","f","","","","","","","","","","","","","key","f","16.65719444444484","768","405.2","f","true","img/S_ambi40.png","生人","same",""
"","","","","","html-keyboard-response","323","762487","0.0-9.0-0.0-0.0-0.1-1.122","null","<span style='color:GreenYellow; font-size: 70px;'>正确! </span>","null","","","","","","","","","","","","","","","","","","","","","","","feedback_test"
"","","","","","psychophysics","324","764124","0.0-9.0-0.0-0.0-0.1-0.123","632","","f","","","","","","","","","","","","","key","f","16.656525773195472","768","405.2","f","true","img/T_ambi40.png","をる","same",""
"","","","","","html-keyboard-response","325","764639","0.0-9.0-0.0-0.0-0.1-1.123","null","<span style='color:GreenYellow; font-size: 70px;'>正确! </span>","null","","","","","","","","","","","","","","","","","","","","","","","feedback_test"
"","","","","","psychophysics","326","766382","0.0-9.0-0.0-0.0-0.1-0.124","741","","j","","","","","","","","","","","","","key","j","16.656240384616048","768","405.2","j","true","img/C_ambi40.png","生人","same",""
"","","","","","html-keyboard-response","327","766893","0.0-9.0-0.0-0.0-0.1-1.124","null","<span style='color:GreenYellow; font-size: 70px;'>正确! </span>","null","","","","","","","","","","","","","","","","","","","","","","","feedback_test"
"","","","","","psychophysics","328","769300","0.0-9.0-0.0-0.0-0.1-0.125","1396","","f","","","","","","","","","","","","","key","f","16.655615384615565","768","405.2","f","true","img/H_ambi40.png","朋友","same",""
"","","","","","html-keyboard-response","329","769803","0.0-9.0-0.0-0.0-0.1-1.125","null","<span style='color:GreenYellow; font-size: 70px;'>正确! </span>","null","","","","","","","","","","","","","","","","","","","","","","","feedback_test"
"","","","","","psychophysics","330","771795","0.0-9.0-0.0-0.0-0.1-0.126","990","","f","","","","","","","","","","","","","key","f","16.65699999999967","768","405.2","f","true","img/S_ambi40.png","自我","same",""
"","","","","","html-keyboard-response","331","772301","0.0-9.0-0.0-0.0-0.1-1.126","null","<span style='color:GreenYellow; font-size: 70px;'>正确! </span>","null","","","","","","","","","","","","","","","","","","","","","","","feedback_test"
"","","","","","psychophysics","332","774183","0.0-9.0-0.0-0.0-0.1-0.127","881","","f","","","","","","","","","","","","","key","f","16.656848214286065","768","405.2","f","true","img/C_ambi40.png","自我","same",""
"","","","","","html-keyboard-response","333","774693","0.0-9.0-0.0-0.0-0.1-1.127","null","<span style='color:GreenYellow; font-size: 70px;'>正确! </span>","null","","","","","","","","","","","","","","","","","","","","","","","feedback_test"
"","","","","","psychophysics","334","776525","0.0-9.0-0.0-0.0-0.1-0.128","822","","f","","","","","","","","","","","","","key","f","16.659100917431765","768","405.2","j","false","img/S_ambi40.png","朋友","same",""
"","","","","","html-keyboard-response","335","777031","0.0-9.0-0.0-0.0-0.1-1.128","null","<span style='color:red; font-size: 70px;'>错误! </span>","null","","","","","","","","","","","","","","","","","","","","","","","feedback_test"
"","","","","","psychophysics","336","778656","0.0-9.0-0.0-0.0-0.1-0.129","622","","j","","","","","","","","","","","","","key","j","16.656463917526033","768","405.2","j","true","img/C_ambi40.png","生人","same",""
"","","","","","html-keyboard-response","337","779167","0.0-9.0-0.0-0.0-0.1-1.129","null","<span style='color:GreenYellow; font-size: 70px;'>正确! </span>","null","","","","","","","","","","","","","","","","","","","","","","","feedback_test"
"","","","","","psychophysics","338","780801","0.0-9.0-0.0-0.0-0.1-0.130","619","","j","","","","","","","","","","","","","key","j","16.653474226804","768","405.2","f","false","img/H_ambi40.png","朋友","same",""
"","","","","","html-keyboard-response","339","781306","0.0-9.0-0.0-0.0-0.1-1.130","null","<span style='color:red; font-size: 70px;'>错误! </span>","null","","","","","","","","","","","","","","","","","","","","","","","feedback_test"
"","","","","","psychophysics","340","783294","0.0-9.0-0.0-0.0-0.1-0.131","979","","f","","","","","","","","","","","","","key","f","16.65639830508439","768","405.2","f","true","img/S_ambi40.png","生人","same",""
"","","","","","html-keyboard-response","341","783803","0.0-9.0-0.0-0.0-0.1-1.131","null","<span style='color:GreenYellow; font-size: 70px;'>正确! </span>","null","","","","","","","","","","","","","","","","","","","","","","","feedback_test"
"","","","","","psychophysics","342","785735","0.0-9.0-0.0-0.0-0.1-0.132","921","","j","","","","","","","","","","","","","key","j","16.65558260869559","768","405.2","j","true","img/H_ambi40.png","自我","same",""
"","","","","","html-keyboard-response","343","786248","0.0-9.0-0.0-0.0-0.1-1.132","null","<span style='color:GreenYellow; font-size: 70px;'>正确! </span>","null","","","","","","","","","","","","","","","","","","","","","","","feedback_test"
"","","","","","psychophysics","344","788203","0.0-9.0-0.0-0.0-0.1-0.133","953","","j","","","","","","","","","","","","","key","j","16.657103448276256","768","405.2","j","true","img/C_ambi40.png","生人","same",""
"","","","","","html-keyboard-response","345","788715","0.0-9.0-0.0-0.0-0.1-1.133","null","<span style='color:GreenYellow; font-size: 70px;'>正确! </span>","null","","","","","","","","","","","","","","","","","","","","","","","feedback_test"
"","","","","","psychophysics","346","790354","0.0-9.0-0.0-0.0-0.1-0.134","630","","j","","","","","","","","","","","","","key","j","16.66150515463885","768","405.2","j","true","img/H_ambi40.png","自我","same",""
"","","","","","html-keyboard-response","347","790864","0.0-9.0-0.0-0.0-0.1-1.134","null","<span style='color:GreenYellow; font-size: 70px;'>正确! </span>","null","","","","","","","","","","","","","","","","","","","","","","","feedback_test"
"","","","","","psychophysics","348","792475","0.0-9.0-0.0-0.0-0.1-0.135","598","","f","","","","","","","","","","","","","key","f","16.657568421053064","768","405.2","f","true","img/T_ambi40.png","をる","same",""
"","","","","","html-keyboard-response","349","792989","0.0-9.0-0.0-0.0-0.1-1.135","null","<span style='color:GreenYellow; font-size: 70px;'>正确! </span>","null","","","","","","","","","","","","","","","","","","","","","","","feedback_test"
"","","","","","psychophysics","350","795429","0.0-9.0-0.0-0.0-0.1-0.136","1436","","j","","","","","","","","","","","","","key","j","16.659760273972285","768","405.2","f","false","img/C_ambi40.png","朋友","same",""
"","","","","","html-keyboard-response","351","795938","0.0-9.0-0.0-0.0-0.1-1.136","null","<span style='color:red; font-size: 70px;'>错误! </span>","null","","","","","","","","","","","","","","","","","","","","","","","feedback_test"
"","","","","","psychophysics","352","797966","0.0-9.0-0.0-0.0-0.1-0.137","1026","","j","","","","","","","","","","","","","key","j","16.65775206611561","768","405.2","j","true","img/C_ambi40.png","生人","same",""
"","","","","","html-keyboard-response","353","798477","0.0-9.0-0.0-0.0-0.1-1.137","null","<span style='color:GreenYellow; font-size: 70px;'>正确! </span>","null","","","","","","","","","","","","","","","","","","","","","","","feedback_test"
"","","","","","psychophysics","354","800289","0.0-9.0-0.0-0.0-0.1-0.138","803","","j","","","","","","","","","","","","","key","j","16.657583333333065","768","405.2","j","true","img/H_ambi40.png","自我","same",""
"","","","","","html-keyboard-response","355","800804","0.0-9.0-0.0-0.0-0.1-1.138","null","<span style='color:GreenYellow; font-size: 70px;'>正确! </span>","null","","","","","","","","","","","","","","","","","","","","","","","feedback_test"
"","","","","","psychophysics","356","802461","0.0-9.0-0.0-0.0-0.1-0.139","657","","f","","","","","","","","","","","","","key","f","16.64404081632573","768","405.2","f","true","img/T_ambi40.png","をる","same",""
"","","","","","html-keyboard-response","357","802969","0.0-9.0-0.0-0.0-0.1-1.139","null","<span style='color:GreenYellow; font-size: 70px;'>正确! </span>","null","","","","","","","","","","","","","","","","","","","","","","","feedback_test"
"","","","","","psychophysics","358","805001","0.0-9.0-0.0-0.0-0.1-0.140","1031","","f","","","","","","","","","","","","","key","f","16.647083333333526","768","405.2","j","false","img/S_ambi40.png","朋友","same",""
"","","","","","html-keyboard-response","359","805503","0.0-9.0-0.0-0.0-0.1-1.140","null","<span style='color:red; font-size: 70px;'>错误! </span>","null","","","","","","","","","","","","","","","","","","","","","","","feedback_test"
"","","","","","psychophysics","360","807457","0.0-9.0-0.0-0.0-0.1-0.141","939","","f","","","","","","","","","","","","","key","f","16.658112068965647","768","405.2","f","true","img/H_ambi40.png","生人","same",""
"","","","","","html-keyboard-response","361","807970","0.0-9.0-0.0-0.0-0.1-1.141","null","<span style='color:GreenYellow; font-size: 70px;'>正确! </span>","null","","","","","","","","","","","","","","","","","","","","","","","feedback_test"
"","","","","","psychophysics","362","810156","0.0-9.0-0.0-0.0-0.1-0.142","1172","","f","","","","","","","","","","","","","key","f","16.657707692308424","768","405.2","j","false","img/S_ambi40.png","朋友","same",""
"","","","","","html-keyboard-response","363","810672","0.0-9.0-0.0-0.0-0.1-1.142","null","<span style='color:red; font-size: 70px;'>错误! </span>","null","","","","","","","","","","","","","","","","","","","","","","","feedback_test"
"","","","","","psychophysics","364","812386","0.0-9.0-0.0-0.0-0.1-0.143","704","","f","","","","","","","","","","","","","key","f","16.657225490195046","768","405.2","f","true","img/T_ambi40.png","をる","same",""
"","","","","","html-keyboard-response","365","812900","0.0-9.0-0.0-0.0-0.1-1.143","null","<span style='color:GreenYellow; font-size: 70px;'>正确! </span>","null","","","","","","","","","","","","","","","","","","","","","","","feedback_test"
"","","","","","psychophysics","366","814619","0.0-9.0-0.0-0.0-0.1-0.144","716","","j","","","","","","","","","","","","","key","j","16.655607843137","768","405.2","j","true","img/C_ambi40.png","生人","same",""
"","","","","","html-keyboard-response","367","815134","0.0-9.0-0.0-0.0-0.1-1.144","null","<span style='color:GreenYellow; font-size: 70px;'>正确! </span>","null","","","","","","","","","","","","","","","","","","","","","","","feedback_test"
"","","","","","psychophysics","368","817138","0.0-9.0-0.0-0.0-0.1-0.145","994","","f","","","","","","","","","","","","","key","f","16.655495798318967","768","405.2","f","true","img/C_ambi40.png","朋友","same",""
"","","","","","html-keyboard-response","369","817654","0.0-9.0-0.0-0.0-0.1-1.145","null","<span style='color:GreenYellow; font-size: 70px;'>正确! </span>","null","","","","","","","","","","","","","","","","","","","","","","","feedback_test"
"","","","","","psychophysics","370","819926","0.0-9.0-0.0-0.0-0.1-0.146","1265","","j","","","","","","","","","","","","","key","j","16.655074074074488","768","405.2","f","false","img/H_ambi40.png","朋友","same",""
"","","","","","html-keyboard-response","371","820438","0.0-9.0-0.0-0.0-0.1-1.146","null","<span style='color:red; font-size: 70px;'>错误! </span>","null","","","","","","","","","","","","","","","","","","","","","","","feedback_test"
"","","","","","psychophysics","372","822010","0.0-9.0-0.0-0.0-0.1-0.147","567","","f","","","","","","","","","","","","","key","f","16.65725531914777","768","405.2","f","true","img/T_ambi40.png","をる","same",""
"","","","","","html-keyboard-response","373","822527","0.0-9.0-0.0-0.0-0.1-1.147","null","<span style='color:GreenYellow; font-size: 70px;'>正确! </span>","null","","","","","","","","","","","","","","","","","","","","","","","feedback_test"
"","","","","","psychophysics","374","824590","0.0-9.0-0.0-0.0-0.1-0.148","1052","","f","","","","","","","","","","","","","key","f","16.657680327869517","768","405.2","f","true","img/C_ambi40.png","自我","same",""
"","","","","","html-keyboard-response","375","825099","0.0-9.0-0.0-0.0-0.1-1.148","null","<span style='color:GreenYellow; font-size: 70px;'>正确! </span>","null","","","","","","","","","","","","","","","","","","","","","","","feedback_test"
"","","","","","psychophysics","376","826655","0.0-9.0-0.0-0.0-0.1-0.149","547","","f","","","","","","","","","","","","","key","f","16.657326086957017","768","405.2","f","true","img/T_ambi40.png","をる","same",""
"","","","","","html-keyboard-response","377","827170","0.0-9.0-0.0-0.0-0.1-1.149","null","<span style='color:GreenYellow; font-size: 70px;'>正确! </span>","null","","","","","","","","","","","","","","","","","","","","","","","feedback_test"
"","","","","","psychophysics","378","828911","0.0-9.0-0.0-0.0-0.1-0.150","738","","f","","","","","","","","","","","","","key","f","16.65850000000053","768","405.2","j","false","img/S_ambi40.png","朋友","same",""
"","","","","","html-keyboard-response","379","829421","0.0-9.0-0.0-0.0-0.1-1.150","null","<span style='color:red; font-size: 70px;'>错误! </span>","null","","","","","","","","","","","","","","","","","","","","","","","feedback_test"
"","","","","","psychophysics","380","831124","0.0-9.0-0.0-0.0-0.1-0.151","702","","f","","","","","","","","","","","","","key","f","16.645920792079327","768","405.2","f","true","img/S_ambi40.png","自我","same",""
"","","","","","html-keyboard-response","381","831639","0.0-9.0-0.0-0.0-0.1-1.151","null","<span style='color:GreenYellow; font-size: 70px;'>正确! </span>","null","","","","","","","","","","","","","","","","","","","","","","","feedback_test"
"","","","","","psychophysics","382","833334","0.0-9.0-0.0-0.0-0.1-0.152","682","","j","","","","","","","","","","","","","key","j","16.656260000000476","768","405.2","j","true","img/H_ambi40.png","自我","same",""
"","","","","","html-keyboard-response","383","833838","0.0-9.0-0.0-0.0-0.1-1.152","null","<span style='color:GreenYellow; font-size: 70px;'>正确! </span>","null","","","","","","","","","","","","","","","","","","","","","","","feedback_test"
"","","","","","psychophysics","384","835518","0.0-9.0-0.0-0.0-0.1-0.153","667","","j","","","","","","","","","","","","","key","j","16.657676767676627","768","405.2","j","true","img/H_ambi40.png","自我","same",""
"","","","","","html-keyboard-response","385","836023","0.0-9.0-0.0-0.0-0.1-1.153","null","<span style='color:GreenYellow; font-size: 70px;'>正确! </span>","null","","","","","","","","","","","","","","","","","","","","","","","feedback_test"
"","","","","","psychophysics","386","837599","0.0-9.0-0.0-0.0-0.1-0.154","564","","f","","","","","","","","","","","","","key","f","16.65358064516062","768","405.2","f","true","img/T_ambi40.png","をる","same",""
"","","","","","html-keyboard-response","387","838115","0.0-9.0-0.0-0.0-0.1-1.154","null","<span style='color:GreenYellow; font-size: 70px;'>正确! </span>","null","","","","","","","","","","","","","","","","","","","","","","","feedback_test"
"","","","","","psychophysics","388","840555","0.0-9.0-0.0-0.0-0.1-0.155","1438","","j","","","","","","","","","","","","","key","j","16.65767123287684","768","405.2","j","true","img/S_ambi40.png","朋友","same",""
"","","","","","html-keyboard-response","389","841064","0.0-9.0-0.0-0.0-0.1-1.155","null","<span style='color:GreenYellow; font-size: 70px;'>正确! </span>","null","","","","","","","","","","","","","","","","","","","","","","","feedback_test"
"","","","","","psychophysics","390","843196","0.0-9.0-0.0-0.0-0.1-0.156","1131","","j","","","","","","","","","","","","","key","j","16.653396825396662","768","405.2","j","true","img/C_ambi40.png","生人","same",""
"","","","","","html-keyboard-response","391","843705","0.0-9.0-0.0-0.0-0.1-1.156","null","<span style='color:GreenYellow; font-size: 70px;'>正确! </span>","null","","","","","","","","","","","","","","","","","","","","","","","feedback_test"
"","","","","","psychophysics","392","845853","0.0-9.0-0.0-0.0-0.1-0.157","1140","","j","","","","","","","","","","","","","key","j","16.658117187500466","768","405.2","j","true","img/S_ambi40.png","朋友","same",""
"","","","","","html-keyboard-response","393","846360","0.0-9.0-0.0-0.0-0.1-1.157","null","<span style='color:GreenYellow; font-size: 70px;'>正确! </span>","null","","","","","","","","","","","","","","","","","","","","","","","feedback_test"
"","","","","","psychophysics","394","848136","0.0-9.0-0.0-0.0-0.1-0.158","774","","j","","","","","","","","","","","","","key","j","16.65721698113243","768","405.2","j","true","img/C_ambi40.png","生人","same",""
"","","","","","html-keyboard-response","395","848650","0.0-9.0-0.0-0.0-0.1-1.158","null","<span style='color:GreenYellow; font-size: 70px;'>正确! </span>","null","","","","","","","","","","","","","","","","","","","","","","","feedback_test"
"","","","","","psychophysics","396","850513","0.0-9.0-0.0-0.0-0.1-0.159","853","","f","","","","","","","","","","","","","key","f","16.654981981982846","768","405.2","f","true","img/S_ambi40.png","生人","same",""
"","","","","","html-keyboard-response","397","851014","0.0-9.0-0.0-0.0-0.1-1.159","null","<span style='color:GreenYellow; font-size: 70px;'>正确! </span>","null","","","","","","","","","","","","","","","","","","","","","","","feedback_test"
"","","","","","psychophysics","398","853120","0.0-9.0-0.0-0.0-0.1-0.160","1105","","f","","","","","","","","","","","","","key","f","16.654512000000103","768","405.2","f","true","img/H_ambi40.png","生人","same",""
"","","","","","html-keyboard-response","399","853634","0.0-9.0-0.0-0.0-0.1-1.160","null","<span style='color:GreenYellow; font-size: 70px;'>正确! </span>","null","","","","","","","","","","","","","","","","","","","","","","","feedback_test"
"","","","","","psychophysics","400","855394","0.0-9.0-0.0-0.0-0.1-0.161","752","","j","","","","","","","","","","","","","key","j","16.660761904761948","768","405.2","j","true","img/H_ambi40.png","自我","same",""
"","","","","","html-keyboard-response","401","855903","0.0-9.0-0.0-0.0-0.1-1.161","null","<span style='color:GreenYellow; font-size: 70px;'>正确! </span>","null","","","","","","","","","","","","","","","","","","","","","","","feedback_test"
"","","","","","psychophysics","402","857826","0.0-9.0-0.0-0.0-0.1-0.162","918","","f","","","","","","","","","","","","","key","f","16.65686086956513","768","405.2","j","false","img/C_ambi40.png","生人","same",""
"","","","","","html-keyboard-response","403","858332","0.0-9.0-0.0-0.0-0.1-1.162","null","<span style='color:red; font-size: 70px;'>错误! </span>","null","","","","","","","","","","","","","","","","","","","","","","","feedback_test"
"","","","","","psychophysics","404","860082","0.0-9.0-0.0-0.0-0.1-0.163","743","","j","","","","","","","","","","","","","key","j","16.660336538461987","768","405.2","j","true","img/H_ambi40.png","自我","same",""
"","","","","","html-keyboard-response","405","860593","0.0-9.0-0.0-0.0-0.1-1.163","null","<span style='color:GreenYellow; font-size: 70px;'>正确! </span>","null","","","","","","","","","","","","","","","","","","","","","","","feedback_test"
"","","","","","psychophysics","406","862526","0.0-9.0-0.0-0.0-0.1-0.164","931","","j","","","","","","","","","","","","","key","j","16.653808695651875","768","405.2","j","true","img/S_ambi40.png","朋友","same",""
"","","","","","html-keyboard-response","407","863031","0.0-9.0-0.0-0.0-0.1-1.164","null","<span style='color:GreenYellow; font-size: 70px;'>正确! </span>","null","","","","","","","","","","","","","","","","","","","","","","","feedback_test"
"","","","","","psychophysics","408","864649","0.0-9.0-0.0-0.0-0.1-0.165","617","","f","","","","","","","","","","","","","key","f","16.65587500000038","768","405.2","f","true","img/T_ambi40.png","をる","same",""
"","","","","","html-keyboard-response","409","865154","0.0-9.0-0.0-0.0-0.1-1.165","null","<span style='color:GreenYellow; font-size: 70px;'>正确! </span>","null","","","","","","","","","","","","","","","","","","","","","","","feedback_test"
"","","","","","psychophysics","410","867113","0.0-9.0-0.0-0.0-0.1-0.166","956","","f","","","","","","","","","","","","","key","f","16.658948275862777","768","405.2","f","true","img/C_ambi40.png","朋友","same",""
"","","","","","html-keyboard-response","411","867621","0.0-9.0-0.0-0.0-0.1-1.166","null","<span style='color:GreenYellow; font-size: 70px;'>正确! </span>","null","","","","","","","","","","","","","","","","","","","","","","","feedback_test"
"","","","","","psychophysics","412","869408","0.0-9.0-0.0-0.0-0.1-0.167","774","","j","","","","","","","","","","","","","key","j","16.657594339622246","768","405.2","j","true","img/C_ambi40.png","生人","same",""
"","","","","","html-keyboard-response","413","869911","0.0-9.0-0.0-0.0-0.1-1.167","null","<span style='color:GreenYellow; font-size: 70px;'>正确! </span>","null","","","","","","","","","","","","","","","","","","","","","","","feedback_test"
"","","","","","psychophysics","414","871547","0.0-9.0-0.0-0.0-0.1-0.168","634","","j","","","","","","","","","","","","","key","j","16.66069072165008","768","405.2","j","true","img/C_ambi40.png","生人","same",""
"","","","","","html-keyboard-response","415","872051","0.0-9.0-0.0-0.0-0.1-1.168","null","<span style='color:GreenYellow; font-size: 70px;'>正确! </span>","null","","","","","","","","","","","","","","","","","","","","","","","feedback_test"
"","","","","","psychophysics","416","873650","0.0-9.0-0.0-0.0-0.1-0.169","586","","f","","","","","","","","","","","","","key","f","16.656610526316065","768","405.2","f","true","img/T_ambi40.png","をる","same",""
"","","","","","html-keyboard-response","417","874162","0.0-9.0-0.0-0.0-0.1-1.169","null","<span style='color:GreenYellow; font-size: 70px;'>正确! </span>","null","","","","","","","","","","","","","","","","","","","","","","","feedback_test"
"","","","","","psychophysics","418","875915","0.0-9.0-0.0-0.0-0.1-0.170","752","","j","","","","","","","","","","","","","key","j","16.64772115384627","768","405.2","j","true","img/H_ambi40.png","自我","same",""
"","","","","","html-keyboard-response","419","876424","0.0-9.0-0.0-0.0-0.1-1.170","null","<span style='color:GreenYellow; font-size: 70px;'>正确! </span>","null","","","","","","","","","","","","","","","","","","","","","","","feedback_test"
"","","","","","psychophysics","420","878682","0.0-9.0-0.0-0.0-0.1-0.171","1253","","f","","","","","","","","","","","","","key","f","16.661044444444727","768","405.2","j","false","img/S_ambi40.png","朋友","same",""
"","","","","","html-keyboard-response","421","879198","0.0-9.0-0.0-0.0-0.1-1.171","null","<span style='color:red; font-size: 70px;'>错误! </span>","null","","","","","","","","","","","","","","","","","","","","","","","feedback_test"
"","","","","","psychophysics","422","880927","0.0-9.0-0.0-0.0-0.1-0.172","729","","j","","","","","","","","","","","","","key","j","16.661038834950887","768","405.2","j","true","img/H_ambi40.png","自我","same",""
"","","","","","html-keyboard-response","423","881443","0.0-9.0-0.0-0.0-0.1-1.172","null","<span style='color:GreenYellow; font-size: 70px;'>正确! </span>","null","","","","","","","","","","","","","","","","","","","","","","","feedback_test"
"","","","","","psychophysics","424","883667","0.0-9.0-0.0-0.0-0.1-0.173","1223","","f","","","","","","","","","","","","","key","f","16.657568181818174","768","405.2","f","true","img/H_ambi40.png","朋友","same",""
"","","","","","html-keyboard-response","425","884171","0.0-9.0-0.0-0.0-0.1-1.173","null","<span style='color:GreenYellow; font-size: 70px;'>正确! </span>","null","","","","","","","","","","","","","","","","","","","","","","","feedback_test"
"","","","","","psychophysics","426","885716","0.0-9.0-0.0-0.0-0.1-0.174","542","","j","","","","","","","","","","","","","key","j","16.657445652175028","768","405.2","f","false","img/C_ambi40.png","自我","same",""
"","","","","","html-keyboard-response","427","886218","0.0-9.0-0.0-0.0-0.1-1.174","null","<span style='color:red; font-size: 70px;'>错误! </span>","null","","","","","","","","","","","","","","","","","","","","","","","feedback_test"
"","","","","","psychophysics","428","887773","0.0-9.0-0.0-0.0-0.1-0.175","552","","f","","","","","","","","","","","","","key","f","16.660655913978406","768","405.2","f","true","img/T_ambi40.png","をる","same",""
"","","","","","html-keyboard-response","429","888281","0.0-9.0-0.0-0.0-0.1-1.175","null","<span style='color:GreenYellow; font-size: 70px;'>正确! </span>","null","","","","","","","","","","","","","","","","","","","","","","","feedback_test"
"","","","","","psychophysics","430","890122","0.0-9.0-0.0-0.0-0.1-0.176","833","","j","","","","","","","","","","","","","key","j","16.657690909091087","768","405.2","j","true","img/S_ambi40.png","朋友","same",""
"","","","","","html-keyboard-response","431","890633","0.0-9.0-0.0-0.0-0.1-1.176","null","<span style='color:GreenYellow; font-size: 70px;'>正确! </span>","null","","","","","","","","","","","","","","","","","","","","","","","feedback_test"
"","","","","","psychophysics","432","893137","0.0-9.0-0.0-0.0-0.1-0.177","null","","null","","","","","","","","","","","","","key","null","16.658146666667115","768","405.2","f","false","img/H_ambi40.png","生人","same",""
"","","","","","html-keyboard-response","433","893642","0.0-9.0-0.0-0.0-0.1-1.177","null","<span class='add_' style='color:yellow; font-size: 70px;'> 太慢! </span>","null","","","","","","","","","","","","","","","","","","","","","","","feedback_test"
"","","","","","psychophysics","434","895479","0.0-9.0-0.0-0.0-0.1-0.178","826","","f","","","","","","","","","","","","","key","f","16.65685321100979","768","405.2","f","true","img/S_ambi40.png","自我","same",""
"","","","","","html-keyboard-response","435","895994","0.0-9.0-0.0-0.0-0.1-1.178","null","<span style='color:GreenYellow; font-size: 70px;'>正确! </span>","null","","","","","","","","","","","","","","","","","","","","","","","feedback_test"
"","","","","","psychophysics","436","897947","0.0-9.0-0.0-0.0-0.1-0.179","946","","f","","","","","","","","","","","","","key","f","16.658689655171877","768","405.2","f","true","img/S_ambi40.png","生人","same",""
"","","","","","html-keyboard-response","437","898460","0.0-9.0-0.0-0.0-0.1-1.179","null","<span style='color:GreenYellow; font-size: 70px;'>正确! </span>","null","","","","","","","","","","","","","","","","","","","","","","","feedback_test"
"","","","","","psychophysics","438","900133","0.0-9.0-0.0-0.0-0.1-0.180","666","","j","","","","","","","","","","","","","key","j","16.657700000000187","768","405.2","j","true","img/H_ambi40.png","自我","same",""
"","","","","","html-keyboard-response","439","900634","0.0-9.0-0.0-0.0-0.1-1.180","null","<span style='color:GreenYellow; font-size: 70px;'>正确! </span>","null","","","","","","","","","","","","","","","","","","","","","","","feedback_test"
