"success","timeout","failed_images","failed_audio","failed_video","trial_type","trial_index","time_elapsed","internal_node_id","rt","stimulus","response","value","item_width_mm","item_height_mm","item_width_px","px2mm","view_dist_mm","item_width_deg","px2deg","scale_factor","win_width_deg","win_height_deg","view_history","response_type","key_press","avg_frame_time","center_x","center_y","correct_response","correct","Image","word","condition","screen_id"
"true","false","[]","[]","[]","preload","0","450","0.0-0.0","","","","","","","","","","","","","","","","","","","","","","","","","",""
"","","","","","html-keyboard-response","1","50468","0.0-1.0","50017","
     <p>您好，欢迎参加本次实验。</p>
     <p>为充分保障您的权利，请确保您已经知晓并同意《参与实验同意书》以及《数据公开知情同意书》。</p>
     <p>如果您未见过上述内容，请咨询实验员。</p>
     <p>如果您选择继续实验，则表示您已经清楚两份知情同意书的内容并同意。</p>
     <p> <div style = ""color: green""><按任意键至下页></div> </p>
     "," ","","","","","","","","","","","","","","","","","","","","","","",""
"","","","","","html-keyboard-response","2","51804","0.0-2.0","1336","
     <p>本实验首先需要您填写一些基本个人信息。</p>
     <p> <div style = ""color: green""><按任意键至下页></div></p>
     "," ","","","","","","","","","","","","","","","","","","","","","","",""
"","","","","","call-function","3","51805","0.0-3.0-0.0","","","","","","","","","","","","","","","","","","","","","","","","","",""
"","","","","","survey-html-form","4","57262","0.0-3.0-1.0","5457","","{""Q0"":""23""}","","","","","","","","","","","","","","","","","","","","","","",""
"","","","","","html-button-response","5","58210","0.0-3.0-2.0","947","<p style = 'color : white'>您的性别</p>","1","","","","","","","","","","","","","","","","","","","","","","",""
"","","","","","survey-html-form","6","61502","0.0-3.0-3.0","3291","","{""Q0"":""2003""}","","","","","","","","","","","","","","","","","","","","","","",""
"","","","","","survey-html-form","7","64568","0.0-3.0-4.0","3065","","{""Q0"":""5""}","","","","","","","","","","","","","","","","","","","","","","",""
"","","","","","virtual-chinrest","8","276523","0.0-4.0","211954","","","","85.6","53.98","441.34009965803193","5.15932792557981","554.54","8.82680199316064","50","0.9652419989257308","33.04","19.12","","","","","","","","","","","",""
"true","","","","","fullscreen","9","279928","0.0-5.0","","","","","","","","","","","","","","","","","","","","","","","","","",""
"","","","","","instructions","10","341921","0.0-6.0","61991","","","","","","","","","","","","","","[{""page_index"":0,""viewing_time"":5048},{""page_index"":1,""viewing_time"":17105},{""page_index"":2,""viewing_time"":3922},{""page_index"":3,""viewing_time"":24143},{""page_index"":2,""viewing_time"":1138},{""page_index"":1,""viewing_time"":8425},{""page_index"":2,""viewing_time"":1023},{""page_index"":3,""viewing_time"":1188}]","","","","","","","","","","",""
"","","","","","psychophysics","11","344427","0.0-7.0-0.0-0.0","null","","null","","","","","","","","","","","","","key","null","16.666409395973044","853.3333333333334","529.3333333333334","f","false","img/T_ambi40.png","をる","prac",""
"","","","","","html-keyboard-response","12","344939","0.0-7.0-0.0-1.0","null","<span class='add_' style='color:yellow; font-size: 70px;'> 太慢! </span>","null","","","","","","","","","","","","","","","","","","","","","","","feedback_test"
"","","","","","psychophysics","13","347443","0.0-7.0-0.0-0.1","null","","null","","","","","","","","","","","","","key","null","16.666389261744683","853.3333333333334","529.3333333333334","j","false","img/C_ambi40.png","生人","prac",""
"","","","","","html-keyboard-response","14","347944","0.0-7.0-0.0-1.1","null","<span class='add_' style='color:yellow; font-size: 70px;'> 太慢! </span>","null","","","","","","","","","","","","","","","","","","","","","","","feedback_test"
"","","","","","psychophysics","15","350426","0.0-7.0-0.0-0.2","1472","","f","","","","","","","","","","","","","key","f","16.666571428571658","853.3333333333334","529.3333333333334","f","true","img/H_ambi40.png","朋友","prac",""
"","","","","","html-keyboard-response","16","350932","0.0-7.0-0.0-1.2","null","<span style='color:GreenYellow; font-size: 70px;'>正确! </span>","null","","","","","","","","","","","","","","","","","","","","","","","feedback_test"
"","","","","","psychophysics","17","353202","0.0-7.0-0.0-0.3","1259","","j","","","","","","","","","","","","","key","j","16.666496296295964","853.3333333333334","529.3333333333334","j","true","img/S_ambi40.png","朋友","prac",""
"","","","","","html-keyboard-response","18","353705","0.0-7.0-0.0-1.3","null","<span style='color:GreenYellow; font-size: 70px;'>正确! </span>","null","","","","","","","","","","","","","","","","","","","","","","","feedback_test"
"","","","","","psychophysics","19","355943","0.0-7.0-0.0-0.4","1233","","f","","","","","","","","","","","","","key","f","16.66637593984982","853.3333333333334","529.3333333333334","f","true","img/S_ambi40.png","自我","prac",""
"","","","","","html-keyboard-response","20","356451","0.0-7.0-0.0-1.4","null","<span style='color:GreenYellow; font-size: 70px;'>正确! </span>","null","","","","","","","","","","","","","","","","","","","","","","","feedback_test"
"","","","","","psychophysics","21","358191","0.0-7.0-0.0-0.5","738","","j","","","","","","","","","","","","","key","j","16.66660194174789","853.3333333333334","529.3333333333334","j","true","img/C_ambi40.png","生人","prac",""
"","","","","","html-keyboard-response","22","358696","0.0-7.0-0.0-1.5","null","<span style='color:GreenYellow; font-size: 70px;'>正确! </span>","null","","","","","","","","","","","","","","","","","","","","","","","feedback_test"
"","","","","","psychophysics","23","361118","0.0-7.0-0.0-0.6","1410","","f","","","","","","","","","","","","","key","f","16.666472222222282","853.3333333333334","529.3333333333334","f","true","img/T_ambi40.png","をる","prac",""
"","","","","","html-keyboard-response","24","361622","0.0-7.0-0.0-1.6","null","<span style='color:GreenYellow; font-size: 70px;'>正确! </span>","null","","","","","","","","","","","","","","","","","","","","","","","feedback_test"
"","","","","","psychophysics","25","363997","0.0-7.0-0.0-0.7","1371","","j","","","","","","","","","","","","","key","j","16.666591549295894","853.3333333333334","529.3333333333334","j","true","img/H_ambi40.png","自我","prac",""
"","","","","","html-keyboard-response","26","364513","0.0-7.0-0.0-1.7","null","<span style='color:GreenYellow; font-size: 70px;'>正确! </span>","null","","","","","","","","","","","","","","","","","","","","","","","feedback_test"
"","","","","","psychophysics","27","366168","0.0-7.0-0.0-0.8","644","","f","","","","","","","","","","","","","key","f","16.666693877551126","853.3333333333334","529.3333333333334","f","true","img/T_ambi40.png","をる","prac",""
"","","","","","html-keyboard-response","28","366677","0.0-7.0-0.0-1.8","null","<span style='color:GreenYellow; font-size: 70px;'>正确! </span>","null","","","","","","","","","","","","","","","","","","","","","","","feedback_test"
"","","","","","psychophysics","29","368636","0.0-7.0-0.0-0.9","946","","f","","","","","","","","","","","","","key","f","16.6663620689656","853.3333333333334","529.3333333333334","f","true","img/C_ambi40.png","朋友","prac",""
"","","","","","html-keyboard-response","30","369150","0.0-7.0-0.0-1.9","null","<span style='color:GreenYellow; font-size: 70px;'>正确! </span>","null","","","","","","","","","","","","","","","","","","","","","","","feedback_test"
"","","","","","psychophysics","31","370932","0.0-7.0-0.0-0.10","772","","f","","","","","","","","","","","","","key","f","16.666537735849523","853.3333333333334","529.3333333333334","f","true","img/S_ambi40.png","生人","prac",""
"","","","","","html-keyboard-response","32","371434","0.0-7.0-0.0-1.10","null","<span style='color:GreenYellow; font-size: 70px;'>正确! </span>","null","","","","","","","","","","","","","","","","","","","","","","","feedback_test"
"","","","","","psychophysics","33","373332","0.0-7.0-0.0-0.11","889","","f","","","","","","","","","","","","","key","f","16.666548672566435","853.3333333333334","529.3333333333334","f","true","img/C_ambi40.png","自我","prac",""
"","","","","","html-keyboard-response","34","373844","0.0-7.0-0.0-1.11","null","<span style='color:GreenYellow; font-size: 70px;'>正确! </span>","null","","","","","","","","","","","","","","","","","","","","","","","feedback_test"
"","","","","","psychophysics","35","375415","0.0-7.0-0.0-0.12","555","","f","","","","","","","","","","","","","key","f","16.666559139784844","853.3333333333334","529.3333333333334","f","true","img/T_ambi40.png","をる","prac",""
"","","","","","html-keyboard-response","36","375924","0.0-7.0-0.0-1.12","null","<span style='color:GreenYellow; font-size: 70px;'>正确! </span>","null","","","","","","","","","","","","","","","","","","","","","","","feedback_test"
"","","","","","psychophysics","37","377579","0.0-7.0-0.0-0.13","653","","f","","","","","","","","","","","","","key","f","16.666282828282824","853.3333333333334","529.3333333333334","j","false","img/S_ambi40.png","朋友","prac",""
"","","","","","html-keyboard-response","38","378089","0.0-7.0-0.0-1.13","null","<span style='color:red; font-size: 70px;'>错误! </span>","null","","","","","","","","","","","","","","","","","","","","","","","feedback_test"
"","","","","","psychophysics","39","379974","0.0-7.0-0.0-0.14","884","","j","","","","","","","","","","","","","key","j","16.666392857142846","853.3333333333334","529.3333333333334","j","true","img/H_ambi40.png","自我","prac",""
"","","","","","html-keyboard-response","40","380478","0.0-7.0-0.0-1.14","null","<span style='color:GreenYellow; font-size: 70px;'>正确! </span>","null","","","","","","","","","","","","","","","","","","","","","","","feedback_test"
"","","","","","psychophysics","41","382217","0.0-7.0-0.0-0.15","728","","f","","","","","","","","","","","","","key","f","16.66645631067979","853.3333333333334","529.3333333333334","f","true","img/H_ambi40.png","生人","prac",""
"","","","","","html-keyboard-response","42","382725","0.0-7.0-0.0-1.15","null","<span style='color:GreenYellow; font-size: 70px;'>正确! </span>","null","","","","","","","","","","","","","","","","","","","","","","","feedback_test"
"","","","","","psychophysics","43","384454","0.0-7.0-0.0-0.16","728","","f","","","","","","","","","","","","","key","f","16.65573529411774","853.3333333333334","529.3333333333334","f","true","img/S_ambi40.png","生人","prac",""
"","","","","","html-keyboard-response","44","384967","0.0-7.0-0.0-1.16","null","<span style='color:GreenYellow; font-size: 70px;'>正确! </span>","null","","","","","","","","","","","","","","","","","","","","","","","feedback_test"
"","","","","","psychophysics","45","386527","0.0-7.0-0.0-0.17","551","","j","","","","","","","","","","","","","key","j","16.666505376343935","853.3333333333334","529.3333333333334","j","true","img/C_ambi40.png","生人","prac",""
"","","","","","html-keyboard-response","46","387031","0.0-7.0-0.0-1.17","null","<span style='color:GreenYellow; font-size: 70px;'>正确! </span>","null","","","","","","","","","","","","","","","","","","","","","","","feedback_test"
"","","","","","psychophysics","47","389089","0.0-7.0-0.0-0.18","1052","","f","","","","","","","","","","","","","key","f","16.66653278688509","853.3333333333334","529.3333333333334","f","true","img/H_ambi40.png","朋友","prac",""
"","","","","","html-keyboard-response","48","389595","0.0-7.0-0.0-1.18","null","<span style='color:GreenYellow; font-size: 70px;'>正确! </span>","null","","","","","","","","","","","","","","","","","","","","","","","feedback_test"
"","","","","","psychophysics","49","391190","0.0-7.0-0.0-0.19","580","","f","","","","","","","","","","","","","key","f","16.666659574467747","853.3333333333334","529.3333333333334","f","true","img/T_ambi40.png","をる","prac",""
"","","","","","html-keyboard-response","50","391697","0.0-7.0-0.0-1.19","null","<span style='color:GreenYellow; font-size: 70px;'>正确! </span>","null","","","","","","","","","","","","","","","","","","","","","","","feedback_test"
"","","","","","psychophysics","51","393604","0.0-7.0-0.0-0.20","906","","f","","","","","","","","","","","","","key","f","16.666566371681803","853.3333333333334","529.3333333333334","j","false","img/S_ambi40.png","朋友","prac",""
"","","","","","html-keyboard-response","52","394115","0.0-7.0-0.0-1.20","null","<span style='color:red; font-size: 70px;'>错误! </span>","null","","","","","","","","","","","","","","","","","","","","","","","feedback_test"
"","","","","","psychophysics","53","395847","0.0-7.0-0.0-0.21","730","","j","","","","","","","","","","","","","key","j","16.66660194174789","853.3333333333334","529.3333333333334","j","true","img/H_ambi40.png","自我","prac",""
"","","","","","html-keyboard-response","54","396349","0.0-7.0-0.0-1.21","null","<span style='color:GreenYellow; font-size: 70px;'>正确! </span>","null","","","","","","","","","","","","","","","","","","","","","","","feedback_test"
"","","","","","psychophysics","55","398017","0.0-7.0-0.0-0.22","661","","f","","","","","","","","","","","","","key","f","16.666626262626107","853.3333333333334","529.3333333333334","f","true","img/H_ambi40.png","生人","prac",""
"","","","","","html-keyboard-response","56","398522","0.0-7.0-0.0-1.22","null","<span style='color:GreenYellow; font-size: 70px;'>正确! </span>","null","","","","","","","","","","","","","","","","","","","","","","","feedback_test"
"","","","","","psychophysics","57","400495","0.0-7.0-0.0-0.23","969","","f","","","","","","","","","","","","","key","f","16.666661016948883","853.3333333333334","529.3333333333334","f","true","img/S_ambi40.png","自我","prac",""
"","","","","","html-keyboard-response","58","401002","0.0-7.0-0.0-1.23","null","<span style='color:GreenYellow; font-size: 70px;'>正确! </span>","null","","","","","","","","","","","","","","","","","","","","","","","feedback_test"
"","","","","","psychophysics","59","402771","0.0-7.0-0.0-0.24","761","","j","","","","","","","","","","","","","key","j","16.66670476190491","853.3333333333334","529.3333333333334","f","false","img/C_ambi40.png","朋友","prac",""
"","","","","","html-keyboard-response","60","403277","0.0-7.0-0.0-1.24","null","<span style='color:red; font-size: 70px;'>错误! </span>","null","","","","","","","","","","","","","","","","","","","","","","","feedback_test"
"","","","","","psychophysics","61","405781","0.0-7.0-0.0-0.25","null","","null","","","","","","","","","","","","","key","null","16.66642953020141","853.3333333333334","529.3333333333334","f","false","img/C_ambi40.png","自我","prac",""
"","","","","","html-keyboard-response","62","406285","0.0-7.0-0.0-1.25","null","<span class='add_' style='color:yellow; font-size: 70px;'> 太慢! </span>","null","","","","","","","","","","","","","","","","","","","","","","","feedback_test"
"","","","","","psychophysics","63","408406","0.0-7.0-0.0-0.26","1115","","j","","","","","","","","","","","","","key","j","16.667603174603308","853.3333333333334","529.3333333333334","j","true","img/S_ambi40.png","朋友","prac",""
"","","","","","html-keyboard-response","64","408915","0.0-7.0-0.0-1.26","null","<span style='color:GreenYellow; font-size: 70px;'>正确! </span>","null","","","","","","","","","","","","","","","","","","","","","","","feedback_test"
"","","","","","psychophysics","65","410505","0.0-7.0-0.0-0.27","579","","f","","","","","","","","","","","","","key","f","16.666648936169988","853.3333333333334","529.3333333333334","f","true","img/T_ambi40.png","をる","prac",""
"","","","","","html-keyboard-response","66","411018","0.0-7.0-0.0-1.27","null","<span style='color:GreenYellow; font-size: 70px;'>正确! </span>","null","","","","","","","","","","","","","","","","","","","","","","","feedback_test"
"","","","","","psychophysics","67","413144","0.0-7.0-0.0-0.28","1124","","j","","","","","","","","","","","","","key","j","16.66625984251961","853.3333333333334","529.3333333333334","j","true","img/C_ambi40.png","生人","prac",""
"","","","","","html-keyboard-response","68","413657","0.0-7.0-0.0-1.28","null","<span style='color:GreenYellow; font-size: 70px;'>正确! </span>","null","","","","","","","","","","","","","","","","","","","","","","","feedback_test"
"","","","","","psychophysics","69","415297","0.0-7.0-0.0-0.29","638","","f","","","","","","","","","","","","","key","f","16.6662244897963","853.3333333333334","529.3333333333334","f","true","img/T_ambi40.png","をる","prac",""
"","","","","","html-keyboard-response","70","415803","0.0-7.0-0.0-1.29","null","<span style='color:GreenYellow; font-size: 70px;'>正确! </span>","null","","","","","","","","","","","","","","","","","","","","","","","feedback_test"
"","","","","","psychophysics","71","417368","0.0-7.0-0.0-0.30","559","","f","","","","","","","","","","","","","key","f","16.666612903225758","853.3333333333334","529.3333333333334","f","true","img/T_ambi40.png","をる","prac",""
"","","","","","html-keyboard-response","72","417870","0.0-7.0-0.0-1.30","null","<span style='color:GreenYellow; font-size: 70px;'>正确! </span>","null","","","","","","","","","","","","","","","","","","","","","","","feedback_test"
"","","","","","psychophysics","73","419951","0.0-7.0-0.0-0.31","1076","","j","","","","","","","","","","","","","key","j","16.666661290322796","853.3333333333334","529.3333333333334","j","true","img/H_ambi40.png","自我","prac",""
"","","","","","html-keyboard-response","74","420453","0.0-7.0-0.0-1.31","null","<span style='color:GreenYellow; font-size: 70px;'>正确! </span>","null","","","","","","","","","","","","","","","","","","","","","","","feedback_test"
"","","","","","html-keyboard-response","75","432057","0.0-8.0","11603","<style>.context{color:white; font-size: 35px; line-height:40px}</style>                          <div><p class='context'>您正确回答了81% 的试次。</p ><p class='context'>您的平均反应时为895毫秒。</p ><p class='context'>恭喜您完成练习。按任意键进入正式实验。</p ><p class='footer' style='font-size: 35px; line-height:40px;'>请在进入正式实验实验之前将您的<span style='color: lightgreen;'>食指</span>放在电脑键盘的相应键位上进行按键。</p >"," ","","","","","","","","","","","","","","","","","","","","","","",""
"","","","","","psychophysics","76","433651","0.0-9.0-0.0-0.0-0.0-0.0","581","","f","","","","","","","","","","","","","key","f","16.66644210526352","853.3333333333334","529.3333333333334","f","true","img/T_ambi40.png","をる","same",""
"","","","","","html-keyboard-response","77","434160","0.0-9.0-0.0-0.0-0.0-1.0","null","<span style='color:GreenYellow; font-size: 70px;'>正确! </span>","null","","","","","","","","","","","","","","","","","","","","","","","feedback_test"
"","","","","","psychophysics","78","435689","0.0-9.0-0.0-0.0-0.0-0.1","518","","j","","","","","","","","","","","","","key","j","16.66640000000027","853.3333333333334","529.3333333333334","j","true","img/C_ambi40.png","生人","same",""
"","","","","","html-keyboard-response","79","436199","0.0-9.0-0.0-0.0-0.0-1.1","null","<span style='color:GreenYellow; font-size: 70px;'>正确! </span>","null","","","","","","","","","","","","","","","","","","","","","","","feedback_test"
"","","","","","psychophysics","80","437640","0.0-9.0-0.0-0.0-0.0-0.2","432","","j","","","","","","","","","","","","","key","j","16.666811764705926","853.3333333333334","529.3333333333334","f","false","img/H_ambi40.png","生人","same",""
"","","","","","html-keyboard-response","81","438143","0.0-9.0-0.0-0.0-0.0-1.2","null","<span style='color:red; font-size: 70px;'>错误! </span>","null","","","","","","","","","","","","","","","","","","","","","","","feedback_test"
"","","","","","psychophysics","82","439936","0.0-9.0-0.0-0.0-0.0-0.3","784","","j","","","","","","","","","","","","","key","j","16.666386792452716","853.3333333333334","529.3333333333334","j","true","img/S_ambi40.png","朋友","same",""
"","","","","","html-keyboard-response","83","440449","0.0-9.0-0.0-0.0-0.0-1.3","null","<span style='color:GreenYellow; font-size: 70px;'>正确! </span>","null","","","","","","","","","","","","","","","","","","","","","","","feedback_test"
"","","","","","psychophysics","84","442040","0.0-9.0-0.0-0.0-0.0-0.4","584","","f","","","","","","","","","","","","","key","f","16.66672340425554","853.3333333333334","529.3333333333334","f","true","img/T_ambi40.png","をる","same",""
"","","","","","html-keyboard-response","85","442544","0.0-9.0-0.0-0.0-0.0-1.4","null","<span style='color:GreenYellow; font-size: 70px;'>正确! </span>","null","","","","","","","","","","","","","","","","","","","","","","","feedback_test"
"","","","","","psychophysics","86","444642","0.0-9.0-0.0-0.0-0.0-0.5","1090","","f","","","","","","","","","","","","","key","f","16.666399999999907","853.3333333333334","529.3333333333334","f","true","img/H_ambi40.png","朋友","same",""
"","","","","","html-keyboard-response","87","445157","0.0-9.0-0.0-0.0-0.0-1.5","null","<span style='color:GreenYellow; font-size: 70px;'>正确! </span>","null","","","","","","","","","","","","","","","","","","","","","","","feedback_test"
"","","","","","psychophysics","88","446755","0.0-9.0-0.0-0.0-0.0-0.6","596","","f","","","","","","","","","","","","","key","f","16.662680851063378","853.3333333333334","529.3333333333334","f","true","img/S_ambi40.png","生人","same",""
"","","","","","html-keyboard-response","89","447259","0.0-9.0-0.0-0.0-0.0-1.6","null","<span style='color:GreenYellow; font-size: 70px;'>正确! </span>","null","","","","","","","","","","","","","","","","","","","","","","","feedback_test"
"","","","","","psychophysics","90","449295","0.0-9.0-0.0-0.0-0.0-0.7","1036","","f","","","","","","","","","","","","","key","f","16.666561983470913","853.3333333333334","529.3333333333334","f","true","img/C_ambi40.png","朋友","same",""
"","","","","","html-keyboard-response","91","449801","0.0-9.0-0.0-0.0-0.0-1.7","null","<span style='color:GreenYellow; font-size: 70px;'>正确! </span>","null","","","","","","","","","","","","","","","","","","","","","","","feedback_test"
"","","","","","psychophysics","92","451695","0.0-9.0-0.0-0.0-0.0-0.8","892","","j","","","","","","","","","","","","","key","j","16.66658407079666","853.3333333333334","529.3333333333334","j","true","img/H_ambi40.png","自我","same",""
"","","","","","html-keyboard-response","93","452208","0.0-9.0-0.0-0.0-0.0-1.8","null","<span style='color:GreenYellow; font-size: 70px;'>正确! </span>","null","","","","","","","","","","","","","","","","","","","","","","","feedback_test"
"","","","","","psychophysics","94","454046","0.0-9.0-0.0-0.0-0.0-0.9","838","","j","","","","","","","","","","","","","key","j","16.66644036697241","853.3333333333334","529.3333333333334","j","true","img/C_ambi40.png","生人","same",""
"","","","","","html-keyboard-response","95","454554","0.0-9.0-0.0-0.0-0.0-1.9","null","<span style='color:GreenYellow; font-size: 70px;'>正确! </span>","null","","","","","","","","","","","","","","","","","","","","","","","feedback_test"
"","","","","","psychophysics","96","456263","0.0-9.0-0.0-0.0-0.0-0.10","704","","j","","","","","","","","","","","","","key","j","16.666637254902277","853.3333333333334","529.3333333333334","j","true","img/H_ambi40.png","自我","same",""
"","","","","","html-keyboard-response","97","456766","0.0-9.0-0.0-0.0-0.0-1.10","null","<span style='color:GreenYellow; font-size: 70px;'>正确! </span>","null","","","","","","","","","","","","","","","","","","","","","","","feedback_test"
"","","","","","psychophysics","98","458605","0.0-9.0-0.0-0.0-0.0-0.11","836","","f","","","","","","","","","","","","","key","f","16.66663302752294","853.3333333333334","529.3333333333334","f","true","img/C_ambi40.png","自我","same",""
"","","","","","html-keyboard-response","99","459115","0.0-9.0-0.0-0.0-0.0-1.11","null","<span style='color:GreenYellow; font-size: 70px;'>正确! </span>","null","","","","","","","","","","","","","","","","","","","","","","","feedback_test"
"","","","","","psychophysics","100","460698","0.0-9.0-0.0-0.0-0.0-0.12","575","","f","","","","","","","","","","","","","key","f","16.666574468085063","853.3333333333334","529.3333333333334","f","true","img/T_ambi40.png","をる","same",""
"","","","","","html-keyboard-response","101","461211","0.0-9.0-0.0-0.0-0.0-1.12","null","<span style='color:GreenYellow; font-size: 70px;'>正确! </span>","null","","","","","","","","","","","","","","","","","","","","","","","feedback_test"
"","","","","","psychophysics","102","462911","0.0-9.0-0.0-0.0-0.0-0.13","693","","j","","","","","","","","","","","","","key","j","16.666752475247566","853.3333333333334","529.3333333333334","j","true","img/S_ambi40.png","朋友","same",""
"","","","","","html-keyboard-response","103","463411","0.0-9.0-0.0-0.0-0.0-1.13","null","<span style='color:GreenYellow; font-size: 70px;'>正确! </span>","null","","","","","","","","","","","","","","","","","","","","","","","feedback_test"
"","","","","","psychophysics","104","465080","0.0-9.0-0.0-0.0-0.0-0.14","667","","f","","","","","","","","","","","","","key","f","16.666666666666668","853.3333333333334","529.3333333333334","f","true","img/S_ambi40.png","自我","same",""
"","","","","","html-keyboard-response","105","465591","0.0-9.0-0.0-0.0-0.0-1.14","null","<span style='color:GreenYellow; font-size: 70px;'>正确! </span>","null","","","","","","","","","","","","","","","","","","","","","","","feedback_test"
"","","","","","psychophysics","106","467257","0.0-9.0-0.0-0.0-0.0-0.15","665","","f","","","","","","","","","","","","","key","f","16.666459183673712","853.3333333333334","529.3333333333334","j","false","img/S_ambi40.png","朋友","same",""
"","","","","","html-keyboard-response","107","467771","0.0-9.0-0.0-0.0-0.0-1.15","null","<span style='color:red; font-size: 70px;'>错误! </span>","null","","","","","","","","","","","","","","","","","","","","","","","feedback_test"
"","","","","","psychophysics","108","469442","0.0-9.0-0.0-0.0-0.0-0.16","668","","j","","","","","","","","","","","","","key","j","16.66658999999985","853.3333333333334","529.3333333333334","j","true","img/C_ambi40.png","生人","same",""
"","","","","","html-keyboard-response","109","469947","0.0-9.0-0.0-0.0-0.0-1.16","null","<span style='color:GreenYellow; font-size: 70px;'>正确! </span>","null","","","","","","","","","","","","","","","","","","","","","","","feedback_test"
"","","","","","psychophysics","110","471505","0.0-9.0-0.0-0.0-0.0-0.17","550","","j","","","","","","","","","","","","","key","j","16.666543478260714","853.3333333333334","529.3333333333334","j","true","img/H_ambi40.png","自我","same",""
"","","","","","html-keyboard-response","111","472007","0.0-9.0-0.0-0.0-0.0-1.17","null","<span style='color:GreenYellow; font-size: 70px;'>正确! </span>","null","","","","","","","","","","","","","","","","","","","","","","","feedback_test"
"","","","","","psychophysics","112","473873","0.0-9.0-0.0-0.0-0.0-0.18","865","","f","","","","","","","","","","","","","key","f","16.658709090909475","853.3333333333334","529.3333333333334","j","false","img/H_ambi40.png","自我","same",""
"","","","","","html-keyboard-response","113","474378","0.0-9.0-0.0-0.0-0.0-1.18","null","<span style='color:red; font-size: 70px;'>错误! </span>","null","","","","","","","","","","","","","","","","","","","","","","","feedback_test"
"","","","","","psychophysics","114","476035","0.0-9.0-0.0-0.0-0.0-0.19","651","","j","","","","","","","","","","","","","key","j","16.66658163265318","853.3333333333334","529.3333333333334","j","true","img/C_ambi40.png","生人","same",""
"","","","","","html-keyboard-response","115","476548","0.0-9.0-0.0-0.0-0.0-1.19","null","<span style='color:GreenYellow; font-size: 70px;'>正确! </span>","null","","","","","","","","","","","","","","","","","","","","","","","feedback_test"
"","","","","","psychophysics","116","478115","0.0-9.0-0.0-0.0-0.0-0.20","558","","f","","","","","","","","","","","","","key","f","16.666537634408108","853.3333333333334","529.3333333333334","f","true","img/T_ambi40.png","をる","same",""
"","","","","","html-keyboard-response","117","478616","0.0-9.0-0.0-0.0-0.0-1.20","null","<span style='color:GreenYellow; font-size: 70px;'>正确! </span>","null","","","","","","","","","","","","","","","","","","","","","","","feedback_test"
"","","","","","psychophysics","118","480131","0.0-9.0-0.0-0.0-0.0-0.21","509","","j","","","","","","","","","","","","","key","j","16.666766666666888","853.3333333333334","529.3333333333334","j","true","img/H_ambi40.png","自我","same",""
"","","","","","html-keyboard-response","119","480639","0.0-9.0-0.0-0.0-0.0-1.21","null","<span style='color:GreenYellow; font-size: 70px;'>正确! </span>","null","","","","","","","","","","","","","","","","","","","","","","","feedback_test"
"","","","","","psychophysics","120","482735","0.0-9.0-0.0-0.0-0.0-0.22","1094","","j","","","","","","","","","","","","","key","j","16.66651199999964","853.3333333333334","529.3333333333334","j","true","img/C_ambi40.png","生人","same",""
"","","","","","html-keyboard-response","121","483237","0.0-9.0-0.0-0.0-0.0-1.22","null","<span style='color:GreenYellow; font-size: 70px;'>正确! </span>","null","","","","","","","","","","","","","","","","","","","","","","","feedback_test"
"","","","","","psychophysics","122","484815","0.0-9.0-0.0-0.0-0.0-0.23","574","","j","","","","","","","","","","","","","key","j","16.66645744680848","853.3333333333334","529.3333333333334","j","true","img/S_ambi40.png","朋友","same",""
"","","","","","html-keyboard-response","123","485319","0.0-9.0-0.0-0.0-0.0-1.23","null","<span style='color:GreenYellow; font-size: 70px;'>正确! </span>","null","","","","","","","","","","","","","","","","","","","","","","","feedback_test"
"","","","","","psychophysics","124","487083","0.0-9.0-0.0-0.0-0.0-0.24","759","","f","","","","","","","","","","","","","key","f","16.66671428571433","853.3333333333334","529.3333333333334","f","true","img/C_ambi40.png","自我","same",""
"","","","","","html-keyboard-response","125","487584","0.0-9.0-0.0-0.0-0.0-1.24","null","<span style='color:GreenYellow; font-size: 70px;'>正确! </span>","null","","","","","","","","","","","","","","","","","","","","","","","feedback_test"
"","","","","","psychophysics","126","489962","0.0-9.0-0.0-0.0-0.0-0.25","1371","","f","","","","","","","","","","","","","key","f","16.666450704225344","853.3333333333334","529.3333333333334","f","true","img/S_ambi40.png","自我","same",""
"","","","","","html-keyboard-response","127","490463","0.0-9.0-0.0-0.0-0.0-1.25","null","<span style='color:GreenYellow; font-size: 70px;'>正确! </span>","null","","","","","","","","","","","","","","","","","","","","","","","feedback_test"
"","","","","","psychophysics","128","492022","0.0-9.0-0.0-0.0-0.0-0.26","556","","f","","","","","","","","","","","","","key","f","16.666858695651804","853.3333333333334","529.3333333333334","f","true","img/T_ambi40.png","をる","same",""
"","","","","","html-keyboard-response","129","492523","0.0-9.0-0.0-0.0-0.0-1.26","null","<span style='color:GreenYellow; font-size: 70px;'>正确! </span>","null","","","","","","","","","","","","","","","","","","","","","","","feedback_test"
"","","","","","psychophysics","130","494477","0.0-9.0-0.0-0.0-0.0-0.27","953","","f","","","","","","","","","","","","","key","f","16.666452991452793","853.3333333333334","529.3333333333334","f","true","img/C_ambi40.png","朋友","same",""
"","","","","","html-keyboard-response","131","494988","0.0-9.0-0.0-0.0-0.0-1.27","null","<span style='color:GreenYellow; font-size: 70px;'>正确! </span>","null","","","","","","","","","","","","","","","","","","","","","","","feedback_test"
"","","","","","psychophysics","132","496845","0.0-9.0-0.0-0.0-0.0-0.28","854","","j","","","","","","","","","","","","","key","j","16.666234234234146","853.3333333333334","529.3333333333334","j","true","img/H_ambi40.png","自我","same",""
"","","","","","html-keyboard-response","133","497355","0.0-9.0-0.0-0.0-0.0-1.28","null","<span style='color:GreenYellow; font-size: 70px;'>正确! </span>","null","","","","","","","","","","","","","","","","","","","","","","","feedback_test"
"","","","","","psychophysics","134","499074","0.0-9.0-0.0-0.0-0.0-0.29","717","","j","","","","","","","","","","","","","key","j","16.66669607843106","853.3333333333334","529.3333333333334","j","true","img/S_ambi40.png","朋友","same",""
"","","","","","html-keyboard-response","135","499576","0.0-9.0-0.0-0.0-0.0-1.29","null","<span style='color:GreenYellow; font-size: 70px;'>正确! </span>","null","","","","","","","","","","","","","","","","","","","","","","","feedback_test"
"","","","","","psychophysics","136","501441","0.0-9.0-0.0-0.0-0.0-0.30","852","","f","","","","","","","","","","","","","key","f","16.6665727272725","853.3333333333334","529.3333333333334","f","true","img/H_ambi40.png","生人","same",""
"","","","","","html-keyboard-response","137","501948","0.0-9.0-0.0-0.0-0.0-1.30","null","<span style='color:GreenYellow; font-size: 70px;'>正确! </span>","null","","","","","","","","","","","","","","","","","","","","","","","feedback_test"
"","","","","","psychophysics","138","503494","0.0-9.0-0.0-0.0-0.0-0.31","539","","f","","","","","","","","","","","","","key","f","16.666673913043823","853.3333333333334","529.3333333333334","f","true","img/T_ambi40.png","をる","same",""
"","","","","","html-keyboard-response","139","504000","0.0-9.0-0.0-0.0-0.0-1.31","null","<span style='color:GreenYellow; font-size: 70px;'>正确! </span>","null","","","","","","","","","","","","","","","","","","","","","","","feedback_test"
"","","","","","psychophysics","140","505859","0.0-9.0-0.0-0.0-0.0-0.32","852","","f","","","","","","","","","","","","","key","f","16.666441441441233","853.3333333333334","529.3333333333334","j","false","img/C_ambi40.png","生人","same",""
"","","","","","html-keyboard-response","141","506365","0.0-9.0-0.0-0.0-0.0-1.32","null","<span style='color:red; font-size: 70px;'>错误! </span>","null","","","","","","","","","","","","","","","","","","","","","","","feedback_test"
"","","","","","psychophysics","142","507963","0.0-9.0-0.0-0.0-0.0-0.33","589","","j","","","","","","","","","","","","","key","j","16.666642105263218","853.3333333333334","529.3333333333334","j","true","img/S_ambi40.png","朋友","same",""
"","","","","","html-keyboard-response","143","508476","0.0-9.0-0.0-0.0-0.0-1.33","null","<span style='color:GreenYellow; font-size: 70px;'>正确! </span>","null","","","","","","","","","","","","","","","","","","","","","","","feedback_test"
"","","","","","psychophysics","144","510540","0.0-9.0-0.0-0.0-0.0-0.34","1053","","f","","","","","","","","","","","","","key","f","16.666524590163867","853.3333333333334","529.3333333333334","f","true","img/S_ambi40.png","生人","same",""
"","","","","","html-keyboard-response","145","511049","0.0-9.0-0.0-0.0-0.0-1.34","null","<span style='color:GreenYellow; font-size: 70px;'>正确! </span>","null","","","","","","","","","","","","","","","","","","","","","","","feedback_test"
"","","","","","psychophysics","146","513375","0.0-9.0-0.0-0.0-0.0-0.35","1321","","f","","","","","","","","","","","","","key","f","16.666741007194425","853.3333333333334","529.3333333333334","f","true","img/H_ambi40.png","朋友","same",""
"","","","","","html-keyboard-response","147","513875","0.0-9.0-0.0-0.0-0.0-1.35","null","<span style='color:GreenYellow; font-size: 70px;'>正确! </span>","null","","","","","","","","","","","","","","","","","","","","","","","feedback_test"
"","","","","","psychophysics","148","515454","0.0-9.0-0.0-0.0-0.0-0.36","562","","f","","","","","","","","","","","","","key","f","16.666301075268976","853.3333333333334","529.3333333333334","f","true","img/T_ambi40.png","をる","same",""
"","","","","","html-keyboard-response","149","515967","0.0-9.0-0.0-0.0-0.0-1.36","null","<span style='color:GreenYellow; font-size: 70px;'>正确! </span>","null","","","","","","","","","","","","","","","","","","","","","","","feedback_test"
"","","","","","psychophysics","150","517546","0.0-9.0-0.0-0.0-0.0-0.37","578","","f","","","","","","","","","","","","","key","f","16.666617021276714","853.3333333333334","529.3333333333334","f","true","img/T_ambi40.png","をる","same",""
"","","","","","html-keyboard-response","151","518050","0.0-9.0-0.0-0.0-0.0-1.37","null","<span style='color:GreenYellow; font-size: 70px;'>正确! </span>","null","","","","","","","","","","","","","","","","","","","","","","","feedback_test"
"","","","","","psychophysics","152","520558","0.0-9.0-0.0-0.0-0.0-0.38","null","","null","","","","","","","","","","","","","key","null","16.666375838926424","853.3333333333334","529.3333333333334","j","false","img/C_ambi40.png","生人","same",""
"","","","","","html-keyboard-response","153","521073","0.0-9.0-0.0-0.0-0.0-1.38","null","<span class='add_' style='color:yellow; font-size: 70px;'> 太慢! </span>","null","","","","","","","","","","","","","","","","","","","","","","","feedback_test"
"","","","","","psychophysics","154","522814","0.0-9.0-0.0-0.0-0.0-0.39","740","","j","","","","","","","","","","","","","key","j","16.655330097087482","853.3333333333334","529.3333333333334","f","false","img/H_ambi40.png","朋友","same",""
"","","","","","html-keyboard-response","155","523322","0.0-9.0-0.0-0.0-0.0-1.39","null","<span style='color:red; font-size: 70px;'>错误! </span>","null","","","","","","","","","","","","","","","","","","","","","","","feedback_test"
"","","","","","psychophysics","156","525397","0.0-9.0-0.0-0.0-0.0-0.40","1072","","j","","","","","","","","","","","","","key","j","16.666483870967507","853.3333333333334","529.3333333333334","j","true","img/S_ambi40.png","朋友","same",""
"","","","","","html-keyboard-response","157","525904","0.0-9.0-0.0-0.0-0.0-1.40","null","<span style='color:GreenYellow; font-size: 70px;'>正确! </span>","null","","","","","","","","","","","","","","","","","","","","","","","feedback_test"
"","","","","","psychophysics","158","527466","0.0-9.0-0.0-0.0-0.0-0.41","558","","j","","","","","","","","","","","","","key","j","16.665967741934832","853.3333333333334","529.3333333333334","j","true","img/S_ambi40.png","朋友","same",""
"","","","","","html-keyboard-response","159","527969","0.0-9.0-0.0-0.0-0.0-1.41","null","<span style='color:GreenYellow; font-size: 70px;'>正确! </span>","null","","","","","","","","","","","","","","","","","","","","","","","feedback_test"
"","","","","","psychophysics","160","529628","0.0-9.0-0.0-0.0-0.0-0.42","653","","j","","","","","","","","","","","","","key","j","16.668020202020994","853.3333333333334","529.3333333333334","j","true","img/C_ambi40.png","生人","same",""
"","","","","","html-keyboard-response","161","530129","0.0-9.0-0.0-0.0-0.0-1.42","null","<span style='color:GreenYellow; font-size: 70px;'>正确! </span>","null","","","","","","","","","","","","","","","","","","","","","","","feedback_test"
"","","","","","psychophysics","162","531746","0.0-9.0-0.0-0.0-0.0-0.43","606","","j","","","","","","","","","","","","","key","j","16.66643750000003","853.3333333333334","529.3333333333334","f","false","img/S_ambi40.png","生人","same",""
"","","","","","html-keyboard-response","163","532262","0.0-9.0-0.0-0.0-0.0-1.43","null","<span style='color:red; font-size: 70px;'>错误! </span>","null","","","","","","","","","","","","","","","","","","","","","","","feedback_test"
"","","","","","psychophysics","164","533850","0.0-9.0-0.0-0.0-0.0-0.44","586","","f","","","","","","","","","","","","","key","f","16.66657446808444","853.3333333333334","529.3333333333334","f","true","img/T_ambi40.png","をる","same",""
"","","","","","html-keyboard-response","165","534366","0.0-9.0-0.0-0.0-0.0-1.44","null","<span style='color:GreenYellow; font-size: 70px;'>正确! </span>","null","","","","","","","","","","","","","","","","","","","","","","","feedback_test"
"","","","","","psychophysics","166","536489","0.0-9.0-0.0-0.0-0.0-0.45","1120","","f","","","","","","","","","","","","","key","f","16.666507936507788","853.3333333333334","529.3333333333334","f","true","img/C_ambi40.png","自我","same",""
"","","","","","html-keyboard-response","167","536993","0.0-9.0-0.0-0.0-0.0-1.45","null","<span style='color:GreenYellow; font-size: 70px;'>正确! </span>","null","","","","","","","","","","","","","","","","","","","","","","","feedback_test"
"","","","","","psychophysics","168","538628","0.0-9.0-0.0-0.0-0.0-0.46","628","","j","","","","","","","","","","","","","key","j","16.666546391751666","853.3333333333334","529.3333333333334","j","true","img/H_ambi40.png","自我","same",""
"","","","","","html-keyboard-response","169","539133","0.0-9.0-0.0-0.0-0.0-1.46","null","<span style='color:GreenYellow; font-size: 70px;'>正确! </span>","null","","","","","","","","","","","","","","","","","","","","","","","feedback_test"
"","","","","","psychophysics","170","541415","0.0-9.0-0.0-0.0-0.0-0.47","1274","","j","","","","","","","","","","","","","key","j","16.666485294117592","853.3333333333334","529.3333333333334","f","false","img/S_ambi40.png","自我","same",""
"","","","","","html-keyboard-response","171","541917","0.0-9.0-0.0-0.0-0.0-1.47","null","<span style='color:red; font-size: 70px;'>错误! </span>","null","","","","","","","","","","","","","","","","","","","","","","","feedback_test"
"","","","","","psychophysics","172","543866","0.0-9.0-0.0-0.0-0.0-0.48","942","","f","","","","","","","","","","","","","key","f","16.666784482758196","853.3333333333334","529.3333333333334","f","true","img/H_ambi40.png","生人","same",""
"","","","","","html-keyboard-response","173","544366","0.0-9.0-0.0-0.0-0.0-1.48","null","<span style='color:GreenYellow; font-size: 70px;'>正确! </span>","null","","","","","","","","","","","","","","","","","","","","","","","feedback_test"
"","","","","","psychophysics","174","546120","0.0-9.0-0.0-0.0-0.0-0.49","746","","f","","","","","","","","","","","","","key","f","16.666538461537968","853.3333333333334","529.3333333333334","j","false","img/H_ambi40.png","自我","same",""
"","","","","","html-keyboard-response","175","546635","0.0-9.0-0.0-0.0-0.0-1.49","null","<span style='color:red; font-size: 70px;'>错误! </span>","null","","","","","","","","","","","","","","","","","","","","","","","feedback_test"
"","","","","","psychophysics","176","548256","0.0-9.0-0.0-0.0-0.0-0.50","617","","j","","","","","","","","","","","","","key","j","16.66647916666625","853.3333333333334","529.3333333333334","j","true","img/H_ambi40.png","自我","same",""
"","","","","","html-keyboard-response","177","548763","0.0-9.0-0.0-0.0-0.0-1.50","null","<span style='color:GreenYellow; font-size: 70px;'>正确! </span>","null","","","","","","","","","","","","","","","","","","","","","","","feedback_test"
"","","","","","psychophysics","178","550439","0.0-9.0-0.0-0.0-0.0-0.51","668","","j","","","","","","","","","","","","","key","j","16.66652525252559","853.3333333333334","529.3333333333334","j","true","img/C_ambi40.png","生人","same",""
"","","","","","html-keyboard-response","179","550954","0.0-9.0-0.0-0.0-0.0-1.51","null","<span style='color:GreenYellow; font-size: 70px;'>正确! </span>","null","","","","","","","","","","","","","","","","","","","","","","","feedback_test"
"","","","","","psychophysics","180","552390","0.0-9.0-0.0-0.0-0.0-0.52","433","","j","","","","","","","","","","","","","key","j","16.66602352941272","853.3333333333334","529.3333333333334","j","true","img/S_ambi40.png","朋友","same",""
"","","","","","html-keyboard-response","181","552893","0.0-9.0-0.0-0.0-0.0-1.52","null","<span style='color:GreenYellow; font-size: 70px;'>正确! </span>","null","","","","","","","","","","","","","","","","","","","","","","","feedback_test"
"","","","","","psychophysics","182","554526","0.0-9.0-0.0-0.0-0.0-0.53","625","","j","","","","","","","","","","","","","key","j","16.666515463917545","853.3333333333334","529.3333333333334","f","false","img/C_ambi40.png","朋友","same",""
"","","","","","html-keyboard-response","183","555041","0.0-9.0-0.0-0.0-0.0-1.53","null","<span style='color:red; font-size: 70px;'>错误! </span>","null","","","","","","","","","","","","","","","","","","","","","","","feedback_test"
"","","","","","psychophysics","184","557016","0.0-9.0-0.0-0.0-0.0-0.54","966","","j","","","","","","","","","","","","","key","j","16.666410256410018","853.3333333333334","529.3333333333334","j","true","img/S_ambi40.png","朋友","same",""
"","","","","","html-keyboard-response","185","557518","0.0-9.0-0.0-0.0-0.0-1.54","null","<span style='color:GreenYellow; font-size: 70px;'>正确! </span>","null","","","","","","","","","","","","","","","","","","","","","","","feedback_test"
"","","","","","psychophysics","186","559064","0.0-9.0-0.0-0.0-0.0-0.55","540","","f","","","","","","","","","","","","","key","f","16.666597826087482","853.3333333333334","529.3333333333334","f","true","img/T_ambi40.png","をる","same",""
"","","","","","html-keyboard-response","187","559579","0.0-9.0-0.0-0.0-0.0-1.55","null","<span style='color:GreenYellow; font-size: 70px;'>正确! </span>","null","","","","","","","","","","","","","","","","","","","","","","","feedback_test"
"","","","","","psychophysics","188","562044","0.0-9.0-0.0-0.0-0.0-0.56","1454","","f","","","","","","","","","","","","","key","f","16.666034013605486","853.3333333333334","529.3333333333334","f","true","img/C_ambi40.png","朋友","same",""
"","","","","","html-keyboard-response","189","562560","0.0-9.0-0.0-0.0-0.0-1.56","null","<span style='color:GreenYellow; font-size: 70px;'>正确! </span>","null","","","","","","","","","","","","","","","","","","","","","","","feedback_test"
"","","","","","psychophysics","190","564414","0.0-9.0-0.0-0.0-0.0-0.57","846","","j","","","","","","","","","","","","","key","j","16.666554545454513","853.3333333333334","529.3333333333334","j","true","img/H_ambi40.png","自我","same",""
"","","","","","html-keyboard-response","191","564929","0.0-9.0-0.0-0.0-0.0-1.57","null","<span style='color:GreenYellow; font-size: 70px;'>正确! </span>","null","","","","","","","","","","","","","","","","","","","","","","","feedback_test"
"","","","","","psychophysics","192","566565","0.0-9.0-0.0-0.0-0.0-0.58","634","","j","","","","","","","","","","","","","key","j","16.66605154639254","853.3333333333334","529.3333333333334","j","true","img/S_ambi40.png","朋友","same",""
"","","","","","html-keyboard-response","193","567069","0.0-9.0-0.0-0.0-0.0-1.58","null","<span style='color:GreenYellow; font-size: 70px;'>正确! </span>","null","","","","","","","","","","","","","","","","","","","","","","","feedback_test"
"","","","","","psychophysics","194","568589","0.0-9.0-0.0-0.0-0.0-0.59","516","","f","","","","","","","","","","","","","key","f","16.666577777777437","853.3333333333334","529.3333333333334","f","true","img/T_ambi40.png","をる","same",""
"","","","","","html-keyboard-response","195","569090","0.0-9.0-0.0-0.0-0.0-1.59","null","<span style='color:GreenYellow; font-size: 70px;'>正确! </span>","null","","","","","","","","","","","","","","","","","","","","","","","feedback_test"
"","","","","","psychophysics","196","570989","0.0-9.0-0.0-0.0-0.0-0.60","898","","f","","","","","","","","","","","","","key","f","16.666437500000548","853.3333333333334","529.3333333333334","f","true","img/S_ambi40.png","生人","same",""
"","","","","","html-keyboard-response","197","571491","0.0-9.0-0.0-0.0-0.0-1.60","null","<span style='color:GreenYellow; font-size: 70px;'>正确! </span>","null","","","","","","","","","","","","","","","","","","","","","","","feedback_test"
"","","","","","psychophysics","198","573324","0.0-9.0-0.0-0.0-0.0-0.61","818","","f","","","","","","","","","","","","","key","f","16.666577981651436","853.3333333333334","529.3333333333334","f","true","img/H_ambi40.png","朋友","same",""
"","","","","","html-keyboard-response","199","573825","0.0-9.0-0.0-0.0-0.0-1.61","null","<span style='color:GreenYellow; font-size: 70px;'>正确! </span>","null","","","","","","","","","","","","","","","","","","","","","","","feedback_test"
"","","","","","psychophysics","200","575498","0.0-9.0-0.0-0.0-0.0-0.62","664","","f","","","","","","","","","","","","","key","f","16.666616161616115","853.3333333333334","529.3333333333334","f","true","img/H_ambi40.png","生人","same",""
"","","","","","html-keyboard-response","201","576002","0.0-9.0-0.0-0.0-0.0-1.62","null","<span style='color:GreenYellow; font-size: 70px;'>正确! </span>","null","","","","","","","","","","","","","","","","","","","","","","","feedback_test"
"","","","","","psychophysics","202","577929","0.0-9.0-0.0-0.0-0.0-0.63","923","","j","","","","","","","","","","","","","key","j","16.666591304347282","853.3333333333334","529.3333333333334","j","true","img/S_ambi40.png","朋友","same",""
"","","","","","html-keyboard-response","203","578434","0.0-9.0-0.0-0.0-0.0-1.63","null","<span style='color:GreenYellow; font-size: 70px;'>正确! </span>","null","","","","","","","","","","","","","","","","","","","","","","","feedback_test"
"","","","","","psychophysics","204","580285","0.0-9.0-0.0-0.0-0.0-0.64","845","","j","","","","","","","","","","","","","key","j","16.666463636363517","853.3333333333334","529.3333333333334","j","true","img/H_ambi40.png","自我","same",""
"","","","","","html-keyboard-response","205","580788","0.0-9.0-0.0-0.0-0.0-1.64","null","<span style='color:GreenYellow; font-size: 70px;'>正确! </span>","null","","","","","","","","","","","","","","","","","","","","","","","feedback_test"
"","","","","","psychophysics","206","582388","0.0-9.0-0.0-0.0-0.0-0.65","598","","j","","","","","","","","","","","","","key","j","16.666852631579204","853.3333333333334","529.3333333333334","f","false","img/S_ambi40.png","自我","same",""
"","","","","","html-keyboard-response","207","582894","0.0-9.0-0.0-0.0-0.0-1.65","null","<span style='color:red; font-size: 70px;'>错误! </span>","null","","","","","","","","","","","","","","","","","","","","","","","feedback_test"
"","","","","","psychophysics","208","584652","0.0-9.0-0.0-0.0-0.0-0.66","750","","j","","","","","","","","","","","","","key","j","16.666519230768944","853.3333333333334","529.3333333333334","j","true","img/C_ambi40.png","生人","same",""
"","","","","","html-keyboard-response","209","585166","0.0-9.0-0.0-0.0-0.0-1.66","null","<span style='color:GreenYellow; font-size: 70px;'>正确! </span>","null","","","","","","","","","","","","","","","","","","","","","","","feedback_test"
"","","","","","psychophysics","210","586743","0.0-9.0-0.0-0.0-0.0-0.67","570","","f","","","","","","","","","","","","","key","f","16.66671276595716","853.3333333333334","529.3333333333334","j","false","img/H_ambi40.png","自我","same",""
"","","","","","html-keyboard-response","211","587251","0.0-9.0-0.0-0.0-0.0-1.67","null","<span style='color:red; font-size: 70px;'>错误! </span>","null","","","","","","","","","","","","","","","","","","","","","","","feedback_test"
"","","","","","psychophysics","212","588973","0.0-9.0-0.0-0.0-0.0-0.68","717","","f","","","","","","","","","","","","","key","f","16.666669902912776","853.3333333333334","529.3333333333334","j","false","img/C_ambi40.png","生人","same",""
"","","","","","html-keyboard-response","213","589489","0.0-9.0-0.0-0.0-0.0-1.68","null","<span style='color:red; font-size: 70px;'>错误! </span>","null","","","","","","","","","","","","","","","","","","","","","","","feedback_test"
"","","","","","psychophysics","214","591100","0.0-9.0-0.0-0.0-0.0-0.69","610","","f","","","","","","","","","","","","","key","f","16.66018947368414","853.3333333333334","529.3333333333334","f","true","img/T_ambi40.png","をる","same",""
"","","","","","html-keyboard-response","215","591602","0.0-9.0-0.0-0.0-0.0-1.69","null","<span style='color:GreenYellow; font-size: 70px;'>正确! </span>","null","","","","","","","","","","","","","","","","","","","","","","","feedback_test"
"","","","","","psychophysics","216","593398","0.0-9.0-0.0-0.0-0.0-0.70","792","","j","","","","","","","","","","","","","key","j","16.666177570093076","853.3333333333334","529.3333333333334","j","true","img/C_ambi40.png","生人","same",""
"","","","","","html-keyboard-response","217","593913","0.0-9.0-0.0-0.0-0.0-1.70","null","<span style='color:GreenYellow; font-size: 70px;'>正确! </span>","null","","","","","","","","","","","","","","","","","","","","","","","feedback_test"
"","","","","","psychophysics","218","595789","0.0-9.0-0.0-0.0-0.0-0.71","866","","j","","","","","","","","","","","","","key","j","16.66654954954923","853.3333333333334","529.3333333333334","f","false","img/C_ambi40.png","自我","same",""
"","","","","","html-keyboard-response","219","596302","0.0-9.0-0.0-0.0-0.0-1.71","null","<span style='color:red; font-size: 70px;'>错误! </span>","null","","","","","","","","","","","","","","","","","","","","","","","feedback_test"
"","","","","","psychophysics","220","598132","0.0-9.0-0.0-0.0-0.0-0.72","825","","f","","","","","","","","","","","","","key","f","16.666366972476713","853.3333333333334","529.3333333333334","f","true","img/H_ambi40.png","朋友","same",""
"","","","","","html-keyboard-response","221","598641","0.0-9.0-0.0-0.0-0.0-1.72","null","<span style='color:GreenYellow; font-size: 70px;'>正确! </span>","null","","","","","","","","","","","","","","","","","","","","","","","feedback_test"
"","","","","","psychophysics","222","600247","0.0-9.0-0.0-0.0-0.0-0.73","593","","f","","","","","","","","","","","","","key","f","16.666421052632167","853.3333333333334","529.3333333333334","f","true","img/T_ambi40.png","をる","same",""
"","","","","","html-keyboard-response","223","600762","0.0-9.0-0.0-0.0-0.0-1.73","null","<span style='color:GreenYellow; font-size: 70px;'>正确! </span>","null","","","","","","","","","","","","","","","","","","","","","","","feedback_test"
"","","","","","psychophysics","224","602559","0.0-9.0-0.0-0.0-0.0-0.74","792","","f","","","","","","","","","","","","","key","f","16.66707476635494","853.3333333333334","529.3333333333334","f","true","img/C_ambi40.png","朋友","same",""
"","","","","","html-keyboard-response","225","603064","0.0-9.0-0.0-0.0-0.0-1.74","null","<span style='color:GreenYellow; font-size: 70px;'>正确! </span>","null","","","","","","","","","","","","","","","","","","","","","","","feedback_test"
"","","","","","psychophysics","226","604482","0.0-9.0-0.0-0.0-0.0-0.75","409","","j","","","","","","","","","","","","","key","j","16.66638095238124","853.3333333333334","529.3333333333334","j","true","img/S_ambi40.png","朋友","same",""
"","","","","","html-keyboard-response","227","604991","0.0-9.0-0.0-0.0-0.0-1.75","null","<span style='color:GreenYellow; font-size: 70px;'>正确! </span>","null","","","","","","","","","","","","","","","","","","","","","","","feedback_test"
"","","","","","psychophysics","228","606927","0.0-9.0-0.0-0.0-0.0-0.76","920","","f","","","","","","","","","","","","","key","f","16.666417391304655","853.3333333333334","529.3333333333334","f","true","img/H_ambi40.png","生人","same",""
"","","","","","html-keyboard-response","229","607436","0.0-9.0-0.0-0.0-0.0-1.76","null","<span style='color:GreenYellow; font-size: 70px;'>正确! </span>","null","","","","","","","","","","","","","","","","","","","","","","","feedback_test"
"","","","","","psychophysics","230","609149","0.0-9.0-0.0-0.0-0.0-0.77","709","","j","","","","","","","","","","","","","key","j","16.666686274509594","853.3333333333334","529.3333333333334","j","true","img/C_ambi40.png","生人","same",""
"","","","","","html-keyboard-response","231","609653","0.0-9.0-0.0-0.0-0.0-1.77","null","<span style='color:GreenYellow; font-size: 70px;'>正确! </span>","null","","","","","","","","","","","","","","","","","","","","","","","feedback_test"
"","","","","","psychophysics","232","611420","0.0-9.0-0.0-0.0-0.0-0.78","767","","j","","","","","","","","","","","","","key","j","16.66631428571418","853.3333333333334","529.3333333333334","j","true","img/H_ambi40.png","自我","same",""
"","","","","","html-keyboard-response","233","611924","0.0-9.0-0.0-0.0-0.0-1.78","null","<span style='color:GreenYellow; font-size: 70px;'>正确! </span>","null","","","","","","","","","","","","","","","","","","","","","","","feedback_test"
"","","","","","psychophysics","234","613875","0.0-9.0-0.0-0.0-0.0-0.79","949","","f","","","","","","","","","","","","","key","f","16.666396551724354","853.3333333333334","529.3333333333334","f","true","img/S_ambi40.png","生人","same",""
"","","","","","html-keyboard-response","235","614390","0.0-9.0-0.0-0.0-0.0-1.79","null","<span style='color:GreenYellow; font-size: 70px;'>正确! </span>","null","","","","","","","","","","","","","","","","","","","","","","","feedback_test"
"","","","","","psychophysics","236","616136","0.0-9.0-0.0-0.0-0.0-0.80","731","","f","","","","","","","","","","","","","key","f","16.666048543689346","853.3333333333334","529.3333333333334","j","false","img/C_ambi40.png","生人","same",""
"","","","","","html-keyboard-response","237","616646","0.0-9.0-0.0-0.0-0.0-1.80","null","<span style='color:red; font-size: 70px;'>错误! </span>","null","","","","","","","","","","","","","","","","","","","","","","","feedback_test"
"","","","","","psychophysics","238","618290","0.0-9.0-0.0-0.0-0.0-0.81","639","","j","","","","","","","","","","","","","key","j","16.666755102041453","853.3333333333334","529.3333333333334","j","true","img/H_ambi40.png","自我","same",""
"","","","","","html-keyboard-response","239","618793","0.0-9.0-0.0-0.0-0.0-1.81","null","<span style='color:GreenYellow; font-size: 70px;'>正确! </span>","null","","","","","","","","","","","","","","","","","","","","","","","feedback_test"
"","","","","","psychophysics","240","620362","0.0-9.0-0.0-0.0-0.0-0.82","565","","f","","","","","","","","","","","","","key","f","16.666623655913188","853.3333333333334","529.3333333333334","f","true","img/T_ambi40.png","をる","same",""
"","","","","","html-keyboard-response","241","620874","0.0-9.0-0.0-0.0-0.0-1.82","null","<span style='color:GreenYellow; font-size: 70px;'>正确! </span>","null","","","","","","","","","","","","","","","","","","","","","","","feedback_test"
"","","","","","psychophysics","242","622568","0.0-9.0-0.0-0.0-0.0-0.83","687","","f","","","","","","","","","","","","","key","f","16.666630000000588","853.3333333333334","529.3333333333334","f","true","img/T_ambi40.png","をる","same",""
"","","","","","html-keyboard-response","243","623071","0.0-9.0-0.0-0.0-0.0-1.83","null","<span style='color:GreenYellow; font-size: 70px;'>正确! </span>","null","","","","","","","","","","","","","","","","","","","","","","","feedback_test"
"","","","","","psychophysics","244","625584","0.0-9.0-0.0-0.0-0.0-0.84","null","","null","","","","","","","","","","","","","key","null","16.659389261745428","853.3333333333334","529.3333333333334","f","false","img/C_ambi40.png","自我","same",""
"","","","","","html-keyboard-response","245","626094","0.0-9.0-0.0-0.0-0.0-1.84","null","<span class='add_' style='color:yellow; font-size: 70px;'> 太慢! </span>","null","","","","","","","","","","","","","","","","","","","","","","","feedback_test"
"","","","","","psychophysics","246","628551","0.0-9.0-0.0-0.0-0.0-0.85","1454","","f","","","","","","","","","","","","","key","f","16.666678082191524","853.3333333333334","529.3333333333334","j","false","img/C_ambi40.png","生人","same",""
"","","","","","html-keyboard-response","247","629059","0.0-9.0-0.0-0.0-0.0-1.85","null","<span style='color:red; font-size: 70px;'>错误! </span>","null","","","","","","","","","","","","","","","","","","","","","","","feedback_test"
"","","","","","psychophysics","248","630781","0.0-9.0-0.0-0.0-0.0-0.86","719","","j","","","","","","","","","","","","","key","j","16.666666666666668","853.3333333333334","529.3333333333334","j","true","img/S_ambi40.png","朋友","same",""
"","","","","","html-keyboard-response","249","631296","0.0-9.0-0.0-0.0-0.0-1.86","null","<span style='color:GreenYellow; font-size: 70px;'>正确! </span>","null","","","","","","","","","","","","","","","","","","","","","","","feedback_test"
"","","","","","psychophysics","250","632879","0.0-9.0-0.0-0.0-0.0-0.87","572","","j","","","","","","","","","","","","","key","j","16.66664893616937","853.3333333333334","529.3333333333334","j","true","img/S_ambi40.png","朋友","same",""
"","","","","","html-keyboard-response","251","633382","0.0-9.0-0.0-0.0-0.0-1.87","null","<span style='color:GreenYellow; font-size: 70px;'>正确! </span>","null","","","","","","","","","","","","","","","","","","","","","","","feedback_test"
"","","","","","psychophysics","252","635401","0.0-9.0-0.0-0.0-0.0-0.88","1017","","f","","","","","","","","","","","","","key","f","16.66635000000048","853.3333333333334","529.3333333333334","f","true","img/S_ambi40.png","自我","same",""
"","","","","","html-keyboard-response","253","635912","0.0-9.0-0.0-0.0-0.0-1.88","null","<span style='color:GreenYellow; font-size: 70px;'>正确! </span>","null","","","","","","","","","","","","","","","","","","","","","","","feedback_test"
"","","","","","psychophysics","254","637780","0.0-9.0-0.0-0.0-0.0-0.89","867","","f","","","","","","","","","","","","","key","f","16.66669369369393","853.3333333333334","529.3333333333334","j","false","img/H_ambi40.png","自我","same",""
"","","","","","html-keyboard-response","255","638286","0.0-9.0-0.0-0.0-0.0-1.89","null","<span style='color:red; font-size: 70px;'>错误! </span>","null","","","","","","","","","","","","","","","","","","","","","","","feedback_test"
"","","","","","psychophysics","256","639873","0.0-9.0-0.0-0.0-0.0-0.90","584","","j","","","","","","","","","","","","","key","j","16.665734042553478","853.3333333333334","529.3333333333334","j","true","img/S_ambi40.png","朋友","same",""
"","","","","","html-keyboard-response","257","640388","0.0-9.0-0.0-0.0-0.0-1.90","null","<span style='color:GreenYellow; font-size: 70px;'>正确! </span>","null","","","","","","","","","","","","","","","","","","","","","","","feedback_test"
"","","","","","psychophysics","258","642334","0.0-9.0-0.0-0.0-0.0-0.91","944","","j","","","","","","","","","","","","","key","j","16.666525862069303","853.3333333333334","529.3333333333334","j","true","img/S_ambi40.png","朋友","same",""
"","","","","","html-keyboard-response","259","642844","0.0-9.0-0.0-0.0-0.0-1.91","null","<span style='color:GreenYellow; font-size: 70px;'>正确! </span>","null","","","","","","","","","","","","","","","","","","","","","","","feedback_test"
"","","","","","psychophysics","260","644524","0.0-9.0-0.0-0.0-0.0-0.92","670","","f","","","","","","","","","","","","","key","f","16.666700000000418","853.3333333333334","529.3333333333334","f","true","img/S_ambi40.png","生人","same",""
"","","","","","html-keyboard-response","261","645033","0.0-9.0-0.0-0.0-0.0-1.92","null","<span style='color:GreenYellow; font-size: 70px;'>正确! </span>","null","","","","","","","","","","","","","","","","","","","","","","","feedback_test"
"","","","","","psychophysics","262","647096","0.0-9.0-0.0-0.0-0.0-0.93","1056","","j","","","","","","","","","","","","","key","j","16.66660975609675","853.3333333333334","529.3333333333334","f","false","img/C_ambi40.png","自我","same",""
"","","","","","html-keyboard-response","263","647609","0.0-9.0-0.0-0.0-0.0-1.93","null","<span style='color:red; font-size: 70px;'>错误! </span>","null","","","","","","","","","","","","","","","","","","","","","","","feedback_test"
"","","","","","psychophysics","264","649155","0.0-9.0-0.0-0.0-0.0-0.94","537","","j","","","","","","","","","","","","","key","j","16.666428571428778","853.3333333333334","529.3333333333334","j","true","img/H_ambi40.png","自我","same",""
"","","","","","html-keyboard-response","265","649656","0.0-9.0-0.0-0.0-0.0-1.94","null","<span style='color:GreenYellow; font-size: 70px;'>正确! </span>","null","","","","","","","","","","","","","","","","","","","","","","","feedback_test"
"","","","","","psychophysics","266","651221","0.0-9.0-0.0-0.0-0.0-0.95","564","","j","","","","","","","","","","","","","key","j","16.66643478260907","853.3333333333334","529.3333333333334","j","true","img/H_ambi40.png","自我","same",""
"","","","","","html-keyboard-response","267","651723","0.0-9.0-0.0-0.0-0.0-1.95","null","<span style='color:GreenYellow; font-size: 70px;'>正确! </span>","null","","","","","","","","","","","","","","","","","","","","","","","feedback_test"
"","","","","","psychophysics","268","653271","0.0-9.0-0.0-0.0-0.0-0.96","541","","f","","","","","","","","","","","","","key","f","16.66638461538529","853.3333333333334","529.3333333333334","f","true","img/T_ambi40.png","をる","same",""
"","","","","","html-keyboard-response","269","653777","0.0-9.0-0.0-0.0-0.0-1.96","null","<span style='color:GreenYellow; font-size: 70px;'>正确! </span>","null","","","","","","","","","","","","","","","","","","","","","","","feedback_test"
"","","","","","psychophysics","270","655679","0.0-9.0-0.0-0.0-0.0-0.97","900","","f","","","","","","","","","","","","","key","f","16.666530973452094","853.3333333333334","529.3333333333334","j","false","img/C_ambi40.png","生人","same",""
"","","","","","html-keyboard-response","271","656181","0.0-9.0-0.0-0.0-0.0-1.97","null","<span style='color:red; font-size: 70px;'>错误! </span>","null","","","","","","","","","","","","","","","","","","","","","","","feedback_test"
"","","","","","psychophysics","272","657778","0.0-9.0-0.0-0.0-0.0-0.98","588","","j","","","","","","","","","","","","","key","j","16.666599999999285","853.3333333333334","529.3333333333334","j","true","img/H_ambi40.png","自我","same",""
"","","","","","html-keyboard-response","273","658284","0.0-9.0-0.0-0.0-0.0-1.98","null","<span style='color:GreenYellow; font-size: 70px;'>正确! </span>","null","","","","","","","","","","","","","","","","","","","","","","","feedback_test"
"","","","","","psychophysics","274","659984","0.0-9.0-0.0-0.0-0.0-0.99","695","","j","","","","","","","","","","","","","key","j","16.66654455445541","853.3333333333334","529.3333333333334","j","true","img/C_ambi40.png","生人","same",""
"","","","","","html-keyboard-response","275","660497","0.0-9.0-0.0-0.0-0.0-1.99","null","<span style='color:GreenYellow; font-size: 70px;'>正确! </span>","null","","","","","","","","","","","","","","","","","","","","","","","feedback_test"
"","","","","","psychophysics","276","662109","0.0-9.0-0.0-0.0-0.0-0.100","602","","j","","","","","","","","","","","","","key","j","16.666822916666813","853.3333333333334","529.3333333333334","j","true","img/S_ambi40.png","朋友","same",""
"","","","","","html-keyboard-response","277","662624","0.0-9.0-0.0-0.0-0.0-1.100","null","<span style='color:GreenYellow; font-size: 70px;'>正确! </span>","null","","","","","","","","","","","","","","","","","","","","","","","feedback_test"
"","","","","","psychophysics","278","664229","0.0-9.0-0.0-0.0-0.0-0.101","602","","f","","","","","","","","","","","","","key","f","16.666599999999285","853.3333333333334","529.3333333333334","f","true","img/T_ambi40.png","をる","same",""
"","","","","","html-keyboard-response","279","664744","0.0-9.0-0.0-0.0-0.0-1.101","null","<span style='color:GreenYellow; font-size: 70px;'>正确! </span>","null","","","","","","","","","","","","","","","","","","","","","","","feedback_test"
"","","","","","psychophysics","280","666429","0.0-9.0-0.0-0.0-0.0-0.102","675","","j","","","","","","","","","","","","","key","j","16.666689999999946","853.3333333333334","529.3333333333334","j","true","img/C_ambi40.png","生人","same",""
"","","","","","html-keyboard-response","281","666934","0.0-9.0-0.0-0.0-0.0-1.102","null","<span style='color:GreenYellow; font-size: 70px;'>正确! </span>","null","","","","","","","","","","","","","","","","","","","","","","","feedback_test"
"","","","","","psychophysics","282","668856","0.0-9.0-0.0-0.0-0.0-0.103","916","","f","","","","","","","","","","","","","key","f","16.66621929824479","853.3333333333334","529.3333333333334","f","true","img/H_ambi40.png","生人","same",""
"","","","","","html-keyboard-response","283","669361","0.0-9.0-0.0-0.0-0.0-1.103","null","<span style='color:GreenYellow; font-size: 70px;'>正确! </span>","null","","","","","","","","","","","","","","","","","","","","","","","feedback_test"
"","","","","","psychophysics","284","670923","0.0-9.0-0.0-0.0-0.0-0.104","557","","f","","","","","","","","","","","","","key","f","16.666347826086998","853.3333333333334","529.3333333333334","f","true","img/T_ambi40.png","をる","same",""
"","","","","","html-keyboard-response","285","671425","0.0-9.0-0.0-0.0-0.0-1.104","null","<span style='color:GreenYellow; font-size: 70px;'>正确! </span>","null","","","","","","","","","","","","","","","","","","","","","","","feedback_test"
"","","","","","psychophysics","286","673494","0.0-9.0-0.0-0.0-0.0-0.105","1065","","f","","","","","","","","","","","","","key","f","16.666626016260125","853.3333333333334","529.3333333333334","f","true","img/H_ambi40.png","朋友","same",""
"","","","","","html-keyboard-response","287","674004","0.0-9.0-0.0-0.0-0.0-1.105","null","<span style='color:GreenYellow; font-size: 70px;'>正确! </span>","null","","","","","","","","","","","","","","","","","","","","","","","feedback_test"
"","","","","","psychophysics","288","675799","0.0-9.0-0.0-0.0-0.0-0.106","793","","f","","","","","","","","","","","","","key","f","16.66631775701018","853.3333333333334","529.3333333333334","f","true","img/S_ambi40.png","自我","same",""
"","","","","","html-keyboard-response","289","676312","0.0-9.0-0.0-0.0-0.0-1.106","null","<span style='color:GreenYellow; font-size: 70px;'>正确! </span>","null","","","","","","","","","","","","","","","","","","","","","","","feedback_test"
"","","","","","psychophysics","290","678456","0.0-9.0-0.0-0.0-0.0-0.107","1133","","j","","","","","","","","","","","","","key","j","16.66662992125993","853.3333333333334","529.3333333333334","f","false","img/C_ambi40.png","朋友","same",""
"","","","","","html-keyboard-response","291","678964","0.0-9.0-0.0-0.0-0.0-1.107","null","<span style='color:red; font-size: 70px;'>错误! </span>","null","","","","","","","","","","","","","","","","","","","","","","","feedback_test"
"","","","","","html-keyboard-response","292","681754","0.0-9.0-0.0-0.0-1.0","2788","<style>.context{color:white; font-size: 35px; line-height:40px}</style>                          <div><p class='context'>您正确回答了81% 的试次。</p><p class='context'>您的平均反应时为744毫秒。</p><p class='context'>请按任意键进入休息</p></div>"," ","","","","","","","","","","","","","","","","","","","","","","",""
"","","","","","html-button-response","293","744314","0.0-9.0-0.0-0.0-2.0","62559","
                    <p>您当前还剩余5组实验</p>
                    <p>现在是休息时间，当您结束休息后，您可以点击 结束休息 按钮 继续</p>
                    <p>建议休息时间还剩余<span id=""iii"">60</span>秒</p>","0","","","","","","","","","","","","","","","","","","","","","","",""
"","","","","","psychophysics","294","746473","0.0-9.0-0.0-0.0-0.1-0.108","1152","","j","","","","","","","","","","","","","key","j","16.666627906976707","853.3333333333334","529.3333333333334","j","true","img/C_ambi40.png","生人","same",""
"","","","","","html-keyboard-response","295","746988","0.0-9.0-0.0-0.0-0.1-1.108","null","<span style='color:GreenYellow; font-size: 70px;'>正确! </span>","null","","","","","","","","","","","","","","","","","","","","","","","feedback_test"
"","","","","","psychophysics","296","748563","0.0-9.0-0.0-0.0-0.1-0.109","574","","j","","","","","","","","","","","","","key","j","16.667193548387086","853.3333333333334","529.3333333333334","j","true","img/H_ambi40.png","自我","same",""
"","","","","","html-keyboard-response","297","749066","0.0-9.0-0.0-0.0-0.1-1.109","null","<span style='color:GreenYellow; font-size: 70px;'>正确! </span>","null","","","","","","","","","","","","","","","","","","","","","","","feedback_test"
"","","","","","psychophysics","298","750894","0.0-9.0-0.0-0.0-0.1-0.110","822","","j","","","","","","","","","","","","","key","j","16.666880733945508","853.3333333333334","529.3333333333334","j","true","img/H_ambi40.png","自我","same",""
"","","","","","html-keyboard-response","299","751396","0.0-9.0-0.0-0.0-0.1-1.110","null","<span style='color:GreenYellow; font-size: 70px;'>正确! </span>","null","","","","","","","","","","","","","","","","","","","","","","","feedback_test"
"","","","","","psychophysics","300","753211","0.0-9.0-0.0-0.0-0.1-0.111","805","","f","","","","","","","","","","","","","key","f","16.666694444443607","853.3333333333334","529.3333333333334","f","true","img/C_ambi40.png","自我","same",""
"","","","","","html-keyboard-response","301","753712","0.0-9.0-0.0-0.0-0.1-1.111","null","<span style='color:GreenYellow; font-size: 70px;'>正确! </span>","null","","","","","","","","","","","","","","","","","","","","","","","feedback_test"
"","","","","","psychophysics","302","755417","0.0-9.0-0.0-0.0-0.1-0.112","703","","j","","","","","","","","","","","","","key","j","16.66682178217867","853.3333333333334","529.3333333333334","j","true","img/C_ambi40.png","生人","same",""
"","","","","","html-keyboard-response","303","755920","0.0-9.0-0.0-0.0-0.1-1.112","null","<span style='color:GreenYellow; font-size: 70px;'>正确! </span>","null","","","","","","","","","","","","","","","","","","","","","","","feedback_test"
"","","","","","psychophysics","304","757334","0.0-9.0-0.0-0.0-0.1-0.113","413","","j","","","","","","","","","","","","","key","j","16.653759036144432","853.3333333333334","529.3333333333334","f","false","img/S_ambi40.png","生人","same",""
"","","","","","html-keyboard-response","305","757850","0.0-9.0-0.0-0.0-0.1-1.113","null","<span style='color:red; font-size: 70px;'>错误! </span>","null","","","","","","","","","","","","","","","","","","","","","","","feedback_test"
"","","","","","psychophysics","306","759464","0.0-9.0-0.0-0.0-0.1-0.114","609","","f","","","","","","","","","","","","","key","f","16.666718750000047","853.3333333333334","529.3333333333334","f","true","img/T_ambi40.png","をる","same",""
"","","","","","html-keyboard-response","307","759969","0.0-9.0-0.0-0.0-0.1-1.114","null","<span style='color:GreenYellow; font-size: 70px;'>正确! </span>","null","","","","","","","","","","","","","","","","","","","","","","","feedback_test"
"","","","","","psychophysics","308","761705","0.0-9.0-0.0-0.0-0.1-0.115","733","","j","","","","","","","","","","","","","key","j","16.666310679611694","853.3333333333334","529.3333333333334","j","true","img/H_ambi40.png","自我","same",""
"","","","","","html-keyboard-response","309","762214","0.0-9.0-0.0-0.0-0.1-1.115","null","<span style='color:GreenYellow; font-size: 70px;'>正确! </span>","null","","","","","","","","","","","","","","","","","","","","","","","feedback_test"
"","","","","","psychophysics","310","763734","0.0-9.0-0.0-0.0-0.1-0.116","512","","f","","","","","","","","","","","","","key","f","16.666444444444238","853.3333333333334","529.3333333333334","f","true","img/T_ambi40.png","をる","same",""
"","","","","","html-keyboard-response","311","764240","0.0-9.0-0.0-0.0-0.1-1.116","null","<span style='color:GreenYellow; font-size: 70px;'>正确! </span>","null","","","","","","","","","","","","","","","","","","","","","","","feedback_test"
"","","","","","psychophysics","312","766147","0.0-9.0-0.0-0.0-0.1-0.117","900","","j","","","","","","","","","","","","","key","j","16.666654867257108","853.3333333333334","529.3333333333334","j","true","img/C_ambi40.png","生人","same",""
"","","","","","html-keyboard-response","313","766658","0.0-9.0-0.0-0.0-0.1-1.117","null","<span style='color:GreenYellow; font-size: 70px;'>正确! </span>","null","","","","","","","","","","","","","","","","","","","","","","","feedback_test"
"","","","","","psychophysics","314","768066","0.0-9.0-0.0-0.0-0.1-0.118","405","","f","","","","","","","","","","","","","key","f","16.66651807228911","853.3333333333334","529.3333333333334","f","true","img/T_ambi40.png","をる","same",""
"","","","","","html-keyboard-response","315","768573","0.0-9.0-0.0-0.0-0.1-1.118","null","<span style='color:GreenYellow; font-size: 70px;'>正确! </span>","null","","","","","","","","","","","","","","","","","","","","","","","feedback_test"
"","","","","","psychophysics","316","770676","0.0-9.0-0.0-0.0-0.1-0.119","1099","","f","","","","","","","","","","","","","key","f","16.66659199999925","853.3333333333334","529.3333333333334","f","true","img/H_ambi40.png","朋友","same",""
"","","","","","html-keyboard-response","317","771188","0.0-9.0-0.0-0.0-0.1-1.119","null","<span style='color:GreenYellow; font-size: 70px;'>正确! </span>","null","","","","","","","","","","","","","","","","","","","","","","","feedback_test"
"","","","","","psychophysics","318","772881","0.0-9.0-0.0-0.0-0.1-0.120","693","","j","","","","","","","","","","","","","key","j","16.66636999999988","853.3333333333334","529.3333333333334","j","true","img/S_ambi40.png","朋友","same",""
"","","","","","html-keyboard-response","319","773387","0.0-9.0-0.0-0.0-0.1-1.120","null","<span style='color:GreenYellow; font-size: 70px;'>正确! </span>","null","","","","","","","","","","","","","","","","","","","","","","","feedback_test"
"","","","","","psychophysics","320","775110","0.0-9.0-0.0-0.0-0.1-0.121","722","","j","","","","","","","","","","","","","key","j","16.654078431372696","853.3333333333334","529.3333333333334","f","false","img/H_ambi40.png","生人","same",""
"","","","","","html-keyboard-response","321","775626","0.0-9.0-0.0-0.0-0.1-1.121","null","<span style='color:red; font-size: 70px;'>错误! </span>","null","","","","","","","","","","","","","","","","","","","","","","","feedback_test"
"","","","","","psychophysics","322","777288","0.0-9.0-0.0-0.0-0.1-0.122","652","","j","","","","","","","","","","","","","key","j","16.66665306122503","853.3333333333334","529.3333333333334","j","true","img/S_ambi40.png","朋友","same",""
"","","","","","html-keyboard-response","323","777795","0.0-9.0-0.0-0.0-0.1-1.122","null","<span style='color:GreenYellow; font-size: 70px;'>正确! </span>","null","","","","","","","","","","","","","","","","","","","","","","","feedback_test"
"","","","","","psychophysics","324","779600","0.0-9.0-0.0-0.0-0.1-0.123","798","","f","","","","","","","","","","","","","key","f","16.66662616822455","853.3333333333334","529.3333333333334","f","true","img/S_ambi40.png","自我","same",""
"","","","","","html-keyboard-response","325","780109","0.0-9.0-0.0-0.0-0.1-1.123","null","<span style='color:GreenYellow; font-size: 70px;'>正确! </span>","null","","","","","","","","","","","","","","","","","","","","","","","feedback_test"
"","","","","","psychophysics","326","782101","0.0-9.0-0.0-0.0-0.1-0.124","983","","j","","","","","","","","","","","","","key","j","16.66654237288137","853.3333333333334","529.3333333333334","j","true","img/S_ambi40.png","朋友","same",""
"","","","","","html-keyboard-response","327","782616","0.0-9.0-0.0-0.0-0.1-1.124","null","<span style='color:GreenYellow; font-size: 70px;'>正确! </span>","null","","","","","","","","","","","","","","","","","","","","","","","feedback_test"
"","","","","","psychophysics","328","784299","0.0-9.0-0.0-0.0-0.1-0.125","677","","f","","","","","","","","","","","","","key","f","16.666559999999592","853.3333333333334","529.3333333333334","f","true","img/C_ambi40.png","朋友","same",""
"","","","","","html-keyboard-response","329","784801","0.0-9.0-0.0-0.0-0.1-1.125","null","<span style='color:GreenYellow; font-size: 70px;'>正确! </span>","null","","","","","","","","","","","","","","","","","","","","","","","feedback_test"
"","","","","","psychophysics","330","786498","0.0-9.0-0.0-0.0-0.1-0.126","694","","f","","","","","","","","","","","","","key","f","16.66632673267326","853.3333333333334","529.3333333333334","f","true","img/T_ambi40.png","をる","same",""
"","","","","","html-keyboard-response","331","787011","0.0-9.0-0.0-0.0-0.1-1.126","null","<span style='color:GreenYellow; font-size: 70px;'>正确! </span>","null","","","","","","","","","","","","","","","","","","","","","","","feedback_test"
"","","","","","psychophysics","332","789056","0.0-9.0-0.0-0.0-0.1-0.127","1039","","f","","","","","","","","","","","","","key","f","16.66640163934408","853.3333333333334","529.3333333333334","f","true","img/C_ambi40.png","朋友","same",""
"","","","","","html-keyboard-response","333","789562","0.0-9.0-0.0-0.0-0.1-1.127","null","<span style='color:GreenYellow; font-size: 70px;'>正确! </span>","null","","","","","","","","","","","","","","","","","","","","","","","feedback_test"
"","","","","","psychophysics","334","791260","0.0-9.0-0.0-0.0-0.1-0.128","688","","j","","","","","","","","","","","","","key","j","16.66655445544598","853.3333333333334","529.3333333333334","j","true","img/C_ambi40.png","生人","same",""
"","","","","","html-keyboard-response","335","791772","0.0-9.0-0.0-0.0-0.1-1.128","null","<span style='color:GreenYellow; font-size: 70px;'>正确! </span>","null","","","","","","","","","","","","","","","","","","","","","","","feedback_test"
"","","","","","psychophysics","336","793755","0.0-9.0-0.0-0.0-0.1-0.129","975","","j","","","","","","","","","","","","","key","j","16.66635042735033","853.3333333333334","529.3333333333334","j","true","img/H_ambi40.png","自我","same",""
"","","","","","html-keyboard-response","337","794270","0.0-9.0-0.0-0.0-0.1-1.129","null","<span style='color:GreenYellow; font-size: 70px;'>正确! </span>","null","","","","","","","","","","","","","","","","","","","","","","","feedback_test"
"","","","","","psychophysics","338","795749","0.0-9.0-0.0-0.0-0.1-0.130","478","","j","","","","","","","","","","","","","key","j","16.654919540229915","853.3333333333334","529.3333333333334","f","false","img/H_ambi40.png","朋友","same",""
"","","","","","html-keyboard-response","339","796250","0.0-9.0-0.0-0.0-0.1-1.130","null","<span style='color:red; font-size: 70px;'>错误! </span>","null","","","","","","","","","","","","","","","","","","","","","","","feedback_test"
"","","","","","psychophysics","340","797824","0.0-9.0-0.0-0.0-0.1-0.131","569","","f","","","","","","","","","","","","","key","f","16.667287234042305","853.3333333333334","529.3333333333334","f","true","img/S_ambi40.png","自我","same",""
"","","","","","html-keyboard-response","341","798331","0.0-9.0-0.0-0.0-0.1-1.131","null","<span style='color:GreenYellow; font-size: 70px;'>正确! </span>","null","","","","","","","","","","","","","","","","","","","","","","","feedback_test"
"","","","","","psychophysics","342","799879","0.0-9.0-0.0-0.0-0.1-0.132","541","","j","","","","","","","","","","","","","key","j","16.666586956521748","853.3333333333334","529.3333333333334","j","true","img/S_ambi40.png","朋友","same",""
"","","","","","html-keyboard-response","343","800391","0.0-9.0-0.0-0.0-0.1-1.132","null","<span style='color:GreenYellow; font-size: 70px;'>正确! </span>","null","","","","","","","","","","","","","","","","","","","","","","","feedback_test"
"","","","","","psychophysics","344","802103","0.0-9.0-0.0-0.0-0.1-0.133","702","","j","","","","","","","","","","","","","key","j","16.666950495049154","853.3333333333334","529.3333333333334","f","false","img/H_ambi40.png","生人","same",""
"","","","","","html-keyboard-response","345","802608","0.0-9.0-0.0-0.0-0.1-1.133","null","<span style='color:red; font-size: 70px;'>错误! </span>","null","","","","","","","","","","","","","","","","","","","","","","","feedback_test"
"","","","","","psychophysics","346","804050","0.0-9.0-0.0-0.0-0.1-0.134","429","","j","","","","","","","","","","","","","key","j","16.666270588235655","853.3333333333334","529.3333333333334","j","true","img/C_ambi40.png","生人","same",""
"","","","","","html-keyboard-response","347","804553","0.0-9.0-0.0-0.0-0.1-1.134","null","<span style='color:GreenYellow; font-size: 70px;'>正确! </span>","null","","","","","","","","","","","","","","","","","","","","","","","feedback_test"
"","","","","","psychophysics","348","806157","0.0-9.0-0.0-0.0-0.1-0.135","602","","f","","","","","","","","","","","","","key","f","16.653536842104145","853.3333333333334","529.3333333333334","f","true","img/C_ambi40.png","自我","same",""
"","","","","","html-keyboard-response","349","806661","0.0-9.0-0.0-0.0-0.1-1.135","null","<span style='color:GreenYellow; font-size: 70px;'>正确! </span>","null","","","","","","","","","","","","","","","","","","","","","","","feedback_test"
"","","","","","psychophysics","350","808267","0.0-9.0-0.0-0.0-0.1-0.136","598","","f","","","","","","","","","","","","","key","f","16.666652631579506","853.3333333333334","529.3333333333334","f","true","img/T_ambi40.png","をる","same",""
"","","","","","html-keyboard-response","351","808772","0.0-9.0-0.0-0.0-0.1-1.136","null","<span style='color:GreenYellow; font-size: 70px;'>正确! </span>","null","","","","","","","","","","","","","","","","","","","","","","","feedback_test"
"","","","","","psychophysics","352","810281","0.0-9.0-0.0-0.0-0.1-0.137","493","","f","","","","","","","","","","","","","key","f","16.666112359550393","853.3333333333334","529.3333333333334","f","true","img/T_ambi40.png","をる","same",""
"","","","","","html-keyboard-response","353","810785","0.0-9.0-0.0-0.0-0.1-1.137","null","<span style='color:GreenYellow; font-size: 70px;'>正确! </span>","null","","","","","","","","","","","","","","","","","","","","","","","feedback_test"
"","","","","","psychophysics","354","812721","0.0-9.0-0.0-0.0-0.1-0.138","933","","f","","","","","","","","","","","","","key","f","16.66640869565207","853.3333333333334","529.3333333333334","f","true","img/S_ambi40.png","生人","same",""
"","","","","","html-keyboard-response","355","813223","0.0-9.0-0.0-0.0-0.1-1.138","null","<span style='color:GreenYellow; font-size: 70px;'>正确! </span>","null","","","","","","","","","","","","","","","","","","","","","","","feedback_test"
"","","","","","psychophysics","356","814974","0.0-9.0-0.0-0.0-0.1-0.139","736","","j","","","","","","","","","","","","","key","j","16.666519230768944","853.3333333333334","529.3333333333334","j","true","img/H_ambi40.png","自我","same",""
"","","","","","html-keyboard-response","357","815487","0.0-9.0-0.0-0.0-0.1-1.139","null","<span style='color:GreenYellow; font-size: 70px;'>正确! </span>","null","","","","","","","","","","","","","","","","","","","","","","","feedback_test"
"","","","","","psychophysics","358","817291","0.0-9.0-0.0-0.0-0.1-0.140","803","","f","","","","","","","","","","","","","key","f","16.657551401869227","853.3333333333334","529.3333333333334","j","false","img/C_ambi40.png","生人","same",""
"","","","","","html-keyboard-response","359","817792","0.0-9.0-0.0-0.0-0.1-1.140","null","<span style='color:red; font-size: 70px;'>错误! </span>","null","","","","","","","","","","","","","","","","","","","","","","","feedback_test"
"","","","","","psychophysics","360","819533","0.0-9.0-0.0-0.0-0.1-0.141","737","","j","","","","","","","","","","","","","key","j","16.666417475727624","853.3333333333334","529.3333333333334","j","true","img/S_ambi40.png","朋友","same",""
"","","","","","html-keyboard-response","361","820045","0.0-9.0-0.0-0.0-0.1-1.141","null","<span style='color:GreenYellow; font-size: 70px;'>正确! </span>","null","","","","","","","","","","","","","","","","","","","","","","","feedback_test"
"","","","","","psychophysics","362","821563","0.0-9.0-0.0-0.0-0.1-0.142","508","","j","","","","","","","","","","","","","key","j","16.66654444444381","853.3333333333334","529.3333333333334","j","true","img/S_ambi40.png","朋友","same",""
"","","","","","html-keyboard-response","363","822067","0.0-9.0-0.0-0.0-0.1-1.142","null","<span style='color:GreenYellow; font-size: 70px;'>正确! </span>","null","","","","","","","","","","","","","","","","","","","","","","","feedback_test"
"","","","","","psychophysics","364","823905","0.0-9.0-0.0-0.0-0.1-0.143","833","","j","","","","","","","","","","","","","key","j","16.666357798164352","853.3333333333334","529.3333333333334","j","true","img/H_ambi40.png","自我","same",""
"","","","","","html-keyboard-response","365","824418","0.0-9.0-0.0-0.0-0.1-1.143","null","<span style='color:GreenYellow; font-size: 70px;'>正确! </span>","null","","","","","","","","","","","","","","","","","","","","","","","feedback_test"
"","","","","","psychophysics","366","826135","0.0-9.0-0.0-0.0-0.1-0.144","713","","j","","","","","","","","","","","","","key","j","16.66647058823511","853.3333333333334","529.3333333333334","j","true","img/S_ambi40.png","朋友","same",""
"","","","","","html-keyboard-response","367","826649","0.0-9.0-0.0-0.0-0.1-1.144","null","<span style='color:GreenYellow; font-size: 70px;'>正确! </span>","null","","","","","","","","","","","","","","","","","","","","","","","feedback_test"
"","","","","","psychophysics","368","828536","0.0-9.0-0.0-0.0-0.1-0.145","881","","f","","","","","","","","","","","","","key","f","16.666214285714627","853.3333333333334","529.3333333333334","f","true","img/C_ambi40.png","自我","same",""
"","","","","","html-keyboard-response","369","829046","0.0-9.0-0.0-0.0-0.1-1.145","null","<span style='color:GreenYellow; font-size: 70px;'>正确! </span>","null","","","","","","","","","","","","","","","","","","","","","","","feedback_test"
"","","","","","psychophysics","370","831468","0.0-9.0-0.0-0.0-0.1-0.146","1413","","j","","","","","","","","","","","","","key","j","16.66648611111143","853.3333333333334","529.3333333333334","f","false","img/T_ambi40.png","をる","same",""
"","","","","","html-keyboard-response","371","831975","0.0-9.0-0.0-0.0-0.1-1.146","null","<span style='color:red; font-size: 70px;'>错误! </span>","null","","","","","","","","","","","","","","","","","","","","","","","feedback_test"
"","","","","","psychophysics","372","834488","0.0-9.0-0.0-0.0-0.1-0.147","null","","null","","","","","","","","","","","","","key","null","16.666677852348744","853.3333333333334","529.3333333333334","f","false","img/S_ambi40.png","生人","same",""
"","","","","","html-keyboard-response","373","834997","0.0-9.0-0.0-0.0-0.1-1.147","null","<span class='add_' style='color:yellow; font-size: 70px;'> 太慢! </span>","null","","","","","","","","","","","","","","","","","","","","","","","feedback_test"
"","","","","","psychophysics","374","836609","0.0-9.0-0.0-0.0-0.1-0.148","604","","j","","","","","","","","","","","","","key","j","16.66695833333385","853.3333333333334","529.3333333333334","j","true","img/H_ambi40.png","自我","same",""
"","","","","","html-keyboard-response","375","837117","0.0-9.0-0.0-0.0-0.1-1.148","null","<span style='color:GreenYellow; font-size: 70px;'>正确! </span>","null","","","","","","","","","","","","","","","","","","","","","","","feedback_test"
"","","","","","psychophysics","376","838725","0.0-9.0-0.0-0.0-0.1-0.149","604","","j","","","","","","","","","","","","","key","j","16.666895833333303","853.3333333333334","529.3333333333334","j","true","img/H_ambi40.png","自我","same",""
"","","","","","html-keyboard-response","377","839238","0.0-9.0-0.0-0.0-0.1-1.149","null","<span style='color:GreenYellow; font-size: 70px;'>正确! </span>","null","","","","","","","","","","","","","","","","","","","","","","","feedback_test"
"","","","","","psychophysics","378","841057","0.0-9.0-0.0-0.0-0.1-0.150","815","","f","","","","","","","","","","","","","key","f","16.666768518517966","853.3333333333334","529.3333333333334","f","true","img/H_ambi40.png","朋友","same",""
"","","","","","html-keyboard-response","379","841564","0.0-9.0-0.0-0.0-0.1-1.150","null","<span style='color:GreenYellow; font-size: 70px;'>正确! </span>","null","","","","","","","","","","","","","","","","","","","","","","","feedback_test"
"","","","","","psychophysics","380","843136","0.0-9.0-0.0-0.0-0.1-0.151","565","","f","","","","","","","","","","","","","key","f","16.666709677420148","853.3333333333334","529.3333333333334","f","true","img/T_ambi40.png","をる","same",""
"","","","","","html-keyboard-response","381","843650","0.0-9.0-0.0-0.0-0.1-1.151","null","<span style='color:GreenYellow; font-size: 70px;'>正确! </span>","null","","","","","","","","","","","","","","","","","","","","","","","feedback_test"
"","","","","","psychophysics","382","846155","0.0-9.0-0.0-0.0-0.1-0.152","null","","null","","","","","","","","","","","","","key","null","16.666536912751766","853.3333333333334","529.3333333333334","f","false","img/C_ambi40.png","朋友","same",""
"","","","","","html-keyboard-response","383","846668","0.0-9.0-0.0-0.0-0.1-1.152","null","<span class='add_' style='color:yellow; font-size: 70px;'> 太慢! </span>","null","","","","","","","","","","","","","","","","","","","","","","","feedback_test"
"","","","","","psychophysics","384","848348","0.0-9.0-0.0-0.0-0.1-0.153","677","","j","","","","","","","","","","","","","key","j","16.666300000000046","853.3333333333334","529.3333333333334","j","true","img/S_ambi40.png","朋友","same",""
"","","","","","html-keyboard-response","385","848862","0.0-9.0-0.0-0.0-0.1-1.153","null","<span style='color:GreenYellow; font-size: 70px;'>正确! </span>","null","","","","","","","","","","","","","","","","","","","","","","","feedback_test"
"","","","","","psychophysics","386","850702","0.0-9.0-0.0-0.0-0.1-0.154","838","","j","","","","","","","","","","","","","key","j","16.6667706422025","853.3333333333334","529.3333333333334","j","true","img/H_ambi40.png","自我","same",""
"","","","","","html-keyboard-response","387","851203","0.0-9.0-0.0-0.0-0.1-1.154","null","<span style='color:GreenYellow; font-size: 70px;'>正确! </span>","null","","","","","","","","","","","","","","","","","","","","","","","feedback_test"
"","","","","","psychophysics","388","852942","0.0-9.0-0.0-0.0-0.1-0.155","737","","f","","","","","","","","","","","","","key","f","16.65666019417418","853.3333333333334","529.3333333333334","f","true","img/S_ambi40.png","自我","same",""
"","","","","","html-keyboard-response","389","853451","0.0-9.0-0.0-0.0-0.1-1.155","null","<span style='color:GreenYellow; font-size: 70px;'>正确! </span>","null","","","","","","","","","","","","","","","","","","","","","","","feedback_test"
"","","","","","psychophysics","390","855093","0.0-9.0-0.0-0.0-0.1-0.156","638","","j","","","","","","","","","","","","","key","j","16.66750000000038","853.3333333333334","529.3333333333334","j","true","img/S_ambi40.png","朋友","same",""
"","","","","","html-keyboard-response","391","855598","0.0-9.0-0.0-0.0-0.1-1.156","null","<span style='color:GreenYellow; font-size: 70px;'>正确! </span>","null","","","","","","","","","","","","","","","","","","","","","","","feedback_test"
"","","","","","psychophysics","392","857244","0.0-9.0-0.0-0.0-0.1-0.157","639","","j","","","","","","","","","","","","","key","j","16.66661224489775","853.3333333333334","529.3333333333334","j","true","img/C_ambi40.png","生人","same",""
"","","","","","html-keyboard-response","393","857755","0.0-9.0-0.0-0.0-0.1-1.157","null","<span style='color:GreenYellow; font-size: 70px;'>正确! </span>","null","","","","","","","","","","","","","","","","","","","","","","","feedback_test"
"","","","","","psychophysics","394","859168","0.0-9.0-0.0-0.0-0.1-0.158","404","","j","","","","","","","","","","","","","key","j","16.666566265061082","853.3333333333334","529.3333333333334","f","false","img/H_ambi40.png","生人","same",""
"","","","","","html-keyboard-response","395","859680","0.0-9.0-0.0-0.0-0.1-1.158","null","<span style='color:red; font-size: 70px;'>错误! </span>","null","","","","","","","","","","","","","","","","","","","","","","","feedback_test"
"","","","","","psychophysics","396","861274","0.0-9.0-0.0-0.0-0.1-0.159","586","","f","","","","","","","","","","","","","key","f","16.666305263157884","853.3333333333334","529.3333333333334","f","true","img/T_ambi40.png","をる","same",""
"","","","","","html-keyboard-response","397","861781","0.0-9.0-0.0-0.0-0.1-1.159","null","<span style='color:GreenYellow; font-size: 70px;'>正确! </span>","null","","","","","","","","","","","","","","","","","","","","","","","feedback_test"
"","","","","","psychophysics","398","863701","0.0-9.0-0.0-0.0-0.1-0.160","913","","f","","","","","","","","","","","","","key","f","16.666657894737448","853.3333333333334","529.3333333333334","j","false","img/C_ambi40.png","生人","same",""
"","","","","","html-keyboard-response","399","864211","0.0-9.0-0.0-0.0-0.1-1.160","null","<span style='color:red; font-size: 70px;'>错误! </span>","null","","","","","","","","","","","","","","","","","","","","","","","feedback_test"
"","","","","","psychophysics","400","865663","0.0-9.0-0.0-0.0-0.1-0.161","445","","j","","","","","","","","","","","","","key","j","16.666918604650945","853.3333333333334","529.3333333333334","j","true","img/C_ambi40.png","生人","same",""
"","","","","","html-keyboard-response","401","866165","0.0-9.0-0.0-0.0-0.1-1.161","null","<span style='color:GreenYellow; font-size: 70px;'>正确! </span>","null","","","","","","","","","","","","","","","","","","","","","","","feedback_test"
"","","","","","psychophysics","402","868060","0.0-9.0-0.0-0.0-0.1-0.162","889","","f","","","","","","","","","","","","","key","f","16.66651327433621","853.3333333333334","529.3333333333334","f","true","img/H_ambi40.png","朋友","same",""
"","","","","","html-keyboard-response","403","868563","0.0-9.0-0.0-0.0-0.1-1.162","null","<span style='color:GreenYellow; font-size: 70px;'>正确! </span>","null","","","","","","","","","","","","","","","","","","","","","","","feedback_test"
"","","","","","psychophysics","404","870083","0.0-9.0-0.0-0.0-0.1-0.163","513","","f","","","","","","","","","","","","","key","f","16.66655555555545","853.3333333333334","529.3333333333334","j","false","img/C_ambi40.png","生人","same",""
"","","","","","html-keyboard-response","405","870584","0.0-9.0-0.0-0.0-0.1-1.163","null","<span style='color:red; font-size: 70px;'>错误! </span>","null","","","","","","","","","","","","","","","","","","","","","","","feedback_test"
"","","","","","psychophysics","406","872258","0.0-9.0-0.0-0.0-0.1-0.164","671","","j","","","","","","","","","","","","","key","j","16.666309999999356","853.3333333333334","529.3333333333334","j","true","img/S_ambi40.png","朋友","same",""
"","","","","","html-keyboard-response","407","872766","0.0-9.0-0.0-0.0-0.1-1.164","null","<span style='color:GreenYellow; font-size: 70px;'>正确! </span>","null","","","","","","","","","","","","","","","","","","","","","","","feedback_test"
"","","","","","psychophysics","408","874439","0.0-9.0-0.0-0.0-0.1-0.165","669","","j","","","","","","","","","","","","","key","j","16.666779999999562","853.3333333333334","529.3333333333334","j","true","img/C_ambi40.png","生人","same",""
"","","","","","html-keyboard-response","409","874942","0.0-9.0-0.0-0.0-0.1-1.165","null","<span style='color:GreenYellow; font-size: 70px;'>正确! </span>","null","","","","","","","","","","","","","","","","","","","","","","","feedback_test"
"","","","","","psychophysics","410","876611","0.0-9.0-0.0-0.0-0.1-0.166","663","","f","","","","","","","","","","","","","key","f","16.666626262626696","853.3333333333334","529.3333333333334","f","true","img/C_ambi40.png","自我","same",""
"","","","","","html-keyboard-response","411","877118","0.0-9.0-0.0-0.0-0.1-1.166","null","<span style='color:GreenYellow; font-size: 70px;'>正确! </span>","null","","","","","","","","","","","","","","","","","","","","","","","feedback_test"
"","","","","","psychophysics","412","878945","0.0-9.0-0.0-0.0-0.1-0.167","825","","j","","","","","","","","","","","","","key","j","16.666688073394443","853.3333333333334","529.3333333333334","j","true","img/H_ambi40.png","自我","same",""
"","","","","","html-keyboard-response","413","879451","0.0-9.0-0.0-0.0-0.1-1.167","null","<span style='color:GreenYellow; font-size: 70px;'>正确! </span>","null","","","","","","","","","","","","","","","","","","","","","","","feedback_test"
"","","","","","psychophysics","414","881234","0.0-9.0-0.0-0.0-0.1-0.168","780","","f","","","","","","","","","","","","","key","f","16.666339622641352","853.3333333333334","529.3333333333334","f","true","img/H_ambi40.png","生人","same",""
"","","","","","html-keyboard-response","415","881750","0.0-9.0-0.0-0.0-0.1-1.168","null","<span style='color:GreenYellow; font-size: 70px;'>正确! </span>","null","","","","","","","","","","","","","","","","","","","","","","","feedback_test"
