"success","timeout","failed_images","failed_audio","failed_video","trial_type","trial_index","time_elapsed","internal_node_id","rt","stimulus","response","value","item_width_mm","item_height_mm","item_width_px","px2mm","view_dist_mm","item_width_deg","px2deg","scale_factor","win_width_deg","win_height_deg","view_history","response_type","key_press","avg_frame_time","center_x","center_y","correct_response","correct","Image","word","condition","screen_id"
"true","false","[]","[]","[]","preload","0","25300","0.0-0.0","","","","","","","","","","","","","","","","","","","","","","","","","",""
"","","","","","html-keyboard-response","1","79641","0.0-1.0","54338","
     <p>您好，欢迎参加本次实验。</p>
     <p>为充分保障您的权利，请确保您已经知晓并同意《参与实验同意书》以及《数据公开知情同意书》。</p>
     <p>如果您未见过上述内容，请咨询实验员。</p>
     <p>如果您选择继续实验，则表示您已经清楚两份知情同意书的内容并同意。</p>
     <p> <div style = ""color: green""><按任意键至下页></div> </p>
     ","enter","","","","","","","","","","","","","","","","","","","","","","",""
"","","","","","html-keyboard-response","2","81918","0.0-2.0","2277","
     <p>本实验首先需要您填写一些基本个人信息。</p>
     <p> <div style = ""color: green""><按任意键至下页></div></p>
     ","enter","","","","","","","","","","","","","","","","","","","","","","",""
"","","","","","call-function","3","81920","0.0-3.0-0.0","","","","","","","","","","","","","","","","","","","","","","","","","",""
"","","","","","survey-html-form","4","86939","0.0-3.0-1.0","5013","","{""Q0"":""16""}","","","","","","","","","","","","","","","","","","","","","","",""
"","","","","","html-button-response","5","88356","0.0-3.0-2.0","1414","<p style = 'color : white'>您的性别</p>","0","","","","","","","","","","","","","","","","","","","","","","",""
"","","","","","survey-html-form","6","93180","0.0-3.0-3.0","4823","","{""Q0"":""1999""}","","","","","","","","","","","","","","","","","","","","","","",""
"","","","","","survey-html-form","7","95793","0.0-3.0-4.0","2610","","{""Q0"":""6""}","","","","","","","","","","","","","","","","","","","","","","",""
"","","","","","virtual-chinrest","8","361905","0.0-4.0","266109","","","","85.6","53.98","386.66783188431265","4.51790835149039","633.24","7.733356637686252","50","0.9827556591614593","29.58","16.2","","","","","","","","","","","",""
"true","","","","","fullscreen","9","365837","0.0-5.0","","","","","","","","","","","","","","","","","","","","","","","","","",""
"","","","","","instructions","10","420743","0.0-6.0","54905","","","","","","","","","","","","","","[{""page_index"":0,""viewing_time"":13006},{""page_index"":1,""viewing_time"":26663},{""page_index"":2,""viewing_time"":4552},{""page_index"":3,""viewing_time"":10683}]","","","","","","","","","","",""
"","","","","","psychophysics","11","423256","0.0-7.0-0.0","null","","null","","","","","","","","","","","","","key","null","16.667268456375904","768","476","f","false","img/H_ambi40.png","朋友","prac",""
"","","","","","html-keyboard-response","12","423772","0.0-7.0-1.0","null","<span class='add_' style='color:yellow; font-size: 70px;'> 太慢! </span>","null","","","","","","","","","","","","","","","","","","","","","","","feedback_test"
"","","","","","psychophysics","13","426286","0.0-7.0-0.1","null","","null","","","","","","","","","","","","","key","null","16.664382550335294","768","476","j","false","img/C_ambi40.png","自我","prac",""
"","","","","","html-keyboard-response","14","426802","0.0-7.0-1.1","null","<span class='add_' style='color:yellow; font-size: 70px;'> 太慢! </span>","null","","","","","","","","","","","","","","","","","","","","","","","feedback_test"
"","","","","","psychophysics","15","429304","0.0-7.0-0.2","null","","null","","","","","","","","","","","","","key","null","16.575885906040078","768","476","j","false","img/H_ambi40.png","自我","prac",""
"","","","","","html-keyboard-response","16","429813","0.0-7.0-1.2","null","<span class='add_' style='color:yellow; font-size: 70px;'> 太慢! </span>","null","","","","","","","","","","","","","","","","","","","","","","","feedback_test"
"","","","","","psychophysics","17","431423","0.0-7.0-0.3","596","","f","","","","","","","","","","","","","key","f","16.666895833333303","768","476","j","false","img/S_ambi40.png","生人","prac",""
"","","","","","html-keyboard-response","18","431938","0.0-7.0-1.3","null","<span style='color:red; font-size: 70px;'>错误! </span>","null","","","","","","","","","","","","","","","","","","","","","","","feedback_test"
"","","","","","psychophysics","19","433884","0.0-7.0-0.4","933","","j","","","","","","","","","","","","","key","j","16.66943478260908","768","476","f","false","img/C_ambi40.png","生人","prac",""
"","","","","","html-keyboard-response","20","434396","0.0-7.0-1.4","null","<span style='color:red; font-size: 70px;'>错误! </span>","null","","","","","","","","","","","","","","","","","","","","","","","feedback_test"
"","","","","","psychophysics","21","436316","0.0-7.0-0.5","911","","f","","","","","","","","","","","","","key","f","16.667017543859977","768","476","f","true","img/S_ambi40.png","自我","prac",""
"","","","","","html-keyboard-response","22","436825","0.0-7.0-1.5","null","<span style='color:GreenYellow; font-size: 70px;'>正确! </span>","null","","","","","","","","","","","","","","","","","","","","","","","feedback_test"
"","","","","","psychophysics","23","438395","0.0-7.0-0.6","557","","f","","","","","","","","","","","","","key","f","16.666655913977984","768","476","f","true","img/S_ambi40.png","自我","prac",""
"","","","","","html-keyboard-response","24","438909","0.0-7.0-1.6","null","<span style='color:GreenYellow; font-size: 70px;'>正确! </span>","null","","","","","","","","","","","","","","","","","","","","","","","feedback_test"
"","","","","","psychophysics","25","440547","0.0-7.0-0.7","630","","j","","","","","","","","","","","","","key","j","16.669103092784013","768","476","j","true","img/T_ambi40.png","をる","prac",""
"","","","","","html-keyboard-response","26","441054","0.0-7.0-1.7","null","<span style='color:GreenYellow; font-size: 70px;'>正确! </span>","null","","","","","","","","","","","","","","","","","","","","","","","feedback_test"
"","","","","","psychophysics","27","443148","0.0-7.0-0.8","1093","","j","","","","","","","","","","","","","key","j","16.667322580644864","768","476","f","false","img/C_ambi40.png","生人","prac",""
"","","","","","html-keyboard-response","28","443652","0.0-7.0-1.8","null","<span style='color:red; font-size: 70px;'>错误! </span>","null","","","","","","","","","","","","","","","","","","","","","","","feedback_test"
"","","","","","psychophysics","29","445564","0.0-7.0-0.9","910","","j","","","","","","","","","","","","","key","j","16.6669203539825","768","476","j","true","img/H_ambi40.png","生人","prac",""
"","","","","","html-keyboard-response","30","446071","0.0-7.0-1.9","null","<span style='color:GreenYellow; font-size: 70px;'>正确! </span>","null","","","","","","","","","","","","","","","","","","","","","","","feedback_test"
"","","","","","psychophysics","31","448283","0.0-7.0-0.10","1199","","f","","","","","","","","","","","","","key","f","16.666824427480854","768","476","j","false","img/C_ambi40.png","朋友","prac",""
"","","","","","html-keyboard-response","32","448790","0.0-7.0-1.10","null","<span style='color:red; font-size: 70px;'>错误! </span>","null","","","","","","","","","","","","","","","","","","","","","","","feedback_test"
"","","","","","psychophysics","33","450611","0.0-7.0-0.11","817","","f","","","","","","","","","","","","","key","f","16.665379629629403","768","476","j","false","img/S_ambi40.png","朋友","prac",""
"","","","","","html-keyboard-response","34","451127","0.0-7.0-1.11","null","<span style='color:red; font-size: 70px;'>错误! </span>","null","","","","","","","","","","","","","","","","","","","","","","","feedback_test"
"","","","","","psychophysics","35","453004","0.0-7.0-0.12","870","","j","","","","","","","","","","","","","key","j","16.667839285713853","768","476","j","true","img/T_ambi40.png","をる","prac",""
"","","","","","html-keyboard-response","36","453518","0.0-7.0-1.12","null","<span style='color:GreenYellow; font-size: 70px;'>正确! </span>","null","","","","","","","","","","","","","","","","","","","","","","","feedback_test"
"","","","","","psychophysics","37","456024","0.0-7.0-0.13","null","","null","","","","","","","","","","","","","key","null","16.666530201342052","768","476","j","false","img/T_ambi40.png","をる","prac",""
"","","","","","html-keyboard-response","38","456536","0.0-7.0-1.13","null","<span class='add_' style='color:yellow; font-size: 70px;'> 太慢! </span>","null","","","","","","","","","","","","","","","","","","","","","","","feedback_test"
"","","","","","psychophysics","39","458350","0.0-7.0-0.14","812","","j","","","","","","","","","","","","","key","j","16.665345794392344","768","476","j","true","img/T_ambi40.png","をる","prac",""
"","","","","","html-keyboard-response","40","458859","0.0-7.0-1.14","null","<span style='color:GreenYellow; font-size: 70px;'>正确! </span>","null","","","","","","","","","","","","","","","","","","","","","","","feedback_test"
"","","","","","psychophysics","41","460956","0.0-7.0-0.15","1087","","j","","","","","","","","","","","","","key","j","16.66572800000012","768","476","f","false","img/H_ambi40.png","朋友","prac",""
"","","","","","html-keyboard-response","42","461465","0.0-7.0-1.15","null","<span style='color:red; font-size: 70px;'>错误! </span>","null","","","","","","","","","","","","","","","","","","","","","","","feedback_test"
"","","","","","psychophysics","43","463316","0.0-7.0-0.16","845","","j","","","","","","","","","","","","","key","j","16.667254545454952","768","476","j","true","img/T_ambi40.png","をる","prac",""
"","","","","","html-keyboard-response","44","463831","0.0-7.0-1.16","null","<span style='color:GreenYellow; font-size: 70px;'>正确! </span>","null","","","","","","","","","","","","","","","","","","","","","","","feedback_test"
"","","","","","psychophysics","45","465563","0.0-7.0-0.17","730","","f","","","","","","","","","","","","","key","f","16.66966990291229","768","476","j","false","img/H_ambi40.png","自我","prac",""
"","","","","","html-keyboard-response","46","466071","0.0-7.0-1.17","null","<span style='color:red; font-size: 70px;'>错误! </span>","null","","","","","","","","","","","","","","","","","","","","","","","feedback_test"
"","","","","","psychophysics","47","467900","0.0-7.0-0.18","824","","j","","","","","","","","","","","","","key","j","16.664185185184813","768","476","f","false","img/H_ambi40.png","朋友","prac",""
"","","","","","html-keyboard-response","48","468406","0.0-7.0-1.18","null","<span style='color:red; font-size: 70px;'>错误! </span>","null","","","","","","","","","","","","","","","","","","","","","","","feedback_test"
"","","","","","psychophysics","49","470911","0.0-7.0-0.19","null","","null","","","","","","","","","","","","","key","null","16.6658255033556","768","476","j","false","img/S_ambi40.png","生人","prac",""
"","","","","","html-keyboard-response","50","471427","0.0-7.0-1.19","null","<span class='add_' style='color:yellow; font-size: 70px;'> 太慢! </span>","null","","","","","","","","","","","","","","","","","","","","","","","feedback_test"
"","","","","","psychophysics","51","473149","0.0-7.0-0.20","713","","j","","","","","","","","","","","","","key","j","16.66565686274507","768","476","j","true","img/T_ambi40.png","をる","prac",""
"","","","","","html-keyboard-response","52","473663","0.0-7.0-1.20","null","<span style='color:GreenYellow; font-size: 70px;'>正确! </span>","null","","","","","","","","","","","","","","","","","","","","","","","feedback_test"
"","","","","","psychophysics","53","475373","0.0-7.0-0.21","704","","j","","","","","","","","","","","","","key","j","16.670450980392143","768","476","j","true","img/T_ambi40.png","をる","prac",""
"","","","","","html-keyboard-response","54","475875","0.0-7.0-1.21","null","<span style='color:GreenYellow; font-size: 70px;'>正确! </span>","null","","","","","","","","","","","","","","","","","","","","","","","feedback_test"
"","","","","","psychophysics","55","477788","0.0-7.0-0.22","903","","j","","","","","","","","","","","","","key","j","16.667701754386112","768","476","f","false","img/C_ambi40.png","生人","prac",""
"","","","","","html-keyboard-response","56","478302","0.0-7.0-1.22","null","<span style='color:red; font-size: 70px;'>错误! </span>","null","","","","","","","","","","","","","","","","","","","","","","","feedback_test"
"","","","","","psychophysics","57","480363","0.0-7.0-0.23","1060","","j","","","","","","","","","","","","","key","j","16.666000000000302","768","476","j","true","img/H_ambi40.png","生人","prac",""
"","","","","","html-keyboard-response","58","480866","0.0-7.0-1.23","null","<span style='color:GreenYellow; font-size: 70px;'>正确! </span>","null","","","","","","","","","","","","","","","","","","","","","","","feedback_test"
"","","","","","psychophysics","59","483276","0.0-7.0-0.24","1407","","j","","","","","","","","","","","","","key","j","16.66583916083893","768","476","j","true","img/C_ambi40.png","朋友","prac",""
"","","","","","html-keyboard-response","60","483785","0.0-7.0-1.24","null","<span style='color:GreenYellow; font-size: 70px;'>正确! </span>","null","","","","","","","","","","","","","","","","","","","","","","","feedback_test"
"","","","","","psychophysics","61","485604","0.0-7.0-0.25","818","","j","","","","","","","","","","","","","key","j","16.665129629629924","768","476","f","false","img/C_ambi40.png","生人","prac",""
"","","","","","html-keyboard-response","62","486110","0.0-7.0-1.25","null","<span style='color:red; font-size: 70px;'>错误! </span>","null","","","","","","","","","","","","","","","","","","","","","","","feedback_test"
"","","","","","psychophysics","63","487756","0.0-7.0-0.26","638","","j","","","","","","","","","","","","","key","j","16.67077551020383","768","476","j","true","img/T_ambi40.png","をる","prac",""
"","","","","","html-keyboard-response","64","488266","0.0-7.0-1.26","null","<span style='color:GreenYellow; font-size: 70px;'>正确! </span>","null","","","","","","","","","","","","","","","","","","","","","","","feedback_test"
"","","","","","psychophysics","65","489867","0.0-7.0-0.27","598","","f","","","","","","","","","","","","","key","f","16.667170212766344","768","476","f","true","img/S_ambi40.png","自我","prac",""
"","","","","","html-keyboard-response","66","490376","0.0-7.0-1.27","null","<span style='color:GreenYellow; font-size: 70px;'>正确! </span>","null","","","","","","","","","","","","","","","","","","","","","","","feedback_test"
"","","","","","psychophysics","67","492677","0.0-7.0-0.28","1294","","f","","","","","","","","","","","","","key","f","16.665912408758988","768","476","f","true","img/H_ambi40.png","朋友","prac",""
"","","","","","html-keyboard-response","68","493185","0.0-7.0-1.28","null","<span style='color:GreenYellow; font-size: 70px;'>正确! </span>","null","","","","","","","","","","","","","","","","","","","","","","","feedback_test"
"","","","","","psychophysics","69","494940","0.0-7.0-0.29","754","","f","","","","","","","","","","","","","key","f","16.665701923076995","768","476","f","true","img/S_ambi40.png","自我","prac",""
"","","","","","html-keyboard-response","70","495442","0.0-7.0-1.29","null","<span style='color:GreenYellow; font-size: 70px;'>正确! </span>","null","","","","","","","","","","","","","","","","","","","","","","","feedback_test"
"","","","","","psychophysics","71","497508","0.0-7.0-0.30","1055","","j","","","","","","","","","","","","","key","j","16.66700813008143","768","476","j","true","img/C_ambi40.png","自我","prac",""
"","","","","","html-keyboard-response","72","498010","0.0-7.0-1.30","null","<span style='color:GreenYellow; font-size: 70px;'>正确! </span>","null","","","","","","","","","","","","","","","","","","","","","","","feedback_test"
"","","","","","psychophysics","73","499854","0.0-7.0-0.31","834","","j","","","","","","","","","","","","","key","j","16.66542727272714","768","476","j","true","img/S_ambi40.png","朋友","prac",""
"","","","","","html-keyboard-response","74","500355","0.0-7.0-1.31","null","<span style='color:GreenYellow; font-size: 70px;'>正确! </span>","null","","","","","","","","","","","","","","","","","","","","","","","feedback_test"
"","","","","","psychophysics","75","502500","0.0-8.0-0.0-0.0","1134","","j","","","","","","","","","","","","","key","j","16.666291338582266","768","476","j","true","img/H_ambi40.png","生人","prac",""
"","","","","","html-keyboard-response","76","503009","0.0-8.0-0.0-1.0","null","<span style='color:GreenYellow; font-size: 70px;'>正确! </span>","null","","","","","","","","","","","","","","","","","","","","","","","feedback_test"
"","","","","","psychophysics","77","505182","0.0-8.0-0.0-0.1","1164","","f","","","","","","","","","","","","","key","f","16.66828682170477","768","476","f","true","img/H_ambi40.png","朋友","prac",""
"","","","","","html-keyboard-response","78","505694","0.0-8.0-0.0-1.1","null","<span style='color:GreenYellow; font-size: 70px;'>正确! </span>","null","","","","","","","","","","","","","","","","","","","","","","","feedback_test"
"","","","","","psychophysics","79","507452","0.0-8.0-0.0-0.2","752","","j","","","","","","","","","","","","","key","j","16.666323809524155","768","476","j","true","img/T_ambi40.png","をる","prac",""
"","","","","","html-keyboard-response","80","507963","0.0-8.0-0.0-1.2","null","<span style='color:GreenYellow; font-size: 70px;'>正确! </span>","null","","","","","","","","","","","","","","","","","","","","","","","feedback_test"
"","","","","","psychophysics","81","509747","0.0-8.0-0.0-0.3","779","","j","","","","","","","","","","","","","key","j","16.6663773584911","768","476","j","true","img/T_ambi40.png","をる","prac",""
"","","","","","html-keyboard-response","82","510262","0.0-8.0-0.0-1.3","null","<span style='color:GreenYellow; font-size: 70px;'>正确! </span>","null","","","","","","","","","","","","","","","","","","","","","","","feedback_test"
"","","","","","psychophysics","83","511900","0.0-8.0-0.0-0.4","632","","j","","","","","","","","","","","","","key","j","16.66618556701026","768","476","j","true","img/T_ambi40.png","をる","prac",""
"","","","","","html-keyboard-response","84","512407","0.0-8.0-0.0-1.4","null","<span style='color:GreenYellow; font-size: 70px;'>正确! </span>","null","","","","","","","","","","","","","","","","","","","","","","","feedback_test"
"","","","","","psychophysics","85","514027","0.0-8.0-0.0-0.5","613","","f","","","","","","","","","","","","","key","f","16.667770833333634","768","476","f","true","img/S_ambi40.png","自我","prac",""
"","","","","","html-keyboard-response","86","514537","0.0-8.0-0.0-1.5","null","<span style='color:GreenYellow; font-size: 70px;'>正确! </span>","null","","","","","","","","","","","","","","","","","","","","","","","feedback_test"
"","","","","","psychophysics","87","516204","0.0-8.0-0.0-0.6","661","","f","","","","","","","","","","","","","key","f","16.66515151515128","768","476","j","false","img/H_ambi40.png","自我","prac",""
"","","","","","html-keyboard-response","88","516720","0.0-8.0-0.0-1.6","null","<span style='color:red; font-size: 70px;'>错误! </span>","null","","","","","","","","","","","","","","","","","","","","","","","feedback_test"
"","","","","","psychophysics","89","518387","0.0-8.0-0.0-0.7","662","","f","","","","","","","","","","","","","key","f","16.66508080808074","768","476","f","true","img/S_ambi40.png","自我","prac",""
"","","","","","html-keyboard-response","90","518897","0.0-8.0-0.0-1.7","null","<span style='color:GreenYellow; font-size: 70px;'>正确! </span>","null","","","","","","","","","","","","","","","","","","","","","","","feedback_test"
"","","","","","psychophysics","91","520620","0.0-8.0-0.0-0.8","719","","j","","","","","","","","","","","","","key","j","16.66755339805855","768","476","f","false","img/H_ambi40.png","朋友","prac",""
"","","","","","html-keyboard-response","92","521123","0.0-8.0-0.0-1.8","null","<span style='color:red; font-size: 70px;'>错误! </span>","null","","","","","","","","","","","","","","","","","","","","","","","feedback_test"
"","","","","","psychophysics","93","522907","0.0-8.0-0.0-0.9","776","","j","","","","","","","","","","","","","key","j","16.665216981131312","768","476","j","true","img/S_ambi40.png","生人","prac",""
"","","","","","html-keyboard-response","94","523412","0.0-8.0-0.0-1.9","null","<span style='color:GreenYellow; font-size: 70px;'>正确! </span>","null","","","","","","","","","","","","","","","","","","","","","","","feedback_test"
"","","","","","psychophysics","95","525211","0.0-8.0-0.0-0.10","793","","j","","","","","","","","","","","","","key","j","16.666859813083494","768","476","j","true","img/C_ambi40.png","自我","prac",""
"","","","","","html-keyboard-response","96","525718","0.0-8.0-0.0-1.10","null","<span style='color:GreenYellow; font-size: 70px;'>正确! </span>","null","","","","","","","","","","","","","","","","","","","","","","","feedback_test"
"","","","","","psychophysics","97","527702","0.0-8.0-0.0-0.11","982","","f","","","","","","","","","","","","","key","f","16.665686440678762","768","476","j","false","img/C_ambi40.png","朋友","prac",""
"","","","","","html-keyboard-response","98","528215","0.0-8.0-0.0-1.11","null","<span style='color:red; font-size: 70px;'>错误! </span>","null","","","","","","","","","","","","","","","","","","","","","","","feedback_test"
"","","","","","psychophysics","99","530718","0.0-8.0-0.0-0.12","null","","null","","","","","","","","","","","","","key","null","16.580174496644272","768","476","j","false","img/S_ambi40.png","朋友","prac",""
"","","","","","html-keyboard-response","100","531229","0.0-8.0-0.0-1.12","null","<span class='add_' style='color:yellow; font-size: 70px;'> 太慢! </span>","null","","","","","","","","","","","","","","","","","","","","","","","feedback_test"
"","","","","","psychophysics","101","532843","0.0-8.0-0.0-0.13","610","","j","","","","","","","","","","","","","key","j","16.66707291666656","768","476","j","true","img/T_ambi40.png","をる","prac",""
"","","","","","html-keyboard-response","102","533344","0.0-8.0-0.0-1.13","null","<span style='color:GreenYellow; font-size: 70px;'>正确! </span>","null","","","","","","","","","","","","","","","","","","","","","","","feedback_test"
"","","","","","psychophysics","103","535492","0.0-8.0-0.0-0.14","1142","","j","","","","","","","","","","","","","key","j","16.66766406250008","768","476","f","false","img/C_ambi40.png","生人","prac",""
"","","","","","html-keyboard-response","104","536004","0.0-8.0-0.0-1.14","null","<span style='color:red; font-size: 70px;'>错误! </span>","null","","","","","","","","","","","","","","","","","","","","","","","feedback_test"
"","","","","","psychophysics","105","538189","0.0-8.0-0.0-0.15","1175","","f","","","","","","","","","","","","","key","f","16.667438461538403","768","476","f","true","img/C_ambi40.png","生人","prac",""
"","","","","","html-keyboard-response","106","538703","0.0-8.0-0.0-1.15","null","<span style='color:GreenYellow; font-size: 70px;'>正确! </span>","null","","","","","","","","","","","","","","","","","","","","","","","feedback_test"
"","","","","","psychophysics","107","540433","0.0-8.0-0.0-0.16","717","","f","","","","","","","","","","","","","key","f","16.66468627450933","768","476","j","false","img/S_ambi40.png","生人","prac",""
"","","","","","html-keyboard-response","108","540940","0.0-8.0-0.0-1.16","null","<span style='color:red; font-size: 70px;'>错误! </span>","null","","","","","","","","","","","","","","","","","","","","","","","feedback_test"
"","","","","","psychophysics","109","542555","0.0-8.0-0.0-0.17","605","","f","","","","","","","","","","","","","key","f","16.66114583333304","768","476","f","true","img/S_ambi40.png","自我","prac",""
"","","","","","html-keyboard-response","110","543070","0.0-8.0-0.0-1.17","null","<span style='color:GreenYellow; font-size: 70px;'>正确! </span>","null","","","","","","","","","","","","","","","","","","","","","","","feedback_test"
"","","","","","psychophysics","111","544532","0.0-8.0-0.0-0.18","453","","j","","","","","","","","","","","","","key","j","16.667023255813294","768","476","f","false","img/C_ambi40.png","生人","prac",""
"","","","","","html-keyboard-response","112","545045","0.0-8.0-0.0-1.18","null","<span style='color:red; font-size: 70px;'>错误! </span>","null","","","","","","","","","","","","","","","","","","","","","","","feedback_test"
"","","","","","psychophysics","113","546972","0.0-8.0-0.0-0.19","923","","j","","","","","","","","","","","","","key","j","16.668339130434248","768","476","f","false","img/H_ambi40.png","朋友","prac",""
"","","","","","html-keyboard-response","114","547487","0.0-8.0-0.0-1.19","null","<span style='color:red; font-size: 70px;'>错误! </span>","null","","","","","","","","","","","","","","","","","","","","","","","feedback_test"
"","","","","","psychophysics","115","549228","0.0-8.0-0.0-0.20","732","","j","","","","","","","","","","","","","key","j","16.663922330097847","768","476","j","true","img/C_ambi40.png","朋友","prac",""
"","","","","","html-keyboard-response","116","549744","0.0-8.0-0.0-1.20","null","<span style='color:GreenYellow; font-size: 70px;'>正确! </span>","null","","","","","","","","","","","","","","","","","","","","","","","feedback_test"
"","","","","","psychophysics","117","551387","0.0-8.0-0.0-0.21","637","","f","","","","","","","","","","","","","key","f","16.665795918367564","768","476","j","false","img/H_ambi40.png","自我","prac",""
"","","","","","html-keyboard-response","118","551901","0.0-8.0-0.0-1.21","null","<span style='color:red; font-size: 70px;'>错误! </span>","null","","","","","","","","","","","","","","","","","","","","","","","feedback_test"
"","","","","","psychophysics","119","553587","0.0-8.0-0.0-0.22","670","","f","","","","","","","","","","","","","key","f","16.665599999999394","768","476","j","false","img/S_ambi40.png","朋友","prac",""
"","","","","","html-keyboard-response","120","554095","0.0-8.0-0.0-1.22","null","<span style='color:red; font-size: 70px;'>错误! </span>","null","","","","","","","","","","","","","","","","","","","","","","","feedback_test"
"","","","","","psychophysics","121","555939","0.0-8.0-0.0-0.23","839","","j","","","","","","","","","","","","","key","j","16.665981818181038","768","476","f","false","img/H_ambi40.png","朋友","prac",""
"","","","","","html-keyboard-response","122","556455","0.0-8.0-0.0-1.23","null","<span style='color:red; font-size: 70px;'>错误! </span>","null","","","","","","","","","","","","","","","","","","","","","","","feedback_test"
"","","","","","psychophysics","123","558962","0.0-8.0-0.0-0.24","null","","null","","","","","","","","","","","","","key","null","16.66620805369137","768","476","j","false","img/T_ambi40.png","をる","prac",""
"","","","","","html-keyboard-response","124","559478","0.0-8.0-0.0-1.24","null","<span class='add_' style='color:yellow; font-size: 70px;'> 太慢! </span>","null","","","","","","","","","","","","","","","","","","","","","","","feedback_test"
"","","","","","psychophysics","125","561389","0.0-8.0-0.0-0.25","906","","j","","","","","","","","","","","","","key","j","16.667614035087784","768","476","j","true","img/C_ambi40.png","自我","prac",""
"","","","","","html-keyboard-response","126","561891","0.0-8.0-0.0-1.25","null","<span style='color:GreenYellow; font-size: 70px;'>正确! </span>","null","","","","","","","","","","","","","","","","","","","","","","","feedback_test"
"","","","","","psychophysics","127","563923","0.0-8.0-0.0-0.26","1028","","j","","","","","","","","","","","","","key","j","16.666247933884613","768","476","f","false","img/C_ambi40.png","生人","prac",""
"","","","","","html-keyboard-response","128","564438","0.0-8.0-0.0-1.26","null","<span style='color:red; font-size: 70px;'>错误! </span>","null","","","","","","","","","","","","","","","","","","","","","","","feedback_test"
"","","","","","psychophysics","129","566612","0.0-8.0-0.0-0.27","1166","","j","","","","","","","","","","","","","key","j","16.66897674418567","768","476","j","true","img/H_ambi40.png","生人","prac",""
"","","","","","html-keyboard-response","130","567123","0.0-8.0-0.0-1.27","null","<span style='color:GreenYellow; font-size: 70px;'>正确! </span>","null","","","","","","","","","","","","","","","","","","","","","","","feedback_test"
"","","","","","psychophysics","131","568916","0.0-8.0-0.0-0.28","783","","j","","","","","","","","","","","","","key","j","16.66601886792451","768","476","j","true","img/T_ambi40.png","をる","prac",""
"","","","","","html-keyboard-response","132","569420","0.0-8.0-0.0-1.28","null","<span style='color:GreenYellow; font-size: 70px;'>正确! </span>","null","","","","","","","","","","","","","","","","","","","","","","","feedback_test"
"","","","","","psychophysics","133","571243","0.0-8.0-0.0-0.29","811","","j","","","","","","","","","","","","","key","j","16.667537037037416","768","476","j","true","img/T_ambi40.png","をる","prac",""
"","","","","","html-keyboard-response","134","571756","0.0-8.0-0.0-1.29","null","<span style='color:GreenYellow; font-size: 70px;'>正确! </span>","null","","","","","","","","","","","","","","","","","","","","","","","feedback_test"
"","","","","","psychophysics","135","573453","0.0-8.0-0.0-0.30","688","","j","","","","","","","","","","","","","key","j","16.667841584157742","768","476","j","true","img/T_ambi40.png","をる","prac",""
"","","","","","html-keyboard-response","136","573967","0.0-8.0-0.0-1.30","null","<span style='color:GreenYellow; font-size: 70px;'>正确! </span>","null","","","","","","","","","","","","","","","","","","","","","","","feedback_test"
"","","","","","psychophysics","137","575588","0.0-8.0-0.0-0.31","607","","f","","","","","","","","","","","","","key","f","16.666697916666937","768","476","f","true","img/S_ambi40.png","自我","prac",""
"","","","","","html-keyboard-response","138","576098","0.0-8.0-0.0-1.31","null","<span style='color:GreenYellow; font-size: 70px;'>正确! </span>","null","","","","","","","","","","","","","","","","","","","","","","","feedback_test"
"","","","","","html-keyboard-response","139","586619","0.0-8.0-1.0-0.0","10517","<style>.context{color:white; font-size: 35px; line-height:40px}</style>                          <div><p class='context'>您正确回答了59% 的试次。</p ><p class='context'>您的平均反应时为810毫秒。</p >","enter","","","","","","","","","","","","","","","","","","","","","","",""
"","","","","","instructions","140","612194","0.0-8.0-1.0-1.0","25573","","","","","","","","","","","","","","[{""page_index"":0,""viewing_time"":7084},{""page_index"":1,""viewing_time"":13798},{""page_index"":2,""viewing_time"":4690}]","","","","","","","","","","",""
"","","","","","psychophysics","141","614698","0.0-8.1-0.1-0.32","null","","null","","","","","","","","","","","","","key","null","16.666966442953196","768","476","j","false","img/S_ambi40.png","生人","prac",""
"","","","","","html-keyboard-response","142","615212","0.0-8.1-0.1-1.32","null","<span class='add_' style='color:yellow; font-size: 70px;'> 太慢! </span>","null","","","","","","","","","","","","","","","","","","","","","","","feedback_test"
"","","","","","psychophysics","143","617037","0.0-8.1-0.1-0.33","822","","f","","","","","","","","","","","","","key","f","16.667212962963042","768","476","j","false","img/C_ambi40.png","自我","prac",""
"","","","","","html-keyboard-response","144","617549","0.0-8.1-0.1-1.33","null","<span style='color:red; font-size: 70px;'>错误! </span>","null","","","","","","","","","","","","","","","","","","","","","","","feedback_test"
"","","","","","psychophysics","145","619134","0.0-8.1-0.1-0.34","575","","j","","","","","","","","","","","","","key","j","16.666478723403998","768","476","j","true","img/T_ambi40.png","をる","prac",""
"","","","","","html-keyboard-response","146","619646","0.0-8.1-0.1-1.34","null","<span style='color:GreenYellow; font-size: 70px;'>正确! </span>","null","","","","","","","","","","","","","","","","","","","","","","","feedback_test"
"","","","","","psychophysics","147","621588","0.0-8.1-0.1-0.35","940","","j","","","","","","","","","","","","","key","j","16.666234782608427","768","476","f","false","img/C_ambi40.png","生人","prac",""
"","","","","","html-keyboard-response","148","622102","0.0-8.1-0.1-1.35","null","<span style='color:red; font-size: 70px;'>错误! </span>","null","","","","","","","","","","","","","","","","","","","","","","","feedback_test"
"","","","","","psychophysics","149","623845","0.0-8.1-0.1-0.36","731","","j","","","","","","","","","","","","","key","j","16.666446601941466","768","476","j","true","img/T_ambi40.png","をる","prac",""
"","","","","","html-keyboard-response","150","624357","0.0-8.1-0.1-1.36","null","<span style='color:GreenYellow; font-size: 70px;'>正确! </span>","null","","","","","","","","","","","","","","","","","","","","","","","feedback_test"
"","","","","","psychophysics","151","626220","0.0-8.1-0.1-0.37","856","","f","","","","","","","","","","","","","key","f","16.6658198198205","768","476","j","false","img/C_ambi40.png","朋友","prac",""
"","","","","","html-keyboard-response","152","626725","0.0-8.1-0.1-1.37","null","<span style='color:red; font-size: 70px;'>错误! </span>","null","","","","","","","","","","","","","","","","","","","","","","","feedback_test"
"","","","","","psychophysics","153","628675","0.0-8.1-0.1-0.38","944","","f","","","","","","","","","","","","","key","f","16.667620689655326","768","476","f","true","img/H_ambi40.png","朋友","prac",""
"","","","","","html-keyboard-response","154","629178","0.0-8.1-0.1-1.38","null","<span style='color:GreenYellow; font-size: 70px;'>正确! </span>","null","","","","","","","","","","","","","","","","","","","","","","","feedback_test"
"","","","","","psychophysics","155","630861","0.0-8.1-0.1-0.39","680","","f","","","","","","","","","","","","","key","f","16.531555555555077","768","476","f","true","img/H_ambi40.png","朋友","prac",""
"","","","","","html-keyboard-response","156","631365","0.0-8.1-0.1-1.39","null","<span style='color:GreenYellow; font-size: 70px;'>正确! </span>","null","","","","","","","","","","","","","","","","","","","","","","","feedback_test"
"","","","","","psychophysics","157","632867","0.0-8.1-0.1-0.40","489","","f","","","","","","","","","","","","","key","f","16.664078651685426","768","476","f","true","img/S_ambi40.png","自我","prac",""
"","","","","","html-keyboard-response","158","633384","0.0-8.1-0.1-1.40","null","<span style='color:GreenYellow; font-size: 70px;'>正确! </span>","null","","","","","","","","","","","","","","","","","","","","","","","feedback_test"
"","","","","","psychophysics","159","634980","0.0-8.1-0.1-0.41","587","","f","","","","","","","","","","","","","key","f","16.669223404255387","768","476","f","true","img/S_ambi40.png","自我","prac",""
"","","","","","html-keyboard-response","160","635486","0.0-8.1-0.1-1.41","null","<span style='color:GreenYellow; font-size: 70px;'>正确! </span>","null","","","","","","","","","","","","","","","","","","","","","","","feedback_test"
"","","","","","psychophysics","161","637284","0.0-8.1-0.1-0.42","788","","j","","","","","","","","","","","","","key","j","16.666962616822342","768","476","j","true","img/H_ambi40.png","生人","prac",""
"","","","","","html-keyboard-response","162","637791","0.0-8.1-0.1-1.42","null","<span style='color:GreenYellow; font-size: 70px;'>正确! </span>","null","","","","","","","","","","","","","","","","","","","","","","","feedback_test"
"","","","","","psychophysics","163","639540","0.0-8.1-0.1-0.43","742","","j","","","","","","","","","","","","","key","j","16.670538461538783","768","476","j","true","img/T_ambi40.png","をる","prac",""
"","","","","","html-keyboard-response","164","640054","0.0-8.1-0.1-1.43","null","<span style='color:GreenYellow; font-size: 70px;'>正确! </span>","null","","","","","","","","","","","","","","","","","","","","","","","feedback_test"
"","","","","","psychophysics","165","641887","0.0-8.1-0.1-0.44","823","","j","","","","","","","","","","","","","key","j","16.664587155963858","768","476","j","true","img/S_ambi40.png","朋友","prac",""
"","","","","","html-keyboard-response","166","642398","0.0-8.1-0.1-1.44","null","<span style='color:GreenYellow; font-size: 70px;'>正确! </span>","null","","","","","","","","","","","","","","","","","","","","","","","feedback_test"
"","","","","","psychophysics","167","644028","0.0-8.1-0.1-0.45","613","","j","","","","","","","","","","","","","key","j","16.666760416666268","768","476","j","true","img/T_ambi40.png","をる","prac",""
"","","","","","html-keyboard-response","168","644541","0.0-8.1-0.1-1.45","null","<span style='color:GreenYellow; font-size: 70px;'>正确! </span>","null","","","","","","","","","","","","","","","","","","","","","","","feedback_test"
"","","","","","psychophysics","169","646643","0.0-8.1-0.1-0.46","1097","","j","","","","","","","","","","","","","key","j","16.6677360000005","768","476","f","false","img/C_ambi40.png","生人","prac",""
"","","","","","html-keyboard-response","170","647148","0.0-8.1-0.1-1.46","null","<span style='color:red; font-size: 70px;'>错误! </span>","null","","","","","","","","","","","","","","","","","","","","","","","feedback_test"
"","","","","","psychophysics","171","648923","0.0-8.1-0.1-0.47","764","","f","","","","","","","","","","","","","key","f","16.67019047619043","768","476","j","false","img/H_ambi40.png","自我","prac",""
"","","","","","html-keyboard-response","172","649433","0.0-8.1-0.1-1.47","null","<span style='color:red; font-size: 70px;'>错误! </span>","null","","","","","","","","","","","","","","","","","","","","","","","feedback_test"
"","","","","","psychophysics","173","651067","0.0-8.1-0.1-0.48","621","","j","","","","","","","","","","","","","key","j","16.665463917526253","768","476","j","true","img/T_ambi40.png","をる","prac",""
"","","","","","html-keyboard-response","174","651583","0.0-8.1-0.1-1.48","null","<span style='color:GreenYellow; font-size: 70px;'>正确! </span>","null","","","","","","","","","","","","","","","","","","","","","","","feedback_test"
"","","","","","psychophysics","175","653389","0.0-8.1-0.1-0.49","793","","j","","","","","","","","","","","","","key","j","16.665186915887197","768","476","j","true","img/H_ambi40.png","自我","prac",""
"","","","","","html-keyboard-response","176","653902","0.0-8.1-0.1-1.49","null","<span style='color:GreenYellow; font-size: 70px;'>正确! </span>","null","","","","","","","","","","","","","","","","","","","","","","","feedback_test"
"","","","","","psychophysics","177","655629","0.0-8.1-0.1-0.50","717","","j","","","","","","","","","","","","","key","j","16.66521568627407","768","476","j","true","img/C_ambi40.png","自我","prac",""
"","","","","","html-keyboard-response","178","656133","0.0-8.1-0.1-1.50","null","<span style='color:GreenYellow; font-size: 70px;'>正确! </span>","null","","","","","","","","","","","","","","","","","","","","","","","feedback_test"
"","","","","","psychophysics","179","657979","0.0-8.1-0.1-0.51","840","","f","","","","","","","","","","","","","key","f","16.66676146789014","768","476","f","true","img/C_ambi40.png","生人","prac",""
"","","","","","html-keyboard-response","180","658493","0.0-8.1-0.1-1.51","null","<span style='color:GreenYellow; font-size: 70px;'>正确! </span>","null","","","","","","","","","","","","","","","","","","","","","","","feedback_test"
"","","","","","psychophysics","181","660300","0.0-8.1-0.1-0.52","803","","j","","","","","","","","","","","","","key","j","16.547644859813065","768","476","j","true","img/H_ambi40.png","生人","prac",""
"","","","","","html-keyboard-response","182","660806","0.0-8.1-0.1-1.52","null","<span style='color:GreenYellow; font-size: 70px;'>正确! </span>","null","","","","","","","","","","","","","","","","","","","","","","","feedback_test"
"","","","","","psychophysics","183","662581","0.0-8.1-0.1-0.53","769","","j","","","","","","","","","","","","","key","j","16.666820754717712","768","476","j","true","img/C_ambi40.png","朋友","prac",""
"","","","","","html-keyboard-response","184","663093","0.0-8.1-0.1-1.53","null","<span style='color:GreenYellow; font-size: 70px;'>正确! </span>","null","","","","","","","","","","","","","","","","","","","","","","","feedback_test"
"","","","","","psychophysics","185","664715","0.0-8.1-0.1-0.54","620","","j","","","","","","","","","","","","","key","j","16.667360824742836","768","476","f","false","img/H_ambi40.png","朋友","prac",""
"","","","","","html-keyboard-response","186","665221","0.0-8.1-0.1-1.54","null","<span style='color:red; font-size: 70px;'>错误! </span>","null","","","","","","","","","","","","","","","","","","","","","","","feedback_test"
"","","","","","psychophysics","187","667019","0.0-8.1-0.1-0.55","790","","j","","","","","","","","","","","","","key","j","16.666915887850337","768","476","f","false","img/C_ambi40.png","生人","prac",""
"","","","","","html-keyboard-response","188","667529","0.0-8.1-0.1-1.55","null","<span style='color:red; font-size: 70px;'>错误! </span>","null","","","","","","","","","","","","","","","","","","","","","","","feedback_test"
"","","","","","psychophysics","189","669139","0.0-8.1-0.1-0.56","605","","j","","","","","","","","","","","","","key","j","16.66745263157829","768","476","j","true","img/T_ambi40.png","をる","prac",""
"","","","","","html-keyboard-response","190","669647","0.0-8.1-0.1-1.56","null","<span style='color:GreenYellow; font-size: 70px;'>正确! </span>","null","","","","","","","","","","","","","","","","","","","","","","","feedback_test"
"","","","","","psychophysics","191","671275","0.0-8.1-0.1-0.57","619","","f","","","","","","","","","","","","","key","f","16.66821874999975","768","476","f","true","img/S_ambi40.png","自我","prac",""
"","","","","","html-keyboard-response","192","671778","0.0-8.1-0.1-1.57","null","<span style='color:GreenYellow; font-size: 70px;'>正确! </span>","null","","","","","","","","","","","","","","","","","","","","","","","feedback_test"
"","","","","","psychophysics","193","673443","0.0-8.1-0.1-0.58","663","","f","","","","","","","","","","","","","key","f","16.662142857143","768","476","j","false","img/S_ambi40.png","朋友","prac",""
"","","","","","html-keyboard-response","194","673946","0.0-8.1-0.1-1.58","null","<span style='color:red; font-size: 70px;'>错误! </span>","null","","","","","","","","","","","","","","","","","","","","","","","feedback_test"
"","","","","","psychophysics","195","675756","0.0-8.1-0.1-0.59","809","","j","","","","","","","","","","","","","key","j","16.66642990654169","768","476","j","true","img/S_ambi40.png","生人","prac",""
"","","","","","html-keyboard-response","196","676258","0.0-8.1-0.1-1.59","null","<span style='color:GreenYellow; font-size: 70px;'>正确! </span>","null","","","","","","","","","","","","","","","","","","","","","","","feedback_test"
"","","","","","psychophysics","197","677931","0.0-8.1-0.1-0.60","669","","j","","","","","","","","","","","","","key","j","16.66756999999983","768","476","j","true","img/T_ambi40.png","をる","prac",""
"","","","","","html-keyboard-response","198","678436","0.0-8.1-0.1-1.60","null","<span style='color:GreenYellow; font-size: 70px;'>正确! </span>","null","","","","","","","","","","","","","","","","","","","","","","","feedback_test"
"","","","","","psychophysics","199","680123","0.0-8.1-0.1-0.61","678","","f","","","","","","","","","","","","","key","f","16.665929999999936","768","476","f","true","img/S_ambi40.png","自我","prac",""
"","","","","","html-keyboard-response","200","680630","0.0-8.1-0.1-1.61","null","<span style='color:GreenYellow; font-size: 70px;'>正确! </span>","null","","","","","","","","","","","","","","","","","","","","","","","feedback_test"
"","","","","","psychophysics","201","682315","0.0-8.1-0.1-0.62","672","","j","","","","","","","","","","","","","key","j","16.665899999999674","768","476","j","true","img/T_ambi40.png","をる","prac",""
"","","","","","html-keyboard-response","202","682819","0.0-8.1-0.1-1.62","null","<span style='color:GreenYellow; font-size: 70px;'>正确! </span>","null","","","","","","","","","","","","","","","","","","","","","","","feedback_test"
"","","","","","psychophysics","203","684651","0.0-8.1-0.1-0.63","824","","j","","","","","","","","","","","","","key","j","16.66560550458695","768","476","f","false","img/H_ambi40.png","朋友","prac",""
"","","","","","html-keyboard-response","204","685162","0.0-8.1-0.1-1.63","null","<span style='color:red; font-size: 70px;'>错误! </span>","null","","","","","","","","","","","","","","","","","","","","","","","feedback_test"
"","","","","","html-keyboard-response","205","695630","0.0-8.1-1.1-0.1","10465","<style>.context{color:white; font-size: 35px; line-height:40px}</style>                          <div><p class='context'>您正确回答了69% 的试次。</p ><p class='context'>您的平均反应时为708毫秒。</p >","enter","","","","","","","","","","","","","","","","","","","","","","",""
"","","","","","instructions","206","701628","0.0-8.1-1.1-1.1","5996","","","","","","","","","","","","","","[{""page_index"":0,""viewing_time"":1453},{""page_index"":1,""viewing_time"":3152},{""page_index"":2,""viewing_time"":1390}]","","","","","","","","","","",""
"","","","","","psychophysics","207","703300","0.0-8.2-0.2-0.64","663","","j","","","","","","","","","","","","","key","j","16.66753535353428","768","476","j","true","img/T_ambi40.png","をる","prac",""
"","","","","","html-keyboard-response","208","703805","0.0-8.2-0.2-1.64","null","<span style='color:GreenYellow; font-size: 70px;'>正确! </span>","null","","","","","","","","","","","","","","","","","","","","","","","feedback_test"
"","","","","","psychophysics","209","705365","0.0-8.2-0.2-0.65","553","","j","","","","","","","","","","","","","key","j","16.666784946235918","768","476","j","true","img/T_ambi40.png","をる","prac",""
"","","","","","html-keyboard-response","210","705875","0.0-8.2-0.2-1.65","null","<span style='color:GreenYellow; font-size: 70px;'>正确! </span>","null","","","","","","","","","","","","","","","","","","","","","","","feedback_test"
"","","","","","psychophysics","211","707491","0.0-8.2-0.2-0.66","613","","j","","","","","","","","","","","","","key","j","16.533926315789454","768","476","j","true","img/T_ambi40.png","をる","prac",""
"","","","","","html-keyboard-response","212","708006","0.0-8.2-0.2-1.66","null","<span style='color:GreenYellow; font-size: 70px;'>正确! </span>","null","","","","","","","","","","","","","","","","","","","","","","","feedback_test"
"","","","","","psychophysics","213","709971","0.0-8.2-0.2-0.67","961","","f","","","","","","","","","","","","","key","f","16.669170940170485","768","476","f","true","img/C_ambi40.png","生人","prac",""
"","","","","","html-keyboard-response","214","710487","0.0-8.2-0.2-1.67","null","<span style='color:GreenYellow; font-size: 70px;'>正确! </span>","null","","","","","","","","","","","","","","","","","","","","","","","feedback_test"
"","","","","","psychophysics","215","712141","0.0-8.2-0.2-0.68","646","","j","","","","","","","","","","","","","key","j","16.667030612245554","768","476","j","true","img/S_ambi40.png","朋友","prac",""
"","","","","","html-keyboard-response","216","712643","0.0-8.2-0.2-1.68","null","<span style='color:GreenYellow; font-size: 70px;'>正确! </span>","null","","","","","","","","","","","","","","","","","","","","","","","feedback_test"
"","","","","","psychophysics","217","714387","0.0-8.2-0.2-0.69","743","","f","","","","","","","","","","","","","key","f","16.668174757281978","768","476","f","true","img/H_ambi40.png","朋友","prac",""
"","","","","","html-keyboard-response","218","714896","0.0-8.2-0.2-1.69","null","<span style='color:GreenYellow; font-size: 70px;'>正确! </span>","null","","","","","","","","","","","","","","","","","","","","","","","feedback_test"
"","","","","","psychophysics","219","716618","0.0-8.2-0.2-0.70","713","","j","","","","","","","","","","","","","key","j","16.665245098040174","768","476","j","true","img/C_ambi40.png","朋友","prac",""
"","","","","","html-keyboard-response","220","717135","0.0-8.2-0.2-1.70","null","<span style='color:GreenYellow; font-size: 70px;'>正确! </span>","null","","","","","","","","","","","","","","","","","","","","","","","feedback_test"
"","","","","","psychophysics","221","719203","0.0-8.2-0.2-0.71","1060","","j","","","","","","","","","","","","","key","j","16.66720325203245","768","476","j","true","img/H_ambi40.png","自我","prac",""
"","","","","","html-keyboard-response","222","719710","0.0-8.2-0.2-1.71","null","<span style='color:GreenYellow; font-size: 70px;'>正确! </span>","null","","","","","","","","","","","","","","","","","","","","","","","feedback_test"
"","","","","","psychophysics","223","721787","0.0-8.2-0.2-0.72","1075","","f","","","","","","","","","","","","","key","f","16.66613008130088","768","476","j","false","img/H_ambi40.png","生人","prac",""
"","","","","","html-keyboard-response","224","722296","0.0-8.2-0.2-1.72","null","<span style='color:red; font-size: 70px;'>错误! </span>","null","","","","","","","","","","","","","","","","","","","","","","","feedback_test"
"","","","","","psychophysics","225","723932","0.0-8.2-0.2-0.73","626","","f","","","","","","","","","","","","","key","f","16.666247422679703","768","476","f","true","img/S_ambi40.png","自我","prac",""
"","","","","","html-keyboard-response","226","724447","0.0-8.2-0.2-1.73","null","<span style='color:GreenYellow; font-size: 70px;'>正确! </span>","null","","","","","","","","","","","","","","","","","","","","","","","feedback_test"
"","","","","","psychophysics","227","726147","0.0-8.2-0.2-0.74","692","","f","","","","","","","","","","","","","key","f","16.667009900990266","768","476","f","true","img/S_ambi40.png","自我","prac",""
"","","","","","html-keyboard-response","228","726658","0.0-8.2-0.2-1.74","null","<span style='color:GreenYellow; font-size: 70px;'>正确! </span>","null","","","","","","","","","","","","","","","","","","","","","","","feedback_test"
"","","","","","psychophysics","229","728371","0.0-8.2-0.2-0.75","711","","j","","","","","","","","","","","","","key","j","16.666792079208115","768","476","f","false","img/H_ambi40.png","朋友","prac",""
"","","","","","html-keyboard-response","230","728874","0.0-8.2-0.2-1.75","null","<span style='color:red; font-size: 70px;'>错误! </span>","null","","","","","","","","","","","","","","","","","","","","","","","feedback_test"
"","","","","","psychophysics","231","730739","0.0-8.2-0.2-0.76","862","","j","","","","","","","","","","","","","key","j","16.666754545454488","768","476","j","true","img/C_ambi40.png","自我","prac",""
"","","","","","html-keyboard-response","232","731248","0.0-8.2-0.2-1.76","null","<span style='color:GreenYellow; font-size: 70px;'>正确! </span>","null","","","","","","","","","","","","","","","","","","","","","","","feedback_test"
"","","","","","psychophysics","233","732883","0.0-8.2-0.2-0.77","629","","j","","","","","","","","","","","","","key","j","16.66692783505195","768","476","f","false","img/C_ambi40.png","生人","prac",""
"","","","","","html-keyboard-response","234","733394","0.0-8.2-0.2-1.77","null","<span style='color:red; font-size: 70px;'>错误! </span>","null","","","","","","","","","","","","","","","","","","","","","","","feedback_test"
"","","","","","psychophysics","235","735116","0.0-8.2-0.2-0.78","713","","j","","","","","","","","","","","","","key","j","16.663833333333432","768","476","j","true","img/T_ambi40.png","をる","prac",""
"","","","","","html-keyboard-response","236","735618","0.0-8.2-0.2-1.78","null","<span style='color:GreenYellow; font-size: 70px;'>正确! </span>","null","","","","","","","","","","","","","","","","","","","","","","","feedback_test"
"","","","","","psychophysics","237","737436","0.0-8.2-0.2-0.79","810","","j","","","","","","","","","","","","","key","j","16.667666666666737","768","476","j","true","img/S_ambi40.png","生人","prac",""
"","","","","","html-keyboard-response","238","737948","0.0-8.2-0.2-1.79","null","<span style='color:GreenYellow; font-size: 70px;'>正确! </span>","null","","","","","","","","","","","","","","","","","","","","","","","feedback_test"
"","","","","","psychophysics","239","739620","0.0-8.2-0.2-0.80","661","","f","","","","","","","","","","","","","key","f","16.66733333333325","768","476","f","true","img/S_ambi40.png","自我","prac",""
"","","","","","html-keyboard-response","240","740127","0.0-8.2-0.2-1.80","null","<span style='color:GreenYellow; font-size: 70px;'>正确! </span>","null","","","","","","","","","","","","","","","","","","","","","","","feedback_test"
"","","","","","psychophysics","241","741964","0.0-8.2-0.2-0.81","829","","j","","","","","","","","","","","","","key","j","16.671055045871732","768","476","j","true","img/C_ambi40.png","自我","prac",""
"","","","","","html-keyboard-response","242","742465","0.0-8.2-0.2-1.81","null","<span style='color:GreenYellow; font-size: 70px;'>正确! </span>","null","","","","","","","","","","","","","","","","","","","","","","","feedback_test"
"","","","","","psychophysics","243","744030","0.0-8.2-0.2-0.82","554","","f","","","","","","","","","","","","","key","f","16.667784946235848","768","476","f","true","img/S_ambi40.png","自我","prac",""
"","","","","","html-keyboard-response","244","744534","0.0-8.2-0.2-1.82","null","<span style='color:GreenYellow; font-size: 70px;'>正确! </span>","null","","","","","","","","","","","","","","","","","","","","","","","feedback_test"
"","","","","","psychophysics","245","746140","0.0-8.2-0.2-0.83","596","","j","","","","","","","","","","","","","key","j","16.663926315790434","768","476","j","true","img/T_ambi40.png","をる","prac",""
"","","","","","html-keyboard-response","246","746649","0.0-8.2-0.2-1.83","null","<span style='color:GreenYellow; font-size: 70px;'>正确! </span>","null","","","","","","","","","","","","","","","","","","","","","","","feedback_test"
"","","","","","psychophysics","247","748682","0.0-8.2-0.2-0.84","1029","","f","","","","","","","","","","","","","key","f","16.66700000000044","768","476","j","false","img/H_ambi40.png","生人","prac",""
"","","","","","html-keyboard-response","248","749188","0.0-8.2-0.2-1.84","null","<span style='color:red; font-size: 70px;'>错误! </span>","null","","","","","","","","","","","","","","","","","","","","","","","feedback_test"
"","","","","","psychophysics","249","750780","0.0-8.2-0.2-0.85","588","","j","","","","","","","","","","","","","key","j","16.667505263158514","768","476","j","true","img/T_ambi40.png","をる","prac",""
"","","","","","html-keyboard-response","250","751285","0.0-8.2-0.2-1.85","null","<span style='color:GreenYellow; font-size: 70px;'>正确! </span>","null","","","","","","","","","","","","","","","","","","","","","","","feedback_test"
"","","","","","psychophysics","251","753196","0.0-8.2-0.2-0.86","903","","j","","","","","","","","","","","","","key","j","16.666982456141053","768","476","f","false","img/C_ambi40.png","生人","prac",""
"","","","","","html-keyboard-response","252","753710","0.0-8.2-0.2-1.86","null","<span style='color:red; font-size: 70px;'>错误! </span>","null","","","","","","","","","","","","","","","","","","","","","","","feedback_test"
"","","","","","psychophysics","253","755556","0.0-8.2-0.2-0.87","835","","j","","","","","","","","","","","","","key","j","16.666302752293383","768","476","f","false","img/H_ambi40.png","朋友","prac",""
"","","","","","html-keyboard-response","254","756064","0.0-8.2-0.2-1.87","null","<span style='color:red; font-size: 70px;'>错误! </span>","null","","","","","","","","","","","","","","","","","","","","","","","feedback_test"
"","","","","","psychophysics","255","757894","0.0-8.2-0.2-0.88","818","","j","","","","","","","","","","","","","key","j","16.665770642202","768","476","j","true","img/S_ambi40.png","生人","prac",""
"","","","","","html-keyboard-response","256","758402","0.0-8.2-0.2-1.88","null","<span style='color:GreenYellow; font-size: 70px;'>正确! </span>","null","","","","","","","","","","","","","","","","","","","","","","","feedback_test"
"","","","","","psychophysics","257","760202","0.0-8.2-0.2-0.89","793","","j","","","","","","","","","","","","","key","j","16.66606542056048","768","476","j","true","img/H_ambi40.png","自我","prac",""
"","","","","","html-keyboard-response","258","760705","0.0-8.2-0.2-1.89","null","<span style='color:GreenYellow; font-size: 70px;'>正确! </span>","null","","","","","","","","","","","","","","","","","","","","","","","feedback_test"
"","","","","","psychophysics","259","762195","0.0-8.2-0.2-0.90","487","","f","","","","","","","","","","","","","key","f","16.667337078652135","768","476","j","false","img/S_ambi40.png","朋友","prac",""
"","","","","","html-keyboard-response","260","762698","0.0-8.2-0.2-1.90","null","<span style='color:red; font-size: 70px;'>错误! </span>","null","","","","","","","","","","","","","","","","","","","","","","","feedback_test"
"","","","","","psychophysics","261","765060","0.0-8.2-0.2-0.91","1353","","j","","","","","","","","","","","","","key","j","16.66446808510681","768","476","j","true","img/C_ambi40.png","朋友","prac",""
"","","","","","html-keyboard-response","262","765574","0.0-8.2-0.2-1.91","null","<span style='color:GreenYellow; font-size: 70px;'>正确! </span>","null","","","","","","","","","","","","","","","","","","","","","","","feedback_test"
"","","","","","psychophysics","263","767195","0.0-8.2-0.2-0.92","620","","f","","","","","","","","","","","","","key","f","16.66588541666594","768","476","f","true","img/C_ambi40.png","生人","prac",""
"","","","","","html-keyboard-response","264","767700","0.0-8.2-0.2-1.92","null","<span style='color:GreenYellow; font-size: 70px;'>正确! </span>","null","","","","","","","","","","","","","","","","","","","","","","","feedback_test"
"","","","","","psychophysics","265","769740","0.0-8.2-0.2-0.93","1032","","f","","","","","","","","","","","","","key","f","16.666537190082266","768","476","f","true","img/H_ambi40.png","朋友","prac",""
"","","","","","html-keyboard-response","266","770244","0.0-8.2-0.2-1.93","null","<span style='color:GreenYellow; font-size: 70px;'>正确! </span>","null","","","","","","","","","","","","","","","","","","","","","","","feedback_test"
"","","","","","psychophysics","267","771899","0.0-8.2-0.2-0.94","645","","j","","","","","","","","","","","","","key","j","16.666244897959345","768","476","j","true","img/T_ambi40.png","をる","prac",""
"","","","","","html-keyboard-response","268","772409","0.0-8.2-0.2-1.94","null","<span style='color:GreenYellow; font-size: 70px;'>正确! </span>","null","","","","","","","","","","","","","","","","","","","","","","","feedback_test"
"","","","","","psychophysics","269","773970","0.0-8.2-0.2-0.95","551","","j","","","","","","","","","","","","","key","j","16.66606521739184","768","476","j","true","img/T_ambi40.png","をる","prac",""
"","","","","","html-keyboard-response","270","774478","0.0-8.2-0.2-1.95","null","<span style='color:GreenYellow; font-size: 70px;'>正确! </span>","null","","","","","","","","","","","","","","","","","","","","","","","feedback_test"
"","","","","","html-keyboard-response","271","789717","0.0-9.0","15234","<style>.context{color:white; font-size: 35px; line-height:40px}</style>                          <div><p class='context'>您正确回答了78% 的试次。</p ><p class='context'>您的平均反应时为748毫秒。</p ><p class='context'>恭喜您完成练习。按任意键进入正式实验。</p ><p class='footer' style='font-size: 35px; line-height:40px;'>请在进入正式实验实验之前将您的<span style='color: lightgreen;'>食指</span>放在电脑键盘的相应键位上进行按键。</p >"," ","","","","","","","","","","","","","","","","","","","","","","",""
"","","","","","psychophysics","272","792225","0.0-10.0-0.0-0.0-0.0-0.0","null","","null","","","","","","","","","","","","","key","null","16.667281879194164","768","476","j","false","img/T_ambi40.png","をる","same",""
"","","","","","html-keyboard-response","273","792728","0.0-10.0-0.0-0.0-0.0-1.0","null","<span class='add_' style='color:yellow; font-size: 70px;'> 太慢! </span>","null","","","","","","","","","","","","","","","","","","","","","","","feedback_test"
"","","","","","psychophysics","274","794346","0.0-10.0-0.0-0.0-0.0-0.1","604","","f","","","","","","","","","","","","","key","f","16.666885416666144","768","476","f","true","img/S_ambi40.png","自我","same",""
"","","","","","html-keyboard-response","275","794862","0.0-10.0-0.0-0.0-0.0-1.1","null","<span style='color:GreenYellow; font-size: 70px;'>正确! </span>","null","","","","","","","","","","","","","","","","","","","","","","","feedback_test"
"","","","","","psychophysics","276","796714","0.0-10.0-0.0-0.0-0.0-0.2","847","","j","","","","","","","","","","","","","key","j","16.66866666666727","768","476","j","true","img/S_ambi40.png","生人","same",""
"","","","","","html-keyboard-response","277","797220","0.0-10.0-0.0-0.0-0.0-1.2","null","<span style='color:GreenYellow; font-size: 70px;'>正确! </span>","null","","","","","","","","","","","","","","","","","","","","","","","feedback_test"
"","","","","","psychophysics","278","799082","0.0-10.0-0.0-0.0-0.0-0.3","857","","f","","","","","","","","","","","","","key","f","16.667054054053576","768","476","j","false","img/H_ambi40.png","生人","same",""
"","","","","","html-keyboard-response","279","799590","0.0-10.0-0.0-0.0-0.0-1.3","null","<span style='color:red; font-size: 70px;'>错误! </span>","null","","","","","","","","","","","","","","","","","","","","","","","feedback_test"
"","","","","","psychophysics","280","801411","0.0-10.0-0.0-0.0-0.0-0.4","820","","j","","","","","","","","","","","","","key","j","16.666055555555634","768","476","j","true","img/H_ambi40.png","自我","same",""
"","","","","","html-keyboard-response","281","801928","0.0-10.0-0.0-0.0-0.0-1.4","null","<span style='color:GreenYellow; font-size: 70px;'>正确! </span>","null","","","","","","","","","","","","","","","","","","","","","","","feedback_test"
"","","","","","psychophysics","282","803911","0.0-10.0-0.0-0.0-0.0-0.5","974","","f","","","","","","","","","","","","","key","f","16.66680508474543","768","476","f","true","img/H_ambi40.png","朋友","same",""
"","","","","","html-keyboard-response","283","804415","0.0-10.0-0.0-0.0-0.0-1.5","null","<span style='color:GreenYellow; font-size: 70px;'>正确! </span>","null","","","","","","","","","","","","","","","","","","","","","","","feedback_test"
"","","","","","psychophysics","284","806061","0.0-10.0-0.0-0.0-0.0-0.6","640","","j","","","","","","","","","","","","","key","j","16.66667346938808","768","476","j","true","img/T_ambi40.png","をる","same",""
"","","","","","html-keyboard-response","285","806570","0.0-10.0-0.0-0.0-0.0-1.6","null","<span style='color:GreenYellow; font-size: 70px;'>正确! </span>","null","","","","","","","","","","","","","","","","","","","","","","","feedback_test"
"","","","","","psychophysics","286","808260","0.0-10.0-0.0-0.0-0.0-0.7","686","","j","","","","","","","","","","","","","key","j","16.667693069307273","768","476","j","true","img/S_ambi40.png","朋友","same",""
"","","","","","html-keyboard-response","287","808761","0.0-10.0-0.0-0.0-0.0-1.7","null","<span style='color:GreenYellow; font-size: 70px;'>正确! </span>","null","","","","","","","","","","","","","","","","","","","","","","","feedback_test"
"","","","","","psychophysics","288","810443","0.0-10.0-0.0-0.0-0.0-0.8","671","","f","","","","","","","","","","","","","key","f","16.666999999999533","768","476","f","true","img/S_ambi40.png","自我","same",""
"","","","","","html-keyboard-response","289","810951","0.0-10.0-0.0-0.0-0.0-1.8","null","<span style='color:GreenYellow; font-size: 70px;'>正确! </span>","null","","","","","","","","","","","","","","","","","","","","","","","feedback_test"
"","","","","","psychophysics","290","812717","0.0-10.0-0.0-0.0-0.0-0.9","759","","j","","","","","","","","","","","","","key","j","16.66688571428614","768","476","f","false","img/C_ambi40.png","生人","same",""
"","","","","","html-keyboard-response","291","813218","0.0-10.0-0.0-0.0-0.0-1.9","null","<span style='color:red; font-size: 70px;'>错误! </span>","null","","","","","","","","","","","","","","","","","","","","","","","feedback_test"
"","","","","","psychophysics","292","815043","0.0-10.0-0.0-0.0-0.0-0.10","820","","j","","","","","","","","","","","","","key","j","16.668110091743323","768","476","j","true","img/C_ambi40.png","朋友","same",""
"","","","","","html-keyboard-response","293","815545","0.0-10.0-0.0-0.0-0.0-1.10","null","<span style='color:GreenYellow; font-size: 70px;'>正确! </span>","null","","","","","","","","","","","","","","","","","","","","","","","feedback_test"
"","","","","","psychophysics","294","817186","0.0-10.0-0.0-0.0-0.0-0.11","630","","f","","","","","","","","","","","","","key","f","16.667525773195877","768","476","f","true","img/C_ambi40.png","生人","same",""
"","","","","","html-keyboard-response","295","817688","0.0-10.0-0.0-0.0-0.0-1.11","null","<span style='color:GreenYellow; font-size: 70px;'>正确! </span>","null","","","","","","","","","","","","","","","","","","","","","","","feedback_test"
"","","","","","psychophysics","296","819282","0.0-10.0-0.0-0.0-0.0-0.12","591","","j","","","","","","","","","","","","","key","j","16.52574468085151","768","476","j","true","img/T_ambi40.png","をる","same",""
"","","","","","html-keyboard-response","297","819790","0.0-10.0-0.0-0.0-0.0-1.12","null","<span style='color:GreenYellow; font-size: 70px;'>正确! </span>","null","","","","","","","","","","","","","","","","","","","","","","","feedback_test"
"","","","","","psychophysics","298","821555","0.0-10.0-0.0-0.0-0.0-0.13","763","","f","","","","","","","","","","","","","key","f","16.664105769231146","768","476","f","true","img/C_ambi40.png","生人","same",""
"","","","","","html-keyboard-response","299","822067","0.0-10.0-0.0-0.0-0.0-1.13","null","<span style='color:GreenYellow; font-size: 70px;'>正确! </span>","null","","","","","","","","","","","","","","","","","","","","","","","feedback_test"
"","","","","","psychophysics","300","824123","0.0-10.0-0.0-0.0-0.0-0.14","1049","","j","","","","","","","","","","","","","key","j","16.66722764227562","768","476","j","true","img/C_ambi40.png","自我","same",""
"","","","","","html-keyboard-response","301","824637","0.0-10.0-0.0-0.0-0.0-1.14","null","<span style='color:GreenYellow; font-size: 70px;'>正确! </span>","null","","","","","","","","","","","","","","","","","","","","","","","feedback_test"
"","","","","","psychophysics","302","826450","0.0-10.0-0.0-0.0-0.0-0.15","811","","j","","","","","","","","","","","","","key","j","16.66560747663525","768","476","f","false","img/H_ambi40.png","朋友","same",""
"","","","","","html-keyboard-response","303","826961","0.0-10.0-0.0-0.0-0.0-1.15","null","<span style='color:red; font-size: 70px;'>错误! </span>","null","","","","","","","","","","","","","","","","","","","","","","","feedback_test"
"","","","","","psychophysics","304","828612","0.0-10.0-0.0-0.0-0.0-0.16","638","","f","","","","","","","","","","","","","key","f","16.662602040816896","768","476","f","true","img/S_ambi40.png","自我","same",""
"","","","","","html-keyboard-response","305","829122","0.0-10.0-0.0-0.0-0.0-1.16","null","<span style='color:GreenYellow; font-size: 70px;'>正确! </span>","null","","","","","","","","","","","","","","","","","","","","","","","feedback_test"
"","","","","","psychophysics","306","830923","0.0-10.0-0.0-0.0-0.0-0.17","799","","j","","","","","","","","","","","","","key","j","16.668311320754857","768","476","f","false","img/H_ambi40.png","朋友","same",""
"","","","","","html-keyboard-response","307","831427","0.0-10.0-0.0-0.0-0.0-1.17","null","<span style='color:red; font-size: 70px;'>错误! </span>","null","","","","","","","","","","","","","","","","","","","","","","","feedback_test"
"","","","","","psychophysics","308","833364","0.0-10.0-0.0-0.0-0.0-0.18","929","","j","","","","","","","","","","","","","key","j","16.666669565216516","768","476","j","true","img/H_ambi40.png","生人","same",""
"","","","","","html-keyboard-response","309","833875","0.0-10.0-0.0-0.0-0.0-1.18","null","<span style='color:GreenYellow; font-size: 70px;'>正确! </span>","null","","","","","","","","","","","","","","","","","","","","","","","feedback_test"
"","","","","","psychophysics","310","835812","0.0-10.0-0.0-0.0-0.0-0.19","936","","j","","","","","","","","","","","","","key","j","16.664286956521075","768","476","f","false","img/C_ambi40.png","生人","same",""
"","","","","","html-keyboard-response","311","836322","0.0-10.0-0.0-0.0-0.0-1.19","null","<span style='color:red; font-size: 70px;'>错误! </span>","null","","","","","","","","","","","","","","","","","","","","","","","feedback_test"
"","","","","","psychophysics","312","838363","0.0-10.0-0.0-0.0-0.0-0.20","1040","","f","","","","","","","","","","","","","key","f","16.663884297520315","768","476","f","true","img/H_ambi40.png","朋友","same",""
"","","","","","html-keyboard-response","313","838872","0.0-10.0-0.0-0.0-0.0-1.20","null","<span style='color:GreenYellow; font-size: 70px;'>正确! </span>","null","","","","","","","","","","","","","","","","","","","","","","","feedback_test"
"","","","","","psychophysics","314","840482","0.0-10.0-0.0-0.0-0.0-0.21","609","","f","","","","","","","","","","","","","key","f","16.665463157895168","768","476","f","true","img/S_ambi40.png","自我","same",""
"","","","","","html-keyboard-response","315","840985","0.0-10.0-0.0-0.0-0.0-1.21","null","<span style='color:GreenYellow; font-size: 70px;'>正确! </span>","null","","","","","","","","","","","","","","","","","","","","","","","feedback_test"
"","","","","","psychophysics","316","842860","0.0-10.0-0.0-0.0-0.0-0.22","874","","j","","","","","","","","","","","","","key","j","16.667124999999942","768","476","j","true","img/S_ambi40.png","生人","same",""
"","","","","","html-keyboard-response","317","843371","0.0-10.0-0.0-0.0-0.0-1.22","null","<span style='color:GreenYellow; font-size: 70px;'>正确! </span>","null","","","","","","","","","","","","","","","","","","","","","","","feedback_test"
"","","","","","psychophysics","318","845130","0.0-10.0-0.0-0.0-0.0-0.23","758","","f","","","","","","","","","","","","","key","f","16.66709523809453","768","476","j","false","img/C_ambi40.png","朋友","same",""
"","","","","","html-keyboard-response","319","845644","0.0-10.0-0.0-0.0-0.0-1.23","null","<span style='color:red; font-size: 70px;'>错误! </span>","null","","","","","","","","","","","","","","","","","","","","","","","feedback_test"
"","","","","","psychophysics","320","847589","0.0-10.0-0.0-0.0-0.0-0.24","936","","j","","","","","","","","","","","","","key","j","16.666426086956232","768","476","j","true","img/S_ambi40.png","朋友","same",""
"","","","","","html-keyboard-response","321","848098","0.0-10.0-0.0-0.0-0.0-1.24","null","<span style='color:GreenYellow; font-size: 70px;'>正确! </span>","null","","","","","","","","","","","","","","","","","","","","","","","feedback_test"
"","","","","","psychophysics","322","849908","0.0-10.0-0.0-0.0-0.0-0.25","802","","f","","","","","","","","","","","","","key","f","16.667444444444737","768","476","f","true","img/H_ambi40.png","朋友","same",""
"","","","","","html-keyboard-response","323","850417","0.0-10.0-0.0-0.0-0.0-1.25","null","<span style='color:GreenYellow; font-size: 70px;'>正确! </span>","null","","","","","","","","","","","","","","","","","","","","","","","feedback_test"
"","","","","","psychophysics","324","852627","0.0-10.0-0.0-0.0-0.0-0.26","1203","","f","","","","","","","","","","","","","key","f","16.66706818181785","768","476","f","true","img/C_ambi40.png","生人","same",""
"","","","","","html-keyboard-response","325","853138","0.0-10.0-0.0-0.0-0.0-1.26","null","<span style='color:GreenYellow; font-size: 70px;'>正确! </span>","null","","","","","","","","","","","","","","","","","","","","","","","feedback_test"
"","","","","","psychophysics","326","854924","0.0-10.0-0.0-0.0-0.0-0.27","784","","f","","","","","","","","","","","","","key","f","16.666679245282516","768","476","f","true","img/S_ambi40.png","自我","same",""
"","","","","","html-keyboard-response","327","855428","0.0-10.0-0.0-0.0-0.0-1.27","null","<span style='color:GreenYellow; font-size: 70px;'>正确! </span>","null","","","","","","","","","","","","","","","","","","","","","","","feedback_test"
"","","","","","psychophysics","328","857378","0.0-10.0-0.0-0.0-0.0-0.28","939","","j","","","","","","","","","","","","","key","j","16.670008620689824","768","476","j","true","img/H_ambi40.png","自我","same",""
"","","","","","html-keyboard-response","329","857886","0.0-10.0-0.0-0.0-0.0-1.28","null","<span style='color:GreenYellow; font-size: 70px;'>正确! </span>","null","","","","","","","","","","","","","","","","","","","","","","","feedback_test"
"","","","","","psychophysics","330","859539","0.0-10.0-0.0-0.0-0.0-0.29","650","","f","","","","","","","","","","","","","key","f","16.663663265306017","768","476","f","true","img/S_ambi40.png","自我","same",""
"","","","","","html-keyboard-response","331","860043","0.0-10.0-0.0-0.0-0.0-1.29","null","<span style='color:GreenYellow; font-size: 70px;'>正确! </span>","null","","","","","","","","","","","","","","","","","","","","","","","feedback_test"
"","","","","","psychophysics","332","861730","0.0-10.0-0.0-0.0-0.0-0.30","679","","j","","","","","","","","","","","","","key","j","16.66291000000085","768","476","j","true","img/T_ambi40.png","をる","same",""
"","","","","","html-keyboard-response","333","862232","0.0-10.0-0.0-0.0-0.0-1.30","null","<span style='color:GreenYellow; font-size: 70px;'>正确! </span>","null","","","","","","","","","","","","","","","","","","","","","","","feedback_test"
"","","","","","psychophysics","334","863946","0.0-10.0-0.0-0.0-0.0-0.31","707","","j","","","","","","","","","","","","","key","j","16.665911764705406","768","476","j","true","img/T_ambi40.png","をる","same",""
"","","","","","html-keyboard-response","335","864450","0.0-10.0-0.0-0.0-0.0-1.31","null","<span style='color:GreenYellow; font-size: 70px;'>正确! </span>","null","","","","","","","","","","","","","","","","","","","","","","","feedback_test"
"","","","","","psychophysics","336","866195","0.0-10.0-0.0-0.0-0.0-0.32","740","","f","","","","","","","","","","","","","key","f","16.66785576923128","768","476","f","true","img/H_ambi40.png","朋友","same",""
"","","","","","html-keyboard-response","337","866707","0.0-10.0-0.0-0.0-0.0-1.32","null","<span style='color:GreenYellow; font-size: 70px;'>正确! </span>","null","","","","","","","","","","","","","","","","","","","","","","","feedback_test"
"","","","","","psychophysics","338","868306","0.0-10.0-0.0-0.0-0.0-0.33","591","","j","","","","","","","","","","","","","key","j","16.665968421052554","768","476","j","true","img/T_ambi40.png","をる","same",""
"","","","","","html-keyboard-response","339","868807","0.0-10.0-0.0-0.0-0.0-1.33","null","<span style='color:GreenYellow; font-size: 70px;'>正确! </span>","null","","","","","","","","","","","","","","","","","","","","","","","feedback_test"
"","","","","","psychophysics","340","870581","0.0-10.0-0.0-0.0-0.0-0.34","763","","f","","","","","","","","","","","","","key","f","16.664371428572174","768","476","f","true","img/C_ambi40.png","生人","same",""
"","","","","","html-keyboard-response","341","871092","0.0-10.0-0.0-0.0-0.0-1.34","null","<span style='color:GreenYellow; font-size: 70px;'>正确! </span>","null","","","","","","","","","","","","","","","","","","","","","","","feedback_test"
"","","","","","psychophysics","342","873146","0.0-10.0-0.0-0.0-0.0-0.35","1047","","j","","","","","","","","","","","","","key","j","16.66500000000004","768","476","j","true","img/C_ambi40.png","自我","same",""
"","","","","","html-keyboard-response","343","873651","0.0-10.0-0.0-0.0-0.0-1.35","null","<span style='color:GreenYellow; font-size: 70px;'>正确! </span>","null","","","","","","","","","","","","","","","","","","","","","","","feedback_test"
"","","","","","psychophysics","344","875427","0.0-10.0-0.0-0.0-0.0-0.36","772","","f","","","","","","","","","","","","","key","f","16.667820754716885","768","476","f","true","img/C_ambi40.png","生人","same",""
"","","","","","html-keyboard-response","345","875937","0.0-10.0-0.0-0.0-0.0-1.36","null","<span style='color:GreenYellow; font-size: 70px;'>正确! </span>","null","","","","","","","","","","","","","","","","","","","","","","","feedback_test"
"","","","","","psychophysics","346","878114","0.0-10.0-0.0-0.0-0.0-0.37","1176","","f","","","","","","","","","","","","","key","f","16.669550387596697","768","476","f","true","img/C_ambi40.png","生人","same",""
"","","","","","html-keyboard-response","347","878629","0.0-10.0-0.0-0.0-0.0-1.37","null","<span style='color:GreenYellow; font-size: 70px;'>正确! </span>","null","","","","","","","","","","","","","","","","","","","","","","","feedback_test"
"","","","","","psychophysics","348","880530","0.0-10.0-0.0-0.0-0.0-0.38","893","","j","","","","","","","","","","","","","key","j","16.666309734513835","768","476","f","false","img/H_ambi40.png","朋友","same",""
"","","","","","html-keyboard-response","349","881046","0.0-10.0-0.0-0.0-0.0-1.38","null","<span style='color:red; font-size: 70px;'>错误! </span>","null","","","","","","","","","","","","","","","","","","","","","","","feedback_test"
"","","","","","psychophysics","350","882846","0.0-10.0-0.0-0.0-0.0-0.39","791","","f","","","","","","","","","","","","","key","f","16.668112149532824","768","476","f","true","img/C_ambi40.png","生人","same",""
"","","","","","html-keyboard-response","351","883356","0.0-10.0-0.0-0.0-0.0-1.39","null","<span style='color:GreenYellow; font-size: 70px;'>正确! </span>","null","","","","","","","","","","","","","","","","","","","","","","","feedback_test"
"","","","","","psychophysics","352","884930","0.0-10.0-0.0-0.0-0.0-0.40","563","","f","","","","","","","","","","","","","key","f","16.665838709676898","768","476","f","true","img/S_ambi40.png","自我","same",""
"","","","","","html-keyboard-response","353","885443","0.0-10.0-0.0-0.0-0.0-1.40","null","<span style='color:GreenYellow; font-size: 70px;'>正确! </span>","null","","","","","","","","","","","","","","","","","","","","","","","feedback_test"
"","","","","","psychophysics","354","887243","0.0-10.0-0.0-0.0-0.0-0.41","788","","j","","","","","","","","","","","","","key","j","16.664962616822002","768","476","j","true","img/S_ambi40.png","生人","same",""
"","","","","","html-keyboard-response","355","887755","0.0-10.0-0.0-0.0-0.0-1.41","null","<span style='color:GreenYellow; font-size: 70px;'>正确! </span>","null","","","","","","","","","","","","","","","","","","","","","","","feedback_test"
"","","","","","psychophysics","356","889602","0.0-10.0-0.0-0.0-0.0-0.42","846","","j","","","","","","","","","","","","","key","j","16.66624770642241","768","476","j","true","img/T_ambi40.png","をる","same",""
"","","","","","html-keyboard-response","357","890118","0.0-10.0-0.0-0.0-0.0-1.42","null","<span style='color:GreenYellow; font-size: 70px;'>正确! </span>","null","","","","","","","","","","","","","","","","","","","","","","","feedback_test"
"","","","","","psychophysics","358","892226","0.0-10.0-0.0-0.0-0.0-0.43","1105","","j","","","","","","","","","","","","","key","j","16.667238095238442","768","476","j","true","img/H_ambi40.png","生人","same",""
"","","","","","html-keyboard-response","359","892741","0.0-10.0-0.0-0.0-0.0-1.43","null","<span style='color:GreenYellow; font-size: 70px;'>正确! </span>","null","","","","","","","","","","","","","","","","","","","","","","","feedback_test"
"","","","","","psychophysics","360","894300","0.0-10.0-0.0-0.0-0.0-0.44","551","","f","","","","","","","","","","","","","key","f","16.66623913043472","768","476","j","false","img/H_ambi40.png","自我","same",""
"","","","","","html-keyboard-response","361","894809","0.0-10.0-0.0-0.0-0.0-1.44","null","<span style='color:red; font-size: 70px;'>错误! </span>","null","","","","","","","","","","","","","","","","","","","","","","","feedback_test"
"","","","","","psychophysics","362","896516","0.0-10.0-0.0-0.0-0.0-0.45","702","","j","","","","","","","","","","","","","key","j","16.668623762376985","768","476","j","true","img/T_ambi40.png","をる","same",""
"","","","","","html-keyboard-response","363","897023","0.0-10.0-0.0-0.0-0.0-1.45","null","<span style='color:GreenYellow; font-size: 70px;'>正确! </span>","null","","","","","","","","","","","","","","","","","","","","","","","feedback_test"
"","","","","","psychophysics","364","898603","0.0-10.0-0.0-0.0-0.0-0.46","571","","f","","","","","","","","","","","","","key","f","16.66740860215073","768","476","f","true","img/S_ambi40.png","自我","same",""
"","","","","","html-keyboard-response","365","899104","0.0-10.0-0.0-0.0-0.0-1.46","null","<span style='color:GreenYellow; font-size: 70px;'>正确! </span>","null","","","","","","","","","","","","","","","","","","","","","","","feedback_test"
"","","","","","psychophysics","366","900773","0.0-10.0-0.0-0.0-0.0-0.47","667","","f","","","","","","","","","","","","","key","f","16.667171717171012","768","476","f","true","img/S_ambi40.png","自我","same",""
"","","","","","html-keyboard-response","367","901276","0.0-10.0-0.0-0.0-0.0-1.47","null","<span style='color:GreenYellow; font-size: 70px;'>正确! </span>","null","","","","","","","","","","","","","","","","","","","","","","","feedback_test"
"","","","","","psychophysics","368","902730","0.0-10.0-0.0-0.0-0.0-0.48","445","","j","","","","","","","","","","","","","key","j","16.666023255814526","768","476","j","true","img/T_ambi40.png","をる","same",""
"","","","","","html-keyboard-response","369","903238","0.0-10.0-0.0-0.0-0.0-1.48","null","<span style='color:GreenYellow; font-size: 70px;'>正确! </span>","null","","","","","","","","","","","","","","","","","","","","","","","feedback_test"
"","","","","","psychophysics","370","905159","0.0-10.0-0.0-0.0-0.0-0.49","920","","f","","","","","","","","","","","","","key","f","16.66658771929756","768","476","j","false","img/C_ambi40.png","朋友","same",""
"","","","","","html-keyboard-response","371","905674","0.0-10.0-0.0-0.0-0.0-1.49","null","<span style='color:red; font-size: 70px;'>错误! </span>","null","","","","","","","","","","","","","","","","","","","","","","","feedback_test"
"","","","","","psychophysics","372","907586","0.0-10.0-0.0-0.0-0.0-0.50","899","","f","","","","","","","","","","","","","key","f","16.665123893806207","768","476","f","true","img/H_ambi40.png","朋友","same",""
"","","","","","html-keyboard-response","373","908098","0.0-10.0-0.0-0.0-0.0-1.50","null","<span style='color:GreenYellow; font-size: 70px;'>正确! </span>","null","","","","","","","","","","","","","","","","","","","","","","","feedback_test"
"","","","","","psychophysics","374","909860","0.0-10.0-0.0-0.0-0.0-0.51","756","","f","","","","","","","","","","","","","key","f","16.667476190475835","768","476","f","true","img/H_ambi40.png","朋友","same",""
"","","","","","html-keyboard-response","375","910370","0.0-10.0-0.0-0.0-0.0-1.51","null","<span style='color:GreenYellow; font-size: 70px;'>正确! </span>","null","","","","","","","","","","","","","","","","","","","","","","","feedback_test"
"","","","","","psychophysics","376","912315","0.0-10.0-0.0-0.0-0.0-0.52","943","","j","","","","","","","","","","","","","key","j","16.665947826087233","768","476","j","true","img/C_ambi40.png","自我","same",""
"","","","","","html-keyboard-response","377","912818","0.0-10.0-0.0-0.0-0.0-1.52","null","<span style='color:GreenYellow; font-size: 70px;'>正确! </span>","null","","","","","","","","","","","","","","","","","","","","","","","feedback_test"
"","","","","","psychophysics","378","914572","0.0-10.0-0.0-0.0-0.0-0.53","752","","f","","","","","","","","","","","","","key","f","16.53990384615407","768","476","j","false","img/S_ambi40.png","朋友","same",""
"","","","","","html-keyboard-response","379","915080","0.0-10.0-0.0-0.0-0.0-1.53","null","<span style='color:red; font-size: 70px;'>错误! </span>","null","","","","","","","","","","","","","","","","","","","","","","","feedback_test"
"","","","","","psychophysics","380","916795","0.0-10.0-0.0-0.0-0.0-0.54","707","","j","","","","","","","","","","","","","key","j","16.66703921568685","768","476","j","true","img/T_ambi40.png","をる","same",""
"","","","","","html-keyboard-response","381","917297","0.0-10.0-0.0-0.0-0.0-1.54","null","<span style='color:GreenYellow; font-size: 70px;'>正确! </span>","null","","","","","","","","","","","","","","","","","","","","","","","feedback_test"
"","","","","","psychophysics","382","918995","0.0-10.0-0.0-0.0-0.0-0.55","690","","j","","","","","","","","","","","","","key","j","16.667693069307273","768","476","j","true","img/T_ambi40.png","をる","same",""
"","","","","","html-keyboard-response","383","919502","0.0-10.0-0.0-0.0-0.0-1.55","null","<span style='color:GreenYellow; font-size: 70px;'>正确! </span>","null","","","","","","","","","","","","","","","","","","","","","","","feedback_test"
"","","","","","psychophysics","384","921258","0.0-10.0-0.0-0.0-0.0-0.56","755","","f","","","","","","","","","","","","","key","f","16.543750000000447","768","476","f","true","img/H_ambi40.png","朋友","same",""
"","","","","","html-keyboard-response","385","921769","0.0-10.0-0.0-0.0-0.0-1.56","null","<span style='color:GreenYellow; font-size: 70px;'>正确! </span>","null","","","","","","","","","","","","","","","","","","","","","","","feedback_test"
"","","","","","psychophysics","386","923458","0.0-10.0-0.0-0.0-0.0-0.57","688","","f","","","","","","","","","","","","","key","f","16.669329999999608","768","476","f","true","img/S_ambi40.png","自我","same",""
"","","","","","html-keyboard-response","387","923961","0.0-10.0-0.0-0.0-0.0-1.57","null","<span style='color:GreenYellow; font-size: 70px;'>正确! </span>","null","","","","","","","","","","","","","","","","","","","","","","","feedback_test"
"","","","","","psychophysics","388","925634","0.0-10.0-0.0-0.0-0.0-0.58","665","","f","","","","","","","","","","","","","key","f","16.666333333332787","768","476","f","true","img/S_ambi40.png","自我","same",""
"","","","","","html-keyboard-response","389","926137","0.0-10.0-0.0-0.0-0.0-1.58","null","<span style='color:GreenYellow; font-size: 70px;'>正确! </span>","null","","","","","","","","","","","","","","","","","","","","","","","feedback_test"
"","","","","","psychophysics","390","927740","0.0-10.0-0.0-0.0-0.0-0.59","589","","j","","","","","","","","","","","","","key","j","16.662347368420544","768","476","f","false","img/C_ambi40.png","生人","same",""
"","","","","","html-keyboard-response","391","928242","0.0-10.0-0.0-0.0-0.0-1.59","null","<span style='color:red; font-size: 70px;'>错误! </span>","null","","","","","","","","","","","","","","","","","","","","","","","feedback_test"
"","","","","","psychophysics","392","929834","0.0-10.0-0.0-0.0-0.0-0.60","581","","f","","","","","","","","","","","","","key","f","16.665585106382384","768","476","f","true","img/C_ambi40.png","生人","same",""
"","","","","","html-keyboard-response","393","930338","0.0-10.0-0.0-0.0-0.0-1.60","null","<span style='color:GreenYellow; font-size: 70px;'>正确! </span>","null","","","","","","","","","","","","","","","","","","","","","","","feedback_test"
"","","","","","psychophysics","394","932315","0.0-10.0-0.0-0.0-0.0-0.61","971","","j","","","","","","","","","","","","","key","j","16.662324786324525","768","476","j","true","img/H_ambi40.png","自我","same",""
"","","","","","html-keyboard-response","395","932830","0.0-10.0-0.0-0.0-0.0-1.61","null","<span style='color:GreenYellow; font-size: 70px;'>正确! </span>","null","","","","","","","","","","","","","","","","","","","","","","","feedback_test"
"","","","","","psychophysics","396","934578","0.0-10.0-0.0-0.0-0.0-0.62","742","","f","","","","","","","","","","","","","key","f","16.666971153846063","768","476","f","true","img/H_ambi40.png","朋友","same",""
"","","","","","html-keyboard-response","397","935084","0.0-10.0-0.0-0.0-0.0-1.62","null","<span style='color:GreenYellow; font-size: 70px;'>正确! </span>","null","","","","","","","","","","","","","","","","","","","","","","","feedback_test"
"","","","","","psychophysics","398","937099","0.0-10.0-0.0-0.0-0.0-0.63","1012","","j","","","","","","","","","","","","","key","j","16.55670588235312","768","476","j","true","img/H_ambi40.png","生人","same",""
"","","","","","html-keyboard-response","399","937612","0.0-10.0-0.0-0.0-0.0-1.63","null","<span style='color:GreenYellow; font-size: 70px;'>正确! </span>","null","","","","","","","","","","","","","","","","","","","","","","","feedback_test"
"","","","","","psychophysics","400","939620","0.0-10.0-0.0-0.0-0.0-0.64","1006","","j","","","","","","","","","","","","","key","j","16.666674999999426","768","476","j","true","img/C_ambi40.png","自我","same",""
"","","","","","html-keyboard-response","401","940121","0.0-10.0-0.0-0.0-0.0-1.64","null","<span style='color:GreenYellow; font-size: 70px;'>正确! </span>","null","","","","","","","","","","","","","","","","","","","","","","","feedback_test"
"","","","","","psychophysics","402","941994","0.0-10.0-0.0-0.0-0.0-0.65","865","","f","","","","","","","","","","","","","key","f","16.666567567567057","768","476","f","true","img/C_ambi40.png","生人","same",""
"","","","","","html-keyboard-response","403","942500","0.0-10.0-0.0-0.0-0.0-1.65","null","<span style='color:GreenYellow; font-size: 70px;'>正确! </span>","null","","","","","","","","","","","","","","","","","","","","","","","feedback_test"
"","","","","","psychophysics","404","944499","0.0-10.0-0.0-0.0-0.0-0.66","996","","j","","","","","","","","","","","","","key","j","16.554593220339314","768","476","j","true","img/C_ambi40.png","朋友","same",""
"","","","","","html-keyboard-response","405","945014","0.0-10.0-0.0-0.0-0.0-1.66","null","<span style='color:GreenYellow; font-size: 70px;'>正确! </span>","null","","","","","","","","","","","","","","","","","","","","","","","feedback_test"
"","","","","","psychophysics","406","946658","0.0-10.0-0.0-0.0-0.0-0.67","641","","f","","","","","","","","","","","","","key","f","16.666561224489538","768","476","f","true","img/H_ambi40.png","朋友","same",""
"","","","","","html-keyboard-response","407","947174","0.0-10.0-0.0-0.0-0.0-1.67","null","<span style='color:GreenYellow; font-size: 70px;'>正确! </span>","null","","","","","","","","","","","","","","","","","","","","","","","feedback_test"
"","","","","","psychophysics","408","948610","0.0-10.0-0.0-0.0-0.0-0.68","429","","f","","","","","","","","","","","","","key","f","16.667894117646465","768","476","f","true","img/S_ambi40.png","自我","same",""
"","","","","","html-keyboard-response","409","949115","0.0-10.0-0.0-0.0-0.0-1.68","null","<span style='color:GreenYellow; font-size: 70px;'>正确! </span>","null","","","","","","","","","","","","","","","","","","","","","","","feedback_test"
"","","","","","psychophysics","410","950660","0.0-10.0-0.0-0.0-0.0-0.69","539","","j","","","","","","","","","","","","","key","j","16.66801086956453","768","476","j","true","img/T_ambi40.png","をる","same",""
"","","","","","html-keyboard-response","411","951163","0.0-10.0-0.0-0.0-0.0-1.69","null","<span style='color:GreenYellow; font-size: 70px;'>正确! </span>","null","","","","","","","","","","","","","","","","","","","","","","","feedback_test"
"","","","","","psychophysics","412","952947","0.0-10.0-0.0-0.0-0.0-0.70","777","","j","","","","","","","","","","","","","key","j","16.667801886792557","768","476","j","true","img/S_ambi40.png","朋友","same",""
"","","","","","html-keyboard-response","413","953449","0.0-10.0-0.0-0.0-0.0-1.70","null","<span style='color:GreenYellow; font-size: 70px;'>正确! </span>","null","","","","","","","","","","","","","","","","","","","","","","","feedback_test"
"","","","","","psychophysics","414","955578","0.0-10.0-0.0-0.0-0.0-0.71","1126","","j","","","","","","","","","","","","","key","j","16.665484126984317","768","476","j","true","img/S_ambi40.png","生人","same",""
"","","","","","html-keyboard-response","415","956081","0.0-10.0-0.0-0.0-0.0-1.71","null","<span style='color:GreenYellow; font-size: 70px;'>正确! </span>","null","","","","","","","","","","","","","","","","","","","","","","","feedback_test"
"","","","","","psychophysics","416","957910","0.0-10.0-0.0-0.0-0.0-0.72","824","","f","","","","","","","","","","","","","key","f","16.667587155963233","768","476","f","true","img/C_ambi40.png","生人","same",""
"","","","","","html-keyboard-response","417","958418","0.0-10.0-0.0-0.0-0.0-1.72","null","<span style='color:GreenYellow; font-size: 70px;'>正确! </span>","null","","","","","","","","","","","","","","","","","","","","","","","feedback_test"
"","","","","","psychophysics","418","960235","0.0-10.0-0.0-0.0-0.0-0.73","815","","j","","","","","","","","","","","","","key","j","16.665972222221576","768","476","j","true","img/C_ambi40.png","自我","same",""
"","","","","","html-keyboard-response","419","960740","0.0-10.0-0.0-0.0-0.0-1.73","null","<span style='color:GreenYellow; font-size: 70px;'>正确! </span>","null","","","","","","","","","","","","","","","","","","","","","","","feedback_test"
"","","","","","psychophysics","420","962189","0.0-10.0-0.0-0.0-0.0-0.74","438","","f","","","","","","","","","","","","","key","f","16.66743023255786","768","476","f","true","img/S_ambi40.png","自我","same",""
"","","","","","html-keyboard-response","421","962705","0.0-10.0-0.0-0.0-0.0-1.74","null","<span style='color:GreenYellow; font-size: 70px;'>正确! </span>","null","","","","","","","","","","","","","","","","","","","","","","","feedback_test"
"","","","","","psychophysics","422","964514","0.0-10.0-0.0-0.0-0.0-0.75","802","","j","","","","","","","","","","","","","key","j","16.665149532711116","768","476","j","true","img/S_ambi40.png","生人","same",""
"","","","","","html-keyboard-response","423","965015","0.0-10.0-0.0-0.0-0.0-1.75","null","<span style='color:GreenYellow; font-size: 70px;'>正确! </span>","null","","","","","","","","","","","","","","","","","","","","","","","feedback_test"
"","","","","","psychophysics","424","966674","0.0-10.0-0.0-0.0-0.0-0.76","655","","f","","","","","","","","","","","","","key","f","16.667858585858756","768","476","f","true","img/C_ambi40.png","生人","same",""
"","","","","","html-keyboard-response","425","967187","0.0-10.0-0.0-0.0-0.0-1.76","null","<span style='color:GreenYellow; font-size: 70px;'>正确! </span>","null","","","","","","","","","","","","","","","","","","","","","","","feedback_test"
"","","","","","psychophysics","426","969099","0.0-10.0-0.0-0.0-0.0-0.77","899","","j","","","","","","","","","","","","","key","j","16.66760176991162","768","476","j","true","img/C_ambi40.png","朋友","same",""
"","","","","","html-keyboard-response","427","969605","0.0-10.0-0.0-0.0-0.0-1.77","null","<span style='color:GreenYellow; font-size: 70px;'>正确! </span>","null","","","","","","","","","","","","","","","","","","","","","","","feedback_test"
"","","","","","psychophysics","428","971628","0.0-10.0-0.0-0.0-0.0-0.78","1012","","j","","","","","","","","","","","","","key","j","16.669450000000264","768","476","j","true","img/H_ambi40.png","生人","same",""
"","","","","","html-keyboard-response","429","972142","0.0-10.0-0.0-0.0-0.0-1.78","null","<span style='color:GreenYellow; font-size: 70px;'>正确! </span>","null","","","","","","","","","","","","","","","","","","","","","","","feedback_test"
"","","","","","psychophysics","430","973823","0.0-10.0-0.0-0.0-0.0-0.79","672","","j","","","","","","","","","","","","","key","j","16.66503000000026","768","476","j","true","img/T_ambi40.png","をる","same",""
"","","","","","html-keyboard-response","431","974336","0.0-10.0-0.0-0.0-0.0-1.79","null","<span style='color:GreenYellow; font-size: 70px;'>正确! </span>","null","","","","","","","","","","","","","","","","","","","","","","","feedback_test"
"","","","","","psychophysics","432","976107","0.0-10.0-0.0-0.0-0.0-0.80","764","","f","","","","","","","","","","","","","key","f","16.66510476190486","768","476","f","true","img/H_ambi40.png","朋友","same",""
"","","","","","html-keyboard-response","433","976616","0.0-10.0-0.0-0.0-0.0-1.80","null","<span style='color:GreenYellow; font-size: 70px;'>正确! </span>","null","","","","","","","","","","","","","","","","","","","","","","","feedback_test"
"","","","","","psychophysics","434","978387","0.0-10.0-0.0-0.0-0.0-0.81","769","","j","","","","","","","","","","","","","key","j","16.66749056603843","768","476","j","true","img/S_ambi40.png","朋友","same",""
"","","","","","html-keyboard-response","435","978900","0.0-10.0-0.0-0.0-0.0-1.81","null","<span style='color:GreenYellow; font-size: 70px;'>正确! </span>","null","","","","","","","","","","","","","","","","","","","","","","","feedback_test"
"","","","","","psychophysics","436","980387","0.0-10.0-0.0-0.0-0.0-0.82","485","","f","","","","","","","","","","","","","key","f","16.66540909090889","768","476","f","true","img/S_ambi40.png","自我","same",""
"","","","","","html-keyboard-response","437","980896","0.0-10.0-0.0-0.0-0.0-1.82","null","<span style='color:GreenYellow; font-size: 70px;'>正确! </span>","null","","","","","","","","","","","","","","","","","","","","","","","feedback_test"
"","","","","","psychophysics","438","983067","0.0-10.0-0.0-0.0-0.0-0.83","1165","","f","","","","","","","","","","","","","key","f","16.666837209302305","768","476","f","true","img/H_ambi40.png","朋友","same",""
"","","","","","html-keyboard-response","439","983571","0.0-10.0-0.0-0.0-0.0-1.83","null","<span style='color:GreenYellow; font-size: 70px;'>正确! </span>","null","","","","","","","","","","","","","","","","","","","","","","","feedback_test"
"","","","","","psychophysics","440","985221","0.0-10.0-0.0-0.0-0.0-0.84","643","","j","","","","","","","","","","","","","key","j","16.666408163266095","768","476","f","false","img/C_ambi40.png","生人","same",""
"","","","","","html-keyboard-response","441","985723","0.0-10.0-0.0-0.0-0.0-1.84","null","<span style='color:red; font-size: 70px;'>错误! </span>","null","","","","","","","","","","","","","","","","","","","","","","","feedback_test"
"","","","","","psychophysics","442","987355","0.0-10.0-0.0-0.0-0.0-0.85","622","","j","","","","","","","","","","","","","key","j","16.6642680412372","768","476","j","true","img/T_ambi40.png","をる","same",""
"","","","","","html-keyboard-response","443","987868","0.0-10.0-0.0-0.0-0.0-1.85","null","<span style='color:GreenYellow; font-size: 70px;'>正确! </span>","null","","","","","","","","","","","","","","","","","","","","","","","feedback_test"
"","","","","","psychophysics","444","989563","0.0-10.0-0.0-0.0-0.0-0.86","686","","f","","","","","","","","","","","","","key","f","16.666780000000728","768","476","f","true","img/H_ambi40.png","朋友","same",""
"","","","","","html-keyboard-response","445","990070","0.0-10.0-0.0-0.0-0.0-1.86","null","<span style='color:GreenYellow; font-size: 70px;'>正确! </span>","null","","","","","","","","","","","","","","","","","","","","","","","feedback_test"
"","","","","","psychophysics","446","991690","0.0-10.0-0.0-0.0-0.0-0.87","615","","f","","","","","","","","","","","","","key","f","16.66137500000089","768","476","f","true","img/S_ambi40.png","自我","same",""
"","","","","","html-keyboard-response","447","992195","0.0-10.0-0.0-0.0-0.0-1.87","null","<span style='color:GreenYellow; font-size: 70px;'>正确! </span>","null","","","","","","","","","","","","","","","","","","","","","","","feedback_test"
"","","","","","psychophysics","448","993874","0.0-10.0-0.0-0.0-0.0-0.88","673","","j","","","","","","","","","","","","","key","j","16.667739999999757","768","476","j","true","img/T_ambi40.png","をる","same",""
"","","","","","html-keyboard-response","449","994388","0.0-10.0-0.0-0.0-0.0-1.88","null","<span style='color:GreenYellow; font-size: 70px;'>正确! </span>","null","","","","","","","","","","","","","","","","","","","","","","","feedback_test"
