"success","timeout","failed_images","failed_audio","failed_video","trial_type","trial_index","time_elapsed","internal_node_id","rt","stimulus","response","value","item_width_mm","item_height_mm","item_width_px","px2mm","view_dist_mm","item_width_deg","px2deg","scale_factor","win_width_deg","win_height_deg","view_history","response_type","key_press","avg_frame_time","center_x","center_y","correct_response","correct","Image","word","condition","screen_id"
"true","false","[]","[]","[]","preload","0","24989","0.0-0.0","","","","","","","","","","","","","","","","","","","","","","","","","",""
"","","","","","html-keyboard-response","1","192993","0.0-1.0","168002","
     <p>您好，欢迎参加本次实验。</p>
     <p>为充分保障您的权利，请确保您已经知晓并同意《参与实验同意书》以及《数据公开知情同意书》。</p>
     <p>如果您未见过上述内容，请咨询实验员。</p>
     <p>如果您选择继续实验，则表示您已经清楚两份知情同意书的内容并同意。</p>
     <p> <div style = ""color: green""><按任意键至下页></div> </p>
     ","u","","","","","","","","","","","","","","","","","","","","","","",""
"","","","","","html-keyboard-response","2","195894","0.0-2.0","2900","
     <p>本实验首先需要您填写一些基本个人信息。</p>
     <p> <div style = ""color: green""><按任意键至下页></div></p>
     ","u","","","","","","","","","","","","","","","","","","","","","","",""
"","","","","","call-function","3","195897","0.0-3.0-0.0","","","","","","","","","","","","","","","","","","","","","","","","","",""
"","","","","","survey-html-form","4","204949","0.0-3.0-1.0","9049","","{""Q0"":""25""}","","","","","","","","","","","","","","","","","","","","","","",""
"","","","","","html-button-response","5","206213","0.0-3.0-2.0","1262","<p style = 'color : white'>您的性别</p>","0","","","","","","","","","","","","","","","","","","","","","","",""
"","","","","","survey-html-form","6","213947","0.0-3.0-3.0","7732","","{""Q0"":""2005""}","","","","","","","","","","","","","","","","","","","","","","",""
"","","","","","survey-html-form","7","217423","0.0-3.0-4.0","3474","","{""Q0"":""5""}","","","","","","","","","","","","","","","","","","","","","","",""
"","","","","","virtual-chinrest","8","536854","0.0-4.0","319427","","","","85.6","53.98","578.6063557655053","6.7639897927516826","422.38","11.572127115310106","50","0.7362518502521378","27.9","14.4","","","","","","","","","","","",""
"true","","","","","fullscreen","9","542829","0.0-5.0","","","","","","","","","","","","","","","","","","","","","","","","","",""
"","","","","","instructions","10","627342","0.0-6.0","84509","","","","","","","","","","","","","","[{""page_index"":0,""viewing_time"":8525},{""page_index"":1,""viewing_time"":54812},{""page_index"":2,""viewing_time"":3932},{""page_index"":3,""viewing_time"":6114},{""page_index"":2,""viewing_time"":776},{""page_index"":1,""viewing_time"":7146},{""page_index"":2,""viewing_time"":2466},{""page_index"":3,""viewing_time"":738}]","","","","","","","","","","",""
"","","","","","psychophysics","11","629856","0.0-7.0-0.0-0.0","null","","null","","","","","","","","","","","","","key","null","16.668543624161156","727.2726819534961","450.85224463288995","f","false","img/T_ambi40.png","をる","prac",""
"","","","","","html-keyboard-response","12","630363","0.0-7.0-0.0-1.0","null","<span class='add_' style='color:yellow; font-size: 70px;'> 太慢! </span>","null","","","","","","","","","","","","","","","","","","","","","","","feedback_test"
"","","","","","psychophysics","13","632310","0.0-7.0-0.0-0.1","944","","j","","","","","","","","","","","","","key","j","16.668565217391386","727.2726819534961","450.85224463288995","j","true","img/C_ambi40.png","自我","prac",""
"","","","","","html-keyboard-response","14","632813","0.0-7.0-0.0-1.1","null","<span style='color:GreenYellow; font-size: 70px;'>正确! </span>","null","","","","","","","","","","","","","","","","","","","","","","","feedback_test"
"","","","","","psychophysics","15","634476","0.0-7.0-0.0-0.2","649","","j","","","","","","","","","","","","","key","j","16.66908163265254","727.2726819534961","450.85224463288995","j","true","img/C_ambi40.png","自我","prac",""
"","","","","","html-keyboard-response","16","634989","0.0-7.0-0.0-1.2","null","<span style='color:GreenYellow; font-size: 70px;'>正确! </span>","null","","","","","","","","","","","","","","","","","","","","","","","feedback_test"
"","","","","","psychophysics","17","637506","0.0-7.0-0.0-0.3","null","","null","","","","","","","","","","","","","key","null","16.668080536912715","727.2726819534961","450.85224463288995","j","false","img/S_ambi40.png","生人","prac",""
"","","","","","html-keyboard-response","18","638019","0.0-7.0-0.0-1.3","null","<span class='add_' style='color:yellow; font-size: 70px;'> 太慢! </span>","null","","","","","","","","","","","","","","","","","","","","","","","feedback_test"
"","","","","","psychophysics","19","640362","0.0-7.0-0.0-0.4","1341","","j","","","","","","","","","","","","","key","j","16.668251798561062","727.2726819534961","450.85224463288995","f","false","img/S_ambi40.png","自我","prac",""
"","","","","","html-keyboard-response","20","640871","0.0-7.0-0.0-1.4","null","<span style='color:red; font-size: 70px;'>错误! </span>","null","","","","","","","","","","","","","","","","","","","","","","","feedback_test"
"","","","","","psychophysics","21","643219","0.0-7.0-0.0-0.5","1346","","f","","","","","","","","","","","","","key","f","16.668878571428024","727.2726819534961","450.85224463288995","f","true","img/H_ambi40.png","自我","prac",""
"","","","","","html-keyboard-response","22","643736","0.0-7.0-0.0-1.5","null","<span style='color:GreenYellow; font-size: 70px;'>正确! </span>","null","","","","","","","","","","","","","","","","","","","","","","","feedback_test"
"","","","","","psychophysics","23","645577","0.0-7.0-0.0-0.6","838","","f","","","","","","","","","","","","","key","f","16.668862385321795","727.2726819534961","450.85224463288995","f","true","img/C_ambi40.png","生人","prac",""
"","","","","","html-keyboard-response","24","646086","0.0-7.0-0.0-1.6","null","<span style='color:GreenYellow; font-size: 70px;'>正确! </span>","null","","","","","","","","","","","","","","","","","","","","","","","feedback_test"
"","","","","","psychophysics","25","648250","0.0-7.0-0.0-0.7","1148","","j","","","","","","","","","","","","","key","j","16.668625000000247","727.2726819534961","450.85224463288995","f","false","img/S_ambi40.png","朋友","prac",""
"","","","","","html-keyboard-response","26","648753","0.0-7.0-0.0-1.7","null","<span style='color:red; font-size: 70px;'>错误! </span>","null","","","","","","","","","","","","","","","","","","","","","","","feedback_test"
"","","","","","psychophysics","27","650722","0.0-7.0-0.0-0.8","966","","f","","","","","","","","","","","","","key","f","16.66906837606902","727.2726819534961","450.85224463288995","f","true","img/H_ambi40.png","生人","prac",""
"","","","","","html-keyboard-response","28","651227","0.0-7.0-0.0-1.8","null","<span style='color:GreenYellow; font-size: 70px;'>正确! </span>","null","","","","","","","","","","","","","","","","","","","","","","","feedback_test"
"","","","","","psychophysics","29","653380","0.0-7.0-0.0-0.9","1145","","f","","","","","","","","","","","","","key","f","16.668554687499636","727.2726819534961","450.85224463288995","f","true","img/T_ambi40.png","をる","prac",""
"","","","","","html-keyboard-response","30","653897","0.0-7.0-0.0-1.9","null","<span style='color:GreenYellow; font-size: 70px;'>正确! </span>","null","","","","","","","","","","","","","","","","","","","","","","","feedback_test"
"","","","","","psychophysics","31","656072","0.0-7.0-0.0-0.10","1170","","f","","","","","","","","","","","","","key","f","16.666744186046582","727.2726819534961","450.85224463288995","f","true","img/C_ambi40.png","朋友","prac",""
"","","","","","html-keyboard-response","32","656574","0.0-7.0-0.0-1.10","null","<span style='color:GreenYellow; font-size: 70px;'>正确! </span>","null","","","","","","","","","","","","","","","","","","","","","","","feedback_test"
"","","","","","psychophysics","33","658387","0.0-7.0-0.0-0.11","810","","f","","","","","","","","","","","","","key","f","16.669018691588438","727.2726819534961","450.85224463288995","f","true","img/T_ambi40.png","をる","prac",""
"","","","","","html-keyboard-response","34","658896","0.0-7.0-0.0-1.11","null","<span style='color:GreenYellow; font-size: 70px;'>正确! </span>","null","","","","","","","","","","","","","","","","","","","","","","","feedback_test"
"","","","","","psychophysics","35","660534","0.0-7.0-0.0-0.12","635","","f","","","","","","","","","","","","","key","f","16.670412371133107","727.2726819534961","450.85224463288995","f","true","img/T_ambi40.png","をる","prac",""
"","","","","","html-keyboard-response","36","661039","0.0-7.0-0.0-1.12","null","<span style='color:GreenYellow; font-size: 70px;'>正确! </span>","null","","","","","","","","","","","","","","","","","","","","","","","feedback_test"
"","","","","","psychophysics","37","662956","0.0-7.0-0.0-0.13","904","","j","","","","","","","","","","","","","key","j","16.669447368421395","727.2726819534961","450.85224463288995","j","true","img/H_ambi40.png","朋友","prac",""
"","","","","","html-keyboard-response","38","663472","0.0-7.0-0.0-1.13","null","<span style='color:GreenYellow; font-size: 70px;'>正确! </span>","null","","","","","","","","","","","","","","","","","","","","","","","feedback_test"
"","","","","","psychophysics","39","665194","0.0-7.0-0.0-0.14","718","","j","","","","","","","","","","","","","key","j","16.670107843137494","727.2726819534961","450.85224463288995","j","true","img/H_ambi40.png","朋友","prac",""
"","","","","","html-keyboard-response","40","665702","0.0-7.0-0.0-1.14","null","<span style='color:GreenYellow; font-size: 70px;'>正确! </span>","null","","","","","","","","","","","","","","","","","","","","","","","feedback_test"
"","","","","","psychophysics","41","667427","0.0-7.0-0.0-0.15","721","","f","","","","","","","","","","","","","key","f","16.669310679611776","727.2726819534961","450.85224463288995","j","false","img/S_ambi40.png","生人","prac",""
"","","","","","html-keyboard-response","42","667941","0.0-7.0-0.0-1.15","null","<span style='color:red; font-size: 70px;'>错误! </span>","null","","","","","","","","","","","","","","","","","","","","","","","feedback_test"
"","","","","","psychophysics","43","669675","0.0-7.0-0.0-0.16","729","","f","","","","","","","","","","","","","key","f","16.670252427184113","727.2726819534961","450.85224463288995","f","true","img/T_ambi40.png","をる","prac",""
"","","","","","html-keyboard-response","44","670187","0.0-7.0-0.0-1.16","null","<span style='color:GreenYellow; font-size: 70px;'>正确! </span>","null","","","","","","","","","","","","","","","","","","","","","","","feedback_test"
"","","","","","psychophysics","45","672602","0.0-7.0-0.0-0.17","1412","","f","","","","","","","","","","","","","key","f","16.66835664335632","727.2726819534961","450.85224463288995","f","true","img/C_ambi40.png","朋友","prac",""
"","","","","","html-keyboard-response","46","673113","0.0-7.0-0.0-1.17","null","<span style='color:GreenYellow; font-size: 70px;'>正确! </span>","null","","","","","","","","","","","","","","","","","","","","","","","feedback_test"
"","","","","","psychophysics","47","674846","0.0-7.0-0.0-0.18","730","","j","","","","","","","","","","","","","key","j","16.669844660193668","727.2726819534961","450.85224463288995","f","false","img/C_ambi40.png","生人","prac",""
"","","","","","html-keyboard-response","48","675355","0.0-7.0-0.0-1.18","null","<span style='color:red; font-size: 70px;'>错误! </span>","null","","","","","","","","","","","","","","","","","","","","","","","feedback_test"
"","","","","","psychophysics","49","677862","0.0-7.0-0.0-0.19","null","","null","","","","","","","","","","","","","key","null","16.668617449664893","727.2726819534961","450.85224463288995","j","false","img/H_ambi40.png","朋友","prac",""
"","","","","","html-keyboard-response","50","678374","0.0-7.0-0.0-1.19","null","<span class='add_' style='color:yellow; font-size: 70px;'> 太慢! </span>","null","","","","","","","","","","","","","","","","","","","","","","","feedback_test"
"","","","","","psychophysics","51","680422","0.0-7.0-0.0-0.20","1041","","j","","","","","","","","","","","","","key","j","16.66907438016516","727.2726819534961","450.85224463288995","f","false","img/S_ambi40.png","自我","prac",""
"","","","","","html-keyboard-response","52","680937","0.0-7.0-0.0-1.20","null","<span style='color:red; font-size: 70px;'>错误! </span>","null","","","","","","","","","","","","","","","","","","","","","","","feedback_test"
"","","","","","psychophysics","53","682713","0.0-7.0-0.0-0.21","769","","j","","","","","","","","","","","","","key","j","16.666495238094857","727.2726819534961","450.85224463288995","j","true","img/H_ambi40.png","朋友","prac",""
"","","","","","html-keyboard-response","54","683216","0.0-7.0-0.0-1.21","null","<span style='color:GreenYellow; font-size: 70px;'>正确! </span>","null","","","","","","","","","","","","","","","","","","","","","","","feedback_test"
"","","","","","psychophysics","55","685129","0.0-7.0-0.0-0.22","906","","f","","","","","","","","","","","","","key","f","16.66644247787576","727.2726819534961","450.85224463288995","f","true","img/H_ambi40.png","自我","prac",""
"","","","","","html-keyboard-response","56","685635","0.0-7.0-0.0-1.22","null","<span style='color:GreenYellow; font-size: 70px;'>正确! </span>","null","","","","","","","","","","","","","","","","","","","","","","","feedback_test"
"","","","","","psychophysics","57","687389","0.0-7.0-0.0-0.23","752","","f","","","","","","","","","","","","","key","f","16.669076923077228","727.2726819534961","450.85224463288995","f","true","img/H_ambi40.png","生人","prac",""
"","","","","","html-keyboard-response","58","687906","0.0-7.0-0.0-1.23","null","<span style='color:GreenYellow; font-size: 70px;'>正确! </span>","null","","","","","","","","","","","","","","","","","","","","","","","feedback_test"
"","","","","","psychophysics","59","689498","0.0-7.0-0.0-0.24","589","","f","","","","","","","","","","","","","key","f","16.669073684209664","727.2726819534961","450.85224463288995","f","true","img/T_ambi40.png","をる","prac",""
"","","","","","html-keyboard-response","60","690013","0.0-7.0-0.0-1.24","null","<span style='color:GreenYellow; font-size: 70px;'>正确! </span>","null","","","","","","","","","","","","","","","","","","","","","","","feedback_test"
"","","","","","psychophysics","61","691978","0.0-7.0-0.0-0.25","960","","f","","","","","","","","","","","","","key","f","16.6684224137932","727.2726819534961","450.85224463288995","j","false","img/S_ambi40.png","生人","prac",""
"","","","","","html-keyboard-response","62","692487","0.0-7.0-0.0-1.25","null","<span style='color:red; font-size: 70px;'>错误! </span>","null","","","","","","","","","","","","","","","","","","","","","","","feedback_test"
"","","","","","psychophysics","63","694096","0.0-7.0-0.0-0.26","599","","f","","","","","","","","","","","","","key","f","16.670315789474223","727.2726819534961","450.85224463288995","f","true","img/T_ambi40.png","をる","prac",""
"","","","","","html-keyboard-response","64","694612","0.0-7.0-0.0-1.26","null","<span style='color:GreenYellow; font-size: 70px;'>正确! </span>","null","","","","","","","","","","","","","","","","","","","","","","","feedback_test"
"","","","","","psychophysics","65","696437","0.0-7.0-0.0-0.27","810","","j","","","","","","","","","","","","","key","j","16.668814814814443","727.2726819534961","450.85224463288995","j","true","img/C_ambi40.png","自我","prac",""
"","","","","","html-keyboard-response","66","696946","0.0-7.0-0.0-1.27","null","<span style='color:GreenYellow; font-size: 70px;'>正确! </span>","null","","","","","","","","","","","","","","","","","","","","","","","feedback_test"
"","","","","","psychophysics","67","698825","0.0-7.0-0.0-0.28","866","","f","","","","","","","","","","","","","key","f","16.669198198198877","727.2726819534961","450.85224463288995","j","false","img/S_ambi40.png","生人","prac",""
"","","","","","html-keyboard-response","68","699330","0.0-7.0-0.0-1.28","null","<span style='color:red; font-size: 70px;'>错误! </span>","null","","","","","","","","","","","","","","","","","","","","","","","feedback_test"
"","","","","","psychophysics","69","701185","0.0-7.0-0.0-0.29","852","","f","","","","","","","","","","","","","key","f","16.669854545454623","727.2726819534961","450.85224463288995","f","true","img/S_ambi40.png","朋友","prac",""
"","","","","","html-keyboard-response","70","701688","0.0-7.0-0.0-1.29","null","<span style='color:GreenYellow; font-size: 70px;'>正确! </span>","null","","","","","","","","","","","","","","","","","","","","","","","feedback_test"
"","","","","","psychophysics","71","703250","0.0-7.0-0.0-0.30","557","","f","","","","","","","","","","","","","key","f","16.66946739130451","727.2726819534961","450.85224463288995","f","true","img/T_ambi40.png","をる","prac",""
"","","","","","html-keyboard-response","72","703755","0.0-7.0-0.0-1.30","null","<span style='color:GreenYellow; font-size: 70px;'>正确! </span>","null","","","","","","","","","","","","","","","","","","","","","","","feedback_test"
"","","","","","psychophysics","73","705467","0.0-7.0-0.0-0.31","704","","j","","","","","","","","","","","","","key","j","16.669460784312903","727.2726819534961","450.85224463288995","j","true","img/C_ambi40.png","自我","prac",""
"","","","","","html-keyboard-response","74","705981","0.0-7.0-0.0-1.31","null","<span style='color:GreenYellow; font-size: 70px;'>正确! </span>","null","","","","","","","","","","","","","","","","","","","","","","","feedback_test"
"","","","","","html-keyboard-response","75","720236","0.0-7.0-1.0-0.0","14250","<style>.context{color:white; font-size: 35px; line-height:40px}</style>                          <div><p class='context'>您正确回答了69% 的试次。</p ><p class='context'>您的平均反应时为855毫秒。</p >","u","","","","","","","","","","","","","","","","","","","","","","",""
"","","","","","instructions","76","752693","0.0-7.0-1.0-1.0","32451","","","","","","","","","","","","","","[{""page_index"":0,""viewing_time"":8555},{""page_index"":1,""viewing_time"":21878},{""page_index"":2,""viewing_time"":2018}]","","","","","","","","","","",""
"","","","","","psychophysics","77","754189","0.0-7.1-0.1-0.32","485","","f","","","","","","","","","","","","","key","f","16.667443181818022","727.2726819534961","450.85224463288995","f","true","img/T_ambi40.png","をる","prac",""
"","","","","","html-keyboard-response","78","754694","0.0-7.1-0.1-1.32","null","<span style='color:GreenYellow; font-size: 70px;'>正确! </span>","null","","","","","","","","","","","","","","","","","","","","","","","feedback_test"
"","","","","","psychophysics","79","756467","0.0-7.1-0.1-0.33","771","","f","","","","","","","","","","","","","key","f","16.669342857142468","727.2726819534961","450.85224463288995","j","false","img/H_ambi40.png","朋友","prac",""
"","","","","","html-keyboard-response","80","756971","0.0-7.1-0.1-1.33","null","<span style='color:red; font-size: 70px;'>错误! </span>","null","","","","","","","","","","","","","","","","","","","","","","","feedback_test"
"","","","","","psychophysics","81","759286","0.0-7.1-0.1-0.34","1302","","j","","","","","","","","","","","","","key","j","16.667014492754117","727.2726819534961","450.85224463288995","f","false","img/H_ambi40.png","自我","prac",""
"","","","","","html-keyboard-response","82","759798","0.0-7.1-0.1-1.34","null","<span style='color:red; font-size: 70px;'>错误! </span>","null","","","","","","","","","","","","","","","","","","","","","","","feedback_test"
"","","","","","psychophysics","83","761574","0.0-7.1-0.1-0.35","761","","j","","","","","","","","","","","","","key","j","16.668923809523474","727.2726819534961","450.85224463288995","j","true","img/H_ambi40.png","朋友","prac",""
"","","","","","html-keyboard-response","84","762090","0.0-7.1-0.1-1.35","null","<span style='color:GreenYellow; font-size: 70px;'>正确! </span>","null","","","","","","","","","","","","","","","","","","","","","","","feedback_test"
"","","","","","psychophysics","85","763899","0.0-7.1-0.1-0.36","803","","f","","","","","","","","","","","","","key","f","16.66914953271071","727.2726819534961","450.85224463288995","f","true","img/C_ambi40.png","朋友","prac",""
"","","","","","html-keyboard-response","86","764415","0.0-7.1-0.1-1.36","null","<span style='color:GreenYellow; font-size: 70px;'>正确! </span>","null","","","","","","","","","","","","","","","","","","","","","","","feedback_test"
"","","","","","psychophysics","87","766278","0.0-7.1-0.1-0.37","857","","f","","","","","","","","","","","","","key","f","16.668198198197526","727.2726819534961","450.85224463288995","j","false","img/S_ambi40.png","生人","prac",""
"","","","","","html-keyboard-response","88","766788","0.0-7.1-0.1-1.37","null","<span style='color:red; font-size: 70px;'>错误! </span>","null","","","","","","","","","","","","","","","","","","","","","","","feedback_test"
"","","","","","psychophysics","89","768317","0.0-7.1-0.1-0.38","521","","f","","","","","","","","","","","","","key","f","16.67024175824142","727.2726819534961","450.85224463288995","f","true","img/T_ambi40.png","をる","prac",""
"","","","","","html-keyboard-response","90","768828","0.0-7.1-0.1-1.38","null","<span style='color:GreenYellow; font-size: 70px;'>正确! </span>","null","","","","","","","","","","","","","","","","","","","","","","","feedback_test"
"","","","","","psychophysics","91","770685","0.0-7.1-0.1-0.39","843","","f","","","","","","","","","","","","","key","f","16.668690909091808","727.2726819534961","450.85224463288995","f","true","img/C_ambi40.png","生人","prac",""
"","","","","","html-keyboard-response","92","771201","0.0-7.1-0.1-1.39","null","<span style='color:GreenYellow; font-size: 70px;'>正确! </span>","null","","","","","","","","","","","","","","","","","","","","","","","feedback_test"
"","","","","","psychophysics","93","772961","0.0-7.1-0.1-0.40","756","","j","","","","","","","","","","","","","key","j","16.668542857143272","727.2726819534961","450.85224463288995","j","true","img/S_ambi40.png","生人","prac",""
"","","","","","html-keyboard-response","94","773464","0.0-7.1-0.1-1.40","null","<span style='color:GreenYellow; font-size: 70px;'>正确! </span>","null","","","","","","","","","","","","","","","","","","","","","","","feedback_test"
"","","","","","psychophysics","95","775044","0.0-7.1-0.1-0.41","567","","f","","","","","","","","","","","","","key","f","16.669849462365303","727.2726819534961","450.85224463288995","f","true","img/T_ambi40.png","をる","prac",""
"","","","","","html-keyboard-response","96","775560","0.0-7.1-0.1-1.41","null","<span style='color:GreenYellow; font-size: 70px;'>正确! </span>","null","","","","","","","","","","","","","","","","","","","","","","","feedback_test"
"","","","","","psychophysics","97","777248","0.0-7.1-0.1-0.42","685","","j","","","","","","","","","","","","","key","j","16.669470000000437","727.2726819534961","450.85224463288995","j","true","img/C_ambi40.png","自我","prac",""
"","","","","","html-keyboard-response","98","777765","0.0-7.1-0.1-1.42","null","<span style='color:GreenYellow; font-size: 70px;'>正确! </span>","null","","","","","","","","","","","","","","","","","","","","","","","feedback_test"
"","","","","","psychophysics","99","779285","0.0-7.1-0.1-0.43","514","","f","","","","","","","","","","","","","key","f","16.67027777777726","727.2726819534961","450.85224463288995","f","true","img/T_ambi40.png","をる","prac",""
"","","","","","html-keyboard-response","100","779798","0.0-7.1-0.1-1.43","null","<span style='color:GreenYellow; font-size: 70px;'>正确! </span>","null","","","","","","","","","","","","","","","","","","","","","","","feedback_test"
"","","","","","psychophysics","101","781723","0.0-7.1-0.1-0.44","923","","f","","","","","","","","","","","","","key","f","16.668570175438123","727.2726819534961","450.85224463288995","f","true","img/S_ambi40.png","自我","prac",""
"","","","","","html-keyboard-response","102","782228","0.0-7.1-0.1-1.44","null","<span style='color:GreenYellow; font-size: 70px;'>正确! </span>","null","","","","","","","","","","","","","","","","","","","","","","","feedback_test"
"","","","","","psychophysics","103","783960","0.0-7.1-0.1-0.45","719","","j","","","","","","","","","","","","","key","j","16.667048543689376","727.2726819534961","450.85224463288995","j","true","img/C_ambi40.png","自我","prac",""
"","","","","","html-keyboard-response","104","784462","0.0-7.1-0.1-1.45","null","<span style='color:GreenYellow; font-size: 70px;'>正确! </span>","null","","","","","","","","","","","","","","","","","","","","","","","feedback_test"
"","","","","","psychophysics","105","786332","0.0-7.1-0.1-0.46","865","","f","","","","","","","","","","","","","key","f","16.666327272727028","727.2726819534961","450.85224463288995","f","true","img/H_ambi40.png","生人","prac",""
"","","","","","html-keyboard-response","106","786839","0.0-7.1-0.1-1.46","null","<span style='color:GreenYellow; font-size: 70px;'>正确! </span>","null","","","","","","","","","","","","","","","","","","","","","","","feedback_test"
"","","","","","psychophysics","107","788456","0.0-7.1-0.1-0.47","615","","f","","","","","","","","","","","","","key","f","16.670229166667315","727.2726819534961","450.85224463288995","f","true","img/S_ambi40.png","朋友","prac",""
"","","","","","html-keyboard-response","108","788972","0.0-7.1-0.1-1.47","null","<span style='color:GreenYellow; font-size: 70px;'>正确! </span>","null","","","","","","","","","","","","","","","","","","","","","","","feedback_test"
"","","","","","psychophysics","109","790915","0.0-7.1-0.1-0.48","928","","f","","","","","","","","","","","","","key","f","16.66488695652123","727.2726819534961","450.85224463288995","f","true","img/S_ambi40.png","自我","prac",""
"","","","","","html-keyboard-response","110","791419","0.0-7.1-0.1-1.48","null","<span style='color:GreenYellow; font-size: 70px;'>正确! </span>","null","","","","","","","","","","","","","","","","","","","","","","","feedback_test"
"","","","","","psychophysics","111","793112","0.0-7.1-0.1-0.49","690","","j","","","","","","","","","","","","","key","j","16.66969999999972","727.2726819534961","450.85224463288995","j","true","img/C_ambi40.png","自我","prac",""
"","","","","","html-keyboard-response","112","793617","0.0-7.1-0.1-1.49","null","<span style='color:GreenYellow; font-size: 70px;'>正确! </span>","null","","","","","","","","","","","","","","","","","","","","","","","feedback_test"
"","","","","","psychophysics","113","795460","0.0-7.1-0.1-0.50","838","","f","","","","","","","","","","","","","key","f","16.668145454545844","727.2726819534961","450.85224463288995","f","true","img/S_ambi40.png","朋友","prac",""
"","","","","","html-keyboard-response","114","795963","0.0-7.1-0.1-1.50","null","<span style='color:GreenYellow; font-size: 70px;'>正确! </span>","null","","","","","","","","","","","","","","","","","","","","","","","feedback_test"
"","","","","","psychophysics","115","797933","0.0-7.1-0.1-0.51","966","","f","","","","","","","","","","","","","key","f","16.666801724138324","727.2726819534961","450.85224463288995","j","false","img/S_ambi40.png","生人","prac",""
"","","","","","html-keyboard-response","116","798446","0.0-7.1-0.1-1.51","null","<span style='color:red; font-size: 70px;'>错误! </span>","null","","","","","","","","","","","","","","","","","","","","","","","feedback_test"
"","","","","","psychophysics","117","800344","0.0-7.1-0.1-0.52","894","","f","","","","","","","","","","","","","key","f","16.669089285713977","727.2726819534961","450.85224463288995","j","false","img/S_ambi40.png","生人","prac",""
"","","","","","html-keyboard-response","118","800853","0.0-7.1-0.1-1.52","null","<span style='color:red; font-size: 70px;'>错误! </span>","null","","","","","","","","","","","","","","","","","","","","","","","feedback_test"
"","","","","","psychophysics","119","802683","0.0-7.1-0.1-0.53","827","","f","","","","","","","","","","","","","key","f","16.668715596330404","727.2726819534961","450.85224463288995","f","true","img/C_ambi40.png","生人","prac",""
"","","","","","html-keyboard-response","120","803195","0.0-7.1-0.1-1.53","null","<span style='color:GreenYellow; font-size: 70px;'>正确! </span>","null","","","","","","","","","","","","","","","","","","","","","","","feedback_test"
"","","","","","psychophysics","121","805327","0.0-7.1-0.1-0.54","1128","","f","","","","","","","","","","","","","key","f","16.66851181102326","727.2726819534961","450.85224463288995","f","true","img/H_ambi40.png","自我","prac",""
"","","","","","html-keyboard-response","122","805833","0.0-7.1-0.1-1.54","null","<span style='color:GreenYellow; font-size: 70px;'>正确! </span>","null","","","","","","","","","","","","","","","","","","","","","","","feedback_test"
"","","","","","psychophysics","123","807508","0.0-7.1-0.1-0.55","671","","j","","","","","","","","","","","","","key","j","16.668929292929754","727.2726819534961","450.85224463288995","j","true","img/C_ambi40.png","自我","prac",""
"","","","","","html-keyboard-response","124","808023","0.0-7.1-0.1-1.55","null","<span style='color:GreenYellow; font-size: 70px;'>正确! </span>","null","","","","","","","","","","","","","","","","","","","","","","","feedback_test"
"","","","","","psychophysics","125","809573","0.0-7.1-0.1-0.56","549","","f","","","","","","","","","","","","","key","f","16.66769230769241","727.2726819534961","450.85224463288995","f","true","img/T_ambi40.png","をる","prac",""
"","","","","","html-keyboard-response","126","810081","0.0-7.1-0.1-1.56","null","<span style='color:GreenYellow; font-size: 70px;'>正确! </span>","null","","","","","","","","","","","","","","","","","","","","","","","feedback_test"
"","","","","","psychophysics","127","812069","0.0-7.1-0.1-0.57","982","","f","","","","","","","","","","","","","key","f","16.668889830508505","727.2726819534961","450.85224463288995","j","false","img/H_ambi40.png","朋友","prac",""
"","","","","","html-keyboard-response","128","812585","0.0-7.1-0.1-1.57","null","<span style='color:red; font-size: 70px;'>错误! </span>","null","","","","","","","","","","","","","","","","","","","","","","","feedback_test"
"","","","","","psychophysics","129","814186","0.0-7.1-0.1-0.58","585","","f","","","","","","","","","","","","","key","f","16.66900000000054","727.2726819534961","450.85224463288995","f","true","img/T_ambi40.png","をる","prac",""
"","","","","","html-keyboard-response","130","814694","0.0-7.1-0.1-1.58","null","<span style='color:GreenYellow; font-size: 70px;'>正确! </span>","null","","","","","","","","","","","","","","","","","","","","","","","feedback_test"
"","","","","","psychophysics","131","816622","0.0-7.1-0.1-0.59","926","","f","","","","","","","","","","","","","key","f","16.668824561403884","727.2726819534961","450.85224463288995","f","true","img/C_ambi40.png","朋友","prac",""
"","","","","","html-keyboard-response","132","817138","0.0-7.1-0.1-1.59","null","<span style='color:GreenYellow; font-size: 70px;'>正确! </span>","null","","","","","","","","","","","","","","","","","","","","","","","feedback_test"
"","","","","","psychophysics","133","818698","0.0-7.1-0.1-0.60","556","","f","","","","","","","","","","","","","key","f","16.668826086956592","727.2726819534961","450.85224463288995","f","true","img/T_ambi40.png","をる","prac",""
"","","","","","html-keyboard-response","134","819213","0.0-7.1-0.1-1.60","null","<span style='color:GreenYellow; font-size: 70px;'>正确! </span>","null","","","","","","","","","","","","","","","","","","","","","","","feedback_test"
"","","","","","psychophysics","135","820780","0.0-7.1-0.1-0.61","565","","f","","","","","","","","","","","","","key","f","16.668494623656365","727.2726819534961","450.85224463288995","f","true","img/T_ambi40.png","をる","prac",""
"","","","","","html-keyboard-response","136","821293","0.0-7.1-0.1-1.61","null","<span style='color:GreenYellow; font-size: 70px;'>正确! </span>","null","","","","","","","","","","","","","","","","","","","","","","","feedback_test"
"","","","","","psychophysics","137","823717","0.0-7.1-0.1-0.62","1421","","j","","","","","","","","","","","","","key","j","16.66743055555546","727.2726819534961","450.85224463288995","j","true","img/H_ambi40.png","朋友","prac",""
"","","","","","html-keyboard-response","138","824231","0.0-7.1-0.1-1.62","null","<span style='color:GreenYellow; font-size: 70px;'>正确! </span>","null","","","","","","","","","","","","","","","","","","","","","","","feedback_test"
"","","","","","psychophysics","139","826057","0.0-7.1-0.1-0.63","820","","f","","","","","","","","","","","","","key","f","16.66604587156005","727.2726819534961","450.85224463288995","f","true","img/H_ambi40.png","生人","prac",""
"","","","","","html-keyboard-response","140","826564","0.0-7.1-0.1-1.63","null","<span style='color:GreenYellow; font-size: 70px;'>正确! </span>","null","","","","","","","","","","","","","","","","","","","","","","","feedback_test"
"","","","","","html-keyboard-response","141","834414","0.0-8.0","7845","<style>.context{color:white; font-size: 35px; line-height:40px}</style>                          <div><p class='context'>您正确回答了81% 的试次。</p ><p class='context'>您的平均反应时为752毫秒。</p ><p class='context'>恭喜您完成练习。按任意键进入正式实验。</p ><p class='footer' style='font-size: 35px; line-height:40px;'>请在进入正式实验实验之前将您的<span style='color: lightgreen;'>食指</span>放在电脑键盘的相应键位上进行按键。</p >","j","","","","","","","","","","","","","","","","","","","","","","",""
"","","","","","psychophysics","142","836021","0.0-9.0-0.0-0.0-0.0-0.0","592","","f","","","","","","","","","","","","","key","f","16.669263157894296","727.2726819534961","450.85224463288995","f","true","img/T_ambi40.png","をる","same",""
"","","","","","html-keyboard-response","143","836527","0.0-9.0-0.0-0.0-0.0-1.0","null","<span style='color:GreenYellow; font-size: 70px;'>正确! </span>","null","","","","","","","","","","","","","","","","","","","","","","","feedback_test"
"","","","","","psychophysics","144","838613","0.0-9.0-0.0-0.0-0.0-0.1","1072","","f","","","","","","","","","","","","","key","f","16.668370967741208","727.2726819534961","450.85224463288995","j","false","img/S_ambi40.png","生人","same",""
"","","","","","html-keyboard-response","145","839125","0.0-9.0-0.0-0.0-0.0-1.1","null","<span style='color:red; font-size: 70px;'>错误! </span>","null","","","","","","","","","","","","","","","","","","","","","","","feedback_test"
"","","","","","psychophysics","146","841126","0.0-9.0-0.0-0.0-0.0-0.2","996","","j","","","","","","","","","","","","","key","j","16.666932773110144","727.2726819534961","450.85224463288995","j","true","img/H_ambi40.png","朋友","same",""
"","","","","","html-keyboard-response","147","841640","0.0-9.0-0.0-0.0-0.0-1.2","null","<span style='color:GreenYellow; font-size: 70px;'>正确! </span>","null","","","","","","","","","","","","","","","","","","","","","","","feedback_test"
"","","","","","psychophysics","148","843454","0.0-9.0-0.0-0.0-0.0-0.3","806","","j","","","","","","","","","","","","","key","j","16.669620370370534","727.2726819534961","450.85224463288995","j","true","img/H_ambi40.png","朋友","same",""
"","","","","","html-keyboard-response","149","843967","0.0-9.0-0.0-0.0-0.0-1.3","null","<span style='color:GreenYellow; font-size: 70px;'>正确! </span>","null","","","","","","","","","","","","","","","","","","","","","","","feedback_test"
"","","","","","psychophysics","150","845661","0.0-9.0-0.0-0.0-0.0-0.4","688","","f","","","","","","","","","","","","","key","f","16.666623762376506","727.2726819534961","450.85224463288995","f","true","img/S_ambi40.png","朋友","same",""
"","","","","","html-keyboard-response","151","846172","0.0-9.0-0.0-0.0-0.0-1.4","null","<span style='color:GreenYellow; font-size: 70px;'>正确! </span>","null","","","","","","","","","","","","","","","","","","","","","","","feedback_test"
"","","","","","psychophysics","152","847854","0.0-9.0-0.0-0.0-0.0-0.5","672","","f","","","","","","","","","","","","","key","f","16.668540000000505","727.2726819534961","450.85224463288995","f","true","img/H_ambi40.png","生人","same",""
"","","","","","html-keyboard-response","153","848367","0.0-9.0-0.0-0.0-0.0-1.5","null","<span style='color:GreenYellow; font-size: 70px;'>正确! </span>","null","","","","","","","","","","","","","","","","","","","","","","","feedback_test"
"","","","","","psychophysics","154","849903","0.0-9.0-0.0-0.0-0.0-0.6","533","","f","","","","","","","","","","","","","key","f","16.668428571429104","727.2726819534961","450.85224463288995","f","true","img/T_ambi40.png","をる","same",""
"","","","","","html-keyboard-response","155","850419","0.0-9.0-0.0-0.0-0.0-1.6","null","<span style='color:GreenYellow; font-size: 70px;'>正确! </span>","null","","","","","","","","","","","","","","","","","","","","","","","feedback_test"
"","","","","","psychophysics","156","851936","0.0-9.0-0.0-0.0-0.0-0.7","515","","f","","","","","","","","","","","","","key","f","16.66639325842706","727.2726819534961","450.85224463288995","f","true","img/T_ambi40.png","をる","same",""
"","","","","","html-keyboard-response","157","852444","0.0-9.0-0.0-0.0-0.0-1.7","null","<span style='color:GreenYellow; font-size: 70px;'>正确! </span>","null","","","","","","","","","","","","","","","","","","","","","","","feedback_test"
"","","","","","psychophysics","158","854015","0.0-9.0-0.0-0.0-0.0-0.8","566","","j","","","","","","","","","","","","","key","j","16.670086956520958","727.2726819534961","450.85224463288995","f","false","img/C_ambi40.png","生人","same",""
"","","","","","html-keyboard-response","159","854531","0.0-9.0-0.0-0.0-0.0-1.8","null","<span style='color:red; font-size: 70px;'>错误! </span>","null","","","","","","","","","","","","","","","","","","","","","","","feedback_test"
"","","","","","psychophysics","160","856130","0.0-9.0-0.0-0.0-0.0-0.9","584","","j","","","","","","","","","","","","","key","j","16.66988297872384","727.2726819534961","450.85224463288995","j","true","img/C_ambi40.png","自我","same",""
"","","","","","html-keyboard-response","161","856646","0.0-9.0-0.0-0.0-0.0-1.9","null","<span style='color:GreenYellow; font-size: 70px;'>正确! </span>","null","","","","","","","","","","","","","","","","","","","","","","","feedback_test"
"","","","","","psychophysics","162","858464","0.0-9.0-0.0-0.0-0.0-0.10","815","","f","","","","","","","","","","","","","key","f","16.669579439252512","727.2726819534961","450.85224463288995","f","true","img/C_ambi40.png","朋友","same",""
"","","","","","html-keyboard-response","163","858972","0.0-9.0-0.0-0.0-0.0-1.10","null","<span style='color:GreenYellow; font-size: 70px;'>正确! </span>","null","","","","","","","","","","","","","","","","","","","","","","","feedback_test"
"","","","","","psychophysics","164","860741","0.0-9.0-0.0-0.0-0.0-0.11","763","","j","","","","","","","","","","","","","key","j","16.66867619047518","727.2726819534961","450.85224463288995","j","true","img/S_ambi40.png","生人","same",""
"","","","","","html-keyboard-response","165","861251","0.0-9.0-0.0-0.0-0.0-1.11","null","<span style='color:GreenYellow; font-size: 70px;'>正确! </span>","null","","","","","","","","","","","","","","","","","","","","","","","feedback_test"
"","","","","","psychophysics","166","863005","0.0-9.0-0.0-0.0-0.0-0.12","747","","j","","","","","","","","","","","","","key","j","16.66900970873726","727.2726819534961","450.85224463288995","j","true","img/C_ambi40.png","自我","same",""
"","","","","","html-keyboard-response","167","863515","0.0-9.0-0.0-0.0-0.0-1.12","null","<span style='color:GreenYellow; font-size: 70px;'>正确! </span>","null","","","","","","","","","","","","","","","","","","","","","","","feedback_test"
"","","","","","psychophysics","168","865323","0.0-9.0-0.0-0.0-0.0-0.13","804","","f","","","","","","","","","","","","","key","f","16.669555555554798","727.2726819534961","450.85224463288995","f","true","img/H_ambi40.png","自我","same",""
"","","","","","html-keyboard-response","169","865833","0.0-9.0-0.0-0.0-0.0-1.13","null","<span style='color:GreenYellow; font-size: 70px;'>正确! </span>","null","","","","","","","","","","","","","","","","","","","","","","","feedback_test"
"","","","","","psychophysics","170","867617","0.0-9.0-0.0-0.0-0.0-0.14","773","","f","","","","","","","","","","","","","key","f","16.664113207546695","727.2726819534961","450.85224463288995","j","false","img/S_ambi40.png","生人","same",""
"","","","","","html-keyboard-response","171","868132","0.0-9.0-0.0-0.0-0.0-1.14","null","<span style='color:red; font-size: 70px;'>错误! </span>","null","","","","","","","","","","","","","","","","","","","","","","","feedback_test"
"","","","","","psychophysics","172","869962","0.0-9.0-0.0-0.0-0.0-0.15","828","","f","","","","","","","","","","","","","key","f","16.669908256880905","727.2726819534961","450.85224463288995","f","true","img/S_ambi40.png","自我","same",""
"","","","","","html-keyboard-response","173","870478","0.0-9.0-0.0-0.0-0.0-1.15","null","<span style='color:GreenYellow; font-size: 70px;'>正确! </span>","null","","","","","","","","","","","","","","","","","","","","","","","feedback_test"
"","","","","","psychophysics","174","872300","0.0-9.0-0.0-0.0-0.0-0.16","819","","f","","","","","","","","","","","","","key","f","16.666688073395513","727.2726819534961","450.85224463288995","j","false","img/H_ambi40.png","朋友","same",""
"","","","","","html-keyboard-response","175","872811","0.0-9.0-0.0-0.0-0.0-1.16","null","<span style='color:red; font-size: 70px;'>错误! </span>","null","","","","","","","","","","","","","","","","","","","","","","","feedback_test"
"","","","","","psychophysics","176","874495","0.0-9.0-0.0-0.0-0.0-0.17","672","","j","","","","","","","","","","","","","key","j","16.669290000000036","727.2726819534961","450.85224463288995","j","true","img/C_ambi40.png","自我","same",""
"","","","","","html-keyboard-response","177","875006","0.0-9.0-0.0-0.0-0.0-1.17","null","<span style='color:GreenYellow; font-size: 70px;'>正确! </span>","null","","","","","","","","","","","","","","","","","","","","","","","feedback_test"
"","","","","","psychophysics","178","876659","0.0-9.0-0.0-0.0-0.0-0.18","644","","f","","","","","","","","","","","","","key","f","16.66811224489772","727.2726819534961","450.85224463288995","f","true","img/S_ambi40.png","自我","same",""
"","","","","","html-keyboard-response","179","877168","0.0-9.0-0.0-0.0-0.0-1.18","null","<span style='color:GreenYellow; font-size: 70px;'>正确! </span>","null","","","","","","","","","","","","","","","","","","","","","","","feedback_test"
"","","","","","psychophysics","180","878780","0.0-9.0-0.0-0.0-0.0-0.19","609","","f","","","","","","","","","","","","","key","f","16.669812500000262","727.2726819534961","450.85224463288995","j","false","img/S_ambi40.png","生人","same",""
"","","","","","html-keyboard-response","181","879295","0.0-9.0-0.0-0.0-0.0-1.19","null","<span style='color:red; font-size: 70px;'>错误! </span>","null","","","","","","","","","","","","","","","","","","","","","","","feedback_test"
"","","","","","psychophysics","182","880891","0.0-9.0-0.0-0.0-0.0-0.20","589","","f","","","","","","","","","","","","","key","f","16.669244680850905","727.2726819534961","450.85224463288995","f","true","img/T_ambi40.png","をる","same",""
"","","","","","html-keyboard-response","183","881404","0.0-9.0-0.0-0.0-0.0-1.20","null","<span style='color:GreenYellow; font-size: 70px;'>正确! </span>","null","","","","","","","","","","","","","","","","","","","","","","","feedback_test"
"","","","","","psychophysics","184","883252","0.0-9.0-0.0-0.0-0.0-0.21","836","","f","","","","","","","","","","","","","key","f","16.669118181818206","727.2726819534961","450.85224463288995","j","false","img/H_ambi40.png","朋友","same",""
"","","","","","html-keyboard-response","185","883753","0.0-9.0-0.0-0.0-0.0-1.21","null","<span style='color:red; font-size: 70px;'>错误! </span>","null","","","","","","","","","","","","","","","","","","","","","","","feedback_test"
"","","","","","psychophysics","186","885531","0.0-9.0-0.0-0.0-0.0-0.22","774","","f","","","","","","","","","","","","","key","f","16.668018867925056","727.2726819534961","450.85224463288995","f","true","img/S_ambi40.png","朋友","same",""
"","","","","","html-keyboard-response","187","886047","0.0-9.0-0.0-0.0-0.0-1.22","null","<span style='color:GreenYellow; font-size: 70px;'>正确! </span>","null","","","","","","","","","","","","","","","","","","","","","","","feedback_test"
"","","","","","psychophysics","188","887630","0.0-9.0-0.0-0.0-0.0-0.23","578","","f","","","","","","","","","","","","","key","f","16.669150537634717","727.2726819534961","450.85224463288995","f","true","img/T_ambi40.png","をる","same",""
"","","","","","html-keyboard-response","189","888143","0.0-9.0-0.0-0.0-0.0-1.23","null","<span style='color:GreenYellow; font-size: 70px;'>正确! </span>","null","","","","","","","","","","","","","","","","","","","","","","","feedback_test"
"","","","","","psychophysics","190","889768","0.0-9.0-0.0-0.0-0.0-0.24","620","","j","","","","","","","","","","","","","key","j","16.6680721649492","727.2726819534961","450.85224463288995","j","true","img/C_ambi40.png","自我","same",""
"","","","","","html-keyboard-response","191","890282","0.0-9.0-0.0-0.0-0.0-1.24","null","<span style='color:GreenYellow; font-size: 70px;'>正确! </span>","null","","","","","","","","","","","","","","","","","","","","","","","feedback_test"
"","","","","","psychophysics","192","891869","0.0-9.0-0.0-0.0-0.0-0.25","585","","f","","","","","","","","","","","","","key","f","16.670148936170897","727.2726819534961","450.85224463288995","f","true","img/H_ambi40.png","生人","same",""
"","","","","","html-keyboard-response","193","892378","0.0-9.0-0.0-0.0-0.0-1.25","null","<span style='color:GreenYellow; font-size: 70px;'>正确! </span>","null","","","","","","","","","","","","","","","","","","","","","","","feedback_test"
"","","","","","psychophysics","194","894186","0.0-9.0-0.0-0.0-0.0-0.26","805","","f","","","","","","","","","","","","","key","f","16.668499999999767","727.2726819534961","450.85224463288995","f","true","img/H_ambi40.png","自我","same",""
"","","","","","html-keyboard-response","195","894697","0.0-9.0-0.0-0.0-0.0-1.26","null","<span style='color:GreenYellow; font-size: 70px;'>正确! </span>","null","","","","","","","","","","","","","","","","","","","","","","","feedback_test"
"","","","","","psychophysics","196","896744","0.0-9.0-0.0-0.0-0.0-0.27","1037","","f","","","","","","","","","","","","","key","f","16.669188524589714","727.2726819534961","450.85224463288995","f","true","img/C_ambi40.png","朋友","same",""
"","","","","","html-keyboard-response","197","897252","0.0-9.0-0.0-0.0-0.0-1.27","null","<span style='color:GreenYellow; font-size: 70px;'>正确! </span>","null","","","","","","","","","","","","","","","","","","","","","","","feedback_test"
"","","","","","psychophysics","198","899159","0.0-9.0-0.0-0.0-0.0-0.28","894","","j","","","","","","","","","","","","","key","j","16.668663716814233","727.2726819534961","450.85224463288995","j","true","img/H_ambi40.png","朋友","same",""
"","","","","","html-keyboard-response","199","899667","0.0-9.0-0.0-0.0-0.0-1.28","null","<span style='color:GreenYellow; font-size: 70px;'>正确! </span>","null","","","","","","","","","","","","","","","","","","","","","","","feedback_test"
"","","","","","psychophysics","200","901442","0.0-9.0-0.0-0.0-0.0-0.29","769","","j","","","","","","","","","","","","","key","j","16.666933962263666","727.2726819534961","450.85224463288995","j","true","img/S_ambi40.png","生人","same",""
"","","","","","html-keyboard-response","201","901952","0.0-9.0-0.0-0.0-0.0-1.29","null","<span style='color:GreenYellow; font-size: 70px;'>正确! </span>","null","","","","","","","","","","","","","","","","","","","","","","","feedback_test"
"","","","","","psychophysics","202","903472","0.0-9.0-0.0-0.0-0.0-0.30","507","","j","","","","","","","","","","","","","key","j","16.669955555555255","727.2726819534961","450.85224463288995","j","true","img/C_ambi40.png","自我","same",""
"","","","","","html-keyboard-response","203","903978","0.0-9.0-0.0-0.0-0.0-1.30","null","<span style='color:GreenYellow; font-size: 70px;'>正确! </span>","null","","","","","","","","","","","","","","","","","","","","","","","feedback_test"
"","","","","","psychophysics","204","905737","0.0-9.0-0.0-0.0-0.0-0.31","748","","f","","","","","","","","","","","","","key","f","16.669182692308542","727.2726819534961","450.85224463288995","f","true","img/C_ambi40.png","生人","same",""
"","","","","","html-keyboard-response","205","906245","0.0-9.0-0.0-0.0-0.0-1.31","null","<span style='color:GreenYellow; font-size: 70px;'>正确! </span>","null","","","","","","","","","","","","","","","","","","","","","","","feedback_test"
"","","","","","psychophysics","206","907913","0.0-9.0-0.0-0.0-0.0-0.32","662","","j","","","","","","","","","","","","","key","j","16.668979591836116","727.2726819534961","450.85224463288995","j","true","img/H_ambi40.png","朋友","same",""
"","","","","","html-keyboard-response","207","908428","0.0-9.0-0.0-0.0-0.0-1.32","null","<span style='color:GreenYellow; font-size: 70px;'>正确! </span>","null","","","","","","","","","","","","","","","","","","","","","","","feedback_test"
"","","","","","psychophysics","208","910110","0.0-9.0-0.0-0.0-0.0-0.33","679","","j","","","","","","","","","","","","","key","j","16.66508080808074","727.2726819534961","450.85224463288995","j","true","img/S_ambi40.png","生人","same",""
"","","","","","html-keyboard-response","209","910620","0.0-9.0-0.0-0.0-0.0-1.33","null","<span style='color:GreenYellow; font-size: 70px;'>正确! </span>","null","","","","","","","","","","","","","","","","","","","","","","","feedback_test"
"","","","","","psychophysics","210","912179","0.0-9.0-0.0-0.0-0.0-0.34","557","","j","","","","","","","","","","","","","key","j","16.66445652173918","727.2726819534961","450.85224463288995","j","true","img/C_ambi40.png","自我","same",""
"","","","","","html-keyboard-response","211","912691","0.0-9.0-0.0-0.0-0.0-1.34","null","<span style='color:GreenYellow; font-size: 70px;'>正确! </span>","null","","","","","","","","","","","","","","","","","","","","","","","feedback_test"
"","","","","","psychophysics","212","914273","0.0-9.0-0.0-0.0-0.0-0.35","578","","f","","","","","","","","","","","","","key","f","16.67069148936215","727.2726819534961","450.85224463288995","f","true","img/T_ambi40.png","をる","same",""
"","","","","","html-keyboard-response","213","914777","0.0-9.0-0.0-0.0-0.0-1.35","null","<span style='color:GreenYellow; font-size: 70px;'>正确! </span>","null","","","","","","","","","","","","","","","","","","","","","","","feedback_test"
"","","","","","psychophysics","214","916416","0.0-9.0-0.0-0.0-0.0-0.36","634","","j","","","","","","","","","","","","","key","j","16.66693814432959","727.2726819534961","450.85224463288995","j","true","img/S_ambi40.png","生人","same",""
"","","","","","html-keyboard-response","215","916928","0.0-9.0-0.0-0.0-0.0-1.36","null","<span style='color:GreenYellow; font-size: 70px;'>正确! </span>","null","","","","","","","","","","","","","","","","","","","","","","","feedback_test"
"","","","","","psychophysics","216","918410","0.0-9.0-0.0-0.0-0.0-0.37","479","","j","","","","","","","","","","","","","key","j","16.669597701149478","727.2726819534961","450.85224463288995","j","true","img/C_ambi40.png","自我","same",""
"","","","","","html-keyboard-response","217","918926","0.0-9.0-0.0-0.0-0.0-1.37","null","<span style='color:GreenYellow; font-size: 70px;'>正确! </span>","null","","","","","","","","","","","","","","","","","","","","","","","feedback_test"
"","","","","","psychophysics","218","920569","0.0-9.0-0.0-0.0-0.0-0.38","641","","j","","","","","","","","","","","","","key","j","16.669030927834534","727.2726819534961","450.85224463288995","j","true","img/C_ambi40.png","自我","same",""
"","","","","","html-keyboard-response","219","921086","0.0-9.0-0.0-0.0-0.0-1.38","null","<span style='color:GreenYellow; font-size: 70px;'>正确! </span>","null","","","","","","","","","","","","","","","","","","","","","","","feedback_test"
"","","","","","psychophysics","220","922635","0.0-9.0-0.0-0.0-0.0-0.39","546","","f","","","","","","","","","","","","","key","f","16.668923913043134","727.2726819534961","450.85224463288995","f","true","img/T_ambi40.png","をる","same",""
"","","","","","html-keyboard-response","221","923150","0.0-9.0-0.0-0.0-0.0-1.39","null","<span style='color:GreenYellow; font-size: 70px;'>正确! </span>","null","","","","","","","","","","","","","","","","","","","","","","","feedback_test"
"","","","","","psychophysics","222","925197","0.0-9.0-0.0-0.0-0.0-0.40","1044","","j","","","","","","","","","","","","","key","j","16.668975206611538","727.2726819534961","450.85224463288995","f","false","img/H_ambi40.png","自我","same",""
"","","","","","html-keyboard-response","223","925709","0.0-9.0-0.0-0.0-0.0-1.40","null","<span style='color:red; font-size: 70px;'>错误! </span>","null","","","","","","","","","","","","","","","","","","","","","","","feedback_test"
"","","","","","psychophysics","224","927523","0.0-9.0-0.0-0.0-0.0-0.41","812","","j","","","","","","","","","","","","","key","j","16.669158878504454","727.2726819534961","450.85224463288995","j","true","img/S_ambi40.png","生人","same",""
"","","","","","html-keyboard-response","225","928027","0.0-9.0-0.0-0.0-0.0-1.41","null","<span style='color:GreenYellow; font-size: 70px;'>正确! </span>","null","","","","","","","","","","","","","","","","","","","","","","","feedback_test"
"","","","","","psychophysics","226","929762","0.0-9.0-0.0-0.0-0.0-0.42","723","","f","","","","","","","","","","","","","key","f","16.66958252427245","727.2726819534961","450.85224463288995","j","false","img/H_ambi40.png","朋友","same",""
"","","","","","html-keyboard-response","227","930265","0.0-9.0-0.0-0.0-0.0-1.42","null","<span style='color:red; font-size: 70px;'>错误! </span>","null","","","","","","","","","","","","","","","","","","","","","","","feedback_test"
"","","","","","psychophysics","228","932203","0.0-9.0-0.0-0.0-0.0-0.43","937","","f","","","","","","","","","","","","","key","f","16.66873043478244","727.2726819534961","450.85224463288995","f","true","img/S_ambi40.png","朋友","same",""
"","","","","","html-keyboard-response","229","932707","0.0-9.0-0.0-0.0-0.0-1.43","null","<span style='color:GreenYellow; font-size: 70px;'>正确! </span>","null","","","","","","","","","","","","","","","","","","","","","","","feedback_test"
"","","","","","psychophysics","230","934286","0.0-9.0-0.0-0.0-0.0-0.44","576","","f","","","","","","","","","","","","","key","f","16.669397849461905","727.2726819534961","450.85224463288995","f","true","img/T_ambi40.png","をる","same",""
"","","","","","html-keyboard-response","231","934795","0.0-9.0-0.0-0.0-0.0-1.44","null","<span style='color:GreenYellow; font-size: 70px;'>正确! </span>","null","","","","","","","","","","","","","","","","","","","","","","","feedback_test"
"","","","","","psychophysics","232","936471","0.0-9.0-0.0-0.0-0.0-0.45","670","","f","","","","","","","","","","","","","key","f","16.669899999999906","727.2726819534961","450.85224463288995","j","false","img/S_ambi40.png","生人","same",""
"","","","","","html-keyboard-response","233","936981","0.0-9.0-0.0-0.0-0.0-1.45","null","<span style='color:red; font-size: 70px;'>错误! </span>","null","","","","","","","","","","","","","","","","","","","","","","","feedback_test"
"","","","","","psychophysics","234","938683","0.0-9.0-0.0-0.0-0.0-0.46","690","","f","","","","","","","","","","","","","key","f","16.669762376237127","727.2726819534961","450.85224463288995","j","false","img/H_ambi40.png","朋友","same",""
"","","","","","html-keyboard-response","235","939198","0.0-9.0-0.0-0.0-0.0-1.46","null","<span style='color:red; font-size: 70px;'>错误! </span>","null","","","","","","","","","","","","","","","","","","","","","","","feedback_test"
"","","","","","psychophysics","236","940870","0.0-9.0-0.0-0.0-0.0-0.47","669","","j","","","","","","","","","","","","","key","j","16.669569999999368","727.2726819534961","450.85224463288995","j","true","img/H_ambi40.png","朋友","same",""
"","","","","","html-keyboard-response","237","941385","0.0-9.0-0.0-0.0-0.0-1.47","null","<span style='color:GreenYellow; font-size: 70px;'>正确! </span>","null","","","","","","","","","","","","","","","","","","","","","","","feedback_test"
"","","","","","psychophysics","238","943019","0.0-9.0-0.0-0.0-0.0-0.48","626","","f","","","","","","","","","","","","","key","f","16.66684536082363","727.2726819534961","450.85224463288995","f","true","img/C_ambi40.png","生人","same",""
"","","","","","html-keyboard-response","239","943522","0.0-9.0-0.0-0.0-0.0-1.48","null","<span style='color:GreenYellow; font-size: 70px;'>正确! </span>","null","","","","","","","","","","","","","","","","","","","","","","","feedback_test"
"","","","","","psychophysics","240","945331","0.0-9.0-0.0-0.0-0.0-0.49","793","","f","","","","","","","","","","","","","key","f","16.669485981308497","727.2726819534961","450.85224463288995","f","true","img/S_ambi40.png","自我","same",""
"","","","","","html-keyboard-response","241","945848","0.0-9.0-0.0-0.0-0.0-1.49","null","<span style='color:GreenYellow; font-size: 70px;'>正确! </span>","null","","","","","","","","","","","","","","","","","","","","","","","feedback_test"
"","","","","","psychophysics","242","947426","0.0-9.0-0.0-0.0-0.0-0.50","576","","j","","","","","","","","","","","","","key","j","16.66831182795752","727.2726819534961","450.85224463288995","f","false","img/C_ambi40.png","朋友","same",""
"","","","","","html-keyboard-response","243","947930","0.0-9.0-0.0-0.0-0.0-1.50","null","<span style='color:red; font-size: 70px;'>错误! </span>","null","","","","","","","","","","","","","","","","","","","","","","","feedback_test"
"","","","","","psychophysics","244","949510","0.0-9.0-0.0-0.0-0.0-0.51","567","","f","","","","","","","","","","","","","key","f","16.668118279569992","727.2726819534961","450.85224463288995","f","true","img/T_ambi40.png","をる","same",""
"","","","","","html-keyboard-response","245","950023","0.0-9.0-0.0-0.0-0.0-1.51","null","<span style='color:GreenYellow; font-size: 70px;'>正确! </span>","null","","","","","","","","","","","","","","","","","","","","","","","feedback_test"
"","","","","","psychophysics","246","952528","0.0-9.0-0.0-0.0-0.0-0.52","null","","null","","","","","","","","","","","","","key","null","16.668208053691043","727.2726819534961","450.85224463288995","f","false","img/H_ambi40.png","生人","same",""
"","","","","","html-keyboard-response","247","953034","0.0-9.0-0.0-0.0-0.0-1.52","null","<span class='add_' style='color:yellow; font-size: 70px;'> 太慢! </span>","null","","","","","","","","","","","","","","","","","","","","","","","feedback_test"
"","","","","","psychophysics","248","954667","0.0-9.0-0.0-0.0-0.0-0.53","629","","j","","","","","","","","","","","","","key","j","16.669062499999807","727.2726819534961","450.85224463288995","j","true","img/C_ambi40.png","自我","same",""
"","","","","","html-keyboard-response","249","955175","0.0-9.0-0.0-0.0-0.0-1.53","null","<span style='color:GreenYellow; font-size: 70px;'>正确! </span>","null","","","","","","","","","","","","","","","","","","","","","","","feedback_test"
"","","","","","psychophysics","250","956702","0.0-9.0-0.0-0.0-0.0-0.54","518","","f","","","","","","","","","","","","","key","f","16.66774725274613","727.2726819534961","450.85224463288995","f","true","img/T_ambi40.png","をる","same",""
"","","","","","html-keyboard-response","251","957219","0.0-9.0-0.0-0.0-0.0-1.54","null","<span style='color:GreenYellow; font-size: 70px;'>正确! </span>","null","","","","","","","","","","","","","","","","","","","","","","","feedback_test"
"","","","","","psychophysics","252","959726","0.0-9.0-0.0-0.0-0.0-0.55","null","","null","","","","","","","","","","","","","key","null","16.66857046979845","727.2726819534961","450.85224463288995","j","false","img/H_ambi40.png","朋友","same",""
"","","","","","html-keyboard-response","253","960236","0.0-9.0-0.0-0.0-0.0-1.55","null","<span class='add_' style='color:yellow; font-size: 70px;'> 太慢! </span>","null","","","","","","","","","","","","","","","","","","","","","","","feedback_test"
"","","","","","psychophysics","254","962216","0.0-9.0-0.0-0.0-0.0-0.56","978","","f","","","","","","","","","","","","","key","f","16.666598290598028","727.2726819534961","450.85224463288995","f","true","img/H_ambi40.png","自我","same",""
"","","","","","html-keyboard-response","255","962732","0.0-9.0-0.0-0.0-0.0-1.56","null","<span style='color:GreenYellow; font-size: 70px;'>正确! </span>","null","","","","","","","","","","","","","","","","","","","","","","","feedback_test"
"","","","","","psychophysics","256","964316","0.0-9.0-0.0-0.0-0.0-0.57","581","","f","","","","","","","","","","","","","key","f","16.669172043010832","727.2726819534961","450.85224463288995","f","true","img/T_ambi40.png","をる","same",""
"","","","","","html-keyboard-response","257","964817","0.0-9.0-0.0-0.0-0.0-1.57","null","<span style='color:GreenYellow; font-size: 70px;'>正确! </span>","null","","","","","","","","","","","","","","","","","","","","","","","feedback_test"
"","","","","","psychophysics","258","966568","0.0-9.0-0.0-0.0-0.0-0.58","743","","f","","","","","","","","","","","","","key","f","16.66990384615425","727.2726819534961","450.85224463288995","f","true","img/S_ambi40.png","自我","same",""
"","","","","","html-keyboard-response","259","967082","0.0-9.0-0.0-0.0-0.0-1.58","null","<span style='color:GreenYellow; font-size: 70px;'>正确! </span>","null","","","","","","","","","","","","","","","","","","","","","","","feedback_test"
"","","","","","psychophysics","260","968623","0.0-9.0-0.0-0.0-0.0-0.59","535","","f","","","","","","","","","","","","","key","f","16.6680978260866","727.2726819534961","450.85224463288995","f","true","img/T_ambi40.png","をる","same",""
"","","","","","html-keyboard-response","261","969129","0.0-9.0-0.0-0.0-0.0-1.59","null","<span style='color:GreenYellow; font-size: 70px;'>正确! </span>","null","","","","","","","","","","","","","","","","","","","","","","","feedback_test"
"","","","","","psychophysics","262","970779","0.0-9.0-0.0-0.0-0.0-0.60","647","","f","","","","","","","","","","","","","key","f","16.66889690721561","727.2726819534961","450.85224463288995","f","true","img/S_ambi40.png","朋友","same",""
"","","","","","html-keyboard-response","263","971287","0.0-9.0-0.0-0.0-0.0-1.60","null","<span style='color:GreenYellow; font-size: 70px;'>正确! </span>","null","","","","","","","","","","","","","","","","","","","","","","","feedback_test"
"","","","","","psychophysics","264","973480","0.0-9.0-0.0-0.0-0.0-0.61","1187","","j","","","","","","","","","","","","","key","j","16.666930769230778","727.2726819534961","450.85224463288995","f","false","img/H_ambi40.png","生人","same",""
"","","","","","html-keyboard-response","265","973982","0.0-9.0-0.0-0.0-0.0-1.61","null","<span style='color:red; font-size: 70px;'>错误! </span>","null","","","","","","","","","","","","","","","","","","","","","","","feedback_test"
"","","","","","psychophysics","266","975879","0.0-9.0-0.0-0.0-0.0-0.62","891","","f","","","","","","","","","","","","","key","f","16.668928571428946","727.2726819534961","450.85224463288995","f","true","img/C_ambi40.png","生人","same",""
"","","","","","html-keyboard-response","267","976392","0.0-9.0-0.0-0.0-0.0-1.62","null","<span style='color:GreenYellow; font-size: 70px;'>正确! </span>","null","","","","","","","","","","","","","","","","","","","","","","","feedback_test"
"","","","","","psychophysics","268","978187","0.0-9.0-0.0-0.0-0.0-0.63","786","","f","","","","","","","","","","","","","key","f","16.667261682242966","727.2726819534961","450.85224463288995","f","true","img/C_ambi40.png","朋友","same",""
"","","","","","html-keyboard-response","269","978700","0.0-9.0-0.0-0.0-0.0-1.63","null","<span style='color:GreenYellow; font-size: 70px;'>正确! </span>","null","","","","","","","","","","","","","","","","","","","","","","","feedback_test"
"","","","","","psychophysics","270","980297","0.0-9.0-0.0-0.0-0.0-0.64","593","","f","","","","","","","","","","","","","key","f","16.667652631579212","727.2726819534961","450.85224463288995","j","false","img/S_ambi40.png","生人","same",""
"","","","","","html-keyboard-response","271","980809","0.0-9.0-0.0-0.0-0.0-1.64","null","<span style='color:red; font-size: 70px;'>错误! </span>","null","","","","","","","","","","","","","","","","","","","","","","","feedback_test"
"","","","","","psychophysics","272","982574","0.0-9.0-0.0-0.0-0.0-0.65","762","","f","","","","","","","","","","","","","key","f","16.669619047618472","727.2726819534961","450.85224463288995","j","false","img/H_ambi40.png","朋友","same",""
"","","","","","html-keyboard-response","273","983090","0.0-9.0-0.0-0.0-0.0-1.65","null","<span style='color:red; font-size: 70px;'>错误! </span>","null","","","","","","","","","","","","","","","","","","","","","","","feedback_test"
"","","","","","psychophysics","274","985249","0.0-9.0-0.0-0.0-0.0-0.66","1150","","j","","","","","","","","","","","","","key","j","16.669226562499716","727.2726819534961","450.85224463288995","j","true","img/C_ambi40.png","自我","same",""
"","","","","","html-keyboard-response","275","985761","0.0-9.0-0.0-0.0-0.0-1.66","null","<span style='color:GreenYellow; font-size: 70px;'>正确! </span>","null","","","","","","","","","","","","","","","","","","","","","","","feedback_test"
"","","","","","psychophysics","276","987439","0.0-9.0-0.0-0.0-0.0-0.67","671","","j","","","","","","","","","","","","","key","j","16.6705050505051","727.2726819534961","450.85224463288995","j","true","img/C_ambi40.png","自我","same",""
"","","","","","html-keyboard-response","277","987950","0.0-9.0-0.0-0.0-0.0-1.67","null","<span style='color:GreenYellow; font-size: 70px;'>正确! </span>","null","","","","","","","","","","","","","","","","","","","","","","","feedback_test"
"","","","","","psychophysics","278","989562","0.0-9.0-0.0-0.0-0.0-0.68","603","","f","","","","","","","","","","","","","key","f","16.670270833333536","727.2726819534961","450.85224463288995","j","false","img/S_ambi40.png","生人","same",""
"","","","","","html-keyboard-response","279","990078","0.0-9.0-0.0-0.0-0.0-1.68","null","<span style='color:red; font-size: 70px;'>错误! </span>","null","","","","","","","","","","","","","","","","","","","","","","","feedback_test"
"","","","","","psychophysics","280","991927","0.0-9.0-0.0-0.0-0.0-0.69","847","","j","","","","","","","","","","","","","key","j","16.669363636363677","727.2726819534961","450.85224463288995","j","true","img/C_ambi40.png","自我","same",""
"","","","","","html-keyboard-response","281","992435","0.0-9.0-0.0-0.0-0.0-1.69","null","<span style='color:GreenYellow; font-size: 70px;'>正确! </span>","null","","","","","","","","","","","","","","","","","","","","","","","feedback_test"
"","","","","","psychophysics","282","994060","0.0-9.0-0.0-0.0-0.0-0.70","610","","f","","","","","","","","","","","","","key","f","16.667875000000397","727.2726819534961","450.85224463288995","j","false","img/S_ambi40.png","生人","same",""
"","","","","","html-keyboard-response","283","994575","0.0-9.0-0.0-0.0-0.0-1.70","null","<span style='color:red; font-size: 70px;'>错误! </span>","null","","","","","","","","","","","","","","","","","","","","","","","feedback_test"
"","","","","","psychophysics","284","996495","0.0-9.0-0.0-0.0-0.0-0.71","916","","f","","","","","","","","","","","","","key","f","16.669236842105818","727.2726819534961","450.85224463288995","j","false","img/H_ambi40.png","朋友","same",""
"","","","","","html-keyboard-response","285","997012","0.0-9.0-0.0-0.0-0.0-1.71","null","<span style='color:red; font-size: 70px;'>错误! </span>","null","","","","","","","","","","","","","","","","","","","","","","","feedback_test"
"","","","","","psychophysics","286","998931","0.0-9.0-0.0-0.0-0.0-0.72","906","","j","","","","","","","","","","","","","key","j","16.668850877192565","727.2726819534961","450.85224463288995","j","true","img/H_ambi40.png","朋友","same",""
"","","","","","html-keyboard-response","287","999437","0.0-9.0-0.0-0.0-0.0-1.72","null","<span style='color:GreenYellow; font-size: 70px;'>正确! </span>","null","","","","","","","","","","","","","","","","","","","","","","","feedback_test"
"","","","","","psychophysics","288","1001014","0.0-9.0-0.0-0.0-0.0-0.73","576","","f","","","","","","","","","","","","","key","f","16.66978494623571","727.2726819534961","450.85224463288995","f","true","img/T_ambi40.png","をる","same",""
"","","","","","html-keyboard-response","289","1001527","0.0-9.0-0.0-0.0-0.0-1.73","null","<span style='color:GreenYellow; font-size: 70px;'>正确! </span>","null","","","","","","","","","","","","","","","","","","","","","","","feedback_test"
"","","","","","psychophysics","290","1003610","0.0-9.0-0.0-0.0-0.0-0.74","1080","","f","","","","","","","","","","","","","key","f","16.66260162601626","727.2726819534961","450.85224463288995","f","true","img/H_ambi40.png","生人","same",""
"","","","","","html-keyboard-response","291","1004114","0.0-9.0-0.0-0.0-0.0-1.74","null","<span style='color:GreenYellow; font-size: 70px;'>正确! </span>","null","","","","","","","","","","","","","","","","","","","","","","","feedback_test"
"","","","","","psychophysics","292","1006229","0.0-9.0-0.0-0.0-0.0-0.75","1103","","j","","","","","","","","","","","","","key","j","16.66893650793622","727.2726819534961","450.85224463288995","j","true","img/S_ambi40.png","生人","same",""
"","","","","","html-keyboard-response","293","1006739","0.0-9.0-0.0-0.0-0.0-1.75","null","<span style='color:GreenYellow; font-size: 70px;'>正确! </span>","null","","","","","","","","","","","","","","","","","","","","","","","feedback_test"
"","","","","","psychophysics","294","1008318","0.0-9.0-0.0-0.0-0.0-0.76","564","","f","","","","","","","","","","","","","key","f","16.66953763440852","727.2726819534961","450.85224463288995","f","true","img/T_ambi40.png","をる","same",""
"","","","","","html-keyboard-response","295","1008824","0.0-9.0-0.0-0.0-0.0-1.76","null","<span style='color:GreenYellow; font-size: 70px;'>正确! </span>","null","","","","","","","","","","","","","","","","","","","","","","","feedback_test"
"","","","","","psychophysics","296","1010768","0.0-9.0-0.0-0.0-0.0-0.77","934","","f","","","","","","","","","","","","","key","f","16.667713043478358","727.2726819534961","450.85224463288995","f","true","img/S_ambi40.png","自我","same",""
"","","","","","html-keyboard-response","297","1011272","0.0-9.0-0.0-0.0-0.0-1.77","null","<span style='color:GreenYellow; font-size: 70px;'>正确! </span>","null","","","","","","","","","","","","","","","","","","","","","","","feedback_test"
"","","","","","psychophysics","298","1012903","0.0-9.0-0.0-0.0-0.0-0.78","624","","j","","","","","","","","","","","","","key","j","16.669958762885745","727.2726819534961","450.85224463288995","j","true","img/C_ambi40.png","自我","same",""
"","","","","","html-keyboard-response","299","1013407","0.0-9.0-0.0-0.0-0.0-1.78","null","<span style='color:GreenYellow; font-size: 70px;'>正确! </span>","null","","","","","","","","","","","","","","","","","","","","","","","feedback_test"
"","","","","","psychophysics","300","1015198","0.0-9.0-0.0-0.0-0.0-0.79","777","","f","","","","","","","","","","","","","key","f","16.66917924528265","727.2726819534961","450.85224463288995","f","true","img/H_ambi40.png","自我","same",""
"","","","","","html-keyboard-response","301","1015700","0.0-9.0-0.0-0.0-0.0-1.79","null","<span style='color:GreenYellow; font-size: 70px;'>正确! </span>","null","","","","","","","","","","","","","","","","","","","","","","","feedback_test"
"","","","","","psychophysics","302","1017806","0.0-9.0-0.0-0.0-0.0-0.80","1094","","f","","","","","","","","","","","","","key","f","16.668504000000656","727.2726819534961","450.85224463288995","f","true","img/S_ambi40.png","朋友","same",""
"","","","","","html-keyboard-response","303","1018320","0.0-9.0-0.0-0.0-0.0-1.80","null","<span style='color:GreenYellow; font-size: 70px;'>正确! </span>","null","","","","","","","","","","","","","","","","","","","","","","","feedback_test"
"","","","","","psychophysics","304","1020062","0.0-9.0-0.0-0.0-0.0-0.81","737","","j","","","","","","","","","","","","","key","j","16.670310679611806","727.2726819534961","450.85224463288995","j","true","img/S_ambi40.png","生人","same",""
"","","","","","html-keyboard-response","305","1020571","0.0-9.0-0.0-0.0-0.0-1.81","null","<span style='color:GreenYellow; font-size: 70px;'>正确! </span>","null","","","","","","","","","","","","","","","","","","","","","","","feedback_test"
"","","","","","psychophysics","306","1022128","0.0-9.0-0.0-0.0-0.0-0.82","544","","j","","","","","","","","","","","","","key","j","16.669815217392802","727.2726819534961","450.85224463288995","j","true","img/C_ambi40.png","自我","same",""
"","","","","","html-keyboard-response","307","1022642","0.0-9.0-0.0-0.0-0.0-1.82","null","<span style='color:GreenYellow; font-size: 70px;'>正确! </span>","null","","","","","","","","","","","","","","","","","","","","","","","feedback_test"
"","","","","","psychophysics","308","1024276","0.0-9.0-0.0-0.0-0.0-0.83","630","","f","","","","","","","","","","","","","key","f","16.66871134020609","727.2726819534961","450.85224463288995","j","false","img/H_ambi40.png","朋友","same",""
"","","","","","html-keyboard-response","309","1024778","0.0-9.0-0.0-0.0-0.0-1.83","null","<span style='color:red; font-size: 70px;'>错误! </span>","null","","","","","","","","","","","","","","","","","","","","","","","feedback_test"
"","","","","","psychophysics","310","1026475","0.0-9.0-0.0-0.0-0.0-0.84","693","","f","","","","","","","","","","","","","key","f","16.670039603959236","727.2726819534961","450.85224463288995","j","false","img/S_ambi40.png","生人","same",""
"","","","","","html-keyboard-response","311","1026985","0.0-9.0-0.0-0.0-0.0-1.84","null","<span style='color:red; font-size: 70px;'>错误! </span>","null","","","","","","","","","","","","","","","","","","","","","","","feedback_test"
"","","","","","psychophysics","312","1028780","0.0-9.0-0.0-0.0-0.0-0.85","790","","j","","","","","","","","","","","","","key","j","16.66984905660337","727.2726819534961","450.85224463288995","f","false","img/C_ambi40.png","生人","same",""
"","","","","","html-keyboard-response","313","1029296","0.0-9.0-0.0-0.0-0.0-1.85","null","<span style='color:red; font-size: 70px;'>错误! </span>","null","","","","","","","","","","","","","","","","","","","","","","","feedback_test"
"","","","","","psychophysics","314","1031151","0.0-9.0-0.0-0.0-0.0-0.86","851","","f","","","","","","","","","","","","","key","f","16.668872727273794","727.2726819534961","450.85224463288995","f","true","img/C_ambi40.png","朋友","same",""
"","","","","","html-keyboard-response","315","1031663","0.0-9.0-0.0-0.0-0.0-1.86","null","<span style='color:GreenYellow; font-size: 70px;'>正确! </span>","null","","","","","","","","","","","","","","","","","","","","","","","feedback_test"
"","","","","","psychophysics","316","1033256","0.0-9.0-0.0-0.0-0.0-0.87","585","","j","","","","","","","","","","","","","key","j","16.66794736842184","727.2726819534961","450.85224463288995","j","true","img/C_ambi40.png","自我","same",""
"","","","","","html-keyboard-response","317","1033762","0.0-9.0-0.0-0.0-0.0-1.87","null","<span style='color:GreenYellow; font-size: 70px;'>正确! </span>","null","","","","","","","","","","","","","","","","","","","","","","","feedback_test"
"","","","","","psychophysics","318","1035448","0.0-9.0-0.0-0.0-0.0-0.88","684","","f","","","","","","","","","","","","","key","f","16.665830000001005","727.2726819534961","450.85224463288995","f","true","img/T_ambi40.png","をる","same",""
"","","","","","html-keyboard-response","319","1035953","0.0-9.0-0.0-0.0-0.0-1.88","null","<span style='color:GreenYellow; font-size: 70px;'>正确! </span>","null","","","","","","","","","","","","","","","","","","","","","","","feedback_test"
"","","","","","psychophysics","320","1037816","0.0-9.0-0.0-0.0-0.0-0.89","857","","j","","","","","","","","","","","","","key","j","16.668945454545742","727.2726819534961","450.85224463288995","j","true","img/H_ambi40.png","朋友","same",""
"","","","","","html-keyboard-response","321","1038332","0.0-9.0-0.0-0.0-0.0-1.89","null","<span style='color:GreenYellow; font-size: 70px;'>正确! </span>","null","","","","","","","","","","","","","","","","","","","","","","","feedback_test"
"","","","","","psychophysics","322","1039940","0.0-9.0-0.0-0.0-0.0-0.90","604","","j","","","","","","","","","","","","","key","j","16.6693541666682","727.2726819534961","450.85224463288995","j","true","img/S_ambi40.png","生人","same",""
"","","","","","html-keyboard-response","323","1040454","0.0-9.0-0.0-0.0-0.0-1.90","null","<span style='color:GreenYellow; font-size: 70px;'>正确! </span>","null","","","","","","","","","","","","","","","","","","","","","","","feedback_test"
"","","","","","psychophysics","324","1042081","0.0-9.0-0.0-0.0-0.0-0.91","619","","j","","","","","","","","","","","","","key","j","16.66713402061915","727.2726819534961","450.85224463288995","j","true","img/C_ambi40.png","自我","same",""
"","","","","","html-keyboard-response","325","1042595","0.0-9.0-0.0-0.0-0.0-1.91","null","<span style='color:GreenYellow; font-size: 70px;'>正确! </span>","null","","","","","","","","","","","","","","","","","","","","","","","feedback_test"
"","","","","","psychophysics","326","1044502","0.0-9.0-0.0-0.0-0.0-0.92","894","","j","","","","","","","","","","","","","key","j","16.666469026548558","727.2726819534961","450.85224463288995","j","true","img/S_ambi40.png","生人","same",""
"","","","","","html-keyboard-response","327","1045015","0.0-9.0-0.0-0.0-0.0-1.92","null","<span style='color:GreenYellow; font-size: 70px;'>正确! </span>","null","","","","","","","","","","","","","","","","","","","","","","","feedback_test"
"","","","","","psychophysics","328","1047052","0.0-9.0-0.0-0.0-0.0-0.93","1034","","f","","","","","","","","","","","","","key","f","16.668735537191175","727.2726819534961","450.85224463288995","f","true","img/S_ambi40.png","自我","same",""
"","","","","","html-keyboard-response","329","1047557","0.0-9.0-0.0-0.0-0.0-1.93","null","<span style='color:GreenYellow; font-size: 70px;'>正确! </span>","null","","","","","","","","","","","","","","","","","","","","","","","feedback_test"
"","","","","","psychophysics","330","1049379","0.0-9.0-0.0-0.0-0.0-0.94","817","","j","","","","","","","","","","","","","key","j","16.666504587157878","727.2726819534961","450.85224463288995","f","false","img/S_ambi40.png","朋友","same",""
"","","","","","html-keyboard-response","331","1049880","0.0-9.0-0.0-0.0-0.0-1.94","null","<span style='color:red; font-size: 70px;'>错误! </span>","null","","","","","","","","","","","","","","","","","","","","","","","feedback_test"
"","","","","","psychophysics","332","1051587","0.0-9.0-0.0-0.0-0.0-0.95","703","","j","","","","","","","","","","","","","key","j","16.666712871287018","727.2726819534961","450.85224463288995","j","true","img/H_ambi40.png","朋友","same",""
"","","","","","html-keyboard-response","333","1052094","0.0-9.0-0.0-0.0-0.0-1.95","null","<span style='color:GreenYellow; font-size: 70px;'>正确! </span>","null","","","","","","","","","","","","","","","","","","","","","","","feedback_test"
"","","","","","psychophysics","334","1053805","0.0-9.0-0.0-0.0-0.0-0.96","708","","j","","","","","","","","","","","","","key","j","16.669118811881244","727.2726819534961","450.85224463288995","j","true","img/C_ambi40.png","自我","same",""
"","","","","","html-keyboard-response","335","1054311","0.0-9.0-0.0-0.0-0.0-1.96","null","<span style='color:GreenYellow; font-size: 70px;'>正确! </span>","null","","","","","","","","","","","","","","","","","","","","","","","feedback_test"
"","","","","","psychophysics","336","1055813","0.0-9.0-0.0-0.0-0.0-0.97","496","","f","","","","","","","","","","","","","key","f","16.670573033706358","727.2726819534961","450.85224463288995","f","true","img/T_ambi40.png","をる","same",""
"","","","","","html-keyboard-response","337","1056316","0.0-9.0-0.0-0.0-0.0-1.97","null","<span style='color:GreenYellow; font-size: 70px;'>正确! </span>","null","","","","","","","","","","","","","","","","","","","","","","","feedback_test"
"","","","","","psychophysics","338","1058108","0.0-9.0-0.0-0.0-0.0-0.98","790","","j","","","","","","","","","","","","","key","j","16.667311320753488","727.2726819534961","450.85224463288995","j","true","img/H_ambi40.png","朋友","same",""
"","","","","","html-keyboard-response","339","1058610","0.0-9.0-0.0-0.0-0.0-1.98","null","<span style='color:GreenYellow; font-size: 70px;'>正确! </span>","null","","","","","","","","","","","","","","","","","","","","","","","feedback_test"
"","","","","","psychophysics","340","1060400","0.0-9.0-0.0-0.0-0.0-0.99","776","","j","","","","","","","","","","","","","key","j","16.66899056603719","727.2726819534961","450.85224463288995","j","true","img/H_ambi40.png","朋友","same",""
"","","","","","html-keyboard-response","341","1060908","0.0-9.0-0.0-0.0-0.0-1.99","null","<span style='color:GreenYellow; font-size: 70px;'>正确! </span>","null","","","","","","","","","","","","","","","","","","","","","","","feedback_test"
"","","","","","psychophysics","342","1062481","0.0-9.0-0.0-0.0-0.0-0.100","568","","f","","","","","","","","","","","","","key","f","16.670258064513966","727.2726819534961","450.85224463288995","f","true","img/T_ambi40.png","をる","same",""
"","","","","","html-keyboard-response","343","1062992","0.0-9.0-0.0-0.0-0.0-1.100","null","<span style='color:GreenYellow; font-size: 70px;'>正确! </span>","null","","","","","","","","","","","","","","","","","","","","","","","feedback_test"
"","","","","","psychophysics","344","1064978","0.0-9.0-0.0-0.0-0.0-0.101","983","","f","","","","","","","","","","","","","key","f","16.66687179487159","727.2726819534961","450.85224463288995","f","true","img/H_ambi40.png","生人","same",""
"","","","","","html-keyboard-response","345","1065487","0.0-9.0-0.0-0.0-0.0-1.101","null","<span style='color:GreenYellow; font-size: 70px;'>正确! </span>","null","","","","","","","","","","","","","","","","","","","","","","","feedback_test"
"","","","","","psychophysics","346","1067244","0.0-9.0-0.0-0.0-0.0-0.102","753","","f","","","","","","","","","","","","","key","f","16.66687499999982","727.2726819534961","450.85224463288995","f","true","img/C_ambi40.png","朋友","same",""
"","","","","","html-keyboard-response","347","1067754","0.0-9.0-0.0-0.0-0.0-1.102","null","<span style='color:GreenYellow; font-size: 70px;'>正确! </span>","null","","","","","","","","","","","","","","","","","","","","","","","feedback_test"
"","","","","","psychophysics","348","1069795","0.0-9.0-0.0-0.0-0.0-0.103","1030","","f","","","","","","","","","","","","","key","f","16.668801652892945","727.2726819534961","450.85224463288995","f","true","img/H_ambi40.png","自我","same",""
"","","","","","html-keyboard-response","349","1070306","0.0-9.0-0.0-0.0-0.0-1.103","null","<span style='color:GreenYellow; font-size: 70px;'>正确! </span>","null","","","","","","","","","","","","","","","","","","","","","","","feedback_test"
"","","","","","psychophysics","350","1072097","0.0-9.0-0.0-0.0-0.0-0.104","785","","j","","","","","","","","","","","","","key","j","16.667056074766354","727.2726819534961","450.85224463288995","j","true","img/S_ambi40.png","生人","same",""
"","","","","","html-keyboard-response","351","1072608","0.0-9.0-0.0-0.0-0.0-1.104","null","<span style='color:GreenYellow; font-size: 70px;'>正确! </span>","null","","","","","","","","","","","","","","","","","","","","","","","feedback_test"
"","","","","","psychophysics","352","1074293","0.0-9.0-0.0-0.0-0.0-0.105","682","","f","","","","","","","","","","","","","key","f","16.66874000000069","727.2726819534961","450.85224463288995","f","true","img/C_ambi40.png","生人","same",""
"","","","","","html-keyboard-response","353","1074802","0.0-9.0-0.0-0.0-0.0-1.105","null","<span style='color:GreenYellow; font-size: 70px;'>正确! </span>","null","","","","","","","","","","","","","","","","","","","","","","","feedback_test"
"","","","","","psychophysics","354","1076356","0.0-9.0-0.0-0.0-0.0-0.106","544","","f","","","","","","","","","","","","","key","f","16.67051086956433","727.2726819534961","450.85224463288995","f","true","img/T_ambi40.png","をる","same",""
"","","","","","html-keyboard-response","355","1076865","0.0-9.0-0.0-0.0-0.0-1.106","null","<span style='color:GreenYellow; font-size: 70px;'>正确! </span>","null","","","","","","","","","","","","","","","","","","","","","","","feedback_test"
"","","","","","psychophysics","356","1078482","0.0-9.0-0.0-0.0-0.0-0.107","612","","j","","","","","","","","","","","","","key","j","16.669239583333063","727.2726819534961","450.85224463288995","j","true","img/C_ambi40.png","自我","same",""
"","","","","","html-keyboard-response","357","1078993","0.0-9.0-0.0-0.0-0.0-1.107","null","<span style='color:GreenYellow; font-size: 70px;'>正确! </span>","null","","","","","","","","","","","","","","","","","","","","","","","feedback_test"
"","","","","","html-keyboard-response","358","1196979","0.0-9.0-0.0-0.0-1.0","117981","<style>.context{color:white; font-size: 35px; line-height:40px}</style>                          <div><p class='context'>您正确回答了79% 的试次。</p><p class='context'>您的平均反应时为727毫秒。</p><p class='context'>请按任意键进入休息</p></div>","j","","","","","","","","","","","","","","","","","","","","","","",""
"","","","","","html-button-response","359","1236429","0.0-9.0-0.0-0.0-2.0","39444","
                    <p>您当前还剩余5组实验</p>
                    <p>现在是休息时间，当您结束休息后，您可以点击 结束休息 按钮 继续</p>
                    <p>建议休息时间还剩余<span id=""iii"">60</span>秒</p>","0","","","","","","","","","","","","","","","","","","","","","","",""
"","","","","","psychophysics","360","1238292","0.0-9.0-0.0-0.0-0.1-0.108","856","","f","","","","","","","","","","","","","key","f","16.669585585585786","727.2726819534961","450.85224463288995","f","true","img/S_ambi40.png","自我","same",""
"","","","","","html-keyboard-response","361","1238804","0.0-9.0-0.0-0.0-0.1-1.108","null","<span style='color:GreenYellow; font-size: 70px;'>正确! </span>","null","","","","","","","","","","","","","","","","","","","","","","","feedback_test"
"","","","","","psychophysics","362","1241048","0.0-9.0-0.0-0.0-0.1-0.109","1236","","f","","","","","","","","","","","","","key","f","16.66726865671547","727.2726819534961","450.85224463288995","f","true","img/H_ambi40.png","生人","same",""
"","","","","","html-keyboard-response","363","1241549","0.0-9.0-0.0-0.0-0.1-1.109","null","<span style='color:GreenYellow; font-size: 70px;'>正确! </span>","null","","","","","","","","","","","","","","","","","","","","","","","feedback_test"
"","","","","","psychophysics","364","1243080","0.0-9.0-0.0-0.0-0.1-0.110","527","","f","","","","","","","","","","","","","key","f","16.66957777777635","727.2726819534961","450.85224463288995","f","true","img/T_ambi40.png","をる","same",""
"","","","","","html-keyboard-response","365","1243583","0.0-9.0-0.0-0.0-0.1-1.110","null","<span style='color:GreenYellow; font-size: 70px;'>正确! </span>","null","","","","","","","","","","","","","","","","","","","","","","","feedback_test"
"","","","","","psychophysics","366","1245089","0.0-9.0-0.0-0.0-0.1-0.111","492","","j","","","","","","","","","","","","","key","j","16.667528089886698","727.2726819534961","450.85224463288995","j","true","img/C_ambi40.png","自我","same",""
"","","","","","html-keyboard-response","367","1245598","0.0-9.0-0.0-0.0-0.1-1.111","null","<span style='color:GreenYellow; font-size: 70px;'>正确! </span>","null","","","","","","","","","","","","","","","","","","","","","","","feedback_test"
"","","","","","psychophysics","368","1247497","0.0-9.0-0.0-0.0-0.1-0.112","890","","j","","","","","","","","","","","","","key","j","16.67040707964442","727.2726819534961","450.85224463288995","j","true","img/H_ambi40.png","朋友","same",""
"","","","","","html-keyboard-response","369","1248001","0.0-9.0-0.0-0.0-0.1-1.112","null","<span style='color:GreenYellow; font-size: 70px;'>正确! </span>","null","","","","","","","","","","","","","","","","","","","","","","","feedback_test"
"","","","","","psychophysics","370","1249643","0.0-9.0-0.0-0.0-0.1-0.113","640","","f","","","","","","","","","","","","","key","f","16.669226804124094","727.2726819534961","450.85224463288995","f","true","img/H_ambi40.png","自我","same",""
"","","","","","html-keyboard-response","371","1250152","0.0-9.0-0.0-0.0-0.1-1.113","null","<span style='color:GreenYellow; font-size: 70px;'>正确! </span>","null","","","","","","","","","","","","","","","","","","","","","","","feedback_test"
"","","","","","psychophysics","372","1251796","0.0-9.0-0.0-0.0-0.1-0.114","635","","j","","","","","","","","","","","","","key","j","16.67031632652934","727.2726819534961","450.85224463288995","f","false","img/C_ambi40.png","生人","same",""
"","","","","","html-keyboard-response","373","1252303","0.0-9.0-0.0-0.0-0.1-1.114","null","<span style='color:red; font-size: 70px;'>错误! </span>","null","","","","","","","","","","","","","","","","","","","","","","","feedback_test"
"","","","","","psychophysics","374","1254262","0.0-9.0-0.0-0.0-0.1-0.115","955","","j","","","","","","","","","","","","","key","j","16.668637931033775","727.2726819534961","450.85224463288995","j","true","img/S_ambi40.png","生人","same",""
"","","","","","html-keyboard-response","375","1254770","0.0-9.0-0.0-0.0-0.1-1.115","null","<span style='color:GreenYellow; font-size: 70px;'>正确! </span>","null","","","","","","","","","","","","","","","","","","","","","","","feedback_test"
"","","","","","psychophysics","376","1256597","0.0-9.0-0.0-0.0-0.1-0.116","812","","f","","","","","","","","","","","","","key","f","16.669398148147458","727.2726819534961","450.85224463288995","f","true","img/C_ambi40.png","朋友","same",""
"","","","","","html-keyboard-response","377","1257113","0.0-9.0-0.0-0.0-0.1-1.116","null","<span style='color:GreenYellow; font-size: 70px;'>正确! </span>","null","","","","","","","","","","","","","","","","","","","","","","","feedback_test"
"","","","","","psychophysics","378","1258838","0.0-9.0-0.0-0.0-0.1-0.117","722","","j","","","","","","","","","","","","","key","j","16.668813725490597","727.2726819534961","450.85224463288995","j","true","img/C_ambi40.png","自我","same",""
"","","","","","html-keyboard-response","379","1259350","0.0-9.0-0.0-0.0-0.1-1.117","null","<span style='color:GreenYellow; font-size: 70px;'>正确! </span>","null","","","","","","","","","","","","","","","","","","","","","","","feedback_test"
"","","","","","psychophysics","380","1261054","0.0-9.0-0.0-0.0-0.1-0.118","697","","j","","","","","","","","","","","","","key","j","16.66742574257343","727.2726819534961","450.85224463288995","j","true","img/H_ambi40.png","朋友","same",""
"","","","","","html-keyboard-response","381","1261564","0.0-9.0-0.0-0.0-0.1-1.118","null","<span style='color:GreenYellow; font-size: 70px;'>正确! </span>","null","","","","","","","","","","","","","","","","","","","","","","","feedback_test"
"","","","","","psychophysics","382","1263099","0.0-9.0-0.0-0.0-0.1-0.119","529","","f","","","","","","","","","","","","","key","f","16.670100000001387","727.2726819534961","450.85224463288995","f","true","img/T_ambi40.png","をる","same",""
"","","","","","html-keyboard-response","383","1263610","0.0-9.0-0.0-0.0-0.1-1.119","null","<span style='color:GreenYellow; font-size: 70px;'>正确! </span>","null","","","","","","","","","","","","","","","","","","","","","","","feedback_test"
"","","","","","psychophysics","384","1265398","0.0-9.0-0.0-0.0-0.1-0.120","786","","j","","","","","","","","","","","","","key","j","16.668915094339887","727.2726819534961","450.85224463288995","j","true","img/S_ambi40.png","生人","same",""
"","","","","","html-keyboard-response","385","1265902","0.0-9.0-0.0-0.0-0.1-1.120","null","<span style='color:GreenYellow; font-size: 70px;'>正确! </span>","null","","","","","","","","","","","","","","","","","","","","","","","feedback_test"
"","","","","","psychophysics","386","1267574","0.0-9.0-0.0-0.0-0.1-0.121","670","","f","","","","","","","","","","","","","key","f","16.66933000000194","727.2726819534961","450.85224463288995","j","false","img/S_ambi40.png","生人","same",""
"","","","","","html-keyboard-response","387","1268081","0.0-9.0-0.0-0.0-0.1-1.121","null","<span style='color:red; font-size: 70px;'>错误! </span>","null","","","","","","","","","","","","","","","","","","","","","","","feedback_test"
"","","","","","psychophysics","388","1269572","0.0-9.0-0.0-0.0-0.1-0.122","489","","j","","","","","","","","","","","","","key","j","16.669295454545964","727.2726819534961","450.85224463288995","j","true","img/C_ambi40.png","自我","same",""
"","","","","","html-keyboard-response","389","1270075","0.0-9.0-0.0-0.0-0.1-1.122","null","<span style='color:GreenYellow; font-size: 70px;'>正确! </span>","null","","","","","","","","","","","","","","","","","","","","","","","feedback_test"
"","","","","","psychophysics","390","1271877","0.0-9.0-0.0-0.0-0.1-0.123","800","","f","","","","","","","","","","","","","key","f","16.669301886792418","727.2726819534961","450.85224463288995","f","true","img/S_ambi40.png","朋友","same",""
"","","","","","html-keyboard-response","391","1272392","0.0-9.0-0.0-0.0-0.1-1.123","null","<span style='color:GreenYellow; font-size: 70px;'>正确! </span>","null","","","","","","","","","","","","","","","","","","","","","","","feedback_test"
"","","","","","psychophysics","392","1273952","0.0-9.0-0.0-0.0-0.1-0.124","557","","f","","","","","","","","","","","","","key","f","16.669065217391346","727.2726819534961","450.85224463288995","f","true","img/T_ambi40.png","をる","same",""
"","","","","","html-keyboard-response","393","1274465","0.0-9.0-0.0-0.0-0.1-1.124","null","<span style='color:GreenYellow; font-size: 70px;'>正确! </span>","null","","","","","","","","","","","","","","","","","","","","","","","feedback_test"
"","","","","","psychophysics","394","1276326","0.0-9.0-0.0-0.0-0.1-0.125","853","","j","","","","","","","","","","","","","key","j","16.667441441442584","727.2726819534961","450.85224463288995","j","true","img/H_ambi40.png","朋友","same",""
"","","","","","html-keyboard-response","395","1276831","0.0-9.0-0.0-0.0-0.1-1.125","null","<span style='color:GreenYellow; font-size: 70px;'>正确! </span>","null","","","","","","","","","","","","","","","","","","","","","","","feedback_test"
"","","","","","psychophysics","396","1278545","0.0-9.0-0.0-0.0-0.1-0.126","711","","j","","","","","","","","","","","","","key","j","16.66889108911083","727.2726819534961","450.85224463288995","j","true","img/C_ambi40.png","自我","same",""
"","","","","","html-keyboard-response","397","1279054","0.0-9.0-0.0-0.0-0.1-1.126","null","<span style='color:GreenYellow; font-size: 70px;'>正确! </span>","null","","","","","","","","","","","","","","","","","","","","","","","feedback_test"
"","","","","","psychophysics","398","1281195","0.0-9.0-0.0-0.0-0.1-0.127","1138","","j","","","","","","","","","","","","","key","j","16.66905511811185","727.2726819534961","450.85224463288995","f","false","img/S_ambi40.png","朋友","same",""
"","","","","","html-keyboard-response","399","1281702","0.0-9.0-0.0-0.0-0.1-1.127","null","<span style='color:red; font-size: 70px;'>错误! </span>","null","","","","","","","","","","","","","","","","","","","","","","","feedback_test"
"","","","","","psychophysics","400","1283251","0.0-9.0-0.0-0.0-0.1-0.128","540","","j","","","","","","","","","","","","","key","j","16.670380434783116","727.2726819534961","450.85224463288995","j","true","img/C_ambi40.png","自我","same",""
"","","","","","html-keyboard-response","401","1283759","0.0-9.0-0.0-0.0-0.1-1.128","null","<span style='color:GreenYellow; font-size: 70px;'>正确! </span>","null","","","","","","","","","","","","","","","","","","","","","","","feedback_test"
"","","","","","psychophysics","402","1285407","0.0-9.0-0.0-0.0-0.1-0.129","638","","j","","","","","","","","","","","","","key","j","16.66939795918392","727.2726819534961","450.85224463288995","j","true","img/S_ambi40.png","生人","same",""
"","","","","","html-keyboard-response","403","1285910","0.0-9.0-0.0-0.0-0.1-1.129","null","<span style='color:GreenYellow; font-size: 70px;'>正确! </span>","null","","","","","","","","","","","","","","","","","","","","","","","feedback_test"
"","","","","","psychophysics","404","1287669","0.0-9.0-0.0-0.0-0.1-0.130","754","","j","","","","","","","","","","","","","key","j","16.669759615382645","727.2726819534961","450.85224463288995","j","true","img/H_ambi40.png","朋友","same",""
"","","","","","html-keyboard-response","405","1288185","0.0-9.0-0.0-0.0-0.1-1.130","null","<span style='color:GreenYellow; font-size: 70px;'>正确! </span>","null","","","","","","","","","","","","","","","","","","","","","","","feedback_test"
"","","","","","psychophysics","406","1289908","0.0-9.0-0.0-0.0-0.1-0.131","719","","j","","","","","","","","","","","","","key","j","16.6686699029117","727.2726819534961","450.85224463288995","j","true","img/S_ambi40.png","生人","same",""
"","","","","","html-keyboard-response","407","1290414","0.0-9.0-0.0-0.0-0.1-1.131","null","<span style='color:GreenYellow; font-size: 70px;'>正确! </span>","null","","","","","","","","","","","","","","","","","","","","","","","feedback_test"
"","","","","","psychophysics","408","1292205","0.0-9.0-0.0-0.0-0.1-0.132","774","","f","","","","","","","","","","","","","key","f","16.668622641510083","727.2726819534961","450.85224463288995","f","true","img/H_ambi40.png","自我","same",""
"","","","","","html-keyboard-response","409","1292715","0.0-9.0-0.0-0.0-0.1-1.132","null","<span style='color:GreenYellow; font-size: 70px;'>正确! </span>","null","","","","","","","","","","","","","","","","","","","","","","","feedback_test"
"","","","","","psychophysics","410","1294889","0.0-9.0-0.0-0.0-0.1-0.133","1166","","f","","","","","","","","","","","","","key","f","16.668860465116698","727.2726819534961","450.85224463288995","j","false","img/H_ambi40.png","朋友","same",""
"","","","","","html-keyboard-response","411","1295403","0.0-9.0-0.0-0.0-0.1-1.133","null","<span style='color:red; font-size: 70px;'>错误! </span>","null","","","","","","","","","","","","","","","","","","","","","","","feedback_test"
"","","","","","psychophysics","412","1297323","0.0-9.0-0.0-0.0-0.1-0.134","918","","f","","","","","","","","","","","","","key","f","16.66609649122856","727.2726819534961","450.85224463288995","f","true","img/C_ambi40.png","生人","same",""
"","","","","","html-keyboard-response","413","1297836","0.0-9.0-0.0-0.0-0.1-1.134","null","<span style='color:GreenYellow; font-size: 70px;'>正确! </span>","null","","","","","","","","","","","","","","","","","","","","","","","feedback_test"
"","","","","","psychophysics","414","1299319","0.0-9.0-0.0-0.0-0.1-0.135","472","","j","","","","","","","","","","","","","key","j","16.66601136363831","727.2726819534961","450.85224463288995","j","true","img/C_ambi40.png","自我","same",""
"","","","","","html-keyboard-response","415","1299823","0.0-9.0-0.0-0.0-0.1-1.135","null","<span style='color:GreenYellow; font-size: 70px;'>正确! </span>","null","","","","","","","","","","","","","","","","","","","","","","","feedback_test"
"","","","","","psychophysics","416","1301525","0.0-9.0-0.0-0.0-0.1-0.136","699","","j","","","","","","","","","","","","","key","j","16.668719999999738","727.2726819534961","450.85224463288995","j","true","img/S_ambi40.png","生人","same",""
