"success","timeout","failed_images","failed_audio","failed_video","trial_type","trial_index","time_elapsed","internal_node_id","rt","stimulus","response","value","item_width_mm","item_height_mm","item_width_px","px2mm","view_dist_mm","item_width_deg","px2deg","scale_factor","win_width_deg","win_height_deg","view_history","response_type","key_press","avg_frame_time","center_x","center_y","correct_response","correct","Image","word","condition","screen_id"
"true","false","[]","[]","[]","preload","0","6884","0.0-0.0","","","","","","","","","","","","","","","","","","","","","","","","","",""
"","","","","","html-keyboard-response","1","72128","0.0-1.0","65244","
     <p>您好，欢迎参加本次实验。</p>
     <p>为充分保障您的权利，请确保您已经知晓并同意《参与实验同意书》以及《数据公开知情同意书》。</p>
     <p>如果您未见过上述内容，请咨询实验员。</p>
     <p>如果您选择继续实验，则表示您已经清楚两份知情同意书的内容并同意。</p>
     <p> <div style = ""color: green""><按任意键至下页></div> </p>
     "," ","","","","","","","","","","","","","","","","","","","","","","",""
"","","","","","html-keyboard-response","2","73541","0.0-2.0","1413","
     <p>本实验首先需要您填写一些基本个人信息。</p>
     <p> <div style = ""color: green""><按任意键至下页></div></p>
     "," ","","","","","","","","","","","","","","","","","","","","","","",""
"","","","","","call-function","3","73542","0.0-3.0-0.0","","","","","","","","","","","","","","","","","","","","","","","","","",""
"","","","","","survey-html-form","4","78286","0.0-3.0-1.0","4733","","{""Q0"":""30""}","","","","","","","","","","","","","","","","","","","","","","",""
"","","","","","html-button-response","5","79235","0.0-3.0-2.0","947","<p style = 'color : white'>您的性别</p>","0","","","","","","","","","","","","","","","","","","","","","","",""
"","","","","","survey-html-form","6","84158","0.0-3.0-3.0","4922","","{""Q0"":""2002""}","","","","","","","","","","","","","","","","","","","","","","",""
"","","","","","survey-html-form","7","88118","0.0-3.0-4.0","3959","","{""Q0"":""5""}","","","","","","","","","","","","","","","","","","","","","","",""
"","","","","","virtual-chinrest","8","295315","0.0-4.0","207196","","","","85.6","53.98","393.10422102605486","4.588010908413681","622.84","7.862084420521098","50","0.9285069467005491","29.68","14.32","","","","","","","","","","","",""
"true","","","","","fullscreen","9","298231","0.0-5.0","","","","","","","","","","","","","","","","","","","","","","","","","",""
"","","","","","instructions","10","332090","0.0-6.0","33859","","","","","","","","","","","","","","[{""page_index"":0,""viewing_time"":8256},{""page_index"":1,""viewing_time"":16470},{""page_index"":2,""viewing_time"":4756},{""page_index"":3,""viewing_time"":4377}]","","","","","","","","","","",""
"","","","","","psychophysics","11","334594","0.0-7.0-0.0-0.0","null","","null","","","","","","","","","","","","","key","null","6.944843575419037","768","428","f","false","img/S_ambi40.png","朋友","prac",""
"","","","","","html-keyboard-response","12","335097","0.0-7.0-0.0-1.0","null","<span class='add_' style='color:yellow; font-size: 70px;'> 太慢! </span>","null","","","","","","","","","","","","","","","","","","","","","","","feedback_test"
"","","","","","psychophysics","13","336917","0.0-7.0-0.0-0.1","819","","j","","","","","","","","","","","","","key","j","6.944356321839132","768","428","j","true","img/H_ambi40.png","朋友","prac",""
"","","","","","html-keyboard-response","14","337418","0.0-7.0-0.0-1.1","null","<span style='color:GreenYellow; font-size: 70px;'>正确! </span>","null","","","","","","","","","","","","","","","","","","","","","","","feedback_test"
"","","","","","psychophysics","15","339219","0.0-7.0-0.0-0.2","799","","f","","","","","","","","","","","","","key","f","6.944585271317976","768","428","j","false","img/S_ambi40.png","生人","prac",""
"","","","","","html-keyboard-response","16","339719","0.0-7.0-0.0-1.2","null","<span style='color:red; font-size: 70px;'>错误! </span>","null","","","","","","","","","","","","","","","","","","","","","","","feedback_test"
"","","","","","psychophysics","17","341597","0.0-7.0-0.0-0.3","877","","f","","","","","","","","","","","","","key","f","6.944739776951708","768","428","f","true","img/H_ambi40.png","生人","prac",""
"","","","","","html-keyboard-response","18","342098","0.0-7.0-0.0-1.3","null","<span style='color:GreenYellow; font-size: 70px;'>正确! </span>","null","","","","","","","","","","","","","","","","","","","","","","","feedback_test"
"","","","","","psychophysics","19","343768","0.0-7.0-0.0-0.4","668","","j","","","","","","","","","","","","","key","j","6.94474058577408","768","428","f","false","img/C_ambi40.png","自我","prac",""
"","","","","","html-keyboard-response","20","344268","0.0-7.0-0.0-1.4","null","<span style='color:red; font-size: 70px;'>错误! </span>","null","","","","","","","","","","","","","","","","","","","","","","","feedback_test"
"","","","","","psychophysics","21","346321","0.0-7.0-0.0-0.5","1051","","f","","","","","","","","","","","","","key","f","6.944217687074751","768","428","j","false","img/S_ambi40.png","自我","prac",""
"","","","","","html-keyboard-response","22","346822","0.0-7.0-0.0-1.5","null","<span style='color:red; font-size: 70px;'>错误! </span>","null","","","","","","","","","","","","","","","","","","","","","","","feedback_test"
"","","","","","psychophysics","23","348847","0.0-7.0-0.0-0.6","1024","","f","","","","","","","","","","","","","key","f","6.9446013745704995","768","428","f","true","img/H_ambi40.png","生人","prac",""
"","","","","","html-keyboard-response","24","349348","0.0-7.0-0.0-1.6","null","<span style='color:GreenYellow; font-size: 70px;'>正确! </span>","null","","","","","","","","","","","","","","","","","","","","","","","feedback_test"
"","","","","","psychophysics","25","351430","0.0-7.0-0.0-0.7","1081","","j","","","","","","","","","","","","","key","j","6.944812709029941","768","428","f","false","img/T_ambi40.png","をる","prac",""
"","","","","","html-keyboard-response","26","351931","0.0-7.0-0.0-1.7","null","<span style='color:red; font-size: 70px;'>错误! </span>","null","","","","","","","","","","","","","","","","","","","","","","","feedback_test"
"","","","","","psychophysics","27","354433","0.0-7.0-0.0-0.8","null","","null","","","","","","","","","","","","","key","null","6.94455988857925","768","428","j","false","img/H_ambi40.png","自我","prac",""
"","","","","","html-keyboard-response","28","354935","0.0-7.0-0.0-1.8","null","<span class='add_' style='color:yellow; font-size: 70px;'> 太慢! </span>","null","","","","","","","","","","","","","","","","","","","","","","","feedback_test"
"","","","","","psychophysics","29","357004","0.0-7.0-0.0-0.9","1068","","j","","","","","","","","","","","","","key","j","6.94441554054061","768","428","f","false","img/T_ambi40.png","をる","prac",""
"","","","","","html-keyboard-response","30","357505","0.0-7.0-0.0-1.9","null","<span style='color:red; font-size: 70px;'>错误! </span>","null","","","","","","","","","","","","","","","","","","","","","","","feedback_test"
"","","","","","psychophysics","31","359027","0.0-7.0-0.0-0.10","521","","f","","","","","","","","","","","","","key","f","6.94467889908258","768","428","f","true","img/T_ambi40.png","をる","prac",""
"","","","","","html-keyboard-response","32","359528","0.0-7.0-0.0-1.10","null","<span style='color:GreenYellow; font-size: 70px;'>正确! </span>","null","","","","","","","","","","","","","","","","","","","","","","","feedback_test"
"","","","","","psychophysics","33","361376","0.0-7.0-0.0-0.11","845","","f","","","","","","","","","","","","","key","f","6.943962264151032","768","428","j","false","img/C_ambi40.png","生人","prac",""
"","","","","","html-keyboard-response","34","361877","0.0-7.0-0.0-1.11","null","<span style='color:red; font-size: 70px;'>错误! </span>","null","","","","","","","","","","","","","","","","","","","","","","","feedback_test"
"","","","","","psychophysics","35","363652","0.0-7.0-0.0-0.12","774","","f","","","","","","","","","","","","","key","f","6.944905882352945","768","428","f","true","img/T_ambi40.png","をる","prac",""
"","","","","","html-keyboard-response","36","364154","0.0-7.0-0.0-1.12","null","<span style='color:GreenYellow; font-size: 70px;'>正确! </span>","null","","","","","","","","","","","","","","","","","","","","","","","feedback_test"
"","","","","","psychophysics","37","365910","0.0-7.0-0.0-0.13","754","","j","","","","","","","","","","","","","key","j","6.944630952380803","768","428","j","true","img/C_ambi40.png","朋友","prac",""
"","","","","","html-keyboard-response","38","366412","0.0-7.0-0.0-1.13","null","<span style='color:GreenYellow; font-size: 70px;'>正确! </span>","null","","","","","","","","","","","","","","","","","","","","","","","feedback_test"
"","","","","","psychophysics","39","368388","0.0-7.0-0.0-0.14","974","","j","","","","","","","","","","","","","key","j","6.944588028168933","768","428","f","false","img/S_ambi40.png","朋友","prac",""
"","","","","","html-keyboard-response","40","368889","0.0-7.0-0.0-1.14","null","<span style='color:red; font-size: 70px;'>错误! </span>","null","","","","","","","","","","","","","","","","","","","","","","","feedback_test"
"","","","","","psychophysics","41","370757","0.0-7.0-0.0-0.15","867","","j","","","","","","","","","","","","","key","j","6.944873134328448","768","428","f","false","img/C_ambi40.png","自我","prac",""
"","","","","","html-keyboard-response","42","371258","0.0-7.0-0.0-1.15","null","<span style='color:red; font-size: 70px;'>错误! </span>","null","","","","","","","","","","","","","","","","","","","","","","","feedback_test"
"","","","","","psychophysics","43","373127","0.0-7.0-0.0-0.16","867","","f","","","","","","","","","","","","","key","f","6.94433208955226","768","428","f","true","img/T_ambi40.png","をる","prac",""
"","","","","","html-keyboard-response","44","373629","0.0-7.0-0.0-1.16","null","<span style='color:GreenYellow; font-size: 70px;'>正确! </span>","null","","","","","","","","","","","","","","","","","","","","","","","feedback_test"
"","","","","","psychophysics","45","375254","0.0-7.0-0.0-0.17","624","","f","","","","","","","","","","","","","key","f","6.941400862068835","768","428","f","true","img/T_ambi40.png","をる","prac",""
"","","","","","html-keyboard-response","46","375755","0.0-7.0-0.0-1.17","null","<span style='color:GreenYellow; font-size: 70px;'>正确! </span>","null","","","","","","","","","","","","","","","","","","","","","","","feedback_test"
"","","","","","psychophysics","47","377617","0.0-7.0-0.0-0.18","861","","f","","","","","","","","","","","","","key","f","6.944411985018711","768","428","j","false","img/H_ambi40.png","自我","prac",""
"","","","","","html-keyboard-response","48","378118","0.0-7.0-0.0-1.18","null","<span style='color:red; font-size: 70px;'>错误! </span>","null","","","","","","","","","","","","","","","","","","","","","","","feedback_test"
"","","","","","psychophysics","49","379809","0.0-7.0-0.0-0.19","689","","f","","","","","","","","","","","","","key","f","6.944648760330502","768","428","f","true","img/C_ambi40.png","自我","prac",""
"","","","","","html-keyboard-response","50","380310","0.0-7.0-0.0-1.19","null","<span style='color:GreenYellow; font-size: 70px;'>正确! </span>","null","","","","","","","","","","","","","","","","","","","","","","","feedback_test"
"","","","","","psychophysics","51","382223","0.0-7.0-0.0-0.20","913","","j","","","","","","","","","","","","","key","j","6.9416605839416565","768","428","j","true","img/C_ambi40.png","生人","prac",""
"","","","","","html-keyboard-response","52","382724","0.0-7.0-0.0-1.20","null","<span style='color:GreenYellow; font-size: 70px;'>正确! </span>","null","","","","","","","","","","","","","","","","","","","","","","","feedback_test"
"","","","","","psychophysics","53","384590","0.0-7.0-0.0-0.21","863","","f","","","","","","","","","","","","","key","f","6.944809701492439","768","428","f","true","img/S_ambi40.png","朋友","prac",""
"","","","","","html-keyboard-response","54","385092","0.0-7.0-0.0-1.21","null","<span style='color:GreenYellow; font-size: 70px;'>正确! </span>","null","","","","","","","","","","","","","","","","","","","","","","","feedback_test"
"","","","","","psychophysics","55","386940","0.0-7.0-0.0-0.22","846","","j","","","","","","","","","","","","","key","j","6.944649056603755","768","428","f","false","img/H_ambi40.png","生人","prac",""
"","","","","","html-keyboard-response","56","387440","0.0-7.0-0.0-1.22","null","<span style='color:red; font-size: 70px;'>错误! </span>","null","","","","","","","","","","","","","","","","","","","","","","","feedback_test"
"","","","","","psychophysics","57","389460","0.0-7.0-0.0-0.23","1018","","f","","","","","","","","","","","","","key","f","6.944337931034508","768","428","f","true","img/C_ambi40.png","自我","prac",""
"","","","","","html-keyboard-response","58","389962","0.0-7.0-0.0-1.23","null","<span style='color:GreenYellow; font-size: 70px;'>正确! </span>","null","","","","","","","","","","","","","","","","","","","","","","","feedback_test"
"","","","","","psychophysics","59","391710","0.0-7.0-0.0-0.24","747","","f","","","","","","","","","","","","","key","f","6.942796812748974","768","428","f","true","img/T_ambi40.png","をる","prac",""
"","","","","","html-keyboard-response","60","392211","0.0-7.0-0.0-1.24","null","<span style='color:GreenYellow; font-size: 70px;'>正确! </span>","null","","","","","","","","","","","","","","","","","","","","","","","feedback_test"
"","","","","","psychophysics","61","394365","0.0-7.0-0.0-0.25","1153","","j","","","","","","","","","","","","","key","j","6.944656957928724","768","428","j","true","img/S_ambi40.png","生人","prac",""
"","","","","","html-keyboard-response","62","394865","0.0-7.0-0.0-1.25","null","<span style='color:GreenYellow; font-size: 70px;'>正确! </span>","null","","","","","","","","","","","","","","","","","","","","","","","feedback_test"
"","","","","","psychophysics","63","397028","0.0-7.0-0.0-0.26","1162","","f","","","","","","","","","","","","","key","f","6.942619354838708","768","428","j","false","img/S_ambi40.png","自我","prac",""
"","","","","","html-keyboard-response","64","397529","0.0-7.0-0.0-1.26","null","<span style='color:red; font-size: 70px;'>错误! </span>","null","","","","","","","","","","","","","","","","","","","","","","","feedback_test"
"","","","","","psychophysics","65","399578","0.0-7.0-0.0-0.27","1048","","f","","","","","","","","","","","","","key","f","6.944663265306023","768","428","f","true","img/H_ambi40.png","生人","prac",""
"","","","","","html-keyboard-response","66","400079","0.0-7.0-0.0-1.27","null","<span style='color:GreenYellow; font-size: 70px;'>正确! </span>","null","","","","","","","","","","","","","","","","","","","","","","","feedback_test"
"","","","","","psychophysics","67","401678","0.0-7.0-0.0-0.28","597","","f","","","","","","","","","","","","","key","f","6.944414847161607","768","428","f","true","img/T_ambi40.png","をる","prac",""
"","","","","","html-keyboard-response","68","402179","0.0-7.0-0.0-1.28","null","<span style='color:GreenYellow; font-size: 70px;'>正确! </span>","null","","","","","","","","","","","","","","","","","","","","","","","feedback_test"
"","","","","","psychophysics","69","404026","0.0-7.0-0.0-0.29","846","","j","","","","","","","","","","","","","key","j","6.944666666666638","768","428","j","true","img/C_ambi40.png","朋友","prac",""
"","","","","","html-keyboard-response","70","404527","0.0-7.0-0.0-1.29","null","<span style='color:GreenYellow; font-size: 70px;'>正确! </span>","null","","","","","","","","","","","","","","","","","","","","","","","feedback_test"
"","","","","","psychophysics","71","406235","0.0-7.0-0.0-0.30","707","","j","","","","","","","","","","","","","key","j","6.944693877551068","768","428","j","true","img/H_ambi40.png","朋友","prac",""
"","","","","","html-keyboard-response","72","406737","0.0-7.0-0.0-1.30","null","<span style='color:GreenYellow; font-size: 70px;'>正确! </span>","null","","","","","","","","","","","","","","","","","","","","","","","feedback_test"
"","","","","","psychophysics","73","408641","0.0-7.0-0.0-0.31","902","","f","","","","","","","","","","","","","key","f","6.944699633699601","768","428","f","true","img/S_ambi40.png","朋友","prac",""
"","","","","","html-keyboard-response","74","409143","0.0-7.0-0.0-1.31","null","<span style='color:GreenYellow; font-size: 70px;'>正确! </span>","null","","","","","","","","","","","","","","","","","","","","","","","feedback_test"
"","","","","","html-keyboard-response","75","418513","0.0-7.0-1.0-0.0","9370","<style>.context{color:white; font-size: 35px; line-height:40px}</style>                          <div><p class='context'>您正确回答了59% 的试次。</p ><p class='context'>您的平均反应时为829毫秒。</p >"," ","","","","","","","","","","","","","","","","","","","","","","",""
"","","","","","instructions","76","468855","0.0-7.0-1.0-1.0","50340","","","","","","","","","","","","","","[{""page_index"":0,""viewing_time"":12336},{""page_index"":1,""viewing_time"":18752},{""page_index"":2,""viewing_time"":3565},{""page_index"":1,""viewing_time"":13406},{""page_index"":2,""viewing_time"":2281}]","","","","","","","","","","",""
"","","","","","psychophysics","77","470656","0.0-7.1-0.1-0.32","799","","j","","","","","","","","","","","","","key","j","6.945174418604805","768","428","f","false","img/H_ambi40.png","生人","prac",""
"","","","","","html-keyboard-response","78","471157","0.0-7.1-0.1-1.32","null","<span style='color:red; font-size: 70px;'>错误! </span>","null","","","","","","","","","","","","","","","","","","","","","","","feedback_test"
"","","","","","psychophysics","79","472925","0.0-7.1-0.1-0.33","767","","j","","","","","","","","","","","","","key","j","6.944712598425406","768","428","f","false","img/C_ambi40.png","自我","prac",""
"","","","","","html-keyboard-response","80","473428","0.0-7.1-0.1-1.33","null","<span style='color:red; font-size: 70px;'>错误! </span>","null","","","","","","","","","","","","","","","","","","","","","","","feedback_test"
"","","","","","psychophysics","81","475567","0.0-7.1-0.1-0.34","1137","","j","","","","","","","","","","","","","key","j","6.944583061889135","768","428","f","false","img/H_ambi40.png","生人","prac",""
"","","","","","html-keyboard-response","82","476068","0.0-7.1-0.1-1.34","null","<span style='color:red; font-size: 70px;'>错误! </span>","null","","","","","","","","","","","","","","","","","","","","","","","feedback_test"
"","","","","","psychophysics","83","477814","0.0-7.1-0.1-0.35","745","","f","","","","","","","","","","","","","key","f","6.941064000000013","768","428","f","true","img/C_ambi40.png","自我","prac",""
"","","","","","html-keyboard-response","84","478315","0.0-7.1-0.1-1.35","null","<span style='color:GreenYellow; font-size: 70px;'>正确! </span>","null","","","","","","","","","","","","","","","","","","","","","","","feedback_test"
"","","","","","psychophysics","85","479851","0.0-7.1-0.1-0.36","535","","f","","","","","","","","","","","","","key","f","6.944581818181905","768","428","f","true","img/S_ambi40.png","朋友","prac",""
"","","","","","html-keyboard-response","86","480352","0.0-7.1-0.1-1.36","null","<span style='color:GreenYellow; font-size: 70px;'>正确! </span>","null","","","","","","","","","","","","","","","","","","","","","","","feedback_test"
"","","","","","psychophysics","87","482261","0.0-7.1-0.1-0.37","908","","j","","","","","","","","","","","","","key","j","6.944821167883189","768","428","j","true","img/S_ambi40.png","自我","prac",""
"","","","","","html-keyboard-response","88","482762","0.0-7.1-0.1-1.37","null","<span style='color:GreenYellow; font-size: 70px;'>正确! </span>","null","","","","","","","","","","","","","","","","","","","","","","","feedback_test"
"","","","","","psychophysics","89","484417","0.0-7.1-0.1-0.38","654","","f","","","","","","","","","","","","","key","f","6.944194092827147","768","428","f","true","img/T_ambi40.png","をる","prac",""
"","","","","","html-keyboard-response","90","484920","0.0-7.1-0.1-1.38","null","<span style='color:GreenYellow; font-size: 70px;'>正确! </span>","null","","","","","","","","","","","","","","","","","","","","","","","feedback_test"
"","","","","","psychophysics","91","486679","0.0-7.1-0.1-0.39","757","","f","","","","","","","","","","","","","key","f","6.944793650793606","768","428","j","false","img/H_ambi40.png","朋友","prac",""
"","","","","","html-keyboard-response","92","487180","0.0-7.1-0.1-1.39","null","<span style='color:red; font-size: 70px;'>错误! </span>","null","","","","","","","","","","","","","","","","","","","","","","","feedback_test"
"","","","","","psychophysics","93","489078","0.0-7.1-0.1-0.40","897","","f","","","","","","","","","","","","","key","f","6.9448014705881445","768","428","j","false","img/H_ambi40.png","自我","prac",""
"","","","","","html-keyboard-response","94","489579","0.0-7.1-0.1-1.40","null","<span style='color:red; font-size: 70px;'>错误! </span>","null","","","","","","","","","","","","","","","","","","","","","","","feedback_test"
"","","","","","psychophysics","95","491159","0.0-7.1-0.1-0.41","579","","f","","","","","","","","","","","","","key","f","6.94499557522106","768","428","f","true","img/T_ambi40.png","をる","prac",""
"","","","","","html-keyboard-response","96","491660","0.0-7.1-0.1-1.41","null","<span style='color:GreenYellow; font-size: 70px;'>正确! </span>","null","","","","","","","","","","","","","","","","","","","","","","","feedback_test"
"","","","","","psychophysics","97","493294","0.0-7.1-0.1-0.42","632","","f","","","","","","","","","","","","","key","f","6.944632478632704","768","428","f","true","img/T_ambi40.png","をる","prac",""
"","","","","","html-keyboard-response","98","493795","0.0-7.1-0.1-1.42","null","<span style='color:GreenYellow; font-size: 70px;'>正确! </span>","null","","","","","","","","","","","","","","","","","","","","","","","feedback_test"
"","","","","","psychophysics","99","496023","0.0-7.1-0.1-0.43","1226","","j","","","","","","","","","","","","","key","j","6.944362499999988","768","428","j","true","img/C_ambi40.png","生人","prac",""
"","","","","","html-keyboard-response","100","496524","0.0-7.1-0.1-1.43","null","<span style='color:GreenYellow; font-size: 70px;'>正确! </span>","null","","","","","","","","","","","","","","","","","","","","","","","feedback_test"
"","","","","","psychophysics","101","498493","0.0-7.1-0.1-0.44","968","","f","","","","","","","","","","","","","key","f","6.94445390070905","768","428","j","false","img/S_ambi40.png","生人","prac",""
"","","","","","html-keyboard-response","102","498995","0.0-7.1-0.1-1.44","null","<span style='color:red; font-size: 70px;'>错误! </span>","null","","","","","","","","","","","","","","","","","","","","","","","feedback_test"
"","","","","","psychophysics","103","500932","0.0-7.1-0.1-0.45","935","","f","","","","","","","","","","","","","key","f","6.944665467625788","768","428","f","true","img/S_ambi40.png","朋友","prac",""
"","","","","","html-keyboard-response","104","501434","0.0-7.1-0.1-1.45","null","<span style='color:GreenYellow; font-size: 70px;'>正确! </span>","null","","","","","","","","","","","","","","","","","","","","","","","feedback_test"
"","","","","","psychophysics","105","503278","0.0-7.1-0.1-0.46","842","","f","","","","","","","","","","","","","key","f","6.944571969697074","768","428","j","false","img/C_ambi40.png","朋友","prac",""
"","","","","","html-keyboard-response","106","503780","0.0-7.1-0.1-1.46","null","<span style='color:red; font-size: 70px;'>错误! </span>","null","","","","","","","","","","","","","","","","","","","","","","","feedback_test"
"","","","","","psychophysics","107","505359","0.0-7.1-0.1-0.47","577","","f","","","","","","","","","","","","","key","f","6.9445796460178535","768","428","f","true","img/T_ambi40.png","をる","prac",""
"","","","","","html-keyboard-response","108","505861","0.0-7.1-0.1-1.47","null","<span style='color:GreenYellow; font-size: 70px;'>正确! </span>","null","","","","","","","","","","","","","","","","","","","","","","","feedback_test"
"","","","","","psychophysics","109","507530","0.0-7.1-0.1-0.48","668","","f","","","","","","","","","","","","","key","f","6.94345188284513","768","428","f","true","img/T_ambi40.png","をる","prac",""
"","","","","","html-keyboard-response","110","508031","0.0-7.1-0.1-1.48","null","<span style='color:GreenYellow; font-size: 70px;'>正确! </span>","null","","","","","","","","","","","","","","","","","","","","","","","feedback_test"
"","","","","","psychophysics","111","509951","0.0-7.1-0.1-0.49","918","","f","","","","","","","","","","","","","key","f","6.944639999999834","768","428","f","true","img/S_ambi40.png","朋友","prac",""
"","","","","","html-keyboard-response","112","510454","0.0-7.1-0.1-1.49","null","<span style='color:GreenYellow; font-size: 70px;'>正确! </span>","null","","","","","","","","","","","","","","","","","","","","","","","feedback_test"
"","","","","","psychophysics","113","512086","0.0-7.1-0.1-0.50","631","","f","","","","","","","","","","","","","key","f","6.944803418803554","768","428","f","true","img/S_ambi40.png","朋友","prac",""
"","","","","","html-keyboard-response","114","512587","0.0-7.1-0.1-1.50","null","<span style='color:GreenYellow; font-size: 70px;'>正确! </span>","null","","","","","","","","","","","","","","","","","","","","","","","feedback_test"
"","","","","","psychophysics","115","514411","0.0-7.1-0.1-0.51","823","","j","","","","","","","","","","","","","key","j","6.944370229007589","768","428","j","true","img/H_ambi40.png","朋友","prac",""
"","","","","","html-keyboard-response","116","514913","0.0-7.1-0.1-1.51","null","<span style='color:GreenYellow; font-size: 70px;'>正确! </span>","null","","","","","","","","","","","","","","","","","","","","","","","feedback_test"
"","","","","","psychophysics","117","516943","0.0-7.1-0.1-0.52","1028","","j","","","","","","","","","","","","","key","j","6.944735395189021","768","428","j","true","img/S_ambi40.png","生人","prac",""
"","","","","","html-keyboard-response","118","517444","0.0-7.1-0.1-1.52","null","<span style='color:GreenYellow; font-size: 70px;'>正确! </span>","null","","","","","","","","","","","","","","","","","","","","","","","feedback_test"
"","","","","","psychophysics","119","519582","0.0-7.1-0.1-0.53","1137","","j","","","","","","","","","","","","","key","j","6.941960784313695","768","428","j","true","img/H_ambi40.png","自我","prac",""
"","","","","","html-keyboard-response","120","520084","0.0-7.1-0.1-1.53","null","<span style='color:GreenYellow; font-size: 70px;'>正确! </span>","null","","","","","","","","","","","","","","","","","","","","","","","feedback_test"
"","","","","","psychophysics","121","521997","0.0-7.1-0.1-0.54","913","","f","","","","","","","","","","","","","key","f","6.944602189781008","768","428","f","true","img/C_ambi40.png","自我","prac",""
"","","","","","html-keyboard-response","122","522498","0.0-7.1-0.1-1.54","null","<span style='color:GreenYellow; font-size: 70px;'>正确! </span>","null","","","","","","","","","","","","","","","","","","","","","","","feedback_test"
"","","","","","psychophysics","123","524268","0.0-7.1-0.1-0.55","768","","j","","","","","","","","","","","","","key","j","6.944559055117901","768","428","j","true","img/C_ambi40.png","朋友","prac",""
"","","","","","html-keyboard-response","124","524769","0.0-7.1-0.1-1.55","null","<span style='color:GreenYellow; font-size: 70px;'>正确! </span>","null","","","","","","","","","","","","","","","","","","","","","","","feedback_test"
"","","","","","psychophysics","125","526777","0.0-7.1-0.1-0.56","1007","","j","","","","","","","","","","","","","key","j","6.944684027777839","768","428","j","true","img/S_ambi40.png","自我","prac",""
"","","","","","html-keyboard-response","126","527278","0.0-7.1-0.1-1.56","null","<span style='color:GreenYellow; font-size: 70px;'>正确! </span>","null","","","","","","","","","","","","","","","","","","","","","","","feedback_test"
"","","","","","psychophysics","127","529300","0.0-7.1-0.1-0.57","1022","","f","","","","","","","","","","","","","key","f","6.943555172413973","768","428","f","true","img/H_ambi40.png","生人","prac",""
"","","","","","html-keyboard-response","128","529801","0.0-7.1-0.1-1.57","null","<span style='color:GreenYellow; font-size: 70px;'>正确! </span>","null","","","","","","","","","","","","","","","","","","","","","","","feedback_test"
"","","","","","psychophysics","129","531386","0.0-7.1-0.1-0.58","584","","f","","","","","","","","","","","","","key","f","6.944581497797541","768","428","f","true","img/T_ambi40.png","をる","prac",""
"","","","","","html-keyboard-response","130","531887","0.0-7.1-0.1-1.58","null","<span style='color:GreenYellow; font-size: 70px;'>正确! </span>","null","","","","","","","","","","","","","","","","","","","","","","","feedback_test"
"","","","","","psychophysics","131","533511","0.0-7.1-0.1-0.59","622","","j","","","","","","","","","","","","","key","j","6.94448927038623","768","428","f","false","img/C_ambi40.png","自我","prac",""
"","","","","","html-keyboard-response","132","534012","0.0-7.1-0.1-1.59","null","<span style='color:red; font-size: 70px;'>错误! </span>","null","","","","","","","","","","","","","","","","","","","","","","","feedback_test"
"","","","","","psychophysics","133","535946","0.0-7.1-0.1-0.60","932","","j","","","","","","","","","","","","","key","j","6.944561151079096","768","428","j","true","img/C_ambi40.png","生人","prac",""
"","","","","","html-keyboard-response","134","536448","0.0-7.1-0.1-1.60","null","<span style='color:GreenYellow; font-size: 70px;'>正确! </span>","null","","","","","","","","","","","","","","","","","","","","","","","feedback_test"
"","","","","","psychophysics","135","538284","0.0-7.1-0.1-0.61","836","","f","","","","","","","","","","","","","key","f","6.944730038022952","768","428","f","true","img/H_ambi40.png","生人","prac",""
"","","","","","html-keyboard-response","136","538785","0.0-7.1-0.1-1.61","null","<span style='color:GreenYellow; font-size: 70px;'>正确! </span>","null","","","","","","","","","","","","","","","","","","","","","","","feedback_test"
"","","","","","psychophysics","137","540347","0.0-7.1-0.1-0.62","562","","f","","","","","","","","","","","","","key","f","6.94489237668166","768","428","f","true","img/T_ambi40.png","をる","prac",""
"","","","","","html-keyboard-response","138","540848","0.0-7.1-0.1-1.62","null","<span style='color:GreenYellow; font-size: 70px;'>正确! </span>","null","","","","","","","","","","","","","","","","","","","","","","","feedback_test"
"","","","","","psychophysics","139","542294","0.0-7.1-0.1-0.63","444","","f","","","","","","","","","","","","","key","f","6.944850241546047","768","428","f","true","img/T_ambi40.png","をる","prac",""
"","","","","","html-keyboard-response","140","542796","0.0-7.1-0.1-1.63","null","<span style='color:GreenYellow; font-size: 70px;'>正确! </span>","null","","","","","","","","","","","","","","","","","","","","","","","feedback_test"
"","","","","","html-keyboard-response","141","550410","0.0-8.0","7613","<style>.context{color:white; font-size: 35px; line-height:40px}</style>                          <div><p class='context'>您正确回答了75% 的试次。</p ><p class='context'>您的平均反应时为794毫秒。</p ><p class='context'>恭喜您完成练习。按任意键进入正式实验。</p ><p class='footer' style='font-size: 35px; line-height:40px;'>请在进入正式实验实验之前将您的<span style='color: lightgreen;'>食指</span>放在电脑键盘的相应键位上进行按键。</p >"," ","","","","","","","","","","","","","","","","","","","","","","",""
"","","","","","psychophysics","142","552378","0.0-9.0-0.0-0.0-0.0-0.0","963","","f","","","","","","","","","","","","","key","f","6.944329787233963","768","428","f","true","img/S_ambi40.png","朋友","same",""
"","","","","","html-keyboard-response","143","552880","0.0-9.0-0.0-0.0-0.0-1.0","null","<span style='color:GreenYellow; font-size: 70px;'>正确! </span>","null","","","","","","","","","","","","","","","","","","","","","","","feedback_test"
"","","","","","psychophysics","144","554456","0.0-9.0-0.0-0.0-0.0-0.1","575","","f","","","","","","","","","","","","","key","f","6.9446902654867255","768","428","f","true","img/H_ambi40.png","生人","same",""
"","","","","","html-keyboard-response","145","554958","0.0-9.0-0.0-0.0-0.0-1.1","null","<span style='color:GreenYellow; font-size: 70px;'>正确! </span>","null","","","","","","","","","","","","","","","","","","","","","","","feedback_test"
"","","","","","psychophysics","146","556510","0.0-9.0-0.0-0.0-0.0-0.2","551","","f","","","","","","","","","","","","","key","f","6.941081081080745","768","428","f","true","img/C_ambi40.png","自我","same",""
"","","","","","html-keyboard-response","147","557012","0.0-9.0-0.0-0.0-0.0-1.2","null","<span style='color:GreenYellow; font-size: 70px;'>正确! </span>","null","","","","","","","","","","","","","","","","","","","","","","","feedback_test"
"","","","","","psychophysics","148","558678","0.0-9.0-0.0-0.0-0.0-0.3","664","","j","","","","","","","","","","","","","key","j","6.944259414225758","768","428","j","true","img/H_ambi40.png","自我","same",""
"","","","","","html-keyboard-response","149","559178","0.0-9.0-0.0-0.0-0.0-1.3","null","<span style='color:GreenYellow; font-size: 70px;'>正确! </span>","null","","","","","","","","","","","","","","","","","","","","","","","feedback_test"
"","","","","","psychophysics","150","560989","0.0-9.0-0.0-0.0-0.0-0.4","809","","j","","","","","","","","","","","","","key","j","6.9445038461538315","768","428","j","true","img/C_ambi40.png","朋友","same",""
"","","","","","html-keyboard-response","151","561490","0.0-9.0-0.0-0.0-0.0-1.4","null","<span style='color:GreenYellow; font-size: 70px;'>正确! </span>","null","","","","","","","","","","","","","","","","","","","","","","","feedback_test"
"","","","","","psychophysics","152","563081","0.0-9.0-0.0-0.0-0.0-0.5","590","","f","","","","","","","","","","","","","key","f","6.944578947368682","768","428","f","true","img/T_ambi40.png","をる","same",""
"","","","","","html-keyboard-response","153","563583","0.0-9.0-0.0-0.0-0.0-1.5","null","<span style='color:GreenYellow; font-size: 70px;'>正确! </span>","null","","","","","","","","","","","","","","","","","","","","","","","feedback_test"
"","","","","","psychophysics","154","565843","0.0-9.0-0.0-0.0-0.0-0.6","1259","","j","","","","","","","","","","","","","key","j","6.944716923077089","768","428","j","true","img/S_ambi40.png","生人","same",""
"","","","","","html-keyboard-response","155","566346","0.0-9.0-0.0-0.0-0.0-1.6","null","<span style='color:GreenYellow; font-size: 70px;'>正确! </span>","null","","","","","","","","","","","","","","","","","","","","","","","feedback_test"
"","","","","","psychophysics","156","568010","0.0-9.0-0.0-0.0-0.0-0.7","663","","f","","","","","","","","","","","","","key","f","6.944740585774324","768","428","f","true","img/T_ambi40.png","をる","same",""
"","","","","","html-keyboard-response","157","568511","0.0-9.0-0.0-0.0-0.0-1.7","null","<span style='color:GreenYellow; font-size: 70px;'>正确! </span>","null","","","","","","","","","","","","","","","","","","","","","","","feedback_test"
"","","","","","psychophysics","158","570307","0.0-9.0-0.0-0.0-0.0-0.8","794","","f","","","","","","","","","","","","","key","f","6.944476744186227","768","428","f","true","img/T_ambi40.png","をる","same",""
"","","","","","html-keyboard-response","159","570808","0.0-9.0-0.0-0.0-0.0-1.8","null","<span style='color:GreenYellow; font-size: 70px;'>正确! </span>","null","","","","","","","","","","","","","","","","","","","","","","","feedback_test"
"","","","","","psychophysics","160","572515","0.0-9.0-0.0-0.0-0.0-0.9","705","","j","","","","","","","","","","","","","key","j","6.9445510204078404","768","428","j","true","img/S_ambi40.png","生人","same",""
"","","","","","html-keyboard-response","161","573017","0.0-9.0-0.0-0.0-0.0-1.9","null","<span style='color:GreenYellow; font-size: 70px;'>正确! </span>","null","","","","","","","","","","","","","","","","","","","","","","","feedback_test"
"","","","","","psychophysics","162","574859","0.0-9.0-0.0-0.0-0.0-0.10","841","","f","","","","","","","","","","","","","key","f","6.944624999999757","768","428","f","true","img/C_ambi40.png","自我","same",""
"","","","","","html-keyboard-response","163","575359","0.0-9.0-0.0-0.0-0.0-1.10","null","<span style='color:GreenYellow; font-size: 70px;'>正确! </span>","null","","","","","","","","","","","","","","","","","","","","","","","feedback_test"
"","","","","","psychophysics","164","577381","0.0-9.0-0.0-0.0-0.0-0.11","1020","","f","","","","","","","","","","","","","key","f","6.944634482758682","768","428","f","true","img/S_ambi40.png","朋友","same",""
"","","","","","html-keyboard-response","165","577882","0.0-9.0-0.0-0.0-0.0-1.11","null","<span style='color:GreenYellow; font-size: 70px;'>正确! </span>","null","","","","","","","","","","","","","","","","","","","","","","","feedback_test"
"","","","","","psychophysics","166","579758","0.0-9.0-0.0-0.0-0.0-0.12","875","","j","","","","","","","","","","","","","key","j","6.941843283582052","768","428","j","true","img/H_ambi40.png","自我","same",""
"","","","","","html-keyboard-response","167","580259","0.0-9.0-0.0-0.0-0.0-1.12","null","<span style='color:GreenYellow; font-size: 70px;'>正确! </span>","null","","","","","","","","","","","","","","","","","","","","","","","feedback_test"
"","","","","","psychophysics","168","582132","0.0-9.0-0.0-0.0-0.0-0.13","872","","j","","","","","","","","","","","","","key","j","6.944731343283453","768","428","j","true","img/C_ambi40.png","生人","same",""
"","","","","","html-keyboard-response","169","582633","0.0-9.0-0.0-0.0-0.0-1.13","null","<span style='color:GreenYellow; font-size: 70px;'>正确! </span>","null","","","","","","","","","","","","","","","","","","","","","","","feedback_test"
"","","","","","psychophysics","170","584715","0.0-9.0-0.0-0.0-0.0-0.14","1080","","j","","","","","","","","","","","","","key","j","6.944419463086973","768","428","j","true","img/C_ambi40.png","朋友","same",""
"","","","","","html-keyboard-response","171","585216","0.0-9.0-0.0-0.0-0.0-1.14","null","<span style='color:GreenYellow; font-size: 70px;'>正确! </span>","null","","","","","","","","","","","","","","","","","","","","","","","feedback_test"
"","","","","","psychophysics","172","587107","0.0-9.0-0.0-0.0-0.0-0.15","890","","j","","","","","","","","","","","","","key","j","6.944202952029362","768","428","j","true","img/S_ambi40.png","自我","same",""
"","","","","","html-keyboard-response","173","587608","0.0-9.0-0.0-0.0-0.0-1.15","null","<span style='color:GreenYellow; font-size: 70px;'>正确! </span>","null","","","","","","","","","","","","","","","","","","","","","","","feedback_test"
"","","","","","psychophysics","174","589351","0.0-9.0-0.0-0.0-0.0-0.16","741","","f","","","","","","","","","","","","","key","f","6.944648000000044","768","428","f","true","img/H_ambi40.png","生人","same",""
"","","","","","html-keyboard-response","175","589853","0.0-9.0-0.0-0.0-0.0-1.16","null","<span style='color:GreenYellow; font-size: 70px;'>正确! </span>","null","","","","","","","","","","","","","","","","","","","","","","","feedback_test"
"","","","","","psychophysics","176","591578","0.0-9.0-0.0-0.0-0.0-0.17","723","","j","","","","","","","","","","","","","key","j","6.944600806451373","768","428","j","true","img/H_ambi40.png","朋友","same",""
"","","","","","html-keyboard-response","177","592080","0.0-9.0-0.0-0.0-0.0-1.17","null","<span style='color:GreenYellow; font-size: 70px;'>正确! </span>","null","","","","","","","","","","","","","","","","","","","","","","","feedback_test"
"","","","","","psychophysics","178","593854","0.0-9.0-0.0-0.0-0.0-0.18","772","","f","","","","","","","","","","","","","key","f","6.9442834645673805","768","428","f","true","img/S_ambi40.png","朋友","same",""
"","","","","","html-keyboard-response","179","594354","0.0-9.0-0.0-0.0-0.0-1.18","null","<span style='color:GreenYellow; font-size: 70px;'>正确! </span>","null","","","","","","","","","","","","","","","","","","","","","","","feedback_test"
"","","","","","psychophysics","180","596116","0.0-9.0-0.0-0.0-0.0-0.19","761","","j","","","","","","","","","","","","","key","j","6.9407976190476415","768","428","f","false","img/C_ambi40.png","自我","same",""
"","","","","","html-keyboard-response","181","596617","0.0-9.0-0.0-0.0-0.0-1.19","null","<span style='color:red; font-size: 70px;'>错误! </span>","null","","","","","","","","","","","","","","","","","","","","","","","feedback_test"
"","","","","","psychophysics","182","598727","0.0-9.0-0.0-0.0-0.0-0.20","1108","","j","","","","","","","","","","","","","key","j","6.9445412541254","768","428","j","true","img/S_ambi40.png","生人","same",""
"","","","","","html-keyboard-response","183","599229","0.0-9.0-0.0-0.0-0.0-1.20","null","<span style='color:GreenYellow; font-size: 70px;'>正确! </span>","null","","","","","","","","","","","","","","","","","","","","","","","feedback_test"
"","","","","","psychophysics","184","601159","0.0-9.0-0.0-0.0-0.0-0.21","929","","j","","","","","","","","","","","","","key","j","6.944559566787148","768","428","j","true","img/C_ambi40.png","生人","same",""
"","","","","","html-keyboard-response","185","601660","0.0-9.0-0.0-0.0-0.0-1.21","null","<span style='color:GreenYellow; font-size: 70px;'>正确! </span>","null","","","","","","","","","","","","","","","","","","","","","","","feedback_test"
"","","","","","psychophysics","186","603539","0.0-9.0-0.0-0.0-0.0-0.22","878","","j","","","","","","","","","","","","","key","j","6.940836431226628","768","428","j","true","img/H_ambi40.png","朋友","same",""
"","","","","","html-keyboard-response","187","604040","0.0-9.0-0.0-0.0-0.0-1.22","null","<span style='color:GreenYellow; font-size: 70px;'>正确! </span>","null","","","","","","","","","","","","","","","","","","","","","","","feedback_test"
"","","","","","psychophysics","188","605911","0.0-9.0-0.0-0.0-0.0-0.23","869","","j","","","","","","","","","","","","","key","j","6.944537313432614","768","428","j","true","img/S_ambi40.png","生人","same",""
"","","","","","html-keyboard-response","189","606413","0.0-9.0-0.0-0.0-0.0-1.23","null","<span style='color:GreenYellow; font-size: 70px;'>正确! </span>","null","","","","","","","","","","","","","","","","","","","","","","","feedback_test"
"","","","","","psychophysics","190","608423","0.0-9.0-0.0-0.0-0.0-0.24","1008","","f","","","","","","","","","","","","","key","f","6.944663194444325","768","428","f","true","img/H_ambi40.png","生人","same",""
"","","","","","html-keyboard-response","191","608924","0.0-9.0-0.0-0.0-0.0-1.24","null","<span style='color:GreenYellow; font-size: 70px;'>正确! </span>","null","","","","","","","","","","","","","","","","","","","","","","","feedback_test"
"","","","","","psychophysics","192","610557","0.0-9.0-0.0-0.0-0.0-0.25","632","","f","","","","","","","","","","","","","key","f","6.944628205127978","768","428","f","true","img/T_ambi40.png","をる","same",""
"","","","","","html-keyboard-response","193","611059","0.0-9.0-0.0-0.0-0.0-1.25","null","<span style='color:GreenYellow; font-size: 70px;'>正确! </span>","null","","","","","","","","","","","","","","","","","","","","","","","feedback_test"
"","","","","","psychophysics","194","612692","0.0-9.0-0.0-0.0-0.0-0.26","632","","j","","","","","","","","","","","","","key","j","6.944611111111067","768","428","j","true","img/C_ambi40.png","朋友","same",""
"","","","","","html-keyboard-response","195","613193","0.0-9.0-0.0-0.0-0.0-1.26","null","<span style='color:GreenYellow; font-size: 70px;'>正确! </span>","null","","","","","","","","","","","","","","","","","","","","","","","feedback_test"
"","","","","","psychophysics","196","614726","0.0-9.0-0.0-0.0-0.0-0.27","532","","f","","","","","","","","","","","","","key","f","6.944459090908905","768","428","f","true","img/T_ambi40.png","をる","same",""
"","","","","","html-keyboard-response","197","615228","0.0-9.0-0.0-0.0-0.0-1.27","null","<span style='color:GreenYellow; font-size: 70px;'>正确! </span>","null","","","","","","","","","","","","","","","","","","","","","","","feedback_test"
"","","","","","psychophysics","198","616911","0.0-9.0-0.0-0.0-0.0-0.28","681","","j","","","","","","","","","","","","","key","j","6.944792531120119","768","428","j","true","img/H_ambi40.png","自我","same",""
"","","","","","html-keyboard-response","199","617413","0.0-9.0-0.0-0.0-0.0-1.28","null","<span style='color:GreenYellow; font-size: 70px;'>正确! </span>","null","","","","","","","","","","","","","","","","","","","","","","","feedback_test"
"","","","","","psychophysics","200","619211","0.0-9.0-0.0-0.0-0.0-0.29","797","","j","","","","","","","","","","","","","key","j","6.9447248062013305","768","428","j","true","img/S_ambi40.png","自我","same",""
"","","","","","html-keyboard-response","201","619714","0.0-9.0-0.0-0.0-0.0-1.29","null","<span style='color:GreenYellow; font-size: 70px;'>正确! </span>","null","","","","","","","","","","","","","","","","","","","","","","","feedback_test"
"","","","","","psychophysics","202","621515","0.0-9.0-0.0-0.0-0.0-0.30","799","","f","","","","","","","","","","","","","key","f","6.94453875968989","768","428","f","true","img/C_ambi40.png","自我","same",""
"","","","","","html-keyboard-response","203","622017","0.0-9.0-0.0-0.0-0.0-1.30","null","<span style='color:GreenYellow; font-size: 70px;'>正确! </span>","null","","","","","","","","","","","","","","","","","","","","","","","feedback_test"
"","","","","","psychophysics","204","623765","0.0-9.0-0.0-0.0-0.0-0.31","747","","j","","","","","","","","","","","","","key","j","6.944840000000316","768","428","j","true","img/C_ambi40.png","朋友","same",""
"","","","","","html-keyboard-response","205","624265","0.0-9.0-0.0-0.0-0.0-1.31","null","<span style='color:GreenYellow; font-size: 70px;'>正确! </span>","null","","","","","","","","","","","","","","","","","","","","","","","feedback_test"
"","","","","","psychophysics","206","626046","0.0-9.0-0.0-0.0-0.0-0.32","780","","j","","","","","","","","","","","","","key","j","6.944650980391923","768","428","j","true","img/H_ambi40.png","自我","same",""
"","","","","","html-keyboard-response","207","626547","0.0-9.0-0.0-0.0-0.0-1.32","null","<span style='color:GreenYellow; font-size: 70px;'>正确! </span>","null","","","","","","","","","","","","","","","","","","","","","","","feedback_test"
"","","","","","psychophysics","208","628116","0.0-9.0-0.0-0.0-0.0-0.33","568","","f","","","","","","","","","","","","","key","f","6.944484444444274","768","428","f","true","img/T_ambi40.png","をる","same",""
"","","","","","html-keyboard-response","209","628617","0.0-9.0-0.0-0.0-0.0-1.33","null","<span style='color:GreenYellow; font-size: 70px;'>正确! </span>","null","","","","","","","","","","","","","","","","","","","","","","","feedback_test"
"","","","","","psychophysics","210","630549","0.0-9.0-0.0-0.0-0.0-0.34","931","","f","","","","","","","","","","","","","key","f","6.944711191335942","768","428","f","true","img/S_ambi40.png","朋友","same",""
"","","","","","html-keyboard-response","211","631050","0.0-9.0-0.0-0.0-0.0-1.34","null","<span style='color:GreenYellow; font-size: 70px;'>正确! </span>","null","","","","","","","","","","","","","","","","","","","","","","","feedback_test"
"","","","","","psychophysics","212","633089","0.0-9.0-0.0-0.0-0.0-0.35","1039","","j","","","","","","","","","","","","","key","j","6.943592465753357","768","428","f","false","img/H_ambi40.png","生人","same",""
"","","","","","html-keyboard-response","213","633590","0.0-9.0-0.0-0.0-0.0-1.35","null","<span style='color:red; font-size: 70px;'>错误! </span>","null","","","","","","","","","","","","","","","","","","","","","","","feedback_test"
"","","","","","psychophysics","214","635163","0.0-9.0-0.0-0.0-0.0-0.36","570","","f","","","","","","","","","","","","","key","f","6.944831858407109","768","428","f","true","img/H_ambi40.png","生人","same",""
"","","","","","html-keyboard-response","215","635666","0.0-9.0-0.0-0.0-0.0-1.36","null","<span style='color:GreenYellow; font-size: 70px;'>正确! </span>","null","","","","","","","","","","","","","","","","","","","","","","","feedback_test"
"","","","","","psychophysics","216","637391","0.0-9.0-0.0-0.0-0.0-0.37","725","","j","","","","","","","","","","","","","key","j","6.9447044534410765","768","428","j","true","img/C_ambi40.png","生人","same",""
"","","","","","html-keyboard-response","217","637893","0.0-9.0-0.0-0.0-0.0-1.37","null","<span style='color:GreenYellow; font-size: 70px;'>正确! </span>","null","","","","","","","","","","","","","","","","","","","","","","","feedback_test"
"","","","","","psychophysics","218","639624","0.0-9.0-0.0-0.0-0.0-0.38","730","","f","","","","","","","","","","","","","key","f","6.944750000000274","768","428","f","true","img/H_ambi40.png","生人","same",""
"","","","","","html-keyboard-response","219","640126","0.0-9.0-0.0-0.0-0.0-1.38","null","<span style='color:GreenYellow; font-size: 70px;'>正确! </span>","null","","","","","","","","","","","","","","","","","","","","","","","feedback_test"
"","","","","","psychophysics","220","641935","0.0-9.0-0.0-0.0-0.0-0.39","808","","j","","","","","","","","","","","","","key","j","6.94200772200765","768","428","j","true","img/S_ambi40.png","生人","same",""
"","","","","","html-keyboard-response","221","642436","0.0-9.0-0.0-0.0-0.0-1.39","null","<span style='color:GreenYellow; font-size: 70px;'>正确! </span>","null","","","","","","","","","","","","","","","","","","","","","","","feedback_test"
"","","","","","psychophysics","222","644302","0.0-9.0-0.0-0.0-0.0-0.40","866","","j","","","","","","","","","","","","","key","j","6.944481343283307","768","428","j","true","img/H_ambi40.png","自我","same",""
"","","","","","html-keyboard-response","223","644805","0.0-9.0-0.0-0.0-0.0-1.40","null","<span style='color:GreenYellow; font-size: 70px;'>正确! </span>","null","","","","","","","","","","","","","","","","","","","","","","","feedback_test"
"","","","","","psychophysics","224","646879","0.0-9.0-0.0-0.0-0.0-0.41","1074","","j","","","","","","","","","","","","","key","j","6.944664429530232","768","428","j","true","img/C_ambi40.png","朋友","same",""
"","","","","","html-keyboard-response","225","647381","0.0-9.0-0.0-0.0-0.0-1.41","null","<span style='color:GreenYellow; font-size: 70px;'>正确! </span>","null","","","","","","","","","","","","","","","","","","","","","","","feedback_test"
"","","","","","psychophysics","226","648950","0.0-9.0-0.0-0.0-0.0-0.42","567","","f","","","","","","","","","","","","","key","f","6.94462222222187","768","428","f","true","img/T_ambi40.png","をる","same",""
"","","","","","html-keyboard-response","227","649452","0.0-9.0-0.0-0.0-0.0-1.42","null","<span style='color:GreenYellow; font-size: 70px;'>正确! </span>","null","","","","","","","","","","","","","","","","","","","","","","","feedback_test"
"","","","","","psychophysics","228","651133","0.0-9.0-0.0-0.0-0.0-0.43","680","","j","","","","","","","","","","","","","key","j","6.944626556016713","768","428","f","false","img/C_ambi40.png","自我","same",""
"","","","","","html-keyboard-response","229","651634","0.0-9.0-0.0-0.0-0.0-1.43","null","<span style='color:red; font-size: 70px;'>错误! </span>","null","","","","","","","","","","","","","","","","","","","","","","","feedback_test"
"","","","","","psychophysics","230","653364","0.0-9.0-0.0-0.0-0.0-0.44","729","","j","","","","","","","","","","","","","key","j","6.9445806451615","768","428","j","true","img/H_ambi40.png","自我","same",""
"","","","","","html-keyboard-response","231","653867","0.0-9.0-0.0-0.0-0.0-1.44","null","<span style='color:GreenYellow; font-size: 70px;'>正确! </span>","null","","","","","","","","","","","","","","","","","","","","","","","feedback_test"
"","","","","","psychophysics","232","655533","0.0-9.0-0.0-0.0-0.0-0.45","665","","f","","","","","","","","","","","","","key","f","6.944606694560907","768","428","f","true","img/S_ambi40.png","朋友","same",""
"","","","","","html-keyboard-response","233","656035","0.0-9.0-0.0-0.0-0.0-1.45","null","<span style='color:GreenYellow; font-size: 70px;'>正确! </span>","null","","","","","","","","","","","","","","","","","","","","","","","feedback_test"
"","","","","","psychophysics","234","657689","0.0-9.0-0.0-0.0-0.0-0.46","653","","f","","","","","","","","","","","","","key","f","6.944535864978825","768","428","f","true","img/S_ambi40.png","朋友","same",""
"","","","","","html-keyboard-response","235","658190","0.0-9.0-0.0-0.0-0.0-1.46","null","<span style='color:GreenYellow; font-size: 70px;'>正确! </span>","null","","","","","","","","","","","","","","","","","","","","","","","feedback_test"
"","","","","","psychophysics","236","660056","0.0-9.0-0.0-0.0-0.0-0.47","864","","j","","","","","","","","","","","","","key","j","6.944917602996056","768","428","j","true","img/S_ambi40.png","生人","same",""
"","","","","","html-keyboard-response","237","660557","0.0-9.0-0.0-0.0-0.0-1.47","null","<span style='color:GreenYellow; font-size: 70px;'>正确! </span>","null","","","","","","","","","","","","","","","","","","","","","","","feedback_test"
"","","","","","psychophysics","238","662145","0.0-9.0-0.0-0.0-0.0-0.48","587","","f","","","","","","","","","","","","","key","f","6.940255506607778","768","428","f","true","img/T_ambi40.png","をる","same",""
"","","","","","html-keyboard-response","239","662646","0.0-9.0-0.0-0.0-0.0-1.48","null","<span style='color:GreenYellow; font-size: 70px;'>正确! </span>","null","","","","","","","","","","","","","","","","","","","","","","","feedback_test"
"","","","","","psychophysics","240","664736","0.0-9.0-0.0-0.0-0.0-0.49","1089","","j","","","","","","","","","","","","","key","j","6.944529999999795","768","428","j","true","img/C_ambi40.png","朋友","same",""
"","","","","","html-keyboard-response","241","665237","0.0-9.0-0.0-0.0-0.0-1.49","null","<span style='color:GreenYellow; font-size: 70px;'>正确! </span>","null","","","","","","","","","","","","","","","","","","","","","","","feedback_test"
"","","","","","psychophysics","242","667084","0.0-9.0-0.0-0.0-0.0-0.50","846","","j","","","","","","","","","","","","","key","j","6.9420151515152995","768","428","j","true","img/S_ambi40.png","自我","same",""
"","","","","","html-keyboard-response","243","667586","0.0-9.0-0.0-0.0-0.0-1.50","null","<span style='color:GreenYellow; font-size: 70px;'>正确! </span>","null","","","","","","","","","","","","","","","","","","","","","","","feedback_test"
"","","","","","psychophysics","244","669134","0.0-9.0-0.0-0.0-0.0-0.51","547","","f","","","","","","","","","","","","","key","f","6.944235294117546","768","428","f","true","img/T_ambi40.png","をる","same",""
"","","","","","html-keyboard-response","245","669635","0.0-9.0-0.0-0.0-0.0-1.51","null","<span style='color:GreenYellow; font-size: 70px;'>正确! </span>","null","","","","","","","","","","","","","","","","","","","","","","","feedback_test"
"","","","","","psychophysics","246","671484","0.0-9.0-0.0-0.0-0.0-0.52","848","","j","","","","","","","","","","","","","key","j","6.944830188679263","768","428","j","true","img/H_ambi40.png","朋友","same",""
"","","","","","html-keyboard-response","247","671987","0.0-9.0-0.0-0.0-0.0-1.52","null","<span style='color:GreenYellow; font-size: 70px;'>正确! </span>","null","","","","","","","","","","","","","","","","","","","","","","","feedback_test"
"","","","","","psychophysics","248","673801","0.0-9.0-0.0-0.0-0.0-0.53","813","","f","","","","","","","","","","","","","key","f","6.944580769230827","768","428","f","true","img/C_ambi40.png","自我","same",""
"","","","","","html-keyboard-response","249","674302","0.0-9.0-0.0-0.0-0.0-1.53","null","<span style='color:GreenYellow; font-size: 70px;'>正确! </span>","null","","","","","","","","","","","","","","","","","","","","","","","feedback_test"
"","","","","","psychophysics","250","676022","0.0-9.0-0.0-0.0-0.0-0.54","718","","j","","","","","","","","","","","","","key","j","6.9445162601627","768","428","j","true","img/S_ambi40.png","生人","same",""
"","","","","","html-keyboard-response","251","676522","0.0-9.0-0.0-0.0-0.0-1.54","null","<span style='color:GreenYellow; font-size: 70px;'>正确! </span>","null","","","","","","","","","","","","","","","","","","","","","","","feedback_test"
"","","","","","psychophysics","252","678060","0.0-9.0-0.0-0.0-0.0-0.55","537","","f","","","","","","","","","","","","","key","f","6.944040909090968","768","428","f","true","img/T_ambi40.png","をる","same",""
"","","","","","html-keyboard-response","253","678561","0.0-9.0-0.0-0.0-0.0-1.55","null","<span style='color:GreenYellow; font-size: 70px;'>正确! </span>","null","","","","","","","","","","","","","","","","","","","","","","","feedback_test"
"","","","","","psychophysics","254","680226","0.0-9.0-0.0-0.0-0.0-0.56","664","","f","","","","","","","","","","","","","key","f","6.944238493724134","768","428","f","true","img/S_ambi40.png","朋友","same",""
"","","","","","html-keyboard-response","255","680728","0.0-9.0-0.0-0.0-0.0-1.56","null","<span style='color:GreenYellow; font-size: 70px;'>正确! </span>","null","","","","","","","","","","","","","","","","","","","","","","","feedback_test"
"","","","","","psychophysics","256","682292","0.0-9.0-0.0-0.0-0.0-0.57","562","","j","","","","","","","","","","","","","key","j","6.944736607142529","768","428","j","true","img/S_ambi40.png","生人","same",""
"","","","","","html-keyboard-response","257","682793","0.0-9.0-0.0-0.0-0.0-1.57","null","<span style='color:GreenYellow; font-size: 70px;'>正确! </span>","null","","","","","","","","","","","","","","","","","","","","","","","feedback_test"
"","","","","","psychophysics","258","684280","0.0-9.0-0.0-0.0-0.0-0.58","486","","f","","","","","","","","","","","","","key","f","6.944788732394322","768","428","f","true","img/T_ambi40.png","をる","same",""
"","","","","","html-keyboard-response","259","684781","0.0-9.0-0.0-0.0-0.0-1.58","null","<span style='color:GreenYellow; font-size: 70px;'>正确! </span>","null","","","","","","","","","","","","","","","","","","","","","","","feedback_test"
"","","","","","psychophysics","260","686614","0.0-9.0-0.0-0.0-0.0-0.59","832","","j","","","","","","","","","","","","","key","j","6.944631178707536","768","428","j","true","img/S_ambi40.png","自我","same",""
"","","","","","html-keyboard-response","261","687115","0.0-9.0-0.0-0.0-0.0-1.59","null","<span style='color:GreenYellow; font-size: 70px;'>正确! </span>","null","","","","","","","","","","","","","","","","","","","","","","","feedback_test"
"","","","","","psychophysics","262","688693","0.0-9.0-0.0-0.0-0.0-0.60","576","","f","","","","","","","","","","","","","key","f","6.944809734513282","768","428","f","true","img/S_ambi40.png","朋友","same",""
"","","","","","html-keyboard-response","263","689194","0.0-9.0-0.0-0.0-0.0-1.60","null","<span style='color:GreenYellow; font-size: 70px;'>正确! </span>","null","","","","","","","","","","","","","","","","","","","","","","","feedback_test"
"","","","","","psychophysics","264","690865","0.0-9.0-0.0-0.0-0.0-0.61","669","","j","","","","","","","","","","","","","key","j","6.9444458333334","768","428","j","true","img/H_ambi40.png","朋友","same",""
"","","","","","html-keyboard-response","265","691367","0.0-9.0-0.0-0.0-0.0-1.61","null","<span style='color:GreenYellow; font-size: 70px;'>正确! </span>","null","","","","","","","","","","","","","","","","","","","","","","","feedback_test"
"","","","","","psychophysics","266","693015","0.0-9.0-0.0-0.0-0.0-0.62","646","","f","","","","","","","","","","","","","key","f","6.9448093220338","768","428","j","false","img/C_ambi40.png","朋友","same",""
"","","","","","html-keyboard-response","267","693516","0.0-9.0-0.0-0.0-0.0-1.62","null","<span style='color:red; font-size: 70px;'>错误! </span>","null","","","","","","","","","","","","","","","","","","","","","","","feedback_test"
"","","","","","psychophysics","268","695299","0.0-9.0-0.0-0.0-0.0-0.63","782","","j","","","","","","","","","","","","","key","j","6.940521568627389","768","428","f","false","img/C_ambi40.png","自我","same",""
"","","","","","html-keyboard-response","269","695800","0.0-9.0-0.0-0.0-0.0-1.63","null","<span style='color:red; font-size: 70px;'>错误! </span>","null","","","","","","","","","","","","","","","","","","","","","","","feedback_test"
"","","","","","psychophysics","270","697487","0.0-9.0-0.0-0.0-0.0-0.64","686","","f","","","","","","","","","","","","","key","f","6.940157676348463","768","428","f","true","img/H_ambi40.png","生人","same",""
"","","","","","html-keyboard-response","271","697988","0.0-9.0-0.0-0.0-0.0-1.64","null","<span style='color:GreenYellow; font-size: 70px;'>正确! </span>","null","","","","","","","","","","","","","","","","","","","","","","","feedback_test"
"","","","","","psychophysics","272","699547","0.0-9.0-0.0-0.0-0.0-0.65","557","","j","","","","","","","","","","","","","key","j","6.944605381165907","768","428","j","true","img/C_ambi40.png","朋友","same",""
"","","","","","html-keyboard-response","273","700048","0.0-9.0-0.0-0.0-0.0-1.65","null","<span style='color:GreenYellow; font-size: 70px;'>正确! </span>","null","","","","","","","","","","","","","","","","","","","","","","","feedback_test"
"","","","","","psychophysics","274","701791","0.0-9.0-0.0-0.0-0.0-0.66","741","","f","","","","","","","","","","","","","key","f","6.944891999999992","768","428","f","true","img/C_ambi40.png","自我","same",""
"","","","","","html-keyboard-response","275","702292","0.0-9.0-0.0-0.0-0.0-1.66","null","<span style='color:GreenYellow; font-size: 70px;'>正确! </span>","null","","","","","","","","","","","","","","","","","","","","","","","feedback_test"
"","","","","","psychophysics","276","704352","0.0-9.0-0.0-0.0-0.0-0.67","1058","","f","","","","","","","","","","","","","key","f","6.944611486486424","768","428","f","true","img/H_ambi40.png","生人","same",""
"","","","","","html-keyboard-response","277","704853","0.0-9.0-0.0-0.0-0.0-1.67","null","<span style='color:GreenYellow; font-size: 70px;'>正确! </span>","null","","","","","","","","","","","","","","","","","","","","","","","feedback_test"
"","","","","","psychophysics","278","706434","0.0-9.0-0.0-0.0-0.0-0.68","580","","f","","","","","","","","","","","","","key","f","6.944533039647512","768","428","j","false","img/H_ambi40.png","自我","same",""
"","","","","","html-keyboard-response","279","706935","0.0-9.0-0.0-0.0-0.0-1.68","null","<span style='color:red; font-size: 70px;'>错误! </span>","null","","","","","","","","","","","","","","","","","","","","","","","feedback_test"
"","","","","","psychophysics","280","708680","0.0-9.0-0.0-0.0-0.0-0.69","744","","j","","","","","","","","","","","","","key","j","6.944675999999978","768","428","j","true","img/C_ambi40.png","生人","same",""
"","","","","","html-keyboard-response","281","709182","0.0-9.0-0.0-0.0-0.0-1.69","null","<span style='color:GreenYellow; font-size: 70px;'>正确! </span>","null","","","","","","","","","","","","","","","","","","","","","","","feedback_test"
"","","","","","psychophysics","282","710713","0.0-9.0-0.0-0.0-0.0-0.70","530","","f","","","","","","","","","","","","","key","f","6.94245662100477","768","428","f","true","img/T_ambi40.png","をる","same",""
"","","","","","html-keyboard-response","283","711215","0.0-9.0-0.0-0.0-0.0-1.70","null","<span style='color:GreenYellow; font-size: 70px;'>正确! </span>","null","","","","","","","","","","","","","","","","","","","","","","","feedback_test"
"","","","","","psychophysics","284","712925","0.0-9.0-0.0-0.0-0.0-0.71","709","","f","","","","","","","","","","","","","key","f","6.9445673469387526","768","428","j","false","img/H_ambi40.png","自我","same",""
"","","","","","html-keyboard-response","285","713426","0.0-9.0-0.0-0.0-0.0-1.71","null","<span style='color:red; font-size: 70px;'>错误! </span>","null","","","","","","","","","","","","","","","","","","","","","","","feedback_test"
"","","","","","psychophysics","286","715279","0.0-9.0-0.0-0.0-0.0-0.72","851","","j","","","","","","","","","","","","","key","j","6.944445283018615","768","428","j","true","img/C_ambi40.png","朋友","same",""
"","","","","","html-keyboard-response","287","715780","0.0-9.0-0.0-0.0-0.0-1.72","null","<span style='color:GreenYellow; font-size: 70px;'>正确! </span>","null","","","","","","","","","","","","","","","","","","","","","","","feedback_test"
"","","","","","psychophysics","288","717571","0.0-9.0-0.0-0.0-0.0-0.73","790","","j","","","","","","","","","","","","","key","j","6.943339843749982","768","428","j","true","img/C_ambi40.png","生人","same",""
"","","","","","html-keyboard-response","289","718072","0.0-9.0-0.0-0.0-0.0-1.73","null","<span style='color:GreenYellow; font-size: 70px;'>正确! </span>","null","","","","","","","","","","","","","","","","","","","","","","","feedback_test"
"","","","","","psychophysics","290","719890","0.0-9.0-0.0-0.0-0.0-0.74","818","","f","","","","","","","","","","","","","key","f","6.943803846153717","768","428","f","true","img/S_ambi40.png","朋友","same",""
"","","","","","html-keyboard-response","291","720391","0.0-9.0-0.0-0.0-0.0-1.74","null","<span style='color:GreenYellow; font-size: 70px;'>正确! </span>","null","","","","","","","","","","","","","","","","","","","","","","","feedback_test"
"","","","","","psychophysics","292","722121","0.0-9.0-0.0-0.0-0.0-0.75","729","","j","","","","","","","","","","","","","key","j","6.940801619433304","768","428","j","true","img/S_ambi40.png","生人","same",""
"","","","","","html-keyboard-response","293","722623","0.0-9.0-0.0-0.0-0.0-1.75","null","<span style='color:GreenYellow; font-size: 70px;'>正确! </span>","null","","","","","","","","","","","","","","","","","","","","","","","feedback_test"
"","","","","","psychophysics","294","724639","0.0-9.0-0.0-0.0-0.0-0.76","1014","","j","","","","","","","","","","","","","key","j","6.944570934256156","768","428","j","true","img/H_ambi40.png","自我","same",""
"","","","","","html-keyboard-response","295","725139","0.0-9.0-0.0-0.0-0.0-1.76","null","<span style='color:GreenYellow; font-size: 70px;'>正确! </span>","null","","","","","","","","","","","","","","","","","","","","","","","feedback_test"
"","","","","","psychophysics","296","726952","0.0-9.0-0.0-0.0-0.0-0.77","811","","f","","","","","","","","","","","","","key","f","6.944888461538805","768","428","f","true","img/H_ambi40.png","生人","same",""
"","","","","","html-keyboard-response","297","727454","0.0-9.0-0.0-0.0-0.0-1.77","null","<span style='color:GreenYellow; font-size: 70px;'>正确! </span>","null","","","","","","","","","","","","","","","","","","","","","","","feedback_test"
"","","","","","psychophysics","298","729058","0.0-9.0-0.0-0.0-0.0-0.78","604","","f","","","","","","","","","","","","","key","f","6.944733624454328","768","428","f","true","img/T_ambi40.png","をる","same",""
"","","","","","html-keyboard-response","299","729559","0.0-9.0-0.0-0.0-0.0-1.78","null","<span style='color:GreenYellow; font-size: 70px;'>正确! </span>","null","","","","","","","","","","","","","","","","","","","","","","","feedback_test"
"","","","","","psychophysics","300","731526","0.0-9.0-0.0-0.0-0.0-0.79","965","","j","","","","","","","","","","","","","key","j","6.944670212765947","768","428","j","true","img/H_ambi40.png","自我","same",""
"","","","","","html-keyboard-response","301","732027","0.0-9.0-0.0-0.0-0.0-1.79","null","<span style='color:GreenYellow; font-size: 70px;'>正确! </span>","null","","","","","","","","","","","","","","","","","","","","","","","feedback_test"
"","","","","","psychophysics","302","733695","0.0-9.0-0.0-0.0-0.0-0.80","667","","f","","","","","","","","","","","","","key","f","6.944460251046126","768","428","f","true","img/S_ambi40.png","朋友","same",""
"","","","","","html-keyboard-response","303","734197","0.0-9.0-0.0-0.0-0.0-1.80","null","<span style='color:GreenYellow; font-size: 70px;'>正确! </span>","null","","","","","","","","","","","","","","","","","","","","","","","feedback_test"
"","","","","","psychophysics","304","735805","0.0-9.0-0.0-0.0-0.0-0.81","607","","j","","","","","","","","","","","","","key","j","6.94459565217384","768","428","j","true","img/C_ambi40.png","朋友","same",""
"","","","","","html-keyboard-response","305","736307","0.0-9.0-0.0-0.0-0.0-1.81","null","<span style='color:GreenYellow; font-size: 70px;'>正确! </span>","null","","","","","","","","","","","","","","","","","","","","","","","feedback_test"
"","","","","","psychophysics","306","737840","0.0-9.0-0.0-0.0-0.0-0.82","531","","f","","","","","","","","","","","","","key","f","6.944490909091176","768","428","f","true","img/T_ambi40.png","をる","same",""
"","","","","","html-keyboard-response","307","738341","0.0-9.0-0.0-0.0-0.0-1.82","null","<span style='color:GreenYellow; font-size: 70px;'>正确! </span>","null","","","","","","","","","","","","","","","","","","","","","","","feedback_test"
"","","","","","psychophysics","308","740224","0.0-9.0-0.0-0.0-0.0-0.83","882","","j","","","","","","","","","","","","","key","j","6.944566666666436","768","428","j","true","img/H_ambi40.png","朋友","same",""
"","","","","","html-keyboard-response","309","740726","0.0-9.0-0.0-0.0-0.0-1.83","null","<span style='color:GreenYellow; font-size: 70px;'>正确! </span>","null","","","","","","","","","","","","","","","","","","","","","","","feedback_test"
"","","","","","psychophysics","310","742343","0.0-9.0-0.0-0.0-0.0-0.84","615","","f","","","","","","","","","","","","","key","f","6.944285714285734","768","428","f","true","img/C_ambi40.png","自我","same",""
"","","","","","html-keyboard-response","311","742844","0.0-9.0-0.0-0.0-0.0-1.84","null","<span style='color:GreenYellow; font-size: 70px;'>正确! </span>","null","","","","","","","","","","","","","","","","","","","","","","","feedback_test"
"","","","","","psychophysics","312","744567","0.0-9.0-0.0-0.0-0.0-0.85","721","","j","","","","","","","","","","","","","key","j","6.9445141700401845","768","428","j","true","img/S_ambi40.png","生人","same",""
"","","","","","html-keyboard-response","313","745069","0.0-9.0-0.0-0.0-0.0-1.85","null","<span style='color:GreenYellow; font-size: 70px;'>正确! </span>","null","","","","","","","","","","","","","","","","","","","","","","","feedback_test"
"","","","","","psychophysics","314","746857","0.0-9.0-0.0-0.0-0.0-0.86","787","","j","","","","","","","","","","","","","key","j","6.944804687499982","768","428","j","true","img/S_ambi40.png","自我","same",""
"","","","","","html-keyboard-response","315","747358","0.0-9.0-0.0-0.0-0.0-1.86","null","<span style='color:GreenYellow; font-size: 70px;'>正确! </span>","null","","","","","","","","","","","","","","","","","","","","","","","feedback_test"
"","","","","","psychophysics","316","749333","0.0-9.0-0.0-0.0-0.0-0.87","974","","f","","","","","","","","","","","","","key","f","6.944575971731663","768","428","f","true","img/C_ambi40.png","自我","same",""
"","","","","","html-keyboard-response","317","749834","0.0-9.0-0.0-0.0-0.0-1.87","null","<span style='color:GreenYellow; font-size: 70px;'>正确! </span>","null","","","","","","","","","","","","","","","","","","","","","","","feedback_test"
"","","","","","psychophysics","318","751359","0.0-9.0-0.0-0.0-0.0-0.88","523","","f","","","","","","","","","","","","","key","f","6.944780821917838","768","428","f","true","img/T_ambi40.png","をる","same",""
"","","","","","html-keyboard-response","319","751861","0.0-9.0-0.0-0.0-0.0-1.88","null","<span style='color:GreenYellow; font-size: 70px;'>正确! </span>","null","","","","","","","","","","","","","","","","","","","","","","","feedback_test"
"","","","","","psychophysics","320","753502","0.0-9.0-0.0-0.0-0.0-0.89","639","","j","","","","","","","","","","","","","key","j","6.944634042552949","768","428","f","false","img/H_ambi40.png","生人","same",""
"","","","","","html-keyboard-response","321","754003","0.0-9.0-0.0-0.0-0.0-1.89","null","<span style='color:red; font-size: 70px;'>错误! </span>","null","","","","","","","","","","","","","","","","","","","","","","","feedback_test"
"","","","","","psychophysics","322","755775","0.0-9.0-0.0-0.0-0.0-0.90","770","","f","","","","","","","","","","","","","key","f","6.944405511810855","768","428","f","true","img/H_ambi40.png","生人","same",""
"","","","","","html-keyboard-response","323","756277","0.0-9.0-0.0-0.0-0.0-1.90","null","<span style='color:GreenYellow; font-size: 70px;'>正确! </span>","null","","","","","","","","","","","","","","","","","","","","","","","feedback_test"
"","","","","","psychophysics","324","758152","0.0-9.0-0.0-0.0-0.0-0.91","873","","j","","","","","","","","","","","","","key","j","6.94482527881061","768","428","j","true","img/H_ambi40.png","自我","same",""
"","","","","","html-keyboard-response","325","758653","0.0-9.0-0.0-0.0-0.0-1.91","null","<span style='color:GreenYellow; font-size: 70px;'>正确! </span>","null","","","","","","","","","","","","","","","","","","","","","","","feedback_test"
"","","","","","psychophysics","326","760486","0.0-9.0-0.0-0.0-0.0-0.92","832","","f","","","","","","","","","","","","","key","f","6.944604562737576","768","428","f","true","img/C_ambi40.png","自我","same",""
"","","","","","html-keyboard-response","327","760987","0.0-9.0-0.0-0.0-0.0-1.92","null","<span style='color:GreenYellow; font-size: 70px;'>正确! </span>","null","","","","","","","","","","","","","","","","","","","","","","","feedback_test"
"","","","","","psychophysics","328","762661","0.0-9.0-0.0-0.0-0.0-0.93","672","","j","","","","","","","","","","","","","key","j","6.944841666666616","768","428","f","false","img/H_ambi40.png","生人","same",""
"","","","","","html-keyboard-response","329","763161","0.0-9.0-0.0-0.0-0.0-1.93","null","<span style='color:red; font-size: 70px;'>错误! </span>","null","","","","","","","","","","","","","","","","","","","","","","","feedback_test"
"","","","","","psychophysics","330","764932","0.0-9.0-0.0-0.0-0.0-0.94","769","","j","","","","","","","","","","","","","key","j","6.945059055118275","768","428","j","true","img/C_ambi40.png","朋友","same",""
"","","","","","html-keyboard-response","331","765433","0.0-9.0-0.0-0.0-0.0-1.94","null","<span style='color:GreenYellow; font-size: 70px;'>正确! </span>","null","","","","","","","","","","","","","","","","","","","","","","","feedback_test"
"","","","","","psychophysics","332","767507","0.0-9.0-0.0-0.0-0.0-0.95","1073","","j","","","","","","","","","","","","","key","j","6.941555555555922","768","428","j","true","img/H_ambi40.png","朋友","same",""
"","","","","","html-keyboard-response","333","768008","0.0-9.0-0.0-0.0-0.0-1.95","null","<span style='color:GreenYellow; font-size: 70px;'>正确! </span>","null","","","","","","","","","","","","","","","","","","","","","","","feedback_test"
"","","","","","psychophysics","334","769905","0.0-9.0-0.0-0.0-0.0-0.96","897","","j","","","","","","","","","","","","","key","j","6.944595588235054","768","428","j","true","img/S_ambi40.png","生人","same",""
"","","","","","html-keyboard-response","335","770407","0.0-9.0-0.0-0.0-0.0-1.96","null","<span style='color:GreenYellow; font-size: 70px;'>正确! </span>","null","","","","","","","","","","","","","","","","","","","","","","","feedback_test"
"","","","","","psychophysics","336","772071","0.0-9.0-0.0-0.0-0.0-0.97","662","","f","","","","","","","","","","","","","key","f","6.944668067226914","768","428","f","true","img/S_ambi40.png","朋友","same",""
"","","","","","html-keyboard-response","337","772572","0.0-9.0-0.0-0.0-0.0-1.97","null","<span style='color:GreenYellow; font-size: 70px;'>正确! </span>","null","","","","","","","","","","","","","","","","","","","","","","","feedback_test"
"","","","","","psychophysics","338","774407","0.0-9.0-0.0-0.0-0.0-0.98","834","","f","","","","","","","","","","","","","key","f","6.944133079848022","768","428","f","true","img/C_ambi40.png","自我","same",""
"","","","","","html-keyboard-response","339","774908","0.0-9.0-0.0-0.0-0.0-1.98","null","<span style='color:GreenYellow; font-size: 70px;'>正确! </span>","null","","","","","","","","","","","","","","","","","","","","","","","feedback_test"
"","","","","","psychophysics","340","776740","0.0-9.0-0.0-0.0-0.0-0.99","831","","j","","","","","","","","","","","","","key","j","6.94454752851699","768","428","j","true","img/S_ambi40.png","自我","same",""
"","","","","","html-keyboard-response","341","777241","0.0-9.0-0.0-0.0-0.0-1.99","null","<span style='color:GreenYellow; font-size: 70px;'>正确! </span>","null","","","","","","","","","","","","","","","","","","","","","","","feedback_test"
"","","","","","psychophysics","342","778849","0.0-9.0-0.0-0.0-0.0-0.100","607","","f","","","","","","","","","","","","","key","f","6.944091304347587","768","428","f","true","img/T_ambi40.png","をる","same",""
"","","","","","html-keyboard-response","343","779350","0.0-9.0-0.0-0.0-0.0-1.100","null","<span style='color:GreenYellow; font-size: 70px;'>正确! </span>","null","","","","","","","","","","","","","","","","","","","","","","","feedback_test"
"","","","","","psychophysics","344","781634","0.0-9.0-0.0-0.0-0.0-0.101","1284","","j","","","","","","","","","","","","","key","j","6.941978593272177","768","428","j","true","img/H_ambi40.png","自我","same",""
"","","","","","html-keyboard-response","345","782135","0.0-9.0-0.0-0.0-0.0-1.101","null","<span style='color:GreenYellow; font-size: 70px;'>正确! </span>","null","","","","","","","","","","","","","","","","","","","","","","","feedback_test"
"","","","","","psychophysics","346","783917","0.0-9.0-0.0-0.0-0.0-0.102","781","","j","","","","","","","","","","","","","key","j","6.944623529411596","768","428","j","true","img/S_ambi40.png","生人","same",""
"","","","","","html-keyboard-response","347","784418","0.0-9.0-0.0-0.0-0.0-1.102","null","<span style='color:GreenYellow; font-size: 70px;'>正确! </span>","null","","","","","","","","","","","","","","","","","","","","","","","feedback_test"
"","","","","","psychophysics","348","785978","0.0-9.0-0.0-0.0-0.0-0.103","558","","j","","","","","","","","","","","","","key","j","6.944598214285569","768","428","f","false","img/T_ambi40.png","をる","same",""
"","","","","","html-keyboard-response","349","786481","0.0-9.0-0.0-0.0-0.0-1.103","null","<span style='color:red; font-size: 70px;'>错误! </span>","null","","","","","","","","","","","","","","","","","","","","","","","feedback_test"
"","","","","","psychophysics","350","788515","0.0-9.0-0.0-0.0-0.0-0.104","1032","","j","","","","","","","","","","","","","key","j","6.944643835616473","768","428","j","true","img/C_ambi40.png","生人","same",""
"","","","","","html-keyboard-response","351","789016","0.0-9.0-0.0-0.0-0.0-1.104","null","<span style='color:GreenYellow; font-size: 70px;'>正确! </span>","null","","","","","","","","","","","","","","","","","","","","","","","feedback_test"
"","","","","","psychophysics","352","790627","0.0-9.0-0.0-0.0-0.0-0.105","610","","f","","","","","","","","","","","","","key","f","6.944632034631874","768","428","f","true","img/S_ambi40.png","朋友","same",""
"","","","","","html-keyboard-response","353","791127","0.0-9.0-0.0-0.0-0.0-1.105","null","<span style='color:GreenYellow; font-size: 70px;'>正确! </span>","null","","","","","","","","","","","","","","","","","","","","","","","feedback_test"
"","","","","","psychophysics","354","792904","0.0-9.0-0.0-0.0-0.0-0.106","775","","j","","","","","","","","","","","","","key","j","6.944657480314843","768","428","j","true","img/C_ambi40.png","朋友","same",""
"","","","","","html-keyboard-response","355","793406","0.0-9.0-0.0-0.0-0.0-1.106","null","<span style='color:GreenYellow; font-size: 70px;'>正确! </span>","null","","","","","","","","","","","","","","","","","","","","","","","feedback_test"
"","","","","","psychophysics","356","794973","0.0-9.0-0.0-0.0-0.0-0.107","566","","f","","","","","","","","","","","","","key","f","6.940374999999871","768","428","f","true","img/T_ambi40.png","をる","same",""
"","","","","","html-keyboard-response","357","795474","0.0-9.0-0.0-0.0-0.0-1.107","null","<span style='color:GreenYellow; font-size: 70px;'>正确! </span>","null","","","","","","","","","","","","","","","","","","","","","","","feedback_test"
"","","","","","html-keyboard-response","358","800734","0.0-9.0-0.0-0.0-1.0","5259","<style>.context{color:white; font-size: 35px; line-height:40px}</style>                          <div><p class='context'>您正确回答了91% 的试次。</p><p class='context'>您的平均反应时为772毫秒。</p><p class='context'>请按任意键进入休息</p></div>"," ","","","","","","","","","","","","","","","","","","","","","","",""
"","","","","","html-button-response","359","861534","0.0-9.0-0.0-0.0-2.0","60798","
                    <p>您当前还剩余5组实验</p>
                    <p>现在是休息时间，当您结束休息后，您可以点击 结束休息 按钮 继续</p>
                    <p>建议休息时间还剩余<span id=""iii"">60</span>秒</p>","0","","","","","","","","","","","","","","","","","","","","","","",""
"","","","","","psychophysics","360","864037","0.0-9.0-0.0-0.0-0.1-0.108","null","","null","","","","","","","","","","","","","key","null","6.944596100278837","768","428","f","false","img/S_ambi40.png","朋友","same",""
"","","","","","html-keyboard-response","361","864538","0.0-9.0-0.0-0.0-0.1-1.108","null","<span class='add_' style='color:yellow; font-size: 70px;'> 太慢! </span>","null","","","","","","","","","","","","","","","","","","","","","","","feedback_test"
"","","","","","psychophysics","362","866164","0.0-9.0-0.0-0.0-0.1-0.109","624","","f","","","","","","","","","","","","","key","f","6.945137339055562","768","428","f","true","img/T_ambi40.png","をる","same",""
"","","","","","html-keyboard-response","363","866666","0.0-9.0-0.0-0.0-0.1-1.109","null","<span style='color:GreenYellow; font-size: 70px;'>正确! </span>","null","","","","","","","","","","","","","","","","","","","","","","","feedback_test"
"","","","","","psychophysics","364","868761","0.0-9.0-0.0-0.0-0.1-0.110","1094","","j","","","","","","","","","","","","","key","j","6.944340000000084","768","428","j","true","img/H_ambi40.png","自我","same",""
"","","","","","html-keyboard-response","365","869262","0.0-9.0-0.0-0.0-0.1-1.110","null","<span style='color:GreenYellow; font-size: 70px;'>正确! </span>","null","","","","","","","","","","","","","","","","","","","","","","","feedback_test"
"","","","","","psychophysics","366","871030","0.0-9.0-0.0-0.0-0.1-0.111","768","","j","","","","","","","","","","","","","key","j","6.944478260869484","768","428","j","true","img/S_ambi40.png","生人","same",""
"","","","","","html-keyboard-response","367","871531","0.0-9.0-0.0-0.0-0.1-1.111","null","<span style='color:GreenYellow; font-size: 70px;'>正确! </span>","null","","","","","","","","","","","","","","","","","","","","","","","feedback_test"
"","","","","","psychophysics","368","873491","0.0-9.0-0.0-0.0-0.1-0.112","958","","f","","","","","","","","","","","","","key","f","6.9445124555162066","768","428","j","false","img/H_ambi40.png","自我","same",""
"","","","","","html-keyboard-response","369","873992","0.0-9.0-0.0-0.0-0.1-1.112","null","<span style='color:red; font-size: 70px;'>错误! </span>","null","","","","","","","","","","","","","","","","","","","","","","","feedback_test"
"","","","","","psychophysics","370","875538","0.0-9.0-0.0-0.0-0.1-0.113","545","","f","","","","","","","","","","","","","key","f","6.944520361990693","768","428","f","true","img/T_ambi40.png","をる","same",""
"","","","","","html-keyboard-response","371","876039","0.0-9.0-0.0-0.0-0.1-1.113","null","<span style='color:GreenYellow; font-size: 70px;'>正确! </span>","null","","","","","","","","","","","","","","","","","","","","","","","feedback_test"
"","","","","","psychophysics","372","877520","0.0-9.0-0.0-0.0-0.1-0.114","480","","f","","","","","","","","","","","","","key","f","6.9446179245286705","768","428","f","true","img/T_ambi40.png","をる","same",""
"","","","","","html-keyboard-response","373","878022","0.0-9.0-0.0-0.0-0.1-1.114","null","<span style='color:GreenYellow; font-size: 70px;'>正确! </span>","null","","","","","","","","","","","","","","","","","","","","","","","feedback_test"
"","","","","","psychophysics","374","879842","0.0-9.0-0.0-0.0-0.1-0.115","818","","j","","","","","","","","","","","","","key","j","6.9447203065131315","768","428","f","false","img/C_ambi40.png","自我","same",""
"","","","","","html-keyboard-response","375","880342","0.0-9.0-0.0-0.0-0.1-1.115","null","<span style='color:red; font-size: 70px;'>错误! </span>","null","","","","","","","","","","","","","","","","","","","","","","","feedback_test"
"","","","","","psychophysics","376","882260","0.0-9.0-0.0-0.0-0.1-0.116","917","","f","","","","","","","","","","","","","key","f","6.944643636363643","768","428","f","true","img/H_ambi40.png","生人","same",""
"","","","","","html-keyboard-response","377","882761","0.0-9.0-0.0-0.0-0.1-1.116","null","<span style='color:GreenYellow; font-size: 70px;'>正确! </span>","null","","","","","","","","","","","","","","","","","","","","","","","feedback_test"
"","","","","","psychophysics","378","884882","0.0-9.0-0.0-0.0-0.1-0.117","1120","","j","","","","","","","","","","","","","key","j","6.94394736842093","768","428","j","true","img/S_ambi40.png","生人","same",""
"","","","","","html-keyboard-response","379","885384","0.0-9.0-0.0-0.0-0.1-1.117","null","<span style='color:GreenYellow; font-size: 70px;'>正确! </span>","null","","","","","","","","","","","","","","","","","","","","","","","feedback_test"
"","","","","","psychophysics","380","887092","0.0-9.0-0.0-0.0-0.1-0.118","708","","f","","","","","","","","","","","","","key","f","6.944853061224258","768","428","f","true","img/H_ambi40.png","生人","same",""
"","","","","","html-keyboard-response","381","887593","0.0-9.0-0.0-0.0-0.1-1.118","null","<span style='color:GreenYellow; font-size: 70px;'>正确! </span>","null","","","","","","","","","","","","","","","","","","","","","","","feedback_test"
"","","","","","psychophysics","382","889318","0.0-9.0-0.0-0.0-0.1-0.119","724","","j","","","","","","","","","","","","","key","j","6.944794354838743","768","428","j","true","img/C_ambi40.png","朋友","same",""
"","","","","","html-keyboard-response","383","889819","0.0-9.0-0.0-0.0-0.1-1.119","null","<span style='color:GreenYellow; font-size: 70px;'>正确! </span>","null","","","","","","","","","","","","","","","","","","","","","","","feedback_test"
"","","","","","psychophysics","384","891981","0.0-9.0-0.0-0.0-0.1-0.120","1159","","j","","","","","","","","","","","","","key","j","6.944845161290329","768","428","j","true","img/S_ambi40.png","自我","same",""
"","","","","","html-keyboard-response","385","892481","0.0-9.0-0.0-0.0-0.1-1.120","null","<span style='color:GreenYellow; font-size: 70px;'>正确! </span>","null","","","","","","","","","","","","","","","","","","","","","","","feedback_test"
"","","","","","psychophysics","386","894367","0.0-9.0-0.0-0.0-0.1-0.121","884","","j","","","","","","","","","","","","","key","j","6.944472324723426","768","428","j","true","img/C_ambi40.png","生人","same",""
"","","","","","html-keyboard-response","387","894867","0.0-9.0-0.0-0.0-0.1-1.121","null","<span style='color:GreenYellow; font-size: 70px;'>正确! </span>","null","","","","","","","","","","","","","","","","","","","","","","","feedback_test"
"","","","","","psychophysics","388","896973","0.0-9.0-0.0-0.0-0.1-0.122","1104","","j","","","","","","","","","","","","","key","j","6.94490397350966","768","428","j","true","img/C_ambi40.png","朋友","same",""
"","","","","","html-keyboard-response","389","897474","0.0-9.0-0.0-0.0-0.1-1.122","null","<span style='color:GreenYellow; font-size: 70px;'>正确! </span>","null","","","","","","","","","","","","","","","","","","","","","","","feedback_test"
"","","","","","psychophysics","390","899239","0.0-9.0-0.0-0.0-0.1-0.123","764","","j","","","","","","","","","","","","","key","j","6.944612648221204","768","428","f","false","img/C_ambi40.png","自我","same",""
"","","","","","html-keyboard-response","391","899740","0.0-9.0-0.0-0.0-0.1-1.123","null","<span style='color:red; font-size: 70px;'>错误! </span>","null","","","","","","","","","","","","","","","","","","","","","","","feedback_test"
"","","","","","psychophysics","392","901329","0.0-9.0-0.0-0.0-0.1-0.124","588","","f","","","","","","","","","","","","","key","f","6.9446359649121865","768","428","f","true","img/S_ambi40.png","朋友","same",""
"","","","","","html-keyboard-response","393","901830","0.0-9.0-0.0-0.0-0.1-1.124","null","<span style='color:GreenYellow; font-size: 70px;'>正确! </span>","null","","","","","","","","","","","","","","","","","","","","","","","feedback_test"
"","","","","","psychophysics","394","903865","0.0-9.0-0.0-0.0-0.1-0.125","1033","","j","","","","","","","","","","","","","key","j","6.94481164383525","768","428","j","true","img/H_ambi40.png","朋友","same",""
"","","","","","html-keyboard-response","395","904366","0.0-9.0-0.0-0.0-0.1-1.125","null","<span style='color:GreenYellow; font-size: 70px;'>正确! </span>","null","","","","","","","","","","","","","","","","","","","","","","","feedback_test"
"","","","","","psychophysics","396","906315","0.0-9.0-0.0-0.0-0.1-0.126","949","","j","","","","","","","","","","","","","key","j","6.943956989247108","768","428","j","true","img/C_ambi40.png","朋友","same",""
"","","","","","html-keyboard-response","397","906817","0.0-9.0-0.0-0.0-0.1-1.126","null","<span style='color:GreenYellow; font-size: 70px;'>正确! </span>","null","","","","","","","","","","","","","","","","","","","","","","","feedback_test"
"","","","","","psychophysics","398","908664","0.0-9.0-0.0-0.0-0.1-0.127","846","","f","","","","","","","","","","","","","key","f","6.944143939393777","768","428","f","true","img/C_ambi40.png","自我","same",""
"","","","","","html-keyboard-response","399","909165","0.0-9.0-0.0-0.0-0.1-1.127","null","<span style='color:GreenYellow; font-size: 70px;'>正确! </span>","null","","","","","","","","","","","","","","","","","","","","","","","feedback_test"
"","","","","","psychophysics","400","910989","0.0-9.0-0.0-0.0-0.1-0.128","822","","j","","","","","","","","","","","","","key","j","6.944505747126672","768","428","f","false","img/H_ambi40.png","生人","same",""
"","","","","","html-keyboard-response","401","911490","0.0-9.0-0.0-0.0-0.1-1.128","null","<span style='color:red; font-size: 70px;'>错误! </span>","null","","","","","","","","","","","","","","","","","","","","","","","feedback_test"
"","","","","","psychophysics","402","913257","0.0-9.0-0.0-0.0-0.1-0.129","765","","j","","","","","","","","","","","","","key","j","6.943470355731586","768","428","j","true","img/C_ambi40.png","生人","same",""
"","","","","","html-keyboard-response","403","913758","0.0-9.0-0.0-0.0-0.1-1.129","null","<span style='color:GreenYellow; font-size: 70px;'>正确! </span>","null","","","","","","","","","","","","","","","","","","","","","","","feedback_test"
"","","","","","psychophysics","404","915660","0.0-9.0-0.0-0.0-0.1-0.130","900","","j","","","","","","","","","","","","","key","j","6.944681318681056","768","428","j","true","img/H_ambi40.png","自我","same",""
"","","","","","html-keyboard-response","405","916161","0.0-9.0-0.0-0.0-0.1-1.130","null","<span style='color:GreenYellow; font-size: 70px;'>正确! </span>","null","","","","","","","","","","","","","","","","","","","","","","","feedback_test"
"","","","","","psychophysics","406","918114","0.0-9.0-0.0-0.0-0.1-0.131","952","","f","","","","","","","","","","","","","key","f","6.944539285713939","768","428","f","true","img/C_ambi40.png","自我","same",""
"","","","","","html-keyboard-response","407","918616","0.0-9.0-0.0-0.0-0.1-1.131","null","<span style='color:GreenYellow; font-size: 70px;'>正确! </span>","null","","","","","","","","","","","","","","","","","","","","","","","feedback_test"
"","","","","","psychophysics","408","920336","0.0-9.0-0.0-0.0-0.1-0.132","720","","j","","","","","","","","","","","","","key","j","6.942605691057123","768","428","j","true","img/H_ambi40.png","自我","same",""
"","","","","","html-keyboard-response","409","920838","0.0-9.0-0.0-0.0-0.1-1.132","null","<span style='color:GreenYellow; font-size: 70px;'>正确! </span>","null","","","","","","","","","","","","","","","","","","","","","","","feedback_test"
"","","","","","psychophysics","410","922630","0.0-9.0-0.0-0.0-0.1-0.133","792","","j","","","","","","","","","","","","","key","j","6.942160156250338","768","428","j","true","img/H_ambi40.png","朋友","same",""
"","","","","","html-keyboard-response","411","923131","0.0-9.0-0.0-0.0-0.1-1.133","null","<span style='color:GreenYellow; font-size: 70px;'>正确! </span>","null","","","","","","","","","","","","","","","","","","","","","","","feedback_test"
"","","","","","psychophysics","412","924981","0.0-9.0-0.0-0.0-0.1-0.134","849","","f","","","","","","","","","","","","","key","f","6.944716981131988","768","428","f","true","img/H_ambi40.png","生人","same",""
"","","","","","html-keyboard-response","413","925482","0.0-9.0-0.0-0.0-0.1-1.134","null","<span style='color:GreenYellow; font-size: 70px;'>正确! </span>","null","","","","","","","","","","","","","","","","","","","","","","","feedback_test"
"","","","","","psychophysics","414","927177","0.0-9.0-0.0-0.0-0.1-0.135","694","","f","","","","","","","","","","","","","key","f","6.944304526749033","768","428","f","true","img/S_ambi40.png","朋友","same",""
"","","","","","html-keyboard-response","415","927678","0.0-9.0-0.0-0.0-0.1-1.135","null","<span style='color:GreenYellow; font-size: 70px;'>正确! </span>","null","","","","","","","","","","","","","","","","","","","","","","","feedback_test"
"","","","","","psychophysics","416","929266","0.0-9.0-0.0-0.0-0.1-0.136","586","","f","","","","","","","","","","","","","key","f","6.943920704845897","768","428","f","true","img/T_ambi40.png","をる","same",""
"","","","","","html-keyboard-response","417","929766","0.0-9.0-0.0-0.0-0.1-1.136","null","<span style='color:GreenYellow; font-size: 70px;'>正确! </span>","null","","","","","","","","","","","","","","","","","","","","","","","feedback_test"
"","","","","","psychophysics","418","931593","0.0-9.0-0.0-0.0-0.1-0.137","826","","j","","","","","","","","","","","","","key","j","6.944801526717337","768","428","j","true","img/S_ambi40.png","生人","same",""
"","","","","","html-keyboard-response","419","932094","0.0-9.0-0.0-0.0-0.1-1.137","null","<span style='color:GreenYellow; font-size: 70px;'>正确! </span>","null","","","","","","","","","","","","","","","","","","","","","","","feedback_test"
"","","","","","psychophysics","420","933664","0.0-9.0-0.0-0.0-0.1-0.138","568","","f","","","","","","","","","","","","","key","f","6.944328888889092","768","428","f","true","img/T_ambi40.png","をる","same",""
"","","","","","html-keyboard-response","421","934165","0.0-9.0-0.0-0.0-0.1-1.138","null","<span style='color:GreenYellow; font-size: 70px;'>正确! </span>","null","","","","","","","","","","","","","","","","","","","","","","","feedback_test"
"","","","","","psychophysics","422","935963","0.0-9.0-0.0-0.0-0.1-0.139","797","","j","","","","","","","","","","","","","key","j","6.944536964980259","768","428","j","true","img/C_ambi40.png","朋友","same",""
"","","","","","html-keyboard-response","423","936464","0.0-9.0-0.0-0.0-0.1-1.139","null","<span style='color:GreenYellow; font-size: 70px;'>正确! </span>","null","","","","","","","","","","","","","","","","","","","","","","","feedback_test"
"","","","","","psychophysics","424","937984","0.0-9.0-0.0-0.0-0.1-0.140","519","","f","","","","","","","","","","","","","key","f","6.944359447004505","768","428","f","true","img/T_ambi40.png","をる","same",""
"","","","","","html-keyboard-response","425","938485","0.0-9.0-0.0-0.0-0.1-1.140","null","<span style='color:GreenYellow; font-size: 70px;'>正确! </span>","null","","","","","","","","","","","","","","","","","","","","","","","feedback_test"
"","","","","","psychophysics","426","940079","0.0-9.0-0.0-0.0-0.1-0.141","593","","f","","","","","","","","","","","","","key","f","6.944627192982456","768","428","f","true","img/S_ambi40.png","朋友","same",""
"","","","","","html-keyboard-response","427","940583","0.0-9.0-0.0-0.0-0.1-1.141","null","<span style='color:GreenYellow; font-size: 70px;'>正确! </span>","null","","","","","","","","","","","","","","","","","","","","","","","feedback_test"
"","","","","","psychophysics","428","942000","0.0-9.0-0.0-0.0-0.1-0.142","415","","f","","","","","","","","","","","","","key","f","6.944714285714295","768","428","j","false","img/S_ambi40.png","自我","same",""
"","","","","","html-keyboard-response","429","942501","0.0-9.0-0.0-0.0-0.1-1.142","null","<span style='color:red; font-size: 70px;'>错误! </span>","null","","","","","","","","","","","","","","","","","","","","","","","feedback_test"
"","","","","","psychophysics","430","944626","0.0-9.0-0.0-0.0-0.1-0.143","1122","","j","","","","","","","","","","","","","key","j","6.944737704918094","768","428","j","true","img/S_ambi40.png","生人","same",""
"","","","","","html-keyboard-response","431","945129","0.0-9.0-0.0-0.0-0.1-1.143","null","<span style='color:GreenYellow; font-size: 70px;'>正确! </span>","null","","","","","","","","","","","","","","","","","","","","","","","feedback_test"
"","","","","","psychophysics","432","946837","0.0-9.0-0.0-0.0-0.1-0.144","706","","j","","","","","","","","","","","","","key","j","6.944510204081746","768","428","j","true","img/C_ambi40.png","朋友","same",""
"","","","","","html-keyboard-response","433","947338","0.0-9.0-0.0-0.0-0.1-1.144","null","<span style='color:GreenYellow; font-size: 70px;'>正确! </span>","null","","","","","","","","","","","","","","","","","","","","","","","feedback_test"
"","","","","","psychophysics","434","949108","0.0-9.0-0.0-0.0-0.1-0.145","769","","j","","","","","","","","","","","","","key","j","6.941383399209652","768","428","j","true","img/C_ambi40.png","生人","same",""
"","","","","","html-keyboard-response","435","949609","0.0-9.0-0.0-0.0-0.1-1.145","null","<span style='color:GreenYellow; font-size: 70px;'>正确! </span>","null","","","","","","","","","","","","","","","","","","","","","","","feedback_test"
"","","","","","psychophysics","436","951367","0.0-9.0-0.0-0.0-0.1-0.146","758","","f","","","","","","","","","","","","","key","f","6.943662698412525","768","428","f","true","img/S_ambi40.png","朋友","same",""
"","","","","","html-keyboard-response","437","951868","0.0-9.0-0.0-0.0-0.1-1.146","null","<span style='color:GreenYellow; font-size: 70px;'>正确! </span>","null","","","","","","","","","","","","","","","","","","","","","","","feedback_test"
"","","","","","psychophysics","438","953482","0.0-9.0-0.0-0.0-0.1-0.147","612","","j","","","","","","","","","","","","","key","j","6.944779220778995","768","428","j","true","img/S_ambi40.png","自我","same",""
"","","","","","html-keyboard-response","439","953983","0.0-9.0-0.0-0.0-0.1-1.147","null","<span style='color:GreenYellow; font-size: 70px;'>正确! </span>","null","","","","","","","","","","","","","","","","","","","","","","","feedback_test"
"","","","","","psychophysics","440","955540","0.0-9.0-0.0-0.0-0.1-0.148","552","","f","","","","","","","","","","","","","key","f","6.944569506726307","768","428","f","true","img/T_ambi40.png","をる","same",""
"","","","","","html-keyboard-response","441","956042","0.0-9.0-0.0-0.0-0.1-1.148","null","<span style='color:GreenYellow; font-size: 70px;'>正确! </span>","null","","","","","","","","","","","","","","","","","","","","","","","feedback_test"
"","","","","","psychophysics","442","957628","0.0-9.0-0.0-0.0-0.1-0.149","585","","j","","","","","","","","","","","","","key","j","6.944405286343633","768","428","j","true","img/C_ambi40.png","朋友","same",""
"","","","","","html-keyboard-response","443","958129","0.0-9.0-0.0-0.0-0.1-1.149","null","<span style='color:GreenYellow; font-size: 70px;'>正确! </span>","null","","","","","","","","","","","","","","","","","","","","","","","feedback_test"
