"success","timeout","failed_images","failed_audio","failed_video","trial_type","trial_index","time_elapsed","internal_node_id","rt","stimulus","response","value","item_width_mm","item_height_mm","item_width_px","px2mm","view_dist_mm","item_width_deg","px2deg","scale_factor","win_width_deg","win_height_deg","view_history","response_type","key_press","avg_frame_time","center_x","center_y","correct_response","correct","Image","word","condition","screen_id"
"true","false","[]","[]","[]","preload","0","1593","0.0-0.0","","","","","","","","","","","","","","","","","","","","","","","","","",""
"","","","","","html-keyboard-response","1","73069","0.0-1.0","71475","
     <p>您好，欢迎参加本次实验。</p>
     <p>为充分保障您的权利，请确保您已经知晓并同意《参与实验同意书》以及《数据公开知情同意书》。</p>
     <p>如果您未见过上述内容，请咨询实验员。</p>
     <p>如果您选择继续实验，则表示您已经清楚两份知情同意书的内容并同意。</p>
     <p> <div style = ""color: green""><按任意键至下页></div> </p>
     ","s","","","","","","","","","","","","","","","","","","","","","","",""
"","","","","","html-keyboard-response","2","74945","0.0-2.0","1876","
     <p>本实验首先需要您填写一些基本个人信息。</p>
     <p> <div style = ""color: green""><按任意键至下页></div></p>
     ","s","","","","","","","","","","","","","","","","","","","","","","",""
"","","","","","call-function","3","74947","0.0-3.0-0.0","","","","","","","","","","","","","","","","","","","","","","","","","",""
"","","","","","survey-html-form","4","78714","0.0-3.0-1.0","3764","","{""Q0"":""28""}","","","","","","","","","","","","","","","","","","","","","","",""
"","","","","","html-button-response","5","79810","0.0-3.0-2.0","1095","<p style = 'color : white'>您的性别</p>","0","","","","","","","","","","","","","","","","","","","","","","",""
"","","","","","survey-html-form","6","84392","0.0-3.0-3.0","4580","","{""Q0"":""2003""}","","","","","","","","","","","","","","","","","","","","","","",""
"","","","","","survey-html-form","7","87685","0.0-3.0-4.0","3292","","{""Q0"":""5""}","","","","","","","","","","","","","","","","","","","","","","",""
"","","","","","virtual-chinrest","8","336418","0.0-4.0","248732","","","","85.6","53.98","489.6392699493172","5.712458149408701","499.61","9.792785398986346","50","0.6494577120681442","38.4","21.6","","","","","","","","","","","",""
"true","","","","","fullscreen","9","339456","0.0-5.0","","","","","","","","","","","","","","","","","","","","","","","","","",""
"","","","","","instructions","10","394922","0.0-6.0","55464","","","","","","","","","","","","","","[{""page_index"":0,""viewing_time"":30679},{""page_index"":1,""viewing_time"":11878},{""page_index"":2,""viewing_time"":1578},{""page_index"":3,""viewing_time"":5097},{""page_index"":2,""viewing_time"":742},{""page_index"":1,""viewing_time"":4022},{""page_index"":2,""viewing_time"":862},{""page_index"":3,""viewing_time"":606}]","","","","","","","","","","",""
"","","","","","psychophysics","11","397432","0.0-7.0-0.0-0.0","null","","null","","","","","","","","","","","","","key","null","6.0753211678831995","960","536","j","false","img/H_ambi40.png","自我","prac",""
"","","","","","html-keyboard-response","12","397948","0.0-7.0-0.0-1.0","null","<span class='add_' style='color:yellow; font-size: 70px;'> 太慢! </span>","null","","","","","","","","","","","","","","","","","","","","","","","feedback_test"
"","","","","","psychophysics","13","399979","0.0-7.0-0.0-0.1","1030","","j","","","","","","","","","","","","","key","j","6.06061676646702","960","536","f","false","img/T_ambi40.png","をる","prac",""
"","","","","","html-keyboard-response","14","400493","0.0-7.0-0.0-1.1","null","<span style='color:red; font-size: 70px;'>错误! </span>","null","","","","","","","","","","","","","","","","","","","","","","","feedback_test"
"","","","","","psychophysics","15","402995","0.0-7.0-0.0-0.2","null","","null","","","","","","","","","","","","","key","null","6.0605863746957525","960","536","f","false","img/C_ambi40.png","生人","prac",""
"","","","","","html-keyboard-response","16","403500","0.0-7.0-0.0-1.2","null","<span class='add_' style='color:yellow; font-size: 70px;'> 太慢! </span>","null","","","","","","","","","","","","","","","","","","","","","","","feedback_test"
"","","","","","psychophysics","17","405160","0.0-7.0-0.0-0.3","659","","j","","","","","","","","","","","","","key","j","6.060448529411694","960","536","f","false","img/C_ambi40.png","生人","prac",""
"","","","","","html-keyboard-response","18","405662","0.0-7.0-0.0-1.3","null","<span style='color:red; font-size: 70px;'>错误! </span>","null","","","","","","","","","","","","","","","","","","","","","","","feedback_test"
"","","","","","psychophysics","19","407553","0.0-7.0-0.0-0.4","889","","j","","","","","","","","","","","","","key","j","6.05131067961159","960","536","j","true","img/C_ambi40.png","自我","prac",""
"","","","","","html-keyboard-response","20","408069","0.0-7.0-0.0-1.4","null","<span style='color:GreenYellow; font-size: 70px;'>正确! </span>","null","","","","","","","","","","","","","","","","","","","","","","","feedback_test"
"","","","","","psychophysics","21","410110","0.0-7.0-0.0-0.5","1040","","f","","","","","","","","","","","","","key","f","6.050488023951957","960","536","f","true","img/T_ambi40.png","をる","prac",""
"","","","","","html-keyboard-response","22","410616","0.0-7.0-0.0-1.5","null","<span style='color:GreenYellow; font-size: 70px;'>正确! </span>","null","","","","","","","","","","","","","","","","","","","","","","","feedback_test"
"","","","","","psychophysics","23","412888","0.0-7.0-0.0-0.6","1269","","j","","","","","","","","","","","","","key","j","6.0606042780747815","960","536","j","true","img/S_ambi40.png","生人","prac",""
"","","","","","html-keyboard-response","24","413392","0.0-7.0-0.0-1.6","null","<span style='color:GreenYellow; font-size: 70px;'>正确! </span>","null","","","","","","","","","","","","","","","","","","","","","","","feedback_test"
"","","","","","psychophysics","25","415689","0.0-7.0-0.0-0.7","1296","","j","","","","","","","","","","","","","key","j","6.060634920634877","960","536","f","false","img/H_ambi40.png","朋友","prac",""
"","","","","","html-keyboard-response","26","416193","0.0-7.0-0.0-1.7","null","<span style='color:red; font-size: 70px;'>错误! </span>","null","","","","","","","","","","","","","","","","","","","","","","","feedback_test"
"","","","","","psychophysics","27","418356","0.0-7.0-0.0-0.8","1162","","f","","","","","","","","","","","","","key","f","6.06065168539327","960","536","f","true","img/T_ambi40.png","をる","prac",""
"","","","","","html-keyboard-response","28","418858","0.0-7.0-0.0-1.8","null","<span style='color:GreenYellow; font-size: 70px;'>正确! </span>","null","","","","","","","","","","","","","","","","","","","","","","","feedback_test"
"","","","","","psychophysics","29","421245","0.0-7.0-0.0-0.9","1386","","f","","","","","","","","","","","","","key","f","6.060540816326577","960","536","f","true","img/S_ambi40.png","自我","prac",""
"","","","","","html-keyboard-response","30","421753","0.0-7.0-0.0-1.9","null","<span style='color:GreenYellow; font-size: 70px;'>正确! </span>","null","","","","","","","","","","","","","","","","","","","","","","","feedback_test"
"","","","","","psychophysics","31","423824","0.0-7.0-0.0-0.10","1070","","f","","","","","","","","","","","","","key","f","6.054598820058884","960","536","f","true","img/H_ambi40.png","朋友","prac",""
"","","","","","html-keyboard-response","32","424339","0.0-7.0-0.0-1.10","null","<span style='color:GreenYellow; font-size: 70px;'>正确! </span>","null","","","","","","","","","","","","","","","","","","","","","","","feedback_test"
"","","","","","psychophysics","33","426724","0.0-7.0-0.0-0.11","1384","","j","","","","","","","","","","","","","key","j","6.060643765903268","960","536","j","true","img/S_ambi40.png","朋友","prac",""
"","","","","","html-keyboard-response","34","427225","0.0-7.0-0.0-1.11","null","<span style='color:GreenYellow; font-size: 70px;'>正确! </span>","null","","","","","","","","","","","","","","","","","","","","","","","feedback_test"
"","","","","","psychophysics","35","429730","0.0-7.0-0.0-0.12","null","","null","","","","","","","","","","","","","key","null","6.0606334951457015","960","536","f","false","img/S_ambi40.png","自我","prac",""
"","","","","","html-keyboard-response","36","430231","0.0-7.0-0.0-1.12","null","<span class='add_' style='color:yellow; font-size: 70px;'> 太慢! </span>","null","","","","","","","","","","","","","","","","","","","","","","","feedback_test"
"","","","","","psychophysics","37","432379","0.0-7.0-0.0-0.13","1146","","f","","","","","","","","","","","","","key","f","6.04675637393769","960","536","j","false","img/H_ambi40.png","生人","prac",""
"","","","","","html-keyboard-response","38","432888","0.0-7.0-0.0-1.13","null","<span style='color:red; font-size: 70px;'>错误! </span>","null","","","","","","","","","","","","","","","","","","","","","","","feedback_test"
"","","","","","psychophysics","39","434595","0.0-7.0-0.0-0.14","705","","j","","","","","","","","","","","","","key","j","6.060778571428506","960","536","j","true","img/C_ambi40.png","朋友","prac",""
"","","","","","html-keyboard-response","40","435104","0.0-7.0-0.0-1.14","null","<span style='color:GreenYellow; font-size: 70px;'>正确! </span>","null","","","","","","","","","","","","","","","","","","","","","","","feedback_test"
"","","","","","psychophysics","41","437064","0.0-7.0-0.0-0.15","959","","f","","","","","","","","","","","","","key","f","6.060730650154737","960","536","f","true","img/T_ambi40.png","をる","prac",""
"","","","","","html-keyboard-response","42","437576","0.0-7.0-0.0-1.15","null","<span style='color:GreenYellow; font-size: 70px;'>正确! </span>","null","","","","","","","","","","","","","","","","","","","","","","","feedback_test"
"","","","","","psychophysics","43","439401","0.0-7.0-0.0-0.16","823","","f","","","","","","","","","","","","","key","f","6.0606233333334485","960","536","f","true","img/T_ambi40.png","をる","prac",""
"","","","","","html-keyboard-response","44","439905","0.0-7.0-0.0-1.16","null","<span style='color:GreenYellow; font-size: 70px;'>正确! </span>","null","","","","","","","","","","","","","","","","","","","","","","","feedback_test"
"","","","","","psychophysics","45","441606","0.0-7.0-0.0-0.17","698","","f","","","","","","","","","","","","","key","f","6.060537634408652","960","536","f","true","img/T_ambi40.png","をる","prac",""
"","","","","","html-keyboard-response","46","442107","0.0-7.0-0.0-1.17","null","<span style='color:GreenYellow; font-size: 70px;'>正确! </span>","null","","","","","","","","","","","","","","","","","","","","","","","feedback_test"
"","","","","","psychophysics","47","444009","0.0-7.0-0.0-0.18","900","","f","","","","","","","","","","","","","key","f","6.060626198083145","960","536","j","false","img/C_ambi40.png","朋友","prac",""
"","","","","","html-keyboard-response","48","444523","0.0-7.0-0.0-1.18","null","<span style='color:red; font-size: 70px;'>错误! </span>","null","","","","","","","","","","","","","","","","","","","","","","","feedback_test"
"","","","","","psychophysics","49","446291","0.0-7.0-0.0-0.19","766","","f","","","","","","","","","","","","","key","f","6.0605758620689","960","536","f","true","img/T_ambi40.png","をる","prac",""
"","","","","","html-keyboard-response","50","446796","0.0-7.0-0.0-1.19","null","<span style='color:GreenYellow; font-size: 70px;'>正确! </span>","null","","","","","","","","","","","","","","","","","","","","","","","feedback_test"
"","","","","","psychophysics","51","449058","0.0-7.0-0.0-0.20","1261","","f","","","","","","","","","","","","","key","f","6.051388140161574","960","536","j","false","img/C_ambi40.png","自我","prac",""
"","","","","","html-keyboard-response","52","449573","0.0-7.0-0.0-1.20","null","<span style='color:red; font-size: 70px;'>错误! </span>","null","","","","","","","","","","","","","","","","","","","","","","","feedback_test"
"","","","","","psychophysics","53","451296","0.0-7.0-0.0-0.21","720","","f","","","","","","","","","","","","","key","f","6.060657243816554","960","536","f","true","img/T_ambi40.png","をる","prac",""
"","","","","","html-keyboard-response","54","451801","0.0-7.0-0.0-1.21","null","<span style='color:GreenYellow; font-size: 70px;'>正确! </span>","null","","","","","","","","","","","","","","","","","","","","","","","feedback_test"
"","","","","","psychophysics","55","453677","0.0-7.0-0.0-0.22","874","","f","","","","","","","","","","","","","key","f","6.05056026058631","960","536","f","true","img/H_ambi40.png","朋友","prac",""
"","","","","","html-keyboard-response","56","454190","0.0-7.0-0.0-1.22","null","<span style='color:GreenYellow; font-size: 70px;'>正确! </span>","null","","","","","","","","","","","","","","","","","","","","","","","feedback_test"
"","","","","","psychophysics","57","456389","0.0-7.0-0.0-0.23","1198","","j","","","","","","","","","","","","","key","j","6.060703601108004","960","536","f","false","img/H_ambi40.png","朋友","prac",""
"","","","","","html-keyboard-response","58","456904","0.0-7.0-0.0-1.23","null","<span style='color:red; font-size: 70px;'>错误! </span>","null","","","","","","","","","","","","","","","","","","","","","","","feedback_test"
"","","","","","psychophysics","59","459024","0.0-7.0-0.0-0.24","1118","","f","","","","","","","","","","","","","key","f","6.05569452449568","960","536","f","true","img/C_ambi40.png","生人","prac",""
"","","","","","html-keyboard-response","60","459537","0.0-7.0-0.0-1.24","null","<span style='color:GreenYellow; font-size: 70px;'>正确! </span>","null","","","","","","","","","","","","","","","","","","","","","","","feedback_test"
"","","","","","psychophysics","61","461571","0.0-7.0-0.0-0.25","1032","","f","","","","","","","","","","","","","key","f","6.060556886227618","960","536","f","true","img/S_ambi40.png","自我","prac",""
"","","","","","html-keyboard-response","62","462082","0.0-7.0-0.0-1.25","null","<span style='color:GreenYellow; font-size: 70px;'>正确! </span>","null","","","","","","","","","","","","","","","","","","","","","","","feedback_test"
"","","","","","psychophysics","63","464305","0.0-7.0-0.0-0.26","1221","","j","","","","","","","","","","","","","key","j","6.06062191780816","960","536","f","false","img/C_ambi40.png","生人","prac",""
"","","","","","html-keyboard-response","64","464806","0.0-7.0-0.0-1.26","null","<span style='color:red; font-size: 70px;'>错误! </span>","null","","","","","","","","","","","","","","","","","","","","","","","feedback_test"
"","","","","","psychophysics","65","466962","0.0-7.0-0.0-0.27","1154","","f","","","","","","","","","","","","","key","f","6.0606000000000995","960","536","f","true","img/S_ambi40.png","自我","prac",""
"","","","","","html-keyboard-response","66","467467","0.0-7.0-0.0-1.27","null","<span style='color:GreenYellow; font-size: 70px;'>正确! </span>","null","","","","","","","","","","","","","","","","","","","","","","","feedback_test"
"","","","","","psychophysics","67","469210","0.0-7.0-0.0-0.28","741","","j","","","","","","","","","","","","","key","j","6.060588850174505","960","536","j","true","img/H_ambi40.png","自我","prac",""
"","","","","","html-keyboard-response","68","469715","0.0-7.0-0.0-1.28","null","<span style='color:GreenYellow; font-size: 70px;'>正确! </span>","null","","","","","","","","","","","","","","","","","","","","","","","feedback_test"
"","","","","","psychophysics","69","471371","0.0-7.0-0.0-0.29","653","","f","","","","","","","","","","","","","key","f","6.060393382352606","960","536","j","false","img/S_ambi40.png","朋友","prac",""
"","","","","","html-keyboard-response","70","471887","0.0-7.0-0.0-1.29","null","<span style='color:red; font-size: 70px;'>错误! </span>","null","","","","","","","","","","","","","","","","","","","","","","","feedback_test"
"","","","","","psychophysics","71","473741","0.0-7.0-0.0-0.30","853","","f","","","","","","","","","","","","","key","f","6.048729372936956","960","536","j","false","img/S_ambi40.png","生人","prac",""
"","","","","","html-keyboard-response","72","474248","0.0-7.0-0.0-1.30","null","<span style='color:red; font-size: 70px;'>错误! </span>","null","","","","","","","","","","","","","","","","","","","","","","","feedback_test"
"","","","","","psychophysics","73","475846","0.0-7.0-0.0-0.31","597","","j","","","","","","","","","","","","","key","j","6.060688212927795","960","536","j","true","img/H_ambi40.png","生人","prac",""
"","","","","","html-keyboard-response","74","476355","0.0-7.0-0.0-1.31","null","<span style='color:GreenYellow; font-size: 70px;'>正确! </span>","null","","","","","","","","","","","","","","","","","","","","","","","feedback_test"
"","","","","","html-keyboard-response","75","480576","0.0-7.0-1.0-0.0","4219","<style>.context{color:white; font-size: 35px; line-height:40px}</style>                          <div><p class='context'>您正确回答了59% 的试次。</p ><p class='context'>您的平均反应时为968毫秒。</p >"," ","","","","","","","","","","","","","","","","","","","","","","",""
"","","","","","instructions","76","542829","0.0-7.0-1.0-1.0","62251","","","","","","","","","","","","","","[{""page_index"":0,""viewing_time"":17409},{""page_index"":1,""viewing_time"":43597},{""page_index"":2,""viewing_time"":1244}]","","","","","","","","","","",""
"","","","","","psychophysics","77","545011","0.0-7.1-0.1-0.32","1180","","f","","","","","","","","","","","","","key","f","6.060660167130925","960","536","f","true","img/T_ambi40.png","をる","prac",""
"","","","","","html-keyboard-response","78","545520","0.0-7.1-0.1-1.32","null","<span style='color:GreenYellow; font-size: 70px;'>正确! </span>","null","","","","","","","","","","","","","","","","","","","","","","","feedback_test"
"","","","","","psychophysics","79","547370","0.0-7.1-0.1-0.33","848","","f","","","","","","","","","","","","","key","f","6.06052631578955","960","536","f","true","img/C_ambi40.png","生人","prac",""
"","","","","","html-keyboard-response","80","547879","0.0-7.1-0.1-1.33","null","<span style='color:GreenYellow; font-size: 70px;'>正确! </span>","null","","","","","","","","","","","","","","","","","","","","","","","feedback_test"
"","","","","","psychophysics","81","549730","0.0-7.1-0.1-0.34","849","","f","","","","","","","","","","","","","key","f","6.060688524590194","960","536","j","false","img/S_ambi40.png","朋友","prac",""
"","","","","","html-keyboard-response","82","550238","0.0-7.1-0.1-1.34","null","<span style='color:red; font-size: 70px;'>错误! </span>","null","","","","","","","","","","","","","","","","","","","","","","","feedback_test"
"","","","","","psychophysics","83","552012","0.0-7.1-0.1-0.35","772","","j","","","","","","","","","","","","","key","j","6.0607525773196","960","536","f","false","img/H_ambi40.png","朋友","prac",""
"","","","","","html-keyboard-response","84","552514","0.0-7.1-0.1-1.35","null","<span style='color:red; font-size: 70px;'>错误! </span>","null","","","","","","","","","","","","","","","","","","","","","","","feedback_test"
"","","","","","psychophysics","85","554117","0.0-7.1-0.1-0.36","602","","f","","","","","","","","","","","","","key","f","6.060553030303157","960","536","j","false","img/C_ambi40.png","自我","prac",""
"","","","","","html-keyboard-response","86","554620","0.0-7.1-0.1-1.36","null","<span style='color:red; font-size: 70px;'>错误! </span>","null","","","","","","","","","","","","","","","","","","","","","","","feedback_test"
"","","","","","psychophysics","87","556740","0.0-7.1-0.1-0.37","1120","","j","","","","","","","","","","","","","key","j","6.0605603448277865","960","536","j","true","img/S_ambi40.png","生人","prac",""
"","","","","","html-keyboard-response","88","557248","0.0-7.1-0.1-1.37","null","<span style='color:GreenYellow; font-size: 70px;'>正确! </span>","null","","","","","","","","","","","","","","","","","","","","","","","feedback_test"
"","","","","","psychophysics","89","558891","0.0-7.1-0.1-0.38","640","","f","","","","","","","","","","","","","key","f","6.0606703703705636","960","536","f","true","img/S_ambi40.png","自我","prac",""
"","","","","","html-keyboard-response","90","559407","0.0-7.1-0.1-1.38","null","<span style='color:GreenYellow; font-size: 70px;'>正确! </span>","null","","","","","","","","","","","","","","","","","","","","","","","feedback_test"
"","","","","","psychophysics","91","561690","0.0-7.1-0.1-0.39","1282","","f","","","","","","","","","","","","","key","f","6.0527647058825","960","536","j","false","img/C_ambi40.png","朋友","prac",""
"","","","","","html-keyboard-response","92","562202","0.0-7.1-0.1-1.39","null","<span style='color:red; font-size: 70px;'>错误! </span>","null","","","","","","","","","","","","","","","","","","","","","","","feedback_test"
"","","","","","psychophysics","93","564115","0.0-7.1-0.1-0.40","912","","j","","","","","","","","","","","","","key","j","6.060630573248594","960","536","f","false","img/S_ambi40.png","自我","prac",""
"","","","","","html-keyboard-response","94","564628","0.0-7.1-0.1-1.40","null","<span style='color:red; font-size: 70px;'>错误! </span>","null","","","","","","","","","","","","","","","","","","","","","","","feedback_test"
"","","","","","psychophysics","95","566542","0.0-7.1-0.1-0.41","913","","f","","","","","","","","","","","","","key","f","6.060793650793725","960","536","f","true","img/T_ambi40.png","をる","prac",""
"","","","","","html-keyboard-response","96","567043","0.0-7.1-0.1-1.41","null","<span style='color:GreenYellow; font-size: 70px;'>正确! </span>","null","","","","","","","","","","","","","","","","","","","","","","","feedback_test"
"","","","","","psychophysics","97","568977","0.0-7.1-0.1-0.42","933","","j","","","","","","","","","","","","","key","j","6.052851265822787","960","536","f","false","img/H_ambi40.png","朋友","prac",""
"","","","","","html-keyboard-response","98","569485","0.0-7.1-0.1-1.42","null","<span style='color:red; font-size: 70px;'>错误! </span>","null","","","","","","","","","","","","","","","","","","","","","","","feedback_test"
"","","","","","psychophysics","99","571380","0.0-7.1-0.1-0.43","894","","f","","","","","","","","","","","","","key","f","6.060474358974413","960","536","f","true","img/T_ambi40.png","をる","prac",""
"","","","","","html-keyboard-response","100","571890","0.0-7.1-0.1-1.43","null","<span style='color:GreenYellow; font-size: 70px;'>正确! </span>","null","","","","","","","","","","","","","","","","","","","","","","","feedback_test"
"","","","","","psychophysics","101","573432","0.0-7.1-0.1-0.44","540","","f","","","","","","","","","","","","","key","f","6.060482213438374","960","536","f","true","img/T_ambi40.png","をる","prac",""
"","","","","","html-keyboard-response","102","573934","0.0-7.1-0.1-1.44","null","<span style='color:GreenYellow; font-size: 70px;'>正确! </span>","null","","","","","","","","","","","","","","","","","","","","","","","feedback_test"
"","","","","","psychophysics","103","576297","0.0-7.1-0.1-0.45","1362","","j","","","","","","","","","","","","","key","j","6.053328165374769","960","536","j","true","img/H_ambi40.png","生人","prac",""
"","","","","","html-keyboard-response","104","576798","0.0-7.1-0.1-1.45","null","<span style='color:GreenYellow; font-size: 70px;'>正确! </span>","null","","","","","","","","","","","","","","","","","","","","","","","feedback_test"
"","","","","","psychophysics","105","578657","0.0-7.1-0.1-0.46","857","","j","","","","","","","","","","","","","key","j","6.060688524590194","960","536","j","true","img/H_ambi40.png","自我","prac",""
"","","","","","html-keyboard-response","106","579169","0.0-7.1-0.1-1.46","null","<span style='color:GreenYellow; font-size: 70px;'>正确! </span>","null","","","","","","","","","","","","","","","","","","","","","","","feedback_test"
"","","","","","psychophysics","107","581302","0.0-7.1-0.1-0.47","1131","","f","","","","","","","","","","","","","key","f","6.0606096866096175","960","536","f","true","img/C_ambi40.png","生人","prac",""
"","","","","","html-keyboard-response","108","581810","0.0-7.1-0.1-1.47","null","<span style='color:GreenYellow; font-size: 70px;'>正确! </span>","null","","","","","","","","","","","","","","","","","","","","","","","feedback_test"
"","","","","","psychophysics","109","583595","0.0-7.1-0.1-0.48","781","","f","","","","","","","","","","","","","key","f","6.060600682594035","960","536","f","true","img/C_ambi40.png","生人","prac",""
"","","","","","html-keyboard-response","110","584106","0.0-7.1-0.1-1.48","null","<span style='color:GreenYellow; font-size: 70px;'>正确! </span>","null","","","","","","","","","","","","","","","","","","","","","","","feedback_test"
"","","","","","psychophysics","111","585844","0.0-7.1-0.1-0.49","737","","j","","","","","","","","","","","","","key","j","6.060645614035444","960","536","j","true","img/S_ambi40.png","生人","prac",""
"","","","","","html-keyboard-response","112","586357","0.0-7.1-0.1-1.49","null","<span style='color:GreenYellow; font-size: 70px;'>正确! </span>","null","","","","","","","","","","","","","","","","","","","","","","","feedback_test"
"","","","","","psychophysics","113","588567","0.0-7.1-0.1-0.50","1209","","f","","","","","","","","","","","","","key","f","6.060593406593358","960","536","j","false","img/H_ambi40.png","自我","prac",""
"","","","","","html-keyboard-response","114","589071","0.0-7.1-0.1-1.50","null","<span style='color:red; font-size: 70px;'>错误! </span>","null","","","","","","","","","","","","","","","","","","","","","","","feedback_test"
"","","","","","psychophysics","115","591058","0.0-7.1-0.1-0.51","986","","j","","","","","","","","","","","","","key","j","6.060617737003192","960","536","f","false","img/S_ambi40.png","自我","prac",""
"","","","","","html-keyboard-response","116","591565","0.0-7.1-0.1-1.51","null","<span style='color:red; font-size: 70px;'>错误! </span>","null","","","","","","","","","","","","","","","","","","","","","","","feedback_test"
"","","","","","psychophysics","117","593242","0.0-7.1-0.1-0.52","676","","j","","","","","","","","","","","","","key","j","6.048682481751532","960","536","j","true","img/S_ambi40.png","朋友","prac",""
"","","","","","html-keyboard-response","118","593745","0.0-7.1-0.1-1.52","null","<span style='color:GreenYellow; font-size: 70px;'>正确! </span>","null","","","","","","","","","","","","","","","","","","","","","","","feedback_test"
"","","","","","psychophysics","119","595998","0.0-7.1-0.1-0.53","1250","","j","","","","","","","","","","","","","key","j","6.060609164420575","960","536","j","true","img/H_ambi40.png","生人","prac",""
"","","","","","html-keyboard-response","120","596514","0.0-7.1-0.1-1.53","null","<span style='color:GreenYellow; font-size: 70px;'>正确! </span>","null","","","","","","","","","","","","","","","","","","","","","","","feedback_test"
"","","","","","psychophysics","121","598523","0.0-7.1-0.1-0.54","1007","","j","","","","","","","","","","","","","key","j","6.060542424242577","960","536","j","true","img/C_ambi40.png","自我","prac",""
"","","","","","html-keyboard-response","122","599029","0.0-7.1-0.1-1.54","null","<span style='color:GreenYellow; font-size: 70px;'>正确! </span>","null","","","","","","","","","","","","","","","","","","","","","","","feedback_test"
"","","","","","psychophysics","123","600749","0.0-7.1-0.1-0.55","718","","f","","","","","","","","","","","","","key","f","6.060660777385215","960","536","f","true","img/T_ambi40.png","をる","prac",""
"","","","","","html-keyboard-response","124","601262","0.0-7.1-0.1-1.55","null","<span style='color:GreenYellow; font-size: 70px;'>正确! </span>","null","","","","","","","","","","","","","","","","","","","","","","","feedback_test"
"","","","","","psychophysics","125","603020","0.0-7.1-0.1-0.56","757","","f","","","","","","","","","","","","","key","f","6.049138888888895","960","536","f","true","img/H_ambi40.png","朋友","prac",""
"","","","","","html-keyboard-response","126","603527","0.0-7.1-0.1-1.56","null","<span style='color:GreenYellow; font-size: 70px;'>正确! </span>","null","","","","","","","","","","","","","","","","","","","","","","","feedback_test"
"","","","","","psychophysics","127","605345","0.0-7.1-0.1-0.57","816","","j","","","","","","","","","","","","","key","j","6.060602006688947","960","536","f","false","img/C_ambi40.png","生人","prac",""
"","","","","","html-keyboard-response","128","605854","0.0-7.1-0.1-1.57","null","<span style='color:red; font-size: 70px;'>错误! </span>","null","","","","","","","","","","","","","","","","","","","","","","","feedback_test"
"","","","","","psychophysics","129","608101","0.0-7.1-0.1-0.58","1246","","f","","","","","","","","","","","","","key","f","6.0606648648648545","960","536","j","false","img/C_ambi40.png","朋友","prac",""
"","","","","","html-keyboard-response","130","608614","0.0-7.1-0.1-1.58","null","<span style='color:red; font-size: 70px;'>错误! </span>","null","","","","","","","","","","","","","","","","","","","","","","","feedback_test"
"","","","","","psychophysics","131","610615","0.0-7.1-0.1-0.59","1000","","f","","","","","","","","","","","","","key","f","6.060607902735747","960","536","f","true","img/S_ambi40.png","自我","prac",""
"","","","","","html-keyboard-response","132","611129","0.0-7.1-0.1-1.59","null","<span style='color:GreenYellow; font-size: 70px;'>正确! </span>","null","","","","","","","","","","","","","","","","","","","","","","","feedback_test"
"","","","","","psychophysics","133","613206","0.0-7.1-0.1-0.60","1076","","j","","","","","","","","","","","","","key","j","6.060507331378389","960","536","f","false","img/H_ambi40.png","朋友","prac",""
"","","","","","html-keyboard-response","134","613712","0.0-7.1-0.1-1.60","null","<span style='color:red; font-size: 70px;'>错误! </span>","null","","","","","","","","","","","","","","","","","","","","","","","feedback_test"
"","","","","","psychophysics","135","615445","0.0-7.1-0.1-0.61","732","","f","","","","","","","","","","","","","key","f","6.0606596491230125","960","536","f","true","img/T_ambi40.png","をる","prac",""
"","","","","","html-keyboard-response","136","615955","0.0-7.1-0.1-1.61","null","<span style='color:GreenYellow; font-size: 70px;'>正确! </span>","null","","","","","","","","","","","","","","","","","","","","","","","feedback_test"
"","","","","","psychophysics","137","617539","0.0-7.1-0.1-0.62","583","","f","","","","","","","","","","","","","key","f","6.06065384615347","960","536","f","true","img/T_ambi40.png","をる","prac",""
"","","","","","html-keyboard-response","138","618050","0.0-7.1-0.1-1.62","null","<span style='color:GreenYellow; font-size: 70px;'>正确! </span>","null","","","","","","","","","","","","","","","","","","","","","","","feedback_test"
"","","","","","psychophysics","139","619579","0.0-7.1-0.1-0.63","528","","f","","","","","","","","","","","","","key","f","6.051419999999926","960","536","f","true","img/T_ambi40.png","をる","prac",""
"","","","","","html-keyboard-response","140","620080","0.0-7.1-0.1-1.63","null","<span style='color:GreenYellow; font-size: 70px;'>正确! </span>","null","","","","","","","","","","","","","","","","","","","","","","","feedback_test"
"","","","","","html-keyboard-response","141","622301","0.0-7.1-1.1-0.1","2219","<style>.context{color:white; font-size: 35px; line-height:40px}</style>                          <div><p class='context'>您正确回答了66% 的试次。</p ><p class='context'>您的平均反应时为869毫秒。</p >"," ","","","","","","","","","","","","","","","","","","","","","","",""
"","","","","","instructions","142","634409","0.0-7.1-1.1-1.1","12106","","","","","","","","","","","","","","[{""page_index"":0,""viewing_time"":1630},{""page_index"":1,""viewing_time"":9672},{""page_index"":2,""viewing_time"":803}]","","","","","","","","","","",""
"","","","","","psychophysics","143","636368","0.0-7.2-0.2-0.64","957","","j","","","","","","","","","","","","","key","j","6.060583850931772","960","536","j","true","img/S_ambi40.png","朋友","prac",""
"","","","","","html-keyboard-response","144","636876","0.0-7.2-0.2-1.64","null","<span style='color:GreenYellow; font-size: 70px;'>正确! </span>","null","","","","","","","","","","","","","","","","","","","","","","","feedback_test"
"","","","","","psychophysics","145","639025","0.0-7.2-0.2-0.65","1144","","j","","","","","","","","","","","","","key","j","6.0605410764873735","960","536","j","true","img/H_ambi40.png","自我","prac",""
"","","","","","html-keyboard-response","146","639540","0.0-7.2-0.2-1.65","null","<span style='color:GreenYellow; font-size: 70px;'>正确! </span>","null","","","","","","","","","","","","","","","","","","","","","","","feedback_test"
"","","","","","psychophysics","147","641594","0.0-7.2-0.2-0.66","1052","","j","","","","","","","","","","","","","key","j","6.060597633136321","960","536","f","false","img/H_ambi40.png","朋友","prac",""
"","","","","","html-keyboard-response","148","642100","0.0-7.2-0.2-1.66","null","<span style='color:red; font-size: 70px;'>错误! </span>","null","","","","","","","","","","","","","","","","","","","","","","","feedback_test"
"","","","","","psychophysics","149","643887","0.0-7.2-0.2-0.67","786","","f","","","","","","","","","","","","","key","f","6.0605255972694145","960","536","f","true","img/T_ambi40.png","をる","prac",""
"","","","","","html-keyboard-response","150","644401","0.0-7.2-0.2-1.67","null","<span style='color:GreenYellow; font-size: 70px;'>正确! </span>","null","","","","","","","","","","","","","","","","","","","","","","","feedback_test"
"","","","","","psychophysics","151","646819","0.0-7.2-0.2-0.68","1417","","j","","","","","","","","","","","","","key","j","6.053969696969631","960","536","j","true","img/H_ambi40.png","生人","prac",""
"","","","","","html-keyboard-response","152","647324","0.0-7.2-0.2-1.68","null","<span style='color:GreenYellow; font-size: 70px;'>正确! </span>","null","","","","","","","","","","","","","","","","","","","","","","","feedback_test"
"","","","","","psychophysics","153","649652","0.0-7.2-0.2-0.69","1326","","f","","","","","","","","","","","","","key","f","6.060621409921654","960","536","f","true","img/T_ambi40.png","をる","prac",""
"","","","","","html-keyboard-response","154","650168","0.0-7.2-0.2-1.69","null","<span style='color:GreenYellow; font-size: 70px;'>正确! </span>","null","","","","","","","","","","","","","","","","","","","","","","","feedback_test"
"","","","","","psychophysics","155","652177","0.0-7.2-0.2-0.70","1008","","f","","","","","","","","","","","","","key","f","6.060490909090731","960","536","f","true","img/H_ambi40.png","朋友","prac",""
"","","","","","html-keyboard-response","156","652678","0.0-7.2-0.2-1.70","null","<span style='color:GreenYellow; font-size: 70px;'>正确! </span>","null","","","","","","","","","","","","","","","","","","","","","","","feedback_test"
"","","","","","psychophysics","157","654326","0.0-7.2-0.2-0.71","646","","f","","","","","","","","","","","","","key","f","6.0607158671587715","960","536","f","true","img/T_ambi40.png","をる","prac",""
"","","","","","html-keyboard-response","158","654831","0.0-7.2-0.2-1.71","null","<span style='color:GreenYellow; font-size: 70px;'>正确! </span>","null","","","","","","","","","","","","","","","","","","","","","","","feedback_test"
"","","","","","psychophysics","159","656652","0.0-7.2-0.2-0.72","820","","f","","","","","","","","","","","","","key","f","6.060676666666598","960","536","f","true","img/S_ambi40.png","自我","prac",""
"","","","","","html-keyboard-response","160","657161","0.0-7.2-0.2-1.72","null","<span style='color:GreenYellow; font-size: 70px;'>正确! </span>","null","","","","","","","","","","","","","","","","","","","","","","","feedback_test"
"","","","","","psychophysics","161","658846","0.0-7.2-0.2-0.73","684","","f","","","","","","","","","","","","","key","f","6.060664259927811","960","536","f","true","img/C_ambi40.png","生人","prac",""
"","","","","","html-keyboard-response","162","659358","0.0-7.2-0.2-1.73","null","<span style='color:GreenYellow; font-size: 70px;'>正确! </span>","null","","","","","","","","","","","","","","","","","","","","","","","feedback_test"
"","","","","","psychophysics","163","660875","0.0-7.2-0.2-0.74","515","","f","","","","","","","","","","","","","key","f","6.060746987951998","960","536","f","true","img/C_ambi40.png","生人","prac",""
"","","","","","html-keyboard-response","164","661378","0.0-7.2-0.2-1.74","null","<span style='color:GreenYellow; font-size: 70px;'>正确! </span>","null","","","","","","","","","","","","","","","","","","","","","","","feedback_test"
"","","","","","psychophysics","165","663046","0.0-7.2-0.2-0.75","667","","j","","","","","","","","","","","","","key","j","6.06075182481776","960","536","j","true","img/S_ambi40.png","生人","prac",""
"","","","","","html-keyboard-response","166","663552","0.0-7.2-0.2-1.75","null","<span style='color:GreenYellow; font-size: 70px;'>正确! </span>","null","","","","","","","","","","","","","","","","","","","","","","","feedback_test"
"","","","","","psychophysics","167","665185","0.0-7.2-0.2-0.76","632","","f","","","","","","","","","","","","","key","f","6.050625468164766","960","536","f","true","img/S_ambi40.png","自我","prac",""
"","","","","","html-keyboard-response","168","665699","0.0-7.2-0.2-1.76","null","<span style='color:GreenYellow; font-size: 70px;'>正确! </span>","null","","","","","","","","","","","","","","","","","","","","","","","feedback_test"
"","","","","","psychophysics","169","667401","0.0-7.2-0.2-0.77","701","","j","","","","","","","","","","","","","key","j","6.060591397849563","960","536","j","true","img/C_ambi40.png","朋友","prac",""
"","","","","","html-keyboard-response","170","667917","0.0-7.2-0.2-1.77","null","<span style='color:GreenYellow; font-size: 70px;'>正确! </span>","null","","","","","","","","","","","","","","","","","","","","","","","feedback_test"
"","","","","","psychophysics","171","669573","0.0-7.2-0.2-0.78","656","","f","","","","","","","","","","","","","key","f","6.048313653136507","960","536","f","true","img/T_ambi40.png","をる","prac",""
"","","","","","html-keyboard-response","172","670084","0.0-7.2-0.2-1.78","null","<span style='color:GreenYellow; font-size: 70px;'>正确! </span>","null","","","","","","","","","","","","","","","","","","","","","","","feedback_test"
"","","","","","psychophysics","173","671910","0.0-7.2-0.2-0.79","824","","j","","","","","","","","","","","","","key","j","6.060579999999997","960","536","j","true","img/C_ambi40.png","自我","prac",""
"","","","","","html-keyboard-response","174","672413","0.0-7.2-0.2-1.79","null","<span style='color:GreenYellow; font-size: 70px;'>正确! </span>","null","","","","","","","","","","","","","","","","","","","","","","","feedback_test"
"","","","","","psychophysics","175","674500","0.0-7.2-0.2-0.80","1086","","j","","","","","","","","","","","","","key","j","6.056093567251486","960","536","j","true","img/S_ambi40.png","朋友","prac",""
"","","","","","html-keyboard-response","176","675010","0.0-7.2-0.2-1.80","null","<span style='color:GreenYellow; font-size: 70px;'>正确! </span>","null","","","","","","","","","","","","","","","","","","","","","","","feedback_test"
"","","","","","psychophysics","177","676694","0.0-7.2-0.2-0.81","682","","j","","","","","","","","","","","","","key","j","6.060635379061274","960","536","f","false","img/H_ambi40.png","朋友","prac",""
"","","","","","html-keyboard-response","178","677203","0.0-7.2-0.2-1.81","null","<span style='color:red; font-size: 70px;'>错误! </span>","null","","","","","","","","","","","","","","","","","","","","","","","feedback_test"
"","","","","","psychophysics","179","678655","0.0-7.2-0.2-0.82","450","","f","","","","","","","","","","","","","key","f","6.060785714285488","960","536","f","true","img/T_ambi40.png","をる","prac",""
"","","","","","html-keyboard-response","180","679167","0.0-7.2-0.2-1.82","null","<span style='color:GreenYellow; font-size: 70px;'>正确! </span>","null","","","","","","","","","","","","","","","","","","","","","","","feedback_test"
"","","","","","psychophysics","181","681026","0.0-7.2-0.2-0.83","858","","j","","","","","","","","","","","","","key","j","6.060754901960452","960","536","j","true","img/C_ambi40.png","朋友","prac",""
"","","","","","html-keyboard-response","182","681540","0.0-7.2-0.2-1.83","null","<span style='color:GreenYellow; font-size: 70px;'>正确! </span>","null","","","","","","","","","","","","","","","","","","","","","","","feedback_test"
"","","","","","psychophysics","183","683352","0.0-7.2-0.2-0.84","812","","j","","","","","","","","","","","","","key","j","6.053219594594682","960","536","j","true","img/C_ambi40.png","自我","prac",""
"","","","","","html-keyboard-response","184","683862","0.0-7.2-0.2-1.84","null","<span style='color:GreenYellow; font-size: 70px;'>正确! </span>","null","","","","","","","","","","","","","","","","","","","","","","","feedback_test"
"","","","","","psychophysics","185","685942","0.0-7.2-0.2-0.85","1079","","f","","","","","","","","","","","","","key","f","6.060710526315552","960","536","f","true","img/C_ambi40.png","生人","prac",""
"","","","","","html-keyboard-response","186","686457","0.0-7.2-0.2-1.85","null","<span style='color:GreenYellow; font-size: 70px;'>正确! </span>","null","","","","","","","","","","","","","","","","","","","","","","","feedback_test"
"","","","","","psychophysics","187","688346","0.0-7.2-0.2-0.86","888","","f","","","","","","","","","","","","","key","f","6.06058064516138","960","536","f","true","img/S_ambi40.png","自我","prac",""
"","","","","","html-keyboard-response","188","688859","0.0-7.2-0.2-1.86","null","<span style='color:GreenYellow; font-size: 70px;'>正确! </span>","null","","","","","","","","","","","","","","","","","","","","","","","feedback_test"
"","","","","","psychophysics","189","690529","0.0-7.2-0.2-0.87","668","","j","","","","","","","","","","","","","key","j","6.060631386861358","960","536","f","false","img/H_ambi40.png","朋友","prac",""
"","","","","","html-keyboard-response","190","691033","0.0-7.2-0.2-1.87","null","<span style='color:red; font-size: 70px;'>错误! </span>","null","","","","","","","","","","","","","","","","","","","","","","","feedback_test"
"","","","","","psychophysics","191","692612","0.0-7.2-0.2-0.88","578","","f","","","","","","","","","","","","","key","f","6.0605984555982575","960","536","f","true","img/T_ambi40.png","をる","prac",""
"","","","","","html-keyboard-response","192","693129","0.0-7.2-0.2-1.88","null","<span style='color:GreenYellow; font-size: 70px;'>正确! </span>","null","","","","","","","","","","","","","","","","","","","","","","","feedback_test"
"","","","","","psychophysics","193","695103","0.0-7.2-0.2-0.89","972","","j","","","","","","","","","","","","","key","j","6.060716049382779","960","536","j","true","img/S_ambi40.png","生人","prac",""
"","","","","","html-keyboard-response","194","695612","0.0-7.2-0.2-1.89","null","<span style='color:GreenYellow; font-size: 70px;'>正确! </span>","null","","","","","","","","","","","","","","","","","","","","","","","feedback_test"
"","","","","","psychophysics","195","697429","0.0-7.2-0.2-0.90","816","","j","","","","","","","","","","","","","key","j","6.053424242424139","960","536","j","true","img/H_ambi40.png","自我","prac",""
"","","","","","html-keyboard-response","196","697942","0.0-7.2-0.2-1.90","null","<span style='color:GreenYellow; font-size: 70px;'>正确! </span>","null","","","","","","","","","","","","","","","","","","","","","","","feedback_test"
"","","","","","psychophysics","197","699568","0.0-7.2-0.2-0.91","624","","f","","","","","","","","","","","","","key","f","6.060606741572709","960","536","f","true","img/S_ambi40.png","自我","prac",""
"","","","","","html-keyboard-response","198","700081","0.0-7.2-0.2-1.91","null","<span style='color:GreenYellow; font-size: 70px;'>正确! </span>","null","","","","","","","","","","","","","","","","","","","","","","","feedback_test"
"","","","","","psychophysics","199","701585","0.0-7.2-0.2-0.92","502","","f","","","","","","","","","","","","","key","f","6.060566801619283","960","536","f","true","img/T_ambi40.png","をる","prac",""
"","","","","","html-keyboard-response","200","702100","0.0-7.2-0.2-1.92","null","<span style='color:GreenYellow; font-size: 70px;'>正确! </span>","null","","","","","","","","","","","","","","","","","","","","","","","feedback_test"
"","","","","","psychophysics","201","704121","0.0-7.2-0.2-0.93","1019","","f","","","","","","","","","","","","","key","f","6.060596385542219","960","536","f","true","img/C_ambi40.png","生人","prac",""
"","","","","","html-keyboard-response","202","704633","0.0-7.2-0.2-1.93","null","<span style='color:GreenYellow; font-size: 70px;'>正确! </span>","null","","","","","","","","","","","","","","","","","","","","","","","feedback_test"
"","","","","","psychophysics","203","706238","0.0-7.2-0.2-0.94","604","","j","","","","","","","","","","","","","key","j","6.060617424242082","960","536","j","true","img/H_ambi40.png","生人","prac",""
"","","","","","html-keyboard-response","204","706745","0.0-7.2-0.2-1.94","null","<span style='color:GreenYellow; font-size: 70px;'>正确! </span>","null","","","","","","","","","","","","","","","","","","","","","","","feedback_test"
"","","","","","psychophysics","205","708233","0.0-7.2-0.2-0.95","486","","f","","","","","","","","","","","","","key","f","6.060677551020089","960","536","f","true","img/T_ambi40.png","をる","prac",""
"","","","","","html-keyboard-response","206","708745","0.0-7.2-0.2-1.95","null","<span style='color:GreenYellow; font-size: 70px;'>正确! </span>","null","","","","","","","","","","","","","","","","","","","","","","","feedback_test"
"","","","","","html-keyboard-response","207","714837","0.0-8.0","6089","<style>.context{color:white; font-size: 35px; line-height:40px}</style>                          <div><p class='context'>您正确回答了91% 的试次。</p ><p class='context'>您的平均反应时为812毫秒。</p ><p class='context'>恭喜您完成练习。按任意键进入正式实验。</p ><p class='footer' style='font-size: 35px; line-height:40px;'>请在进入正式实验实验之前将您的<span style='color: lightgreen;'>食指</span>放在电脑键盘的相应键位上进行按键。</p >"," ","","","","","","","","","","","","","","","","","","","","","","",""
"","","","","","psychophysics","208","717140","0.0-9.0-0.0-0.0-0.0-0.0","1297","","f","","","","","","","","","","","","","key","f","6.0508882978722385","960","536","j","false","img/H_ambi40.png","生人","same",""
"","","","","","html-keyboard-response","209","717652","0.0-9.0-0.0-0.0-0.0-1.0","null","<span style='color:red; font-size: 70px;'>错误! </span>","null","","","","","","","","","","","","","","","","","","","","","","","feedback_test"
"","","","","","psychophysics","210","719841","0.0-9.0-0.0-0.0-0.0-0.1","1188","","j","","","","","","","","","","","","","key","j","6.06045000000029","960","536","j","true","img/S_ambi40.png","生人","same",""
"","","","","","html-keyboard-response","211","720352","0.0-9.0-0.0-0.0-0.0-1.1","null","<span style='color:GreenYellow; font-size: 70px;'>正确! </span>","null","","","","","","","","","","","","","","","","","","","","","","","feedback_test"
"","","","","","psychophysics","212","722046","0.0-9.0-0.0-0.0-0.0-0.2","693","","j","","","","","","","","","","","","","key","j","6.051454873646303","960","536","j","true","img/C_ambi40.png","朋友","same",""
"","","","","","html-keyboard-response","213","722557","0.0-9.0-0.0-0.0-0.0-1.2","null","<span style='color:GreenYellow; font-size: 70px;'>正确! </span>","null","","","","","","","","","","","","","","","","","","","","","","","feedback_test"
"","","","","","psychophysics","214","724692","0.0-9.0-0.0-0.0-0.0-0.3","1135","","j","","","","","","","","","","","","","key","j","6.060643874644103","960","536","f","false","img/H_ambi40.png","朋友","same",""
"","","","","","html-keyboard-response","215","725194","0.0-9.0-0.0-0.0-0.0-1.3","null","<span style='color:red; font-size: 70px;'>错误! </span>","null","","","","","","","","","","","","","","","","","","","","","","","feedback_test"
"","","","","","psychophysics","216","726699","0.0-9.0-0.0-0.0-0.0-0.4","503","","f","","","","","","","","","","","","","key","f","6.060596774193748","960","536","f","true","img/T_ambi40.png","をる","same",""
"","","","","","html-keyboard-response","217","727207","0.0-9.0-0.0-0.0-0.0-1.4","null","<span style='color:GreenYellow; font-size: 70px;'>正确! </span>","null","","","","","","","","","","","","","","","","","","","","","","","feedback_test"
"","","","","","psychophysics","218","728760","0.0-9.0-0.0-0.0-0.0-0.5","552","","f","","","","","","","","","","","","","key","f","6.060521568627754","960","536","j","false","img/C_ambi40.png","自我","same",""
"","","","","","html-keyboard-response","219","729262","0.0-9.0-0.0-0.0-0.0-1.5","null","<span style='color:red; font-size: 70px;'>错误! </span>","null","","","","","","","","","","","","","","","","","","","","","","","feedback_test"
"","","","","","psychophysics","220","731097","0.0-9.0-0.0-0.0-0.0-0.6","834","","f","","","","","","","","","","","","","key","f","6.060631229235881","960","536","f","true","img/S_ambi40.png","自我","same",""
"","","","","","html-keyboard-response","221","731608","0.0-9.0-0.0-0.0-0.0-1.6","null","<span style='color:GreenYellow; font-size: 70px;'>正确! </span>","null","","","","","","","","","","","","","","","","","","","","","","","feedback_test"
"","","","","","psychophysics","222","733887","0.0-9.0-0.0-0.0-0.0-0.7","1278","","f","","","","","","","","","","","","","key","f","6.060735999999879","960","536","j","false","img/H_ambi40.png","生人","same",""
"","","","","","html-keyboard-response","223","734403","0.0-9.0-0.0-0.0-0.0-1.7","null","<span style='color:red; font-size: 70px;'>错误! </span>","null","","","","","","","","","","","","","","","","","","","","","","","feedback_test"
"","","","","","psychophysics","224","736025","0.0-9.0-0.0-0.0-0.0-0.8","619","","f","","","","","","","","","","","","","key","f","6.060545112781885","960","536","f","true","img/T_ambi40.png","をる","same",""
"","","","","","html-keyboard-response","225","736532","0.0-9.0-0.0-0.0-0.0-1.8","null","<span style='color:GreenYellow; font-size: 70px;'>正确! </span>","null","","","","","","","","","","","","","","","","","","","","","","","feedback_test"
"","","","","","psychophysics","226","738440","0.0-9.0-0.0-0.0-0.0-0.9","907","","j","","","","","","","","","","","","","key","j","6.060579617834386","960","536","j","true","img/H_ambi40.png","自我","same",""
"","","","","","html-keyboard-response","227","738946","0.0-9.0-0.0-0.0-0.0-1.9","null","<span style='color:GreenYellow; font-size: 70px;'>正确! </span>","null","","","","","","","","","","","","","","","","","","","","","","","feedback_test"
"","","","","","psychophysics","228","741096","0.0-9.0-0.0-0.0-0.0-0.10","1149","","f","","","","","","","","","","","","","key","f","6.051360795454292","960","536","j","false","img/S_ambi40.png","朋友","same",""
"","","","","","html-keyboard-response","229","741607","0.0-9.0-0.0-0.0-0.0-1.10","null","<span style='color:red; font-size: 70px;'>错误! </span>","null","","","","","","","","","","","","","","","","","","","","","","","feedback_test"
"","","","","","psychophysics","230","743324","0.0-9.0-0.0-0.0-0.0-0.11","716","","f","","","","","","","","","","","","","key","f","6.060517730496424","960","536","j","false","img/C_ambi40.png","自我","same",""
"","","","","","html-keyboard-response","231","743836","0.0-9.0-0.0-0.0-0.0-1.11","null","<span style='color:red; font-size: 70px;'>错误! </span>","null","","","","","","","","","","","","","","","","","","","","","","","feedback_test"
"","","","","","psychophysics","232","745881","0.0-9.0-0.0-0.0-0.0-0.12","1043","","f","","","","","","","","","","","","","key","f","6.060418397625867","960","536","f","true","img/H_ambi40.png","朋友","same",""
"","","","","","html-keyboard-response","233","746386","0.0-9.0-0.0-0.0-0.0-1.12","null","<span style='color:GreenYellow; font-size: 70px;'>正确! </span>","null","","","","","","","","","","","","","","","","","","","","","","","feedback_test"
"","","","","","psychophysics","234","748262","0.0-9.0-0.0-0.0-0.0-0.13","874","","f","","","","","","","","","","","","","key","f","6.060678571428614","960","536","f","true","img/S_ambi40.png","自我","same",""
"","","","","","html-keyboard-response","235","748773","0.0-9.0-0.0-0.0-0.0-1.13","null","<span style='color:GreenYellow; font-size: 70px;'>正确! </span>","null","","","","","","","","","","","","","","","","","","","","","","","feedback_test"
"","","","","","psychophysics","236","750687","0.0-9.0-0.0-0.0-0.0-0.14","913","","j","","","","","","","","","","","","","key","j","6.060647619047779","960","536","j","true","img/S_ambi40.png","朋友","same",""
"","","","","","html-keyboard-response","237","751200","0.0-9.0-0.0-0.0-0.0-1.14","null","<span style='color:GreenYellow; font-size: 70px;'>正确! </span>","null","","","","","","","","","","","","","","","","","","","","","","","feedback_test"
"","","","","","psychophysics","238","752837","0.0-9.0-0.0-0.0-0.0-0.15","635","","f","","","","","","","","","","","","","key","f","6.060583643122753","960","536","f","true","img/T_ambi40.png","をる","same",""
"","","","","","html-keyboard-response","239","753352","0.0-9.0-0.0-0.0-0.0-1.15","null","<span style='color:GreenYellow; font-size: 70px;'>正确! </span>","null","","","","","","","","","","","","","","","","","","","","","","","feedback_test"
"","","","","","psychophysics","240","755427","0.0-9.0-0.0-0.0-0.0-0.16","1074","","f","","","","","","","","","","","","","key","f","6.051679411764695","960","536","f","true","img/C_ambi40.png","生人","same",""
"","","","","","html-keyboard-response","241","755942","0.0-9.0-0.0-0.0-0.0-1.16","null","<span style='color:GreenYellow; font-size: 70px;'>正确! </span>","null","","","","","","","","","","","","","","","","","","","","","","","feedback_test"
"","","","","","psychophysics","242","757489","0.0-9.0-0.0-0.0-0.0-0.17","546","","f","","","","","","","","","","","","","key","f","6.060850393700809","960","536","f","true","img/C_ambi40.png","生人","same",""
"","","","","","html-keyboard-response","243","757992","0.0-9.0-0.0-0.0-0.0-1.17","null","<span style='color:GreenYellow; font-size: 70px;'>正确! </span>","null","","","","","","","","","","","","","","","","","","","","","","","feedback_test"
"","","","","","psychophysics","244","759716","0.0-9.0-0.0-0.0-0.0-0.18","721","","f","","","","","","","","","","","","","key","f","6.060431095406202","960","536","j","false","img/C_ambi40.png","朋友","same",""
"","","","","","html-keyboard-response","245","760225","0.0-9.0-0.0-0.0-0.0-1.18","null","<span style='color:red; font-size: 70px;'>错误! </span>","null","","","","","","","","","","","","","","","","","","","","","","","feedback_test"
"","","","","","psychophysics","246","762086","0.0-9.0-0.0-0.0-0.0-0.19","860","","f","","","","","","","","","","","","","key","f","6.053555921052497","960","536","f","true","img/H_ambi40.png","朋友","same",""
"","","","","","html-keyboard-response","247","762599","0.0-9.0-0.0-0.0-0.0-1.19","null","<span style='color:GreenYellow; font-size: 70px;'>正确! </span>","null","","","","","","","","","","","","","","","","","","","","","","","feedback_test"
"","","","","","psychophysics","248","764235","0.0-9.0-0.0-0.0-0.0-0.20","634","","f","","","","","","","","","","","","","key","f","6.0606133828998185","960","536","f","true","img/H_ambi40.png","朋友","same",""
"","","","","","html-keyboard-response","249","764743","0.0-9.0-0.0-0.0-0.0-1.20","null","<span style='color:GreenYellow; font-size: 70px;'>正确! </span>","null","","","","","","","","","","","","","","","","","","","","","","","feedback_test"
"","","","","","psychophysics","250","766474","0.0-9.0-0.0-0.0-0.0-0.21","730","","j","","","","","","","","","","","","","key","j","6.060598591549165","960","536","j","true","img/S_ambi40.png","朋友","same",""
"","","","","","html-keyboard-response","251","766975","0.0-9.0-0.0-0.0-0.0-1.21","null","<span style='color:GreenYellow; font-size: 70px;'>正确! </span>","null","","","","","","","","","","","","","","","","","","","","","","","feedback_test"
"","","","","","psychophysics","252","769295","0.0-9.0-0.0-0.0-0.0-0.22","1319","","j","","","","","","","","","","","","","key","j","6.060594240837689","960","536","j","true","img/S_ambi40.png","朋友","same",""
"","","","","","html-keyboard-response","253","769799","0.0-9.0-0.0-0.0-0.0-1.22","null","<span style='color:GreenYellow; font-size: 70px;'>正确! </span>","null","","","","","","","","","","","","","","","","","","","","","","","feedback_test"
"","","","","","psychophysics","254","771964","0.0-9.0-0.0-0.0-0.0-0.23","1163","","f","","","","","","","","","","","","","key","f","6.060561797752639","960","536","j","false","img/H_ambi40.png","自我","same",""
"","","","","","html-keyboard-response","255","772468","0.0-9.0-0.0-0.0-0.0-1.23","null","<span style='color:red; font-size: 70px;'>错误! </span>","null","","","","","","","","","","","","","","","","","","","","","","","feedback_test"
"","","","","","psychophysics","256","774113","0.0-9.0-0.0-0.0-0.0-0.24","644","","f","","","","","","","","","","","","","key","f","6.0606111111110765","960","536","j","false","img/C_ambi40.png","自我","same",""
"","","","","","html-keyboard-response","257","774618","0.0-9.0-0.0-0.0-0.0-1.24","null","<span style='color:red; font-size: 70px;'>错误! </span>","null","","","","","","","","","","","","","","","","","","","","","","","feedback_test"
"","","","","","psychophysics","258","777002","0.0-9.0-0.0-0.0-0.0-0.25","1383","","j","","","","","","","","","","","","","key","j","6.060591836734639","960","536","j","true","img/H_ambi40.png","生人","same",""
"","","","","","html-keyboard-response","259","777518","0.0-9.0-0.0-0.0-0.0-1.25","null","<span style='color:GreenYellow; font-size: 70px;'>正确! </span>","null","","","","","","","","","","","","","","","","","","","","","","","feedback_test"
"","","","","","psychophysics","260","779747","0.0-9.0-0.0-0.0-0.0-0.26","1228","","j","","","","","","","","","","","","","key","j","6.060573770491918","960","536","j","true","img/H_ambi40.png","生人","same",""
"","","","","","html-keyboard-response","261","780255","0.0-9.0-0.0-0.0-0.0-1.26","null","<span style='color:GreenYellow; font-size: 70px;'>正确! </span>","null","","","","","","","","","","","","","","","","","","","","","","","feedback_test"
"","","","","","psychophysics","262","781896","0.0-9.0-0.0-0.0-0.0-0.27","640","","f","","","","","","","","","","","","","key","f","6.0606481481481485","960","536","f","true","img/T_ambi40.png","をる","same",""
"","","","","","html-keyboard-response","263","782397","0.0-9.0-0.0-0.0-0.0-1.27","null","<span style='color:GreenYellow; font-size: 70px;'>正确! </span>","null","","","","","","","","","","","","","","","","","","","","","","","feedback_test"
"","","","","","psychophysics","264","784179","0.0-9.0-0.0-0.0-0.0-0.28","781","","f","","","","","","","","","","","","","key","f","6.060610921501974","960","536","f","true","img/T_ambi40.png","をる","same",""
"","","","","","html-keyboard-response","265","784690","0.0-9.0-0.0-0.0-0.0-1.28","null","<span style='color:GreenYellow; font-size: 70px;'>正确! </span>","null","","","","","","","","","","","","","","","","","","","","","","","feedback_test"
"","","","","","psychophysics","266","787144","0.0-9.0-0.0-0.0-0.0-0.29","1454","","f","","","","","","","","","","","","","key","f","6.060618811881165","960","536","f","true","img/C_ambi40.png","生人","same",""
"","","","","","html-keyboard-response","267","787650","0.0-9.0-0.0-0.0-0.0-1.29","null","<span style='color:GreenYellow; font-size: 70px;'>正确! </span>","null","","","","","","","","","","","","","","","","","","","","","","","feedback_test"
"","","","","","psychophysics","268","789967","0.0-9.0-0.0-0.0-0.0-0.30","1314","","j","","","","","","","","","","","","","key","j","6.060611548556413","960","536","j","true","img/C_ambi40.png","自我","same",""
"","","","","","html-keyboard-response","269","790474","0.0-9.0-0.0-0.0-0.0-1.30","null","<span style='color:GreenYellow; font-size: 70px;'>正确! </span>","null","","","","","","","","","","","","","","","","","","","","","","","feedback_test"
"","","","","","psychophysics","270","792138","0.0-9.0-0.0-0.0-0.0-0.31","664","","f","","","","","","","","","","","","","key","f","6.049577205882302","960","536","f","true","img/T_ambi40.png","をる","same",""
"","","","","","html-keyboard-response","271","792653","0.0-9.0-0.0-0.0-0.0-1.31","null","<span style='color:GreenYellow; font-size: 70px;'>正确! </span>","null","","","","","","","","","","","","","","","","","","","","","","","feedback_test"
"","","","","","psychophysics","272","794894","0.0-9.0-0.0-0.0-0.0-0.32","1240","","f","","","","","","","","","","","","","key","f","6.060558265582709","960","536","f","true","img/S_ambi40.png","自我","same",""
"","","","","","html-keyboard-response","273","795407","0.0-9.0-0.0-0.0-0.0-1.32","null","<span style='color:GreenYellow; font-size: 70px;'>正确! </span>","null","","","","","","","","","","","","","","","","","","","","","","","feedback_test"
"","","","","","psychophysics","274","797166","0.0-9.0-0.0-0.0-0.0-0.33","758","","j","","","","","","","","","","","","","key","j","6.0524965277780005","960","536","j","true","img/S_ambi40.png","生人","same",""
"","","","","","html-keyboard-response","275","797678","0.0-9.0-0.0-0.0-0.0-1.33","null","<span style='color:GreenYellow; font-size: 70px;'>正确! </span>","null","","","","","","","","","","","","","","","","","","","","","","","feedback_test"
"","","","","","psychophysics","276","800179","0.0-9.0-0.0-0.0-0.0-0.34","null","","null","","","","","","","","","","","","","key","null","6.0605849514563355","960","536","f","false","img/C_ambi40.png","生人","same",""
"","","","","","html-keyboard-response","277","800689","0.0-9.0-0.0-0.0-0.0-1.34","null","<span class='add_' style='color:yellow; font-size: 70px;'> 太慢! </span>","null","","","","","","","","","","","","","","","","","","","","","","","feedback_test"
"","","","","","psychophysics","278","802688","0.0-9.0-0.0-0.0-0.0-0.35","998","","f","","","","","","","","","","","","","key","f","6.060486322188167","960","536","f","true","img/S_ambi40.png","自我","same",""
"","","","","","html-keyboard-response","279","803193","0.0-9.0-0.0-0.0-0.0-1.35","null","<span style='color:GreenYellow; font-size: 70px;'>正确! </span>","null","","","","","","","","","","","","","","","","","","","","","","","feedback_test"
"","","","","","psychophysics","280","805278","0.0-9.0-0.0-0.0-0.0-0.36","1083","","j","","","","","","","","","","","","","key","j","6.060568513119601","960","536","j","true","img/S_ambi40.png","朋友","same",""
"","","","","","html-keyboard-response","281","805787","0.0-9.0-0.0-0.0-0.0-1.36","null","<span style='color:GreenYellow; font-size: 70px;'>正确! </span>","null","","","","","","","","","","","","","","","","","","","","","","","feedback_test"
"","","","","","psychophysics","282","807638","0.0-9.0-0.0-0.0-0.0-0.37","850","","j","","","","","","","","","","","","","key","j","6.0606196721309615","960","536","j","true","img/S_ambi40.png","朋友","same",""
"","","","","","html-keyboard-response","283","808142","0.0-9.0-0.0-0.0-0.0-1.37","null","<span style='color:GreenYellow; font-size: 70px;'>正确! </span>","null","","","","","","","","","","","","","","","","","","","","","","","feedback_test"
"","","","","","psychophysics","284","809909","0.0-9.0-0.0-0.0-0.0-0.38","766","","f","","","","","","","","","","","","","key","f","6.0606241379306525","960","536","f","true","img/T_ambi40.png","をる","same",""
"","","","","","html-keyboard-response","285","810417","0.0-9.0-0.0-0.0-0.0-1.38","null","<span style='color:GreenYellow; font-size: 70px;'>正确! </span>","null","","","","","","","","","","","","","","","","","","","","","","","feedback_test"
"","","","","","psychophysics","286","811992","0.0-9.0-0.0-0.0-0.0-0.39","574","","f","","","","","","","","","","","","","key","f","6.060660231660271","960","536","f","true","img/C_ambi40.png","生人","same",""
"","","","","","html-keyboard-response","287","812501","0.0-9.0-0.0-0.0-0.0-1.39","null","<span style='color:GreenYellow; font-size: 70px;'>正确! </span>","null","","","","","","","","","","","","","","","","","","","","","","","feedback_test"
"","","","","","psychophysics","288","814186","0.0-9.0-0.0-0.0-0.0-0.40","684","","j","","","","","","","","","","","","","key","j","6.060602888086683","960","536","j","true","img/S_ambi40.png","生人","same",""
"","","","","","html-keyboard-response","289","814697","0.0-9.0-0.0-0.0-0.0-1.40","null","<span style='color:GreenYellow; font-size: 70px;'>正确! </span>","null","","","","","","","","","","","","","","","","","","","","","","","feedback_test"
"","","","","","psychophysics","290","816314","0.0-9.0-0.0-0.0-0.0-0.41","616","","f","","","","","","","","","","","","","key","f","6.04830303030339","960","536","f","true","img/T_ambi40.png","をる","same",""
"","","","","","html-keyboard-response","291","816816","0.0-9.0-0.0-0.0-0.0-1.41","null","<span style='color:GreenYellow; font-size: 70px;'>正确! </span>","null","","","","","","","","","","","","","","","","","","","","","","","feedback_test"
"","","","","","psychophysics","292","818695","0.0-9.0-0.0-0.0-0.0-0.42","877","","j","","","","","","","","","","","","","key","j","6.06060517799376","960","536","j","true","img/C_ambi40.png","自我","same",""
"","","","","","html-keyboard-response","293","819202","0.0-9.0-0.0-0.0-0.0-1.42","null","<span style='color:GreenYellow; font-size: 70px;'>正确! </span>","null","","","","","","","","","","","","","","","","","","","","","","","feedback_test"
"","","","","","psychophysics","294","821065","0.0-9.0-0.0-0.0-0.0-0.43","861","","j","","","","","","","","","","","","","key","j","6.060630718954105","960","536","j","true","img/H_ambi40.png","生人","same",""
"","","","","","html-keyboard-response","295","821569","0.0-9.0-0.0-0.0-0.0-1.43","null","<span style='color:GreenYellow; font-size: 70px;'>正确! </span>","null","","","","","","","","","","","","","","","","","","","","","","","feedback_test"
"","","","","","psychophysics","296","823369","0.0-9.0-0.0-0.0-0.0-0.44","799","","j","","","","","","","","","","","","","key","j","6.060581081080788","960","536","f","false","img/S_ambi40.png","自我","same",""
"","","","","","html-keyboard-response","297","823876","0.0-9.0-0.0-0.0-0.0-1.44","null","<span style='color:red; font-size: 70px;'>错误! </span>","null","","","","","","","","","","","","","","","","","","","","","","","feedback_test"
"","","","","","psychophysics","298","825739","0.0-9.0-0.0-0.0-0.0-0.45","862","","j","","","","","","","","","","","","","key","j","6.0605816993462165","960","536","j","true","img/C_ambi40.png","朋友","same",""
"","","","","","html-keyboard-response","299","826252","0.0-9.0-0.0-0.0-0.0-1.45","null","<span style='color:GreenYellow; font-size: 70px;'>正确! </span>","null","","","","","","","","","","","","","","","","","","","","","","","feedback_test"
"","","","","","psychophysics","300","827900","0.0-9.0-0.0-0.0-0.0-0.46","647","","j","","","","","","","","","","","","","key","j","6.060568265682619","960","536","j","true","img/H_ambi40.png","生人","same",""
"","","","","","html-keyboard-response","301","828416","0.0-9.0-0.0-0.0-0.0-1.46","null","<span style='color:GreenYellow; font-size: 70px;'>正确! </span>","null","","","","","","","","","","","","","","","","","","","","","","","feedback_test"
"","","","","","psychophysics","302","830733","0.0-9.0-0.0-0.0-0.0-0.47","1316","","f","","","","","","","","","","","","","key","f","6.060593175853045","960","536","f","true","img/C_ambi40.png","生人","same",""
"","","","","","html-keyboard-response","303","831250","0.0-9.0-0.0-0.0-0.0-1.47","null","<span style='color:GreenYellow; font-size: 70px;'>正确! </span>","null","","","","","","","","","","","","","","","","","","","","","","","feedback_test"
"","","","","","psychophysics","304","833148","0.0-9.0-0.0-0.0-0.0-0.48","898","","j","","","","","","","","","","","","","key","j","6.0602339743591775","960","536","j","true","img/H_ambi40.png","自我","same",""
"","","","","","html-keyboard-response","305","833658","0.0-9.0-0.0-0.0-0.0-1.48","null","<span style='color:GreenYellow; font-size: 70px;'>正确! </span>","null","","","","","","","","","","","","","","","","","","","","","","","feedback_test"
"","","","","","psychophysics","306","835407","0.0-9.0-0.0-0.0-0.0-0.49","747","","f","","","","","","","","","","","","","key","f","6.06063414634147","960","536","f","true","img/H_ambi40.png","朋友","same",""
"","","","","","html-keyboard-response","307","835922","0.0-9.0-0.0-0.0-0.0-1.49","null","<span style='color:GreenYellow; font-size: 70px;'>正确! </span>","null","","","","","","","","","","","","","","","","","","","","","","","feedback_test"
"","","","","","psychophysics","308","837623","0.0-9.0-0.0-0.0-0.0-0.50","700","","f","","","","","","","","","","","","","key","f","6.0606236559139415","960","536","f","true","img/H_ambi40.png","朋友","same",""
"","","","","","html-keyboard-response","309","838136","0.0-9.0-0.0-0.0-0.0-1.50","null","<span style='color:GreenYellow; font-size: 70px;'>正确! </span>","null","","","","","","","","","","","","","","","","","","","","","","","feedback_test"
"","","","","","psychophysics","310","840269","0.0-9.0-0.0-0.0-0.0-0.51","1130","","f","","","","","","","","","","","","","key","f","6.0606239316238755","960","536","j","false","img/C_ambi40.png","自我","same",""
"","","","","","html-keyboard-response","311","840771","0.0-9.0-0.0-0.0-0.0-1.51","null","<span style='color:red; font-size: 70px;'>错误! </span>","null","","","","","","","","","","","","","","","","","","","","","","","feedback_test"
"","","","","","psychophysics","312","842410","0.0-9.0-0.0-0.0-0.0-0.52","638","","f","","","","","","","","","","","","","key","f","6.06049814126385","960","536","f","true","img/T_ambi40.png","をる","same",""
"","","","","","html-keyboard-response","313","842915","0.0-9.0-0.0-0.0-0.0-1.52","null","<span style='color:GreenYellow; font-size: 70px;'>正确! </span>","null","","","","","","","","","","","","","","","","","","","","","","","feedback_test"
"","","","","","psychophysics","314","844646","0.0-9.0-0.0-0.0-0.0-0.53","730","","f","","","","","","","","","","","","","key","f","6.0508657243816915","960","536","f","true","img/S_ambi40.png","自我","same",""
"","","","","","html-keyboard-response","315","845152","0.0-9.0-0.0-0.0-0.0-1.53","null","<span style='color:GreenYellow; font-size: 70px;'>正确! </span>","null","","","","","","","","","","","","","","","","","","","","","","","feedback_test"
"","","","","","psychophysics","316","846817","0.0-9.0-0.0-0.0-0.0-0.54","663","","f","","","","","","","","","","","","","key","f","6.050433823529388","960","536","f","true","img/S_ambi40.png","自我","same",""
"","","","","","html-keyboard-response","317","847326","0.0-9.0-0.0-0.0-0.0-1.54","null","<span style='color:GreenYellow; font-size: 70px;'>正确! </span>","null","","","","","","","","","","","","","","","","","","","","","","","feedback_test"
"","","","","","psychophysics","318","849189","0.0-9.0-0.0-0.0-0.0-0.55","861","","j","","","","","","","","","","","","","key","j","6.0605359477123395","960","536","j","true","img/C_ambi40.png","自我","same",""
"","","","","","html-keyboard-response","319","849701","0.0-9.0-0.0-0.0-0.0-1.55","null","<span style='color:GreenYellow; font-size: 70px;'>正确! </span>","null","","","","","","","","","","","","","","","","","","","","","","","feedback_test"
"","","","","","psychophysics","320","851657","0.0-9.0-0.0-0.0-0.0-0.56","955","","f","","","","","","","","","","","","","key","f","6.060478260869707","960","536","f","true","img/H_ambi40.png","朋友","same",""
"","","","","","html-keyboard-response","321","852172","0.0-9.0-0.0-0.0-0.0-1.56","null","<span style='color:GreenYellow; font-size: 70px;'>正确! </span>","null","","","","","","","","","","","","","","","","","","","","","","","feedback_test"
"","","","","","psychophysics","322","853983","0.0-9.0-0.0-0.0-0.0-0.57","810","","j","","","","","","","","","","","","","key","j","6.060657718120808","960","536","j","true","img/C_ambi40.png","朋友","same",""
"","","","","","html-keyboard-response","323","854490","0.0-9.0-0.0-0.0-0.0-1.57","null","<span style='color:GreenYellow; font-size: 70px;'>正确! </span>","null","","","","","","","","","","","","","","","","","","","","","","","feedback_test"
"","","","","","psychophysics","324","856309","0.0-9.0-0.0-0.0-0.0-0.58","817","","j","","","","","","","","","","","","","key","j","6.060622073578754","960","536","j","true","img/C_ambi40.png","自我","same",""
"","","","","","html-keyboard-response","325","856814","0.0-9.0-0.0-0.0-0.0-1.58","null","<span style='color:GreenYellow; font-size: 70px;'>正确! </span>","null","","","","","","","","","","","","","","","","","","","","","","","feedback_test"
"","","","","","psychophysics","326","858635","0.0-9.0-0.0-0.0-0.0-0.59","819","","j","","","","","","","","","","","","","key","j","6.060581939799141","960","536","j","true","img/H_ambi40.png","自我","same",""
"","","","","","html-keyboard-response","327","859144","0.0-9.0-0.0-0.0-0.0-1.59","null","<span style='color:GreenYellow; font-size: 70px;'>正确! </span>","null","","","","","","","","","","","","","","","","","","","","","","","feedback_test"
"","","","","","psychophysics","328","861183","0.0-9.0-0.0-0.0-0.0-0.60","1037","","j","","","","","","","","","","","","","key","j","6.060674626865675","960","536","j","true","img/H_ambi40.png","生人","same",""
"","","","","","html-keyboard-response","329","861688","0.0-9.0-0.0-0.0-0.0-1.60","null","<span style='color:GreenYellow; font-size: 70px;'>正确! </span>","null","","","","","","","","","","","","","","","","","","","","","","","feedback_test"
"","","","","","psychophysics","330","863344","0.0-9.0-0.0-0.0-0.0-0.61","654","","f","","","","","","","","","","","","","key","f","6.060511029411881","960","536","f","true","img/C_ambi40.png","生人","same",""
"","","","","","html-keyboard-response","331","863856","0.0-9.0-0.0-0.0-0.0-1.61","null","<span style='color:GreenYellow; font-size: 70px;'>正确! </span>","null","","","","","","","","","","","","","","","","","","","","","","","feedback_test"
"","","","","","psychophysics","332","865647","0.0-9.0-0.0-0.0-0.0-0.62","790","","j","","","","","","","","","","","","","key","j","6.060547619047543","960","536","j","true","img/S_ambi40.png","生人","same",""
"","","","","","html-keyboard-response","333","866154","0.0-9.0-0.0-0.0-0.0-1.62","null","<span style='color:GreenYellow; font-size: 70px;'>正确! </span>","null","","","","","","","","","","","","","","","","","","","","","","","feedback_test"
"","","","","","psychophysics","334","867785","0.0-9.0-0.0-0.0-0.0-0.63","631","","f","","","","","","","","","","","","","key","f","6.0606791044775665","960","536","f","true","img/T_ambi40.png","をる","same",""
"","","","","","html-keyboard-response","335","868293","0.0-9.0-0.0-0.0-0.0-1.63","null","<span style='color:GreenYellow; font-size: 70px;'>正确! </span>","null","","","","","","","","","","","","","","","","","","","","","","","feedback_test"
"","","","","","psychophysics","336","869814","0.0-9.0-0.0-0.0-0.0-0.64","519","","f","","","","","","","","","","","","","key","f","6.060455999999773","960","536","f","true","img/T_ambi40.png","をる","same",""
"","","","","","html-keyboard-response","337","870326","0.0-9.0-0.0-0.0-0.0-1.64","null","<span style='color:GreenYellow; font-size: 70px;'>正确! </span>","null","","","","","","","","","","","","","","","","","","","","","","","feedback_test"
"","","","","","psychophysics","338","872713","0.0-9.0-0.0-0.0-0.0-0.65","1387","","f","","","","","","","","","","","","","key","f","6.060692111959174","960","536","f","true","img/S_ambi40.png","自我","same",""
"","","","","","html-keyboard-response","339","873218","0.0-9.0-0.0-0.0-0.0-1.65","null","<span style='color:GreenYellow; font-size: 70px;'>正确! </span>","null","","","","","","","","","","","","","","","","","","","","","","","feedback_test"
"","","","","","psychophysics","340","874973","0.0-9.0-0.0-0.0-0.0-0.66","754","","j","","","","","","","","","","","","","key","j","6.060643598616162","960","536","j","true","img/S_ambi40.png","朋友","same",""
"","","","","","html-keyboard-response","341","875478","0.0-9.0-0.0-0.0-0.0-1.66","null","<span style='color:GreenYellow; font-size: 70px;'>正确! </span>","null","","","","","","","","","","","","","","","","","","","","","","","feedback_test"
"","","","","","psychophysics","342","877332","0.0-9.0-0.0-0.0-0.0-0.67","854","","f","","","","","","","","","","","","","key","f","6.060563934426449","960","536","f","true","img/H_ambi40.png","朋友","same",""
"","","","","","html-keyboard-response","343","877833","0.0-9.0-0.0-0.0-0.0-1.67","null","<span style='color:GreenYellow; font-size: 70px;'>正确! </span>","null","","","","","","","","","","","","","","","","","","","","","","","feedback_test"
"","","","","","psychophysics","344","880033","0.0-9.0-0.0-0.0-0.0-0.68","1199","","j","","","","","","","","","","","","","key","j","6.060629834254074","960","536","f","false","img/C_ambi40.png","生人","same",""
"","","","","","html-keyboard-response","345","880534","0.0-9.0-0.0-0.0-0.0-1.68","null","<span style='color:red; font-size: 70px;'>错误! </span>","null","","","","","","","","","","","","","","","","","","","","","","","feedback_test"
"","","","","","psychophysics","346","882239","0.0-9.0-0.0-0.0-0.0-0.69","704","","j","","","","","","","","","","","","","key","j","6.0493261648745085","960","536","j","true","img/H_ambi40.png","生人","same",""
"","","","","","html-keyboard-response","347","882754","0.0-9.0-0.0-0.0-0.0-1.69","null","<span style='color:GreenYellow; font-size: 70px;'>正确! </span>","null","","","","","","","","","","","","","","","","","","","","","","","feedback_test"
"","","","","","psychophysics","348","884718","0.0-9.0-0.0-0.0-0.0-0.70","962","","f","","","","","","","","","","","","","key","f","6.06061919504631","960","536","j","false","img/S_ambi40.png","朋友","same",""
"","","","","","html-keyboard-response","349","885222","0.0-9.0-0.0-0.0-0.0-1.70","null","<span style='color:red; font-size: 70px;'>错误! </span>","null","","","","","","","","","","","","","","","","","","","","","","","feedback_test"
"","","","","","psychophysics","350","886858","0.0-9.0-0.0-0.0-0.0-0.71","635","","f","","","","","","","","","","","","","key","f","6.060598513011069","960","536","f","true","img/T_ambi40.png","をる","same",""
"","","","","","html-keyboard-response","351","887365","0.0-9.0-0.0-0.0-0.0-1.71","null","<span style='color:GreenYellow; font-size: 70px;'>正确! </span>","null","","","","","","","","","","","","","","","","","","","","","","","feedback_test"
"","","","","","psychophysics","352","889383","0.0-9.0-0.0-0.0-0.0-0.72","1012","","j","","","","","","","","","","","","","key","j","6.050033333333153","960","536","j","true","img/C_ambi40.png","自我","same",""
"","","","","","html-keyboard-response","353","889897","0.0-9.0-0.0-0.0-0.0-1.72","null","<span style='color:GreenYellow; font-size: 70px;'>正确! </span>","null","","","","","","","","","","","","","","","","","","","","","","","feedback_test"
"","","","","","psychophysics","354","891730","0.0-9.0-0.0-0.0-0.0-0.73","832","","j","","","","","","","","","","","","","key","j","6.051430000000012","960","536","f","false","img/S_ambi40.png","自我","same",""
"","","","","","html-keyboard-response","355","892242","0.0-9.0-0.0-0.0-0.0-1.73","null","<span style='color:red; font-size: 70px;'>错误! </span>","null","","","","","","","","","","","","","","","","","","","","","","","feedback_test"
"","","","","","psychophysics","356","894398","0.0-9.0-0.0-0.0-0.0-0.74","1156","","f","","","","","","","","","","","","","key","f","6.060566197182904","960","536","f","true","img/C_ambi40.png","生人","same",""
"","","","","","html-keyboard-response","357","894901","0.0-9.0-0.0-0.0-0.0-1.74","null","<span style='color:GreenYellow; font-size: 70px;'>正确! </span>","null","","","","","","","","","","","","","","","","","","","","","","","feedback_test"
"","","","","","psychophysics","358","896459","0.0-9.0-0.0-0.0-0.0-0.75","558","","f","","","","","","","","","","","","","key","f","6.060539062500084","960","536","f","true","img/T_ambi40.png","をる","same",""
"","","","","","html-keyboard-response","359","896970","0.0-9.0-0.0-0.0-0.0-1.75","null","<span style='color:GreenYellow; font-size: 70px;'>正确! </span>","null","","","","","","","","","","","","","","","","","","","","","","","feedback_test"
"","","","","","psychophysics","360","899106","0.0-9.0-0.0-0.0-0.0-0.76","1135","","j","","","","","","","","","","","","","key","j","6.052808571428593","960","536","j","true","img/S_ambi40.png","生人","same",""
"","","","","","html-keyboard-response","361","899609","0.0-9.0-0.0-0.0-0.0-1.76","null","<span style='color:GreenYellow; font-size: 70px;'>正确! </span>","null","","","","","","","","","","","","","","","","","","","","","","","feedback_test"
"","","","","","psychophysics","362","901717","0.0-9.0-0.0-0.0-0.0-0.77","1107","","f","","","","","","","","","","","","","key","f","6.060619596541545","960","536","f","true","img/C_ambi40.png","生人","same",""
"","","","","","html-keyboard-response","363","902223","0.0-9.0-0.0-0.0-0.0-1.77","null","<span style='color:GreenYellow; font-size: 70px;'>正确! </span>","null","","","","","","","","","","","","","","","","","","","","","","","feedback_test"
"","","","","","psychophysics","364","903802","0.0-9.0-0.0-0.0-0.0-0.78","577","","f","","","","","","","","","","","","","key","f","6.060447876447718","960","536","f","true","img/T_ambi40.png","をる","same",""
"","","","","","html-keyboard-response","365","904303","0.0-9.0-0.0-0.0-0.0-1.78","null","<span style='color:GreenYellow; font-size: 70px;'>正确! </span>","null","","","","","","","","","","","","","","","","","","","","","","","feedback_test"
"","","","","","psychophysics","366","906204","0.0-9.0-0.0-0.0-0.0-0.79","900","","j","","","","","","","","","","","","","key","j","6.060555910543218","960","536","j","true","img/H_ambi40.png","自我","same",""
"","","","","","html-keyboard-response","367","906706","0.0-9.0-0.0-0.0-0.0-1.79","null","<span style='color:GreenYellow; font-size: 70px;'>正确! </span>","null","","","","","","","","","","","","","","","","","","","","","","","feedback_test"
"","","","","","psychophysics","368","909071","0.0-9.0-0.0-0.0-0.0-0.80","1363","","j","","","","","","","","","","","","","key","j","6.060503856041337","960","536","j","true","img/H_ambi40.png","生人","same",""
"","","","","","html-keyboard-response","369","909583","0.0-9.0-0.0-0.0-0.0-1.80","null","<span style='color:GreenYellow; font-size: 70px;'>正确! </span>","null","","","","","","","","","","","","","","","","","","","","","","","feedback_test"
"","","","","","psychophysics","370","911728","0.0-9.0-0.0-0.0-0.0-0.81","1144","","j","","","","","","","","","","","","","key","j","6.054213675213951","960","536","j","true","img/C_ambi40.png","自我","same",""
"","","","","","html-keyboard-response","371","912243","0.0-9.0-0.0-0.0-0.0-1.81","null","<span style='color:GreenYellow; font-size: 70px;'>正确! </span>","null","","","","","","","","","","","","","","","","","","","","","","","feedback_test"
"","","","","","psychophysics","372","913998","0.0-9.0-0.0-0.0-0.0-0.82","755","","f","","","","","","","","","","","","","key","f","6.0505017421605025","960","536","f","true","img/H_ambi40.png","朋友","same",""
"","","","","","html-keyboard-response","373","914502","0.0-9.0-0.0-0.0-0.0-1.82","null","<span style='color:GreenYellow; font-size: 70px;'>正确! </span>","null","","","","","","","","","","","","","","","","","","","","","","","feedback_test"
"","","","","","psychophysics","374","916094","0.0-9.0-0.0-0.0-0.0-0.83","591","","f","","","","","","","","","","","","","key","f","6.060450381679346","960","536","f","true","img/T_ambi40.png","をる","same",""
"","","","","","html-keyboard-response","375","916599","0.0-9.0-0.0-0.0-0.0-1.83","null","<span style='color:GreenYellow; font-size: 70px;'>正确! </span>","null","","","","","","","","","","","","","","","","","","","","","","","feedback_test"
"","","","","","psychophysics","376","918971","0.0-9.0-0.0-0.0-0.0-0.84","1370","","f","","","","","","","","","","","","","key","f","6.060528205128279","960","536","f","true","img/H_ambi40.png","朋友","same",""
"","","","","","html-keyboard-response","377","919479","0.0-9.0-0.0-0.0-0.0-1.84","null","<span style='color:GreenYellow; font-size: 70px;'>正确! </span>","null","","","","","","","","","","","","","","","","","","","","","","","feedback_test"
"","","","","","psychophysics","378","921253","0.0-9.0-0.0-0.0-0.0-0.85","772","","j","","","","","","","","","","","","","key","j","6.051565517241473","960","536","j","true","img/H_ambi40.png","生人","same",""
"","","","","","html-keyboard-response","379","921757","0.0-9.0-0.0-0.0-0.0-1.85","null","<span style='color:GreenYellow; font-size: 70px;'>正确! </span>","null","","","","","","","","","","","","","","","","","","","","","","","feedback_test"
"","","","","","psychophysics","380","923557","0.0-9.0-0.0-0.0-0.0-0.86","798","","j","","","","","","","","","","","","","key","j","6.060638513513589","960","536","j","true","img/S_ambi40.png","朋友","same",""
"","","","","","html-keyboard-response","381","924066","0.0-9.0-0.0-0.0-0.0-1.86","null","<span style='color:GreenYellow; font-size: 70px;'>正确! </span>","null","","","","","","","","","","","","","","","","","","","","","","","feedback_test"
"","","","","","psychophysics","382","926291","0.0-9.0-0.0-0.0-0.0-0.87","1224","","j","","","","","","","","","","","","","key","j","6.0606448087431595","960","536","j","true","img/C_ambi40.png","朋友","same",""
"","","","","","html-keyboard-response","383","926802","0.0-9.0-0.0-0.0-0.0-1.87","null","<span style='color:GreenYellow; font-size: 70px;'>正确! </span>","null","","","","","","","","","","","","","","","","","","","","","","","feedback_test"
"","","","","","psychophysics","384","928496","0.0-9.0-0.0-0.0-0.0-0.88","693","","f","","","","","","","","","","","","","key","f","6.060582733812756","960","536","f","true","img/S_ambi40.png","自我","same",""
"","","","","","html-keyboard-response","385","929010","0.0-9.0-0.0-0.0-0.0-1.88","null","<span style='color:GreenYellow; font-size: 70px;'>正确! </span>","null","","","","","","","","","","","","","","","","","","","","","","","feedback_test"
"","","","","","psychophysics","386","930646","0.0-9.0-0.0-0.0-0.0-0.89","634","","j","","","","","","","","","","","","","key","j","6.0605762081785945","960","536","j","true","img/S_ambi40.png","朋友","same",""
"","","","","","html-keyboard-response","387","931161","0.0-9.0-0.0-0.0-0.0-1.89","null","<span style='color:GreenYellow; font-size: 70px;'>正确! </span>","null","","","","","","","","","","","","","","","","","","","","","","","feedback_test"
"","","","","","psychophysics","388","933524","0.0-9.0-0.0-0.0-0.0-0.90","1361","","j","","","","","","","","","","","","","key","j","6.06060154241651","960","536","j","true","img/S_ambi40.png","朋友","same",""
"","","","","","html-keyboard-response","389","934037","0.0-9.0-0.0-0.0-0.0-1.90","null","<span style='color:GreenYellow; font-size: 70px;'>正确! </span>","null","","","","","","","","","","","","","","","","","","","","","","","feedback_test"
"","","","","","psychophysics","390","936455","0.0-9.0-0.0-0.0-0.0-0.91","1417","","j","","","","","","","","","","","","","key","j","6.052570707070926","960","536","j","true","img/C_ambi40.png","朋友","same",""
"","","","","","html-keyboard-response","391","936966","0.0-9.0-0.0-0.0-0.0-1.91","null","<span style='color:GreenYellow; font-size: 70px;'>正确! </span>","null","","","","","","","","","","","","","","","","","","","","","","","feedback_test"
"","","","","","psychophysics","392","938528","0.0-9.0-0.0-0.0-0.0-0.92","561","","f","","","","","","","","","","","","","key","f","6.060781250000218","960","536","f","true","img/T_ambi40.png","をる","same",""
"","","","","","html-keyboard-response","393","939043","0.0-9.0-0.0-0.0-0.0-1.92","null","<span style='color:GreenYellow; font-size: 70px;'>正确! </span>","null","","","","","","","","","","","","","","","","","","","","","","","feedback_test"
"","","","","","psychophysics","394","941052","0.0-9.0-0.0-0.0-0.0-0.93","1008","","j","","","","","","","","","","","","","key","j","6.054808510638318","960","536","f","false","img/C_ambi40.png","生人","same",""
"","","","","","html-keyboard-response","395","941554","0.0-9.0-0.0-0.0-0.0-1.93","null","<span style='color:red; font-size: 70px;'>错误! </span>","null","","","","","","","","","","","","","","","","","","","","","","","feedback_test"
"","","","","","psychophysics","396","943125","0.0-9.0-0.0-0.0-0.0-0.94","570","","f","","","","","","","","","","","","","key","f","6.060562015503876","960","536","f","true","img/T_ambi40.png","をる","same",""
"","","","","","html-keyboard-response","397","943627","0.0-9.0-0.0-0.0-0.0-1.94","null","<span style='color:GreenYellow; font-size: 70px;'>正确! </span>","null","","","","","","","","","","","","","","","","","","","","","","","feedback_test"
"","","","","","psychophysics","398","945164","0.0-9.0-0.0-0.0-0.0-0.95","535","","f","","","","","","","","","","","","","key","f","6.060591269841155","960","536","f","true","img/C_ambi40.png","生人","same",""
"","","","","","html-keyboard-response","399","945667","0.0-9.0-0.0-0.0-0.0-1.95","null","<span style='color:GreenYellow; font-size: 70px;'>正确! </span>","null","","","","","","","","","","","","","","","","","","","","","","","feedback_test"
"","","","","","psychophysics","400","947435","0.0-9.0-0.0-0.0-0.0-0.96","766","","f","","","","","","","","","","","","","key","f","6.050553633217945","960","536","f","true","img/H_ambi40.png","朋友","same",""
"","","","","","html-keyboard-response","401","947942","0.0-9.0-0.0-0.0-0.0-1.96","null","<span style='color:GreenYellow; font-size: 70px;'>正确! </span>","null","","","","","","","","","","","","","","","","","","","","","","","feedback_test"
"","","","","","psychophysics","402","949464","0.0-9.0-0.0-0.0-0.0-0.97","519","","f","","","","","","","","","","","","","key","f","6.060712000000291","960","536","f","true","img/H_ambi40.png","朋友","same",""
"","","","","","html-keyboard-response","403","949966","0.0-9.0-0.0-0.0-0.0-1.97","null","<span style='color:GreenYellow; font-size: 70px;'>正确! </span>","null","","","","","","","","","","","","","","","","","","","","","","","feedback_test"
"","","","","","psychophysics","404","951525","0.0-9.0-0.0-0.0-0.0-0.98","558","","f","","","","","","","","","","","","","key","f","6.060550781249731","960","536","f","true","img/T_ambi40.png","をる","same",""
"","","","","","html-keyboard-response","405","952036","0.0-9.0-0.0-0.0-0.0-1.98","null","<span style='color:GreenYellow; font-size: 70px;'>正确! </span>","null","","","","","","","","","","","","","","","","","","","","","","","feedback_test"
"","","","","","psychophysics","406","954447","0.0-9.0-0.0-0.0-0.0-0.99","1409","","j","","","","","","","","","","","","","key","j","6.060624685138464","960","536","j","true","img/H_ambi40.png","生人","same",""
"","","","","","html-keyboard-response","407","954960","0.0-9.0-0.0-0.0-0.0-1.99","null","<span style='color:GreenYellow; font-size: 70px;'>正确! </span>","null","","","","","","","","","","","","","","","","","","","","","","","feedback_test"
"","","","","","psychophysics","408","956795","0.0-9.0-0.0-0.0-0.0-0.100","833","","j","","","","","","","","","","","","","key","j","6.060511627907098","960","536","j","true","img/H_ambi40.png","生人","same",""
"","","","","","html-keyboard-response","409","957303","0.0-9.0-0.0-0.0-0.0-1.100","null","<span style='color:GreenYellow; font-size: 70px;'>正确! </span>","null","","","","","","","","","","","","","","","","","","","","","","","feedback_test"
"","","","","","psychophysics","410","959410","0.0-9.0-0.0-0.0-0.0-0.101","1106","","j","","","","","","","","","","","","","key","j","6.060631123919279","960","536","j","true","img/S_ambi40.png","生人","same",""
"","","","","","html-keyboard-response","411","959913","0.0-9.0-0.0-0.0-0.0-1.101","null","<span style='color:GreenYellow; font-size: 70px;'>正确! </span>","null","","","","","","","","","","","","","","","","","","","","","","","feedback_test"
"","","","","","psychophysics","412","961690","0.0-9.0-0.0-0.0-0.0-0.102","773","","j","","","","","","","","","","","","","key","j","6.060544520547958","960","536","j","true","img/S_ambi40.png","朋友","same",""
"","","","","","html-keyboard-response","413","962204","0.0-9.0-0.0-0.0-0.0-1.102","null","<span style='color:GreenYellow; font-size: 70px;'>正确! </span>","null","","","","","","","","","","","","","","","","","","","","","","","feedback_test"
"","","","","","psychophysics","414","963751","0.0-9.0-0.0-0.0-0.0-0.103","546","","f","","","","","","","","","","","","","key","f","6.060464566929163","960","536","j","false","img/H_ambi40.png","自我","same",""
"","","","","","html-keyboard-response","415","964267","0.0-9.0-0.0-0.0-0.0-1.103","null","<span style='color:red; font-size: 70px;'>错误! </span>","null","","","","","","","","","","","","","","","","","","","","","","","feedback_test"
"","","","","","psychophysics","416","965967","0.0-9.0-0.0-0.0-0.0-0.104","698","","j","","","","","","","","","","","","","key","j","6.060610714285368","960","536","j","true","img/C_ambi40.png","自我","same",""
"","","","","","html-keyboard-response","417","966483","0.0-9.0-0.0-0.0-0.0-1.104","null","<span style='color:GreenYellow; font-size: 70px;'>正确! </span>","null","","","","","","","","","","","","","","","","","","","","","","","feedback_test"
"","","","","","psychophysics","418","968128","0.0-9.0-0.0-0.0-0.0-0.105","644","","f","","","","","","","","","","","","","key","f","6.060592592592541","960","536","f","true","img/S_ambi40.png","自我","same",""
"","","","","","html-keyboard-response","419","968639","0.0-9.0-0.0-0.0-0.0-1.105","null","<span style='color:GreenYellow; font-size: 70px;'>正确! </span>","null","","","","","","","","","","","","","","","","","","","","","","","feedback_test"
"","","","","","psychophysics","420","970388","0.0-9.0-0.0-0.0-0.0-0.106","747","","j","","","","","","","","","","","","","key","j","6.060675958188118","960","536","j","true","img/C_ambi40.png","自我","same",""
"","","","","","html-keyboard-response","421","970898","0.0-9.0-0.0-0.0-0.0-1.106","null","<span style='color:GreenYellow; font-size: 70px;'>正确! </span>","null","","","","","","","","","","","","","","","","","","","","","","","feedback_test"
"","","","","","psychophysics","422","972636","0.0-9.0-0.0-0.0-0.0-0.107","738","","f","","","","","","","","","","","","","key","f","6.0487007042253715","960","536","f","true","img/S_ambi40.png","自我","same",""
"","","","","","html-keyboard-response","423","973151","0.0-9.0-0.0-0.0-0.0-1.107","null","<span style='color:GreenYellow; font-size: 70px;'>正确! </span>","null","","","","","","","","","","","","","","","","","","","","","","","feedback_test"
"","","","","","html-keyboard-response","424","976782","0.0-9.0-0.0-0.0-1.0","3629","<style>.context{color:white; font-size: 35px; line-height:40px}</style>                          <div><p class='context'>您正确回答了84% 的试次。</p><p class='context'>您的平均反应时为864毫秒。</p><p class='context'>请按任意键进入休息</p></div>"," ","","","","","","","","","","","","","","","","","","","","","","",""
"","","","","","html-button-response","425","1042474","0.0-9.0-0.0-0.0-2.0","65689","
                    <p>您当前还剩余5组实验</p>
                    <p>现在是休息时间，当您结束休息后，您可以点击 结束休息 按钮 继续</p>
                    <p>建议休息时间还剩余<span id=""iii"">60</span>秒</p>","0","","","","","","","","","","","","","","","","","","","","","","",""
"","","","","","psychophysics","426","1044534","0.0-9.0-0.0-0.0-0.1-0.108","1054","","j","","","","","","","","","","","","","key","j","6.0606578171087","960","536","j","true","img/H_ambi40.png","生人","same",""
"","","","","","html-keyboard-response","427","1045045","0.0-9.0-0.0-0.0-0.1-1.108","null","<span style='color:GreenYellow; font-size: 70px;'>正确! </span>","null","","","","","","","","","","","","","","","","","","","","","","","feedback_test"
"","","","","","psychophysics","428","1046629","0.0-9.0-0.0-0.0-0.1-0.109","583","","f","","","","","","","","","","","","","key","f","6.060653846153918","960","536","f","true","img/T_ambi40.png","をる","same",""
"","","","","","html-keyboard-response","429","1047141","0.0-9.0-0.0-0.0-0.1-1.109","null","<span style='color:GreenYellow; font-size: 70px;'>正确! </span>","null","","","","","","","","","","","","","","","","","","","","","","","feedback_test"
"","","","","","psychophysics","430","1049264","0.0-9.0-0.0-0.0-0.1-0.110","1121","","f","","","","","","","","","","","","","key","f","6.060767908309744","960","536","f","true","img/T_ambi40.png","をる","same",""
"","","","","","html-keyboard-response","431","1049774","0.0-9.0-0.0-0.0-0.1-1.110","null","<span style='color:GreenYellow; font-size: 70px;'>正确! </span>","null","","","","","","","","","","","","","","","","","","","","","","","feedback_test"
"","","","","","psychophysics","432","1051546","0.0-9.0-0.0-0.0-0.1-0.111","771","","j","","","","","","","","","","","","","key","j","6.060604810996359","960","536","j","true","img/C_ambi40.png","自我","same",""
"","","","","","html-keyboard-response","433","1052050","0.0-9.0-0.0-0.0-0.1-1.111","null","<span style='color:GreenYellow; font-size: 70px;'>正确! </span>","null","","","","","","","","","","","","","","","","","","","","","","","feedback_test"
"","","","","","psychophysics","434","1053585","0.0-9.0-0.0-0.0-0.1-0.112","533","","j","","","","","","","","","","","","","key","j","6.060666666666438","960","536","j","true","img/C_ambi40.png","自我","same",""
"","","","","","html-keyboard-response","435","1054095","0.0-9.0-0.0-0.0-0.1-1.112","null","<span style='color:GreenYellow; font-size: 70px;'>正确! </span>","null","","","","","","","","","","","","","","","","","","","","","","","feedback_test"
"","","","","","psychophysics","436","1056065","0.0-9.0-0.0-0.0-0.1-0.113","968","","f","","","","","","","","","","","","","key","f","6.06059876543234","960","536","f","true","img/C_ambi40.png","生人","same",""
"","","","","","html-keyboard-response","437","1056572","0.0-9.0-0.0-0.0-0.1-1.113","null","<span style='color:GreenYellow; font-size: 70px;'>正确! </span>","null","","","","","","","","","","","","","","","","","","","","","","","feedback_test"
"","","","","","psychophysics","438","1058391","0.0-9.0-0.0-0.0-0.1-0.114","818","","j","","","","","","","","","","","","","key","j","6.0606387959860175","960","536","j","true","img/S_ambi40.png","朋友","same",""
"","","","","","html-keyboard-response","439","1058901","0.0-9.0-0.0-0.0-0.1-1.114","null","<span style='color:GreenYellow; font-size: 70px;'>正确! </span>","null","","","","","","","","","","","","","","","","","","","","","","","feedback_test"
"","","","","","psychophysics","440","1060486","0.0-9.0-0.0-0.0-0.1-0.115","582","","f","","","","","","","","","","","","","key","f","6.060559386973559","960","536","j","false","img/H_ambi40.png","生人","same",""
"","","","","","html-keyboard-response","441","1060987","0.0-9.0-0.0-0.0-0.1-1.115","null","<span style='color:red; font-size: 70px;'>错误! </span>","null","","","","","","","","","","","","","","","","","","","","","","","feedback_test"
"","","","","","psychophysics","442","1063154","0.0-9.0-0.0-0.0-0.1-0.116","1166","","f","","","","","","","","","","","","","key","f","6.053160563380208","960","536","f","true","img/H_ambi40.png","朋友","same",""
"","","","","","html-keyboard-response","443","1063657","0.0-9.0-0.0-0.0-0.1-1.116","null","<span style='color:GreenYellow; font-size: 70px;'>正确! </span>","null","","","","","","","","","","","","","","","","","","","","","","","feedback_test"
"","","","","","psychophysics","444","1065281","0.0-9.0-0.0-0.0-0.1-0.117","622","","f","","","","","","","","","","","","","key","f","6.060666666666137","960","536","f","true","img/H_ambi40.png","朋友","same",""
