"success","timeout","failed_images","failed_audio","failed_video","trial_type","trial_index","time_elapsed","internal_node_id","rt","stimulus","response","value","item_width_mm","item_height_mm","item_width_px","px2mm","view_dist_mm","item_width_deg","px2deg","scale_factor","win_width_deg","win_height_deg","view_history","response_type","key_press","avg_frame_time","center_x","center_y","correct_response","correct","Image","word","condition","screen_id"
"true","false","[]","[]","[]","preload","0","31199","0.0-0.0","","","","","","","","","","","","","","","","","","","","","","","","","",""
"","","","","","html-keyboard-response","1","100673","0.0-1.0","69472","
     <p>您好，欢迎参加本次实验。</p>
     <p>为充分保障您的权利，请确保您已经知晓并同意《参与实验同意书》以及《数据公开知情同意书》。</p>
     <p>如果您未见过上述内容，请咨询实验员。</p>
     <p>如果您选择继续实验，则表示您已经清楚两份知情同意书的内容并同意。</p>
     <p> <div style = ""color: green""><按任意键至下页></div> </p>
     ","shift","","","","","","","","","","","","","","","","","","","","","","",""
"","","","","","html-keyboard-response","2","100726","0.0-2.0","52","
     <p>本实验首先需要您填写一些基本个人信息。</p>
     <p> <div style = ""color: green""><按任意键至下页></div></p>
     ","control","","","","","","","","","","","","","","","","","","","","","","",""
"","","","","","call-function","3","100727","0.0-3.0-0.0","","","","","","","","","","","","","","","","","","","","","","","","","",""
"","","","","","survey-html-form","4","104703","0.0-3.0-1.0","3974","","{""Q0"":""27""}","","","","","","","","","","","","","","","","","","","","","","",""
"","","","","","html-button-response","5","106584","0.0-3.0-2.0","1878","<p style = 'color : white'>您的性别</p>","0","","","","","","","","","","","","","","","","","","","","","","",""
"","","","","","survey-html-form","6","115534","0.0-3.0-3.0","8949","","{""Q0"":""2002""}","","","","","","","","","","","","","","","","","","","","","","",""
"","","","","","survey-html-form","7","118463","0.0-3.0-4.0","2928","","{""Q0"":""5""}","","","","","","","","","","","","","","","","","","","","","","",""
"","","","","","virtual-chinrest","8","366030","0.0-4.0","247556","","","","85.6","53.98","429.2350582184639","5.0115476212208945","570.24","8.584701164369278","50","0.8759769100888088","27.32","12.5","","","","","","","","","","","",""
"true","","","","","fullscreen","9","374809","0.0-5.0","","","","","","","","","","","","","","","","","","","","","","","","","",""
"","","","","","instructions","10","433380","0.0-6.0","58568","","","","","","","","","","","","","","[{""page_index"":0,""viewing_time"":6290},{""page_index"":1,""viewing_time"":45479},{""page_index"":2,""viewing_time"":3206},{""page_index"":3,""viewing_time"":3592}]","","","","","","","","","","",""
"","","","","","psychophysics","11","435893","0.0-7.0-0.0-0.0","null","","null","","","","","","","","","","","","","key","null","16.666000000000157","683","380","f","false","img/H_ambi40.png","生人","prac",""
"","","","","","html-keyboard-response","12","436403","0.0-7.0-0.0-1.0","null","<span class='add_' style='color:yellow; font-size: 70px;'> 太慢! </span>","null","","","","","","","","","","","","","","","","","","","","","","","feedback_test"
"","","","","","psychophysics","13","438908","0.0-7.0-0.0-0.1","null","","null","","","","","","","","","","","","","key","null","16.66599999999998","683","380","j","false","img/C_ambi40.png","朋友","prac",""
"","","","","","html-keyboard-response","14","439411","0.0-7.0-0.0-1.1","null","<span class='add_' style='color:yellow; font-size: 70px;'> 太慢! </span>","null","","","","","","","","","","","","","","","","","","","","","","","feedback_test"
"","","","","","psychophysics","15","440883","0.0-7.0-0.0-0.2","470","","f","","","","","","","","","","","","","key","f","16.666000000000146","683","380","j","false","img/H_ambi40.png","自我","prac",""
"","","","","","html-keyboard-response","16","441387","0.0-7.0-0.0-1.2","null","<span style='color:red; font-size: 70px;'>错误! </span>","null","","","","","","","","","","","","","","","","","","","","","","","feedback_test"
"","","","","","psychophysics","17","443891","0.0-7.0-0.0-0.3","null","","null","","","","","","","","","","","","","key","null","16.665999999999766","683","380","j","false","img/T_ambi40.png","をる","prac",""
"","","","","","html-keyboard-response","18","444395","0.0-7.0-0.0-1.3","null","<span class='add_' style='color:yellow; font-size: 70px;'> 太慢! </span>","null","","","","","","","","","","","","","","","","","","","","","","","feedback_test"
"","","","","","psychophysics","19","445852","0.0-7.0-0.0-0.4","457","","j","","","","","","","","","","","","","key","j","16.666000000000146","683","380","j","true","img/H_ambi40.png","自我","prac",""
"","","","","","html-keyboard-response","20","446355","0.0-7.0-0.0-1.4","null","<span style='color:GreenYellow; font-size: 70px;'>正确! </span>","null","","","","","","","","","","","","","","","","","","","","","","","feedback_test"
"","","","","","psychophysics","21","448046","0.0-7.0-0.0-0.5","688","","j","","","","","","","","","","","","","key","j","16.66600000000035","683","380","j","true","img/S_ambi40.png","生人","prac",""
"","","","","","html-keyboard-response","22","448556","0.0-7.0-0.0-1.5","null","<span style='color:GreenYellow; font-size: 70px;'>正确! </span>","null","","","","","","","","","","","","","","","","","","","","","","","feedback_test"
"","","","","","psychophysics","23","450101","0.0-7.0-0.0-0.6","531","","j","","","","","","","","","","","","","key","j","16.665999999999677","683","380","j","true","img/T_ambi40.png","をる","prac",""
"","","","","","html-keyboard-response","24","450603","0.0-7.0-0.0-1.6","null","<span style='color:GreenYellow; font-size: 70px;'>正确! </span>","null","","","","","","","","","","","","","","","","","","","","","","","feedback_test"
"","","","","","psychophysics","25","452125","0.0-7.0-0.0-0.7","519","","f","","","","","","","","","","","","","key","f","16.666000000000317","683","380","j","false","img/S_ambi40.png","生人","prac",""
"","","","","","html-keyboard-response","26","452627","0.0-7.0-0.0-1.7","null","<span style='color:red; font-size: 70px;'>错误! </span>","null","","","","","","","","","","","","","","","","","","","","","","","feedback_test"
"","","","","","psychophysics","27","454069","0.0-7.0-0.0-0.8","434","","j","","","","","","","","","","","","","key","j","16.665999999999837","683","380","f","false","img/H_ambi40.png","朋友","prac",""
"","","","","","html-keyboard-response","28","454571","0.0-7.0-0.0-1.8","null","<span style='color:red; font-size: 70px;'>错误! </span>","null","","","","","","","","","","","","","","","","","","","","","","","feedback_test"
"","","","","","psychophysics","29","455862","0.0-7.0-0.0-0.9","286","","j","","","","","","","","","","","","","key","j","16.6660000000005","683","380","f","false","img/C_ambi40.png","生人","prac",""
"","","","","","html-keyboard-response","30","456370","0.0-7.0-0.0-1.9","null","<span style='color:red; font-size: 70px;'>错误! </span>","null","","","","","","","","","","","","","","","","","","","","","","","feedback_test"
"","","","","","psychophysics","31","458877","0.0-7.0-0.0-0.10","null","","null","","","","","","","","","","","","","key","null","16.66599999999998","683","380","j","false","img/T_ambi40.png","をる","prac",""
"","","","","","html-keyboard-response","32","459378","0.0-7.0-0.0-1.10","null","<span class='add_' style='color:yellow; font-size: 70px;'> 太慢! </span>","null","","","","","","","","","","","","","","","","","","","","","","","feedback_test"
"","","","","","psychophysics","33","460729","0.0-7.0-0.0-0.11","342","","f","","","","","","","","","","","","","key","f","16.66600000000035","683","380","j","false","img/C_ambi40.png","朋友","prac",""
"","","","","","html-keyboard-response","34","461234","0.0-7.0-0.0-1.11","null","<span style='color:red; font-size: 70px;'>错误! </span>","null","","","","","","","","","","","","","","","","","","","","","","","feedback_test"
"","","","","","psychophysics","35","463742","0.0-7.0-0.0-0.12","null","","null","","","","","","","","","","","","","key","null","16.666000000000157","683","380","f","false","img/C_ambi40.png","自我","prac",""
"","","","","","html-keyboard-response","36","464251","0.0-7.0-0.0-1.12","null","<span class='add_' style='color:yellow; font-size: 70px;'> 太慢! </span>","null","","","","","","","","","","","","","","","","","","","","","","","feedback_test"
"","","","","","psychophysics","37","465630","0.0-7.0-0.0-0.13","376","","j","","","","","","","","","","","","","key","j","16.665999999999567","683","380","j","true","img/T_ambi40.png","をる","prac",""
"","","","","","html-keyboard-response","38","466139","0.0-7.0-0.0-1.13","null","<span style='color:GreenYellow; font-size: 70px;'>正确! </span>","null","","","","","","","","","","","","","","","","","","","","","","","feedback_test"
"","","","","","psychophysics","39","467524","0.0-7.0-0.0-0.14","383","","j","","","","","","","","","","","","","key","j","16.666000000000988","683","380","f","false","img/S_ambi40.png","自我","prac",""
"","","","","","html-keyboard-response","40","468027","0.0-7.0-0.0-1.14","null","<span style='color:red; font-size: 70px;'>错误! </span>","null","","","","","","","","","","","","","","","","","","","","","","","feedback_test"
"","","","","","psychophysics","41","469576","0.0-7.0-0.0-0.15","548","","j","","","","","","","","","","","","","key","j","16.66599999999997","683","380","f","false","img/S_ambi40.png","朋友","prac",""
"","","","","","html-keyboard-response","42","470083","0.0-7.0-0.0-1.15","null","<span style='color:red; font-size: 70px;'>错误! </span>","null","","","","","","","","","","","","","","","","","","","","","","","feedback_test"
"","","","","","psychophysics","43","471919","0.0-7.0-0.0-0.16","833","","f","","","","","","","","","","","","","key","f","16.820314814814115","683","380","f","true","img/S_ambi40.png","朋友","prac",""
"","","","","","html-keyboard-response","44","472427","0.0-7.0-0.0-1.16","null","<span style='color:GreenYellow; font-size: 70px;'>正确! </span>","null","","","","","","","","","","","","","","","","","","","","","","","feedback_test"
"","","","","","psychophysics","45","473824","0.0-7.0-0.0-0.17","395","","j","","","","","","","","","","","","","key","j","16.666000000000594","683","380","f","false","img/H_ambi40.png","朋友","prac",""
"","","","","","html-keyboard-response","46","474331","0.0-7.0-0.0-1.17","null","<span style='color:red; font-size: 70px;'>错误! </span>","null","","","","","","","","","","","","","","","","","","","","","","","feedback_test"
"","","","","","psychophysics","47","475885","0.0-7.0-0.0-0.18","548","","f","","","","","","","","","","","","","key","f","16.66599999999997","683","380","j","false","img/C_ambi40.png","朋友","prac",""
"","","","","","html-keyboard-response","48","476387","0.0-7.0-0.0-1.18","null","<span style='color:red; font-size: 70px;'>错误! </span>","null","","","","","","","","","","","","","","","","","","","","","","","feedback_test"
"","","","","","psychophysics","49","478221","0.0-7.0-0.0-0.19","828","","j","","","","","","","","","","","","","key","j","16.665999999999595","683","380","f","false","img/C_ambi40.png","生人","prac",""
"","","","","","html-keyboard-response","50","478723","0.0-7.0-0.0-1.19","null","<span style='color:red; font-size: 70px;'>错误! </span>","null","","","","","","","","","","","","","","","","","","","","","","","feedback_test"
"","","","","","psychophysics","51","479981","0.0-7.0-0.0-0.20","249","","f","","","","","","","","","","","","","key","f","16.665999999999798","683","380","j","false","img/T_ambi40.png","をる","prac",""
"","","","","","html-keyboard-response","52","480485","0.0-7.0-0.0-1.20","null","<span style='color:red; font-size: 70px;'>错误! </span>","null","","","","","","","","","","","","","","","","","","","","","","","feedback_test"
"","","","","","psychophysics","53","481842","0.0-7.0-0.0-0.21","354","","f","","","","","","","","","","","","","key","f","16.665999999999954","683","380","f","true","img/C_ambi40.png","自我","prac",""
"","","","","","html-keyboard-response","54","482349","0.0-7.0-0.0-1.21","null","<span style='color:GreenYellow; font-size: 70px;'>正确! </span>","null","","","","","","","","","","","","","","","","","","","","","","","feedback_test"
"","","","","","psychophysics","55","483660","0.0-7.0-0.0-0.22","305","","j","","","","","","","","","","","","","key","j","16.665999999999677","683","380","j","true","img/C_ambi40.png","朋友","prac",""
"","","","","","html-keyboard-response","56","484165","0.0-7.0-0.0-1.22","null","<span style='color:GreenYellow; font-size: 70px;'>正确! </span>","null","","","","","","","","","","","","","","","","","","","","","","","feedback_test"
"","","","","","psychophysics","57","485464","0.0-7.0-0.0-0.23","293","","j","","","","","","","","","","","","","key","j","16.666000000000086","683","380","j","true","img/T_ambi40.png","をる","prac",""
"","","","","","html-keyboard-response","58","485972","0.0-7.0-0.0-1.23","null","<span style='color:GreenYellow; font-size: 70px;'>正确! </span>","null","","","","","","","","","","","","","","","","","","","","","","","feedback_test"
"","","","","","psychophysics","59","487266","0.0-7.0-0.0-0.24","291","","j","","","","","","","","","","","","","key","j","16.6660000000005","683","380","j","true","img/S_ambi40.png","生人","prac",""
"","","","","","html-keyboard-response","60","487773","0.0-7.0-0.0-1.24","null","<span style='color:GreenYellow; font-size: 70px;'>正确! </span>","null","","","","","","","","","","","","","","","","","","","","","","","feedback_test"
"","","","","","psychophysics","61","489127","0.0-7.0-0.0-0.25","352","","j","","","","","","","","","","","","","key","j","16.665999999999954","683","380","j","true","img/S_ambi40.png","生人","prac",""
"","","","","","html-keyboard-response","62","489628","0.0-7.0-0.0-1.25","null","<span style='color:GreenYellow; font-size: 70px;'>正确! </span>","null","","","","","","","","","","","","","","","","","","","","","","","feedback_test"
"","","","","","psychophysics","63","490967","0.0-7.0-0.0-0.26","331","","f","","","","","","","","","","","","","key","f","16.66599999999928","683","380","f","true","img/H_ambi40.png","生人","prac",""
"","","","","","html-keyboard-response","64","491468","0.0-7.0-0.0-1.26","null","<span style='color:GreenYellow; font-size: 70px;'>正确! </span>","null","","","","","","","","","","","","","","","","","","","","","","","feedback_test"
"","","","","","psychophysics","65","492911","0.0-7.0-0.0-0.27","441","","j","","","","","","","","","","","","","key","j","16.66599999999947","683","380","j","true","img/T_ambi40.png","をる","prac",""
"","","","","","html-keyboard-response","66","493420","0.0-7.0-0.0-1.27","null","<span style='color:GreenYellow; font-size: 70px;'>正确! </span>","null","","","","","","","","","","","","","","","","","","","","","","","feedback_test"
"","","","","","psychophysics","67","494703","0.0-7.0-0.0-0.28","282","","f","","","","","","","","","","","","","key","f","16.6660000000005","683","380","j","false","img/H_ambi40.png","自我","prac",""
"","","","","","html-keyboard-response","68","495204","0.0-7.0-0.0-1.28","null","<span style='color:red; font-size: 70px;'>错误! </span>","null","","","","","","","","","","","","","","","","","","","","","","","feedback_test"
"","","","","","psychophysics","69","496803","0.0-7.0-0.0-0.29","596","","j","","","","","","","","","","","","","key","j","16.845204301074556","683","380","j","true","img/T_ambi40.png","をる","prac",""
"","","","","","html-keyboard-response","70","497308","0.0-7.0-0.0-1.29","null","<span style='color:GreenYellow; font-size: 70px;'>正确! </span>","null","","","","","","","","","","","","","","","","","","","","","","","feedback_test"
"","","","","","psychophysics","71","498624","0.0-7.0-0.0-0.30","313","","f","","","","","","","","","","","","","key","f","16.665999999999677","683","380","f","true","img/S_ambi40.png","自我","prac",""
"","","","","","html-keyboard-response","72","499132","0.0-7.0-0.0-1.30","null","<span style='color:GreenYellow; font-size: 70px;'>正确! </span>","null","","","","","","","","","","","","","","","","","","","","","","","feedback_test"
"","","","","","psychophysics","73","500409","0.0-7.0-0.0-0.31","272","","j","","","","","","","","","","","","","key","j","16.666000000000086","683","380","j","true","img/H_ambi40.png","自我","prac",""
"","","","","","html-keyboard-response","74","500916","0.0-7.0-0.0-1.31","null","<span style='color:GreenYellow; font-size: 70px;'>正确! </span>","null","","","","","","","","","","","","","","","","","","","","","","","feedback_test"
"","","","","","html-keyboard-response","75","520388","0.0-7.0-1.0-0.0","19468","<style>.context{color:white; font-size: 35px; line-height:40px}</style>                          <div><p class='context'>您正确回答了47% 的试次。</p ><p class='context'>您的平均反应时为429毫秒。</p >"," ","","","","","","","","","","","","","","","","","","","","","","",""
"","","","","","instructions","76","568122","0.0-7.0-1.0-1.0","47730","","","","","","","","","","","","","","[{""page_index"":0,""viewing_time"":14356},{""page_index"":1,""viewing_time"":18078},{""page_index"":2,""viewing_time"":15296}]","","","","","","","","","","",""
"","","","","","psychophysics","77","569626","0.0-7.1-0.1-0.32","500","","j","","","","","","","","","","","","","key","j","16.665999999999727","683","380","j","true","img/T_ambi40.png","をる","prac",""
"","","","","","html-keyboard-response","78","570134","0.0-7.1-0.1-1.32","null","<span style='color:GreenYellow; font-size: 70px;'>正确! </span>","null","","","","","","","","","","","","","","","","","","","","","","","feedback_test"
"","","","","","psychophysics","79","571489","0.0-7.1-0.1-0.33","353","","j","","","","","","","","","","","","","key","j","16.665999999999954","683","380","f","false","img/C_ambi40.png","生人","prac",""
"","","","","","html-keyboard-response","80","571998","0.0-7.1-0.1-1.33","null","<span style='color:red; font-size: 70px;'>错误! </span>","null","","","","","","","","","","","","","","","","","","","","","","","feedback_test"
"","","","","","psychophysics","81","573402","0.0-7.1-0.1-0.34","399","","j","","","","","","","","","","","","","key","j","16.66599999999919","683","380","j","true","img/H_ambi40.png","自我","prac",""
"","","","","","html-keyboard-response","82","573910","0.0-7.1-0.1-1.34","null","<span style='color:GreenYellow; font-size: 70px;'>正确! </span>","null","","","","","","","","","","","","","","","","","","","","","","","feedback_test"
"","","","","","psychophysics","83","575490","0.0-7.1-0.1-0.35","567","","f","","","","","","","","","","","","","key","f","16.666000000000533","683","380","f","true","img/H_ambi40.png","生人","prac",""
"","","","","","html-keyboard-response","84","575998","0.0-7.1-0.1-1.35","null","<span style='color:GreenYellow; font-size: 70px;'>正确! </span>","null","","","","","","","","","","","","","","","","","","","","","","","feedback_test"
"","","","","","psychophysics","85","577530","0.0-7.1-0.1-0.36","527","","f","","","","","","","","","","","","","key","f","16.666000000000317","683","380","j","false","img/H_ambi40.png","自我","prac",""
"","","","","","html-keyboard-response","86","578038","0.0-7.1-0.1-1.36","null","<span style='color:red; font-size: 70px;'>错误! </span>","null","","","","","","","","","","","","","","","","","","","","","","","feedback_test"
"","","","","","psychophysics","87","579598","0.0-7.1-0.1-0.37","553","","f","","","","","","","","","","","","","key","f","16.66599999999997","683","380","j","false","img/C_ambi40.png","朋友","prac",""
"","","","","","html-keyboard-response","88","580101","0.0-7.1-0.1-1.37","null","<span style='color:red; font-size: 70px;'>错误! </span>","null","","","","","","","","","","","","","","","","","","","","","","","feedback_test"
"","","","","","psychophysics","89","581801","0.0-7.1-0.1-0.38","696","","j","","","","","","","","","","","","","key","j","16.666000000000608","683","380","j","true","img/T_ambi40.png","をる","prac",""
"","","","","","html-keyboard-response","90","582302","0.0-7.1-0.1-1.38","null","<span style='color:GreenYellow; font-size: 70px;'>正确! </span>","null","","","","","","","","","","","","","","","","","","","","","","","feedback_test"
"","","","","","psychophysics","91","583699","0.0-7.1-0.1-0.39","395","","j","","","","","","","","","","","","","key","j","16.666000000000988","683","380","j","true","img/T_ambi40.png","をる","prac",""
"","","","","","html-keyboard-response","92","584205","0.0-7.1-0.1-1.39","null","<span style='color:GreenYellow; font-size: 70px;'>正确! </span>","null","","","","","","","","","","","","","","","","","","","","","","","feedback_test"
"","","","","","psychophysics","93","585579","0.0-7.1-0.1-0.40","369","","f","","","","","","","","","","","","","key","f","16.665999999999954","683","380","j","false","img/S_ambi40.png","生人","prac",""
"","","","","","html-keyboard-response","94","586086","0.0-7.1-0.1-1.40","null","<span style='color:red; font-size: 70px;'>错误! </span>","null","","","","","","","","","","","","","","","","","","","","","","","feedback_test"
"","","","","","psychophysics","95","587539","0.0-7.1-0.1-0.41","443","","j","","","","","","","","","","","","","key","j","16.66599999999947","683","380","j","true","img/T_ambi40.png","をる","prac",""
"","","","","","html-keyboard-response","96","588045","0.0-7.1-0.1-1.41","null","<span style='color:GreenYellow; font-size: 70px;'>正确! </span>","null","","","","","","","","","","","","","","","","","","","","","","","feedback_test"
"","","","","","psychophysics","97","589377","0.0-7.1-0.1-0.42","324","","j","","","","","","","","","","","","","key","j","16.66599999999928","683","380","f","false","img/S_ambi40.png","朋友","prac",""
"","","","","","html-keyboard-response","98","589885","0.0-7.1-0.1-1.42","null","<span style='color:red; font-size: 70px;'>错误! </span>","null","","","","","","","","","","","","","","","","","","","","","","","feedback_test"
"","","","","","psychophysics","99","591430","0.0-7.1-0.1-0.43","542","","f","","","","","","","","","","","","","key","f","16.666000000000317","683","380","j","false","img/S_ambi40.png","生人","prac",""
"","","","","","html-keyboard-response","100","591933","0.0-7.1-0.1-1.43","null","<span style='color:red; font-size: 70px;'>错误! </span>","null","","","","","","","","","","","","","","","","","","","","","","","feedback_test"
"","","","","","psychophysics","101","593296","0.0-7.1-0.1-0.44","360","","j","","","","","","","","","","","","","key","j","16.665999999999954","683","380","f","false","img/H_ambi40.png","朋友","prac",""
"","","","","","html-keyboard-response","102","593797","0.0-7.1-0.1-1.44","null","<span style='color:red; font-size: 70px;'>错误! </span>","null","","","","","","","","","","","","","","","","","","","","","","","feedback_test"
"","","","","","psychophysics","103","595196","0.0-7.1-0.1-0.45","390","","f","","","","","","","","","","","","","key","f","16.66599999999919","683","380","f","true","img/S_ambi40.png","自我","prac",""
"","","","","","html-keyboard-response","104","595701","0.0-7.1-0.1-1.45","null","<span style='color:GreenYellow; font-size: 70px;'>正确! </span>","null","","","","","","","","","","","","","","","","","","","","","","","feedback_test"
"","","","","","psychophysics","105","597123","0.0-7.1-0.1-0.46","406","","f","","","","","","","","","","","","","key","f","16.66600000000021","683","380","f","true","img/C_ambi40.png","自我","prac",""
"","","","","","html-keyboard-response","106","597630","0.0-7.1-0.1-1.46","null","<span style='color:GreenYellow; font-size: 70px;'>正确! </span>","null","","","","","","","","","","","","","","","","","","","","","","","feedback_test"
"","","","","","psychophysics","107","598943","0.0-7.1-0.1-0.47","308","","f","","","","","","","","","","","","","key","f","16.665999999999677","683","380","j","false","img/C_ambi40.png","朋友","prac",""
"","","","","","html-keyboard-response","108","599446","0.0-7.1-0.1-1.47","null","<span style='color:red; font-size: 70px;'>错误! </span>","null","","","","","","","","","","","","","","","","","","","","","","","feedback_test"
"","","","","","psychophysics","109","601110","0.0-7.1-0.1-0.48","651","","f","","","","","","","","","","","","","key","f","16.666000000000086","683","380","f","true","img/S_ambi40.png","朋友","prac",""
"","","","","","html-keyboard-response","110","601615","0.0-7.1-0.1-1.48","null","<span style='color:GreenYellow; font-size: 70px;'>正确! </span>","null","","","","","","","","","","","","","","","","","","","","","","","feedback_test"
"","","","","","psychophysics","111","603053","0.0-7.1-0.1-0.49","433","","f","","","","","","","","","","","","","key","f","16.665999999999837","683","380","j","false","img/S_ambi40.png","生人","prac",""
"","","","","","html-keyboard-response","112","603559","0.0-7.1-0.1-1.49","null","<span style='color:red; font-size: 70px;'>错误! </span>","null","","","","","","","","","","","","","","","","","","","","","","","feedback_test"
"","","","","","psychophysics","113","605127","0.0-7.1-0.1-0.50","565","","f","","","","","","","","","","","","","key","f","16.66599999999963","683","380","f","true","img/C_ambi40.png","自我","prac",""
"","","","","","html-keyboard-response","114","605631","0.0-7.1-0.1-1.50","null","<span style='color:GreenYellow; font-size: 70px;'>正确! </span>","null","","","","","","","","","","","","","","","","","","","","","","","feedback_test"
"","","","","","psychophysics","115","606878","0.0-7.1-0.1-0.51","242","","j","","","","","","","","","","","","","key","j","16.665999999999798","683","380","j","true","img/T_ambi40.png","をる","prac",""
"","","","","","html-keyboard-response","116","607383","0.0-7.1-0.1-1.51","null","<span style='color:GreenYellow; font-size: 70px;'>正确! </span>","null","","","","","","","","","","","","","","","","","","","","","","","feedback_test"
"","","","","","psychophysics","117","608869","0.0-7.1-0.1-0.52","483","","f","","","","","","","","","","","","","key","f","16.666000000000086","683","380","f","true","img/S_ambi40.png","自我","prac",""
"","","","","","html-keyboard-response","118","609376","0.0-7.1-0.1-1.52","null","<span style='color:GreenYellow; font-size: 70px;'>正确! </span>","null","","","","","","","","","","","","","","","","","","","","","","","feedback_test"
"","","","","","psychophysics","119","610695","0.0-7.1-0.1-0.53","311","","j","","","","","","","","","","","","","key","j","16.665999999999677","683","380","j","true","img/H_ambi40.png","自我","prac",""
"","","","","","html-keyboard-response","120","611199","0.0-7.1-0.1-1.53","null","<span style='color:GreenYellow; font-size: 70px;'>正确! </span>","null","","","","","","","","","","","","","","","","","","","","","","","feedback_test"
"","","","","","psychophysics","121","612546","0.0-7.1-0.1-0.54","343","","f","","","","","","","","","","","","","key","f","16.665999999998895","683","380","j","false","img/C_ambi40.png","朋友","prac",""
"","","","","","html-keyboard-response","122","613047","0.0-7.1-0.1-1.54","null","<span style='color:red; font-size: 70px;'>错误! </span>","null","","","","","","","","","","","","","","","","","","","","","","","feedback_test"
"","","","","","psychophysics","123","614570","0.0-7.1-0.1-0.55","518","","f","","","","","","","","","","","","","key","f","17.044772727272093","683","380","f","true","img/C_ambi40.png","生人","prac",""
"","","","","","html-keyboard-response","124","615080","0.0-7.1-0.1-1.55","null","<span style='color:GreenYellow; font-size: 70px;'>正确! </span>","null","","","","","","","","","","","","","","","","","","","","","","","feedback_test"
"","","","","","psychophysics","125","616591","0.0-7.1-0.1-0.56","506","","f","","","","","","","","","","","","","key","f","16.666000000000672","683","380","j","false","img/H_ambi40.png","自我","prac",""
"","","","","","html-keyboard-response","126","617097","0.0-7.1-0.1-1.56","null","<span style='color:red; font-size: 70px;'>错误! </span>","null","","","","","","","","","","","","","","","","","","","","","","","feedback_test"
"","","","","","psychophysics","127","618542","0.0-7.1-0.1-0.57","439","","j","","","","","","","","","","","","","key","j","16.66599999999947","683","380","j","true","img/C_ambi40.png","朋友","prac",""
"","","","","","html-keyboard-response","128","619047","0.0-7.1-0.1-1.57","null","<span style='color:GreenYellow; font-size: 70px;'>正确! </span>","null","","","","","","","","","","","","","","","","","","","","","","","feedback_test"
"","","","","","psychophysics","129","620497","0.0-7.1-0.1-0.58","445","","j","","","","","","","","","","","","","key","j","16.66599999999947","683","380","f","false","img/H_ambi40.png","生人","prac",""
"","","","","","html-keyboard-response","130","620999","0.0-7.1-0.1-1.58","null","<span style='color:red; font-size: 70px;'>错误! </span>","null","","","","","","","","","","","","","","","","","","","","","","","feedback_test"
"","","","","","psychophysics","131","622459","0.0-7.1-0.1-0.59","457","","f","","","","","","","","","","","","","key","f","16.665999999999112","683","380","j","false","img/S_ambi40.png","生人","prac",""
"","","","","","html-keyboard-response","132","622967","0.0-7.1-0.1-1.59","null","<span style='color:red; font-size: 70px;'>错误! </span>","null","","","","","","","","","","","","","","","","","","","","","","","feedback_test"
"","","","","","psychophysics","133","624364","0.0-7.1-0.1-0.60","396","","j","","","","","","","","","","","","","key","j","16.869243902438207","683","380","j","true","img/T_ambi40.png","をる","prac",""
"","","","","","html-keyboard-response","134","624871","0.0-7.1-0.1-1.60","null","<span style='color:GreenYellow; font-size: 70px;'>正确! </span>","null","","","","","","","","","","","","","","","","","","","","","","","feedback_test"
"","","","","","psychophysics","135","626259","0.0-7.1-0.1-0.61","387","","j","","","","","","","","","","","","","key","j","16.665999999999567","683","380","j","true","img/T_ambi40.png","をる","prac",""
"","","","","","html-keyboard-response","136","626767","0.0-7.1-0.1-1.61","null","<span style='color:GreenYellow; font-size: 70px;'>正确! </span>","null","","","","","","","","","","","","","","","","","","","","","","","feedback_test"
"","","","","","psychophysics","137","628333","0.0-7.1-0.1-0.62","564","","j","","","","","","","","","","","","","key","j","17.22153333333295","683","380","j","true","img/T_ambi40.png","をる","prac",""
"","","","","","html-keyboard-response","138","628839","0.0-7.1-0.1-1.62","null","<span style='color:GreenYellow; font-size: 70px;'>正确! </span>","null","","","","","","","","","","","","","","","","","","","","","","","feedback_test"
"","","","","","psychophysics","139","630269","0.0-7.1-0.1-0.63","422","","f","","","","","","","","","","","","","key","f","16.66600000000021","683","380","f","true","img/H_ambi40.png","朋友","prac",""
"","","","","","html-keyboard-response","140","630775","0.0-7.1-0.1-1.63","null","<span style='color:GreenYellow; font-size: 70px;'>正确! </span>","null","","","","","","","","","","","","","","","","","","","","","","","feedback_test"
"","","","","","html-keyboard-response","141","642327","0.0-7.1-1.1-0.1","11551","<style>.context{color:white; font-size: 35px; line-height:40px}</style>                          <div><p class='context'>您正确回答了59% 的试次。</p ><p class='context'>您的平均反应时为462毫秒。</p >"," ","","","","","","","","","","","","","","","","","","","","","","",""
"","","","","","instructions","142","677571","0.0-7.1-1.1-1.1","35240","","","","","","","","","","","","","","[{""page_index"":0,""viewing_time"":1247},{""page_index"":1,""viewing_time"":20079},{""page_index"":2,""viewing_time"":13914}]","","","","","","","","","","",""
"","","","","","psychophysics","143","679522","0.0-7.2-0.2-0.64","945","","f","","","","","","","","","","","","","key","f","16.666000000000448","683","380","j","false","img/S_ambi40.png","生人","prac",""
"","","","","","html-keyboard-response","144","680024","0.0-7.2-0.2-1.64","null","<span style='color:red; font-size: 70px;'>错误! </span>","null","","","","","","","","","","","","","","","","","","","","","","","feedback_test"
"","","","","","psychophysics","145","681642","0.0-7.2-0.2-0.65","617","","j","","","","","","","","","","","","","key","j","16.665999999999865","683","380","j","true","img/S_ambi40.png","生人","prac",""
"","","","","","html-keyboard-response","146","682144","0.0-7.2-0.2-1.65","null","<span style='color:GreenYellow; font-size: 70px;'>正确! </span>","null","","","","","","","","","","","","","","","","","","","","","","","feedback_test"
"","","","","","psychophysics","147","683626","0.0-7.2-0.2-0.66","475","","f","","","","","","","","","","","","","key","f","16.666000000000086","683","380","f","true","img/C_ambi40.png","生人","prac",""
"","","","","","html-keyboard-response","148","684128","0.0-7.2-0.2-1.66","null","<span style='color:GreenYellow; font-size: 70px;'>正确! </span>","null","","","","","","","","","","","","","","","","","","","","","","","feedback_test"
"","","","","","psychophysics","149","685561","0.0-7.2-0.2-0.67","427","","f","","","","","","","","","","","","","key","f","16.665999999999837","683","380","f","true","img/C_ambi40.png","自我","prac",""
"","","","","","html-keyboard-response","150","686065","0.0-7.2-0.2-1.67","null","<span style='color:GreenYellow; font-size: 70px;'>正确! </span>","null","","","","","","","","","","","","","","","","","","","","","","","feedback_test"
"","","","","","psychophysics","151","687540","0.0-7.2-0.2-0.68","468","","j","","","","","","","","","","","","","key","j","16.666000000000086","683","380","j","true","img/T_ambi40.png","をる","prac",""
"","","","","","html-keyboard-response","152","688041","0.0-7.2-0.2-1.68","null","<span style='color:GreenYellow; font-size: 70px;'>正确! </span>","null","","","","","","","","","","","","","","","","","","","","","","","feedback_test"
"","","","","","psychophysics","153","689598","0.0-7.2-0.2-0.69","550","","j","","","","","","","","","","","","","key","j","16.66599999999997","683","380","j","true","img/T_ambi40.png","をる","prac",""
"","","","","","html-keyboard-response","154","690105","0.0-7.2-0.2-1.69","null","<span style='color:GreenYellow; font-size: 70px;'>正确! </span>","null","","","","","","","","","","","","","","","","","","","","","","","feedback_test"
"","","","","","psychophysics","155","691638","0.0-7.2-0.2-0.70","529","","j","","","","","","","","","","","","","key","j","16.665999999999038","683","380","j","true","img/T_ambi40.png","をる","prac",""
"","","","","","html-keyboard-response","156","692145","0.0-7.2-0.2-1.70","null","<span style='color:GreenYellow; font-size: 70px;'>正确! </span>","null","","","","","","","","","","","","","","","","","","","","","","","feedback_test"
"","","","","","psychophysics","157","693529","0.0-7.2-0.2-0.71","379","","f","","","","","","","","","","","","","key","f","16.665999999999567","683","380","j","false","img/C_ambi40.png","朋友","prac",""
"","","","","","html-keyboard-response","158","694033","0.0-7.2-0.2-1.71","null","<span style='color:red; font-size: 70px;'>错误! </span>","null","","","","","","","","","","","","","","","","","","","","","","","feedback_test"
"","","","","","psychophysics","159","695939","0.0-7.2-0.2-0.72","904","","j","","","","","","","","","","","","","key","j","16.665999999999993","683","380","j","true","img/C_ambi40.png","朋友","prac",""
"","","","","","html-keyboard-response","160","696441","0.0-7.2-0.2-1.72","null","<span style='color:GreenYellow; font-size: 70px;'>正确! </span>","null","","","","","","","","","","","","","","","","","","","","","","","feedback_test"
"","","","","","psychophysics","161","698088","0.0-7.2-0.2-0.73","646","","j","","","","","","","","","","","","","key","j","16.66600000000041","683","380","j","true","img/T_ambi40.png","をる","prac",""
"","","","","","html-keyboard-response","162","698593","0.0-7.2-0.2-1.73","null","<span style='color:GreenYellow; font-size: 70px;'>正确! </span>","null","","","","","","","","","","","","","","","","","","","","","","","feedback_test"
"","","","","","psychophysics","163","700298","0.0-7.2-0.2-0.74","697","","j","","","","","","","","","","","","","key","j","17.00268686868749","683","380","j","true","img/H_ambi40.png","自我","prac",""
"","","","","","html-keyboard-response","164","700801","0.0-7.2-0.2-1.74","null","<span style='color:GreenYellow; font-size: 70px;'>正确! </span>","null","","","","","","","","","","","","","","","","","","","","","","","feedback_test"
"","","","","","psychophysics","165","702235","0.0-7.2-0.2-0.75","428","","j","","","","","","","","","","","","","key","j","16.866795180723106","683","380","f","false","img/S_ambi40.png","朋友","prac",""
"","","","","","html-keyboard-response","166","702737","0.0-7.2-0.2-1.75","null","<span style='color:red; font-size: 70px;'>错误! </span>","null","","","","","","","","","","","","","","","","","","","","","","","feedback_test"
"","","","","","psychophysics","167","704472","0.0-7.2-0.2-0.76","728","","j","","","","","","","","","","","","","key","j","16.665999999999983","683","380","f","false","img/H_ambi40.png","朋友","prac",""
"","","","","","html-keyboard-response","168","704977","0.0-7.2-0.2-1.76","null","<span style='color:red; font-size: 70px;'>错误! </span>","null","","","","","","","","","","","","","","","","","","","","","","","feedback_test"
"","","","","","psychophysics","169","706779","0.0-7.2-0.2-0.77","795","","j","","","","","","","","","","","","","key","j","16.665999999999887","683","380","f","false","img/S_ambi40.png","自我","prac",""
"","","","","","html-keyboard-response","170","707281","0.0-7.2-0.2-1.77","null","<span style='color:red; font-size: 70px;'>错误! </span>","null","","","","","","","","","","","","","","","","","","","","","","","feedback_test"
"","","","","","psychophysics","171","709027","0.0-7.2-0.2-0.78","743","","j","","","","","","","","","","","","","key","j","16.665999999999677","683","380","j","true","img/H_ambi40.png","自我","prac",""
"","","","","","html-keyboard-response","172","709529","0.0-7.2-0.2-1.78","null","<span style='color:GreenYellow; font-size: 70px;'>正确! </span>","null","","","","","","","","","","","","","","","","","","","","","","","feedback_test"
"","","","","","psychophysics","173","711378","0.0-7.2-0.2-0.79","841","","j","","","","","","","","","","","","","key","j","16.666000000000086","683","380","f","false","img/H_ambi40.png","生人","prac",""
"","","","","","html-keyboard-response","174","711881","0.0-7.2-0.2-1.79","null","<span style='color:red; font-size: 70px;'>错误! </span>","null","","","","","","","","","","","","","","","","","","","","","","","feedback_test"
"","","","","","psychophysics","175","713816","0.0-7.2-0.2-0.80","933","","j","","","","","","","","","","","","","key","j","16.960973451327146","683","380","f","false","img/S_ambi40.png","自我","prac",""
"","","","","","html-keyboard-response","176","714321","0.0-7.2-0.2-1.80","null","<span style='color:red; font-size: 70px;'>错误! </span>","null","","","","","","","","","","","","","","","","","","","","","","","feedback_test"
"","","","","","psychophysics","177","716050","0.0-7.2-0.2-0.81","725","","j","","","","","","","","","","","","","key","j","16.66600000000029","683","380","j","true","img/C_ambi40.png","朋友","prac",""
"","","","","","html-keyboard-response","178","716552","0.0-7.2-0.2-1.81","null","<span style='color:GreenYellow; font-size: 70px;'>正确! </span>","null","","","","","","","","","","","","","","","","","","","","","","","feedback_test"
"","","","","","psychophysics","179","718373","0.0-7.2-0.2-0.82","813","","j","","","","","","","","","","","","","key","j","16.666000000000672","683","380","f","false","img/C_ambi40.png","自我","prac",""
"","","","","","html-keyboard-response","180","718880","0.0-7.2-0.2-1.82","null","<span style='color:red; font-size: 70px;'>错误! </span>","null","","","","","","","","","","","","","","","","","","","","","","","feedback_test"
"","","","","","psychophysics","181","720645","0.0-7.2-0.2-0.83","758","","f","","","","","","","","","","","","","key","f","16.989611650485934","683","380","f","true","img/C_ambi40.png","生人","prac",""
"","","","","","html-keyboard-response","182","721153","0.0-7.2-0.2-1.83","null","<span style='color:GreenYellow; font-size: 70px;'>正确! </span>","null","","","","","","","","","","","","","","","","","","","","","","","feedback_test"
"","","","","","psychophysics","183","722845","0.0-7.2-0.2-0.84","686","","j","","","","","","","","","","","","","key","j","17.360416666667636","683","380","j","true","img/T_ambi40.png","をる","prac",""
"","","","","","html-keyboard-response","184","723356","0.0-7.2-0.2-1.84","null","<span style='color:GreenYellow; font-size: 70px;'>正确! </span>","null","","","","","","","","","","","","","","","","","","","","","","","feedback_test"
"","","","","","psychophysics","185","725117","0.0-7.2-0.2-0.85","751","","f","","","","","","","","","","","","","key","f","16.827805825243523","683","380","f","true","img/H_ambi40.png","朋友","prac",""
"","","","","","html-keyboard-response","186","725619","0.0-7.2-0.2-1.85","null","<span style='color:GreenYellow; font-size: 70px;'>正确! </span>","null","","","","","","","","","","","","","","","","","","","","","","","feedback_test"
"","","","","","psychophysics","187","727293","0.0-7.2-0.2-0.86","672","","j","","","","","","","","","","","","","key","j","16.666000000000086","683","380","f","false","img/S_ambi40.png","朋友","prac",""
"","","","","","html-keyboard-response","188","727796","0.0-7.2-0.2-1.86","null","<span style='color:red; font-size: 70px;'>错误! </span>","null","","","","","","","","","","","","","","","","","","","","","","","feedback_test"
"","","","","","psychophysics","189","729606","0.0-7.2-0.2-0.87","804","","j","","","","","","","","","","","","","key","j","16.665999999999595","683","380","j","true","img/S_ambi40.png","生人","prac",""
"","","","","","html-keyboard-response","190","730115","0.0-7.2-0.2-1.87","null","<span style='color:GreenYellow; font-size: 70px;'>正确! </span>","null","","","","","","","","","","","","","","","","","","","","","","","feedback_test"
"","","","","","psychophysics","191","731889","0.0-7.2-0.2-0.88","771","","f","","","","","","","","","","","","","key","f","16.666000000000185","683","380","j","false","img/H_ambi40.png","自我","prac",""
"","","","","","html-keyboard-response","192","732395","0.0-7.2-0.2-1.88","null","<span style='color:red; font-size: 70px;'>错误! </span>","null","","","","","","","","","","","","","","","","","","","","","","","feedback_test"
"","","","","","psychophysics","193","734445","0.0-7.2-0.2-0.89","1043","","j","","","","","","","","","","","","","key","j","16.94610084033622","683","380","f","false","img/H_ambi40.png","生人","prac",""
"","","","","","html-keyboard-response","194","734947","0.0-7.2-0.2-1.89","null","<span style='color:red; font-size: 70px;'>错误! </span>","null","","","","","","","","","","","","","","","","","","","","","","","feedback_test"
"","","","","","psychophysics","195","737030","0.0-7.2-0.2-0.90","1078","","f","","","","","","","","","","","","","key","f","17.07920661157051","683","380","j","false","img/H_ambi40.png","自我","prac",""
"","","","","","html-keyboard-response","196","737531","0.0-7.2-0.2-1.90","null","<span style='color:red; font-size: 70px;'>错误! </span>","null","","","","","","","","","","","","","","","","","","","","","","","feedback_test"
"","","","","","psychophysics","197","739159","0.0-7.2-0.2-0.91","624","","j","","","","","","","","","","","","","key","j","16.841431578948455","683","380","j","true","img/T_ambi40.png","をる","prac",""
"","","","","","html-keyboard-response","198","739667","0.0-7.2-0.2-1.91","null","<span style='color:GreenYellow; font-size: 70px;'>正确! </span>","null","","","","","","","","","","","","","","","","","","","","","","","feedback_test"
"","","","","","psychophysics","199","741305","0.0-7.2-0.2-0.92","634","","j","","","","","","","","","","","","","key","j","16.839604166666202","683","380","j","true","img/T_ambi40.png","をる","prac",""
"","","","","","html-keyboard-response","200","741811","0.0-7.2-0.2-1.92","null","<span style='color:GreenYellow; font-size: 70px;'>正确! </span>","null","","","","","","","","","","","","","","","","","","","","","","","feedback_test"
"","","","","","psychophysics","201","744011","0.0-7.2-0.2-0.93","1193","","f","","","","","","","","","","","","","key","f","16.79420000000033","683","380","j","false","img/C_ambi40.png","朋友","prac",""
"","","","","","html-keyboard-response","202","744520","0.0-7.2-0.2-1.93","null","<span style='color:red; font-size: 70px;'>错误! </span>","null","","","","","","","","","","","","","","","","","","","","","","","feedback_test"
"","","","","","psychophysics","203","746296","0.0-7.2-0.2-0.94","774","","j","","","","","","","","","","","","","key","j","16.66599999999938","683","380","j","true","img/S_ambi40.png","生人","prac",""
"","","","","","html-keyboard-response","204","746803","0.0-7.2-0.2-1.94","null","<span style='color:GreenYellow; font-size: 70px;'>正确! </span>","null","","","","","","","","","","","","","","","","","","","","","","","feedback_test"
"","","","","","psychophysics","205","748419","0.0-7.2-0.2-0.95","610","","j","","","","","","","","","","","","","key","j","17.209456521739334","683","380","j","true","img/T_ambi40.png","をる","prac",""
"","","","","","html-keyboard-response","206","748922","0.0-7.2-0.2-1.95","null","<span style='color:GreenYellow; font-size: 70px;'>正确! </span>","null","","","","","","","","","","","","","","","","","","","","","","","feedback_test"
"","","","","","html-keyboard-response","207","759205","0.0-7.2-1.2-0.2","10282","<style>.context{color:white; font-size: 35px; line-height:40px}</style>                          <div><p class='context'>您正确回答了59% 的试次。</p ><p class='context'>您的平均反应时为654毫秒。</p >"," ","","","","","","","","","","","","","","","","","","","","","","",""
"","","","","","instructions","208","775115","0.0-7.2-1.2-1.2","15907","","","","","","","","","","","","","","[{""page_index"":0,""viewing_time"":1569},{""page_index"":1,""viewing_time"":12143},{""page_index"":2,""viewing_time"":2194}]","","","","","","","","","","",""
"","","","","","psychophysics","209","776904","0.0-7.3-0.3-0.96","788","","j","","","","","","","","","","","","","key","j","16.666000000000185","683","380","f","false","img/C_ambi40.png","生人","prac",""
"","","","","","html-keyboard-response","210","777410","0.0-7.3-0.3-1.96","null","<span style='color:red; font-size: 70px;'>错误! </span>","null","","","","","","","","","","","","","","","","","","","","","","","feedback_test"
"","","","","","psychophysics","211","779280","0.0-7.3-0.3-0.97","864","","f","","","","","","","","","","","","","key","f","16.666000000000846","683","380","j","false","img/C_ambi40.png","朋友","prac",""
"","","","","","html-keyboard-response","212","779787","0.0-7.3-0.3-1.97","null","<span style='color:red; font-size: 70px;'>错误! </span>","null","","","","","","","","","","","","","","","","","","","","","","","feedback_test"
"","","","","","psychophysics","213","781952","0.0-7.3-0.3-0.98","1159","","j","","","","","","","","","","","","","key","j","16.665999999999922","683","380","f","false","img/H_ambi40.png","朋友","prac",""
"","","","","","html-keyboard-response","214","782459","0.0-7.3-0.3-1.98","null","<span style='color:red; font-size: 70px;'>错误! </span>","null","","","","","","","","","","","","","","","","","","","","","","","feedback_test"
"","","","","","psychophysics","215","783959","0.0-7.3-0.3-0.99","491","","j","","","","","","","","","","","","","key","j","16.665999999999727","683","380","j","true","img/C_ambi40.png","朋友","prac",""
"","","","","","html-keyboard-response","216","784460","0.0-7.3-0.3-1.99","null","<span style='color:GreenYellow; font-size: 70px;'>正确! </span>","null","","","","","","","","","","","","","","","","","","","","","","","feedback_test"
"","","","","","psychophysics","217","786159","0.0-7.3-0.3-0.100","691","","j","","","","","","","","","","","","","key","j","16.666000000000608","683","380","j","true","img/H_ambi40.png","自我","prac",""
"","","","","","html-keyboard-response","218","786660","0.0-7.3-0.3-1.100","null","<span style='color:GreenYellow; font-size: 70px;'>正确! </span>","null","","","","","","","","","","","","","","","","","","","","","","","feedback_test"
"","","","","","psychophysics","219","788320","0.0-7.3-0.3-0.101","653","","j","","","","","","","","","","","","","key","j","16.66600000000074","683","380","j","true","img/S_ambi40.png","生人","prac",""
"","","","","","html-keyboard-response","220","788828","0.0-7.3-0.3-1.101","null","<span style='color:GreenYellow; font-size: 70px;'>正确! </span>","null","","","","","","","","","","","","","","","","","","","","","","","feedback_test"
"","","","","","psychophysics","221","790579","0.0-7.3-0.3-0.102","738","","j","","","","","","","","","","","","","key","j","16.665999999999677","683","380","j","true","img/S_ambi40.png","生人","prac",""
"","","","","","html-keyboard-response","222","791084","0.0-7.3-0.3-1.102","null","<span style='color:GreenYellow; font-size: 70px;'>正确! </span>","null","","","","","","","","","","","","","","","","","","","","","","","feedback_test"
"","","","","","psychophysics","223","792863","0.0-7.3-0.3-0.103","777","","j","","","","","","","","","","","","","key","j","16.66599999999938","683","380","j","true","img/H_ambi40.png","自我","prac",""
"","","","","","html-keyboard-response","224","793372","0.0-7.3-0.3-1.103","null","<span style='color:GreenYellow; font-size: 70px;'>正确! </span>","null","","","","","","","","","","","","","","","","","","","","","","","feedback_test"
"","","","","","psychophysics","225","795017","0.0-7.3-0.3-0.104","611","","j","","","","","","","","","","","","","key","j","17.016863157894267","683","380","j","true","img/T_ambi40.png","をる","prac",""
"","","","","","html-keyboard-response","226","795525","0.0-7.3-0.3-1.104","null","<span style='color:GreenYellow; font-size: 70px;'>正确! </span>","null","","","","","","","","","","","","","","","","","","","","","","","feedback_test"
"","","","","","psychophysics","227","797322","0.0-7.3-0.3-0.105","789","","f","","","","","","","","","","","","","key","f","16.823226415094226","683","380","f","true","img/C_ambi40.png","自我","prac",""
"","","","","","html-keyboard-response","228","797829","0.0-7.3-0.3-1.105","null","<span style='color:GreenYellow; font-size: 70px;'>正确! </span>","null","","","","","","","","","","","","","","","","","","","","","","","feedback_test"
"","","","","","psychophysics","229","799481","0.0-7.3-0.3-0.106","645","","j","","","","","","","","","","","","","key","j","16.665999999999222","683","380","j","true","img/T_ambi40.png","をる","prac",""
"","","","","","html-keyboard-response","230","799989","0.0-7.3-0.3-1.106","null","<span style='color:GreenYellow; font-size: 70px;'>正确! </span>","null","","","","","","","","","","","","","","","","","","","","","","","feedback_test"
"","","","","","psychophysics","231","801725","0.0-7.3-0.3-0.107","729","","j","","","","","","","","","","","","","key","j","16.665999999999983","683","380","f","false","img/S_ambi40.png","朋友","prac",""
"","","","","","html-keyboard-response","232","802229","0.0-7.3-0.3-1.107","null","<span style='color:red; font-size: 70px;'>错误! </span>","null","","","","","","","","","","","","","","","","","","","","","","","feedback_test"
"","","","","","psychophysics","233","803865","0.0-7.3-0.3-0.108","631","","j","","","","","","","","","","","","","key","j","16.66600000000074","683","380","j","true","img/T_ambi40.png","をる","prac",""
"","","","","","html-keyboard-response","234","804373","0.0-7.3-0.3-1.108","null","<span style='color:GreenYellow; font-size: 70px;'>正确! </span>","null","","","","","","","","","","","","","","","","","","","","","","","feedback_test"
"","","","","","psychophysics","235","806066","0.0-7.3-0.3-0.109","685","","j","","","","","","","","","","","","","key","j","17.00612244898054","683","380","j","true","img/T_ambi40.png","をる","prac",""
"","","","","","html-keyboard-response","236","806573","0.0-7.3-0.3-1.109","null","<span style='color:GreenYellow; font-size: 70px;'>正确! </span>","null","","","","","","","","","","","","","","","","","","","","","","","feedback_test"
"","","","","","psychophysics","237","808356","0.0-7.3-0.3-0.110","778","","f","","","","","","","","","","","","","key","f","16.666000000000185","683","380","f","true","img/H_ambi40.png","生人","prac",""
"","","","","","html-keyboard-response","238","808861","0.0-7.3-0.3-1.110","null","<span style='color:GreenYellow; font-size: 70px;'>正确! </span>","null","","","","","","","","","","","","","","","","","","","","","","","feedback_test"
"","","","","","psychophysics","239","810777","0.0-7.3-0.3-0.111","886","","j","","","","","","","","","","","","","key","j","16.665999999999993","683","380","f","false","img/S_ambi40.png","自我","prac",""
"","","","","","html-keyboard-response","240","811284","0.0-7.3-0.3-1.111","null","<span style='color:red; font-size: 70px;'>错误! </span>","null","","","","","","","","","","","","","","","","","","","","","","","feedback_test"
"","","","","","psychophysics","241","812907","0.0-7.3-0.3-0.112","620","","f","","","","","","","","","","","","","key","f","16.843297872340624","683","380","f","true","img/C_ambi40.png","自我","prac",""
"","","","","","html-keyboard-response","242","813412","0.0-7.3-0.3-1.112","null","<span style='color:GreenYellow; font-size: 70px;'>正确! </span>","null","","","","","","","","","","","","","","","","","","","","","","","feedback_test"
"","","","","","psychophysics","243","815328","0.0-7.3-0.3-0.113","885","","f","","","","","","","","","","","","","key","f","16.665999999999993","683","380","f","true","img/H_ambi40.png","朋友","prac",""
"","","","","","html-keyboard-response","244","815836","0.0-7.3-0.3-1.113","null","<span style='color:GreenYellow; font-size: 70px;'>正确! </span>","null","","","","","","","","","","","","","","","","","","","","","","","feedback_test"
"","","","","","psychophysics","245","817806","0.0-7.3-0.3-0.114","968","","f","","","","","","","","","","","","","key","f","16.66599999999918","683","380","j","false","img/S_ambi40.png","生人","prac",""
"","","","","","html-keyboard-response","246","818308","0.0-7.3-0.3-1.114","null","<span style='color:red; font-size: 70px;'>错误! </span>","null","","","","","","","","","","","","","","","","","","","","","","","feedback_test"
"","","","","","psychophysics","247","820033","0.0-7.3-0.3-0.115","717","","f","","","","","","","","","","","","","key","f","16.831009900990395","683","380","j","false","img/H_ambi40.png","自我","prac",""
"","","","","","html-keyboard-response","248","820540","0.0-7.3-0.3-1.115","null","<span style='color:red; font-size: 70px;'>错误! </span>","null","","","","","","","","","","","","","","","","","","","","","","","feedback_test"
"","","","","","psychophysics","249","822109","0.0-7.3-0.3-0.116","561","","j","","","","","","","","","","","","","key","j","16.66600000000088","683","380","f","false","img/S_ambi40.png","朋友","prac",""
"","","","","","html-keyboard-response","250","822612","0.0-7.3-0.3-1.116","null","<span style='color:red; font-size: 70px;'>错误! </span>","null","","","","","","","","","","","","","","","","","","","","","","","feedback_test"
"","","","","","psychophysics","251","824462","0.0-7.3-0.3-0.117","846","","f","","","","","","","","","","","","","key","f","16.666000000000086","683","380","f","true","img/S_ambi40.png","自我","prac",""
"","","","","","html-keyboard-response","252","824965","0.0-7.3-0.3-1.117","null","<span style='color:GreenYellow; font-size: 70px;'>正确! </span>","null","","","","","","","","","","","","","","","","","","","","","","","feedback_test"
"","","","","","psychophysics","253","826706","0.0-7.3-0.3-0.118","740","","j","","","","","","","","","","","","","key","j","16.666000000000796","683","380","j","true","img/T_ambi40.png","をる","prac",""
"","","","","","html-keyboard-response","254","827212","0.0-7.3-0.3-1.118","null","<span style='color:GreenYellow; font-size: 70px;'>正确! </span>","null","","","","","","","","","","","","","","","","","","","","","","","feedback_test"
"","","","","","psychophysics","255","828910","0.0-7.3-0.3-0.119","688","","f","","","","","","","","","","","","","key","f","16.666000000000608","683","380","f","true","img/H_ambi40.png","生人","prac",""
"","","","","","html-keyboard-response","256","829413","0.0-7.3-0.3-1.119","null","<span style='color:GreenYellow; font-size: 70px;'>正确! </span>","null","","","","","","","","","","","","","","","","","","","","","","","feedback_test"
"","","","","","psychophysics","257","830970","0.0-7.3-0.3-0.120","556","","f","","","","","","","","","","","","","key","f","16.84715217391267","683","380","j","false","img/T_ambi40.png","をる","prac",""
"","","","","","html-keyboard-response","258","831477","0.0-7.3-0.3-1.120","null","<span style='color:red; font-size: 70px;'>错误! </span>","null","","","","","","","","","","","","","","","","","","","","","","","feedback_test"
"","","","","","psychophysics","259","833314","0.0-7.3-0.3-0.121","831","","j","","","","","","","","","","","","","key","j","16.665999999999308","683","380","f","false","img/C_ambi40.png","生人","prac",""
"","","","","","html-keyboard-response","260","833821","0.0-7.3-0.3-1.121","null","<span style='color:red; font-size: 70px;'>错误! </span>","null","","","","","","","","","","","","","","","","","","","","","","","feedback_test"
"","","","","","psychophysics","261","835560","0.0-7.3-0.3-0.122","731","","j","","","","","","","","","","","","","key","j","16.831009900990395","683","380","j","true","img/T_ambi40.png","をる","prac",""
"","","","","","html-keyboard-response","262","836061","0.0-7.3-0.3-1.122","null","<span style='color:GreenYellow; font-size: 70px;'>正确! </span>","null","","","","","","","","","","","","","","","","","","","","","","","feedback_test"
"","","","","","psychophysics","263","837692","0.0-7.3-0.3-0.123","626","","j","","","","","","","","","","","","","key","j","16.66600000000074","683","380","j","true","img/T_ambi40.png","をる","prac",""
"","","","","","html-keyboard-response","264","838196","0.0-7.3-0.3-1.123","null","<span style='color:GreenYellow; font-size: 70px;'>正确! </span>","null","","","","","","","","","","","","","","","","","","","","","","","feedback_test"
"","","","","","psychophysics","265","840147","0.0-7.3-0.3-0.124","948","","f","","","","","","","","","","","","","key","f","16.810921739130887","683","380","j","false","img/C_ambi40.png","朋友","prac",""
"","","","","","html-keyboard-response","266","840653","0.0-7.3-0.3-1.124","null","<span style='color:red; font-size: 70px;'>错误! </span>","null","","","","","","","","","","","","","","","","","","","","","","","feedback_test"
"","","","","","psychophysics","267","842235","0.0-7.3-0.3-0.125","578","","j","","","","","","","","","","","","","key","j","16.665999999999297","683","380","j","true","img/C_ambi40.png","朋友","prac",""
"","","","","","html-keyboard-response","268","842741","0.0-7.3-0.3-1.125","null","<span style='color:GreenYellow; font-size: 70px;'>正确! </span>","null","","","","","","","","","","","","","","","","","","","","","","","feedback_test"
"","","","","","psychophysics","269","844561","0.0-7.3-0.3-0.126","788","","j","","","","","","","","","","","","","key","j","16.980452830188266","683","380","j","true","img/S_ambi40.png","生人","prac",""
"","","","","","html-keyboard-response","270","845062","0.0-7.3-0.3-1.126","null","<span style='color:GreenYellow; font-size: 70px;'>正确! </span>","null","","","","","","","","","","","","","","","","","","","","","","","feedback_test"
"","","","","","psychophysics","271","846609","0.0-7.3-0.3-0.127","542","","j","","","","","","","","","","","","","key","j","16.849142857142827","683","380","j","true","img/H_ambi40.png","自我","prac",""
"","","","","","html-keyboard-response","272","847118","0.0-7.3-0.3-1.127","null","<span style='color:GreenYellow; font-size: 70px;'>正确! </span>","null","","","","","","","","","","","","","","","","","","","","","","","feedback_test"
"","","","","","html-keyboard-response","273","855066","0.0-7.3-1.3-0.3","7947","<style>.context{color:white; font-size: 35px; line-height:40px}</style>                          <div><p class='context'>您正确回答了66% 的试次。</p ><p class='context'>您的平均反应时为692毫秒。</p >"," ","","","","","","","","","","","","","","","","","","","","","","",""
"","","","","","instructions","274","878544","0.0-7.3-1.3-1.3","23475","","","","","","","","","","","","","","[{""page_index"":0,""viewing_time"":1852},{""page_index"":1,""viewing_time"":20575},{""page_index"":2,""viewing_time"":1048}]","","","","","","","","","","",""
"","","","","","psychophysics","275","880281","0.0-7.4-0.4-0.128","732","","j","","","","","","","","","","","","","key","j","16.665999999999983","683","380","j","true","img/T_ambi40.png","をる","prac",""
"","","","","","html-keyboard-response","276","880790","0.0-7.4-0.4-1.128","null","<span style='color:GreenYellow; font-size: 70px;'>正确! </span>","null","","","","","","","","","","","","","","","","","","","","","","","feedback_test"
"","","","","","psychophysics","277","882486","0.0-7.4-0.4-0.129","688","","j","","","","","","","","","","","","","key","j","16.665999999999457","683","380","f","false","img/C_ambi40.png","自我","prac",""
"","","","","","html-keyboard-response","278","882990","0.0-7.4-0.4-1.129","null","<span style='color:red; font-size: 70px;'>错误! </span>","null","","","","","","","","","","","","","","","","","","","","","","","feedback_test"
"","","","","","psychophysics","279","884986","0.0-7.4-0.4-0.130","988","","j","","","","","","","","","","","","","key","j","16.66600000000062","683","380","f","false","img/H_ambi40.png","朋友","prac",""
"","","","","","html-keyboard-response","280","885494","0.0-7.4-0.4-1.130","null","<span style='color:red; font-size: 70px;'>错误! </span>","null","","","","","","","","","","","","","","","","","","","","","","","feedback_test"
"","","","","","psychophysics","281","887180","0.0-7.4-0.4-0.131","681","","j","","","","","","","","","","","","","key","j","16.8343434343432","683","380","f","false","img/S_ambi40.png","朋友","prac",""
"","","","","","html-keyboard-response","282","887686","0.0-7.4-0.4-1.131","null","<span style='color:red; font-size: 70px;'>错误! </span>","null","","","","","","","","","","","","","","","","","","","","","","","feedback_test"
"","","","","","psychophysics","283","889496","0.0-7.4-0.4-0.132","804","","f","","","","","","","","","","","","","key","f","16.665999999999887","683","380","j","false","img/C_ambi40.png","朋友","prac",""
"","","","","","html-keyboard-response","284","889998","0.0-7.4-0.4-1.132","null","<span style='color:red; font-size: 70px;'>错误! </span>","null","","","","","","","","","","","","","","","","","","","","","","","feedback_test"
"","","","","","psychophysics","285","891579","0.0-7.4-0.4-0.133","577","","j","","","","","","","","","","","","","key","j","16.84715217391267","683","380","j","true","img/T_ambi40.png","をる","prac",""
"","","","","","html-keyboard-response","286","892086","0.0-7.4-0.4-1.133","null","<span style='color:GreenYellow; font-size: 70px;'>正确! </span>","null","","","","","","","","","","","","","","","","","","","","","","","feedback_test"
"","","","","","psychophysics","287","893676","0.0-7.4-0.4-0.134","587","","j","","","","","","","","","","","","","key","j","16.666000000000533","683","380","j","true","img/C_ambi40.png","朋友","prac",""
"","","","","","html-keyboard-response","288","894182","0.0-7.4-0.4-1.134","null","<span style='color:GreenYellow; font-size: 70px;'>正确! </span>","null","","","","","","","","","","","","","","","","","","","","","","","feedback_test"
"","","","","","psychophysics","289","895743","0.0-7.4-0.4-0.135","533","","j","","","","","","","","","","","","","key","j","16.849142857142827","683","380","f","false","img/H_ambi40.png","生人","prac",""
"","","","","","html-keyboard-response","290","896246","0.0-7.4-0.4-1.135","null","<span style='color:red; font-size: 70px;'>错误! </span>","null","","","","","","","","","","","","","","","","","","","","","","","feedback_test"
"","","","","","psychophysics","291","897947","0.0-7.4-0.4-0.136","699","","j","","","","","","","","","","","","","key","j","16.83265999999945","683","380","j","true","img/S_ambi40.png","生人","prac",""
"","","","","","html-keyboard-response","292","898454","0.0-7.4-0.4-1.136","null","<span style='color:GreenYellow; font-size: 70px;'>正确! </span>","null","","","","","","","","","","","","","","","","","","","","","","","feedback_test"
"","","","","","psychophysics","293","900072","0.0-7.4-0.4-0.137","615","","j","","","","","","","","","","","","","key","j","16.665999999999865","683","380","f","false","img/C_ambi40.png","生人","prac",""
"","","","","","html-keyboard-response","294","900574","0.0-7.4-0.4-1.137","null","<span style='color:red; font-size: 70px;'>错误! </span>","null","","","","","","","","","","","","","","","","","","","","","","","feedback_test"
"","","","","","psychophysics","295","902156","0.0-7.4-0.4-0.138","574","","j","","","","","","","","","","","","","key","j","16.666000000000533","683","380","f","false","img/S_ambi40.png","自我","prac",""
"","","","","","html-keyboard-response","296","902663","0.0-7.4-0.4-1.138","null","<span style='color:red; font-size: 70px;'>错误! </span>","null","","","","","","","","","","","","","","","","","","","","","","","feedback_test"
"","","","","","psychophysics","297","904260","0.0-7.4-0.4-0.139","594","","j","","","","","","","","","","","","","key","j","16.666000000000196","683","380","j","true","img/S_ambi40.png","生人","prac",""
"","","","","","html-keyboard-response","298","904768","0.0-7.4-0.4-1.139","null","<span style='color:GreenYellow; font-size: 70px;'>正确! </span>","null","","","","","","","","","","","","","","","","","","","","","","","feedback_test"
"","","","","","psychophysics","299","906360","0.0-7.4-0.4-0.140","587","","j","","","","","","","","","","","","","key","j","16.666000000000533","683","380","j","true","img/T_ambi40.png","をる","prac",""
"","","","","","html-keyboard-response","300","906864","0.0-7.4-0.4-1.140","null","<span style='color:GreenYellow; font-size: 70px;'>正确! </span>","null","","","","","","","","","","","","","","","","","","","","","","","feedback_test"
"","","","","","psychophysics","301","908576","0.0-7.4-0.4-0.141","710","","j","","","","","","","","","","","","","key","j","17.171030303030605","683","380","j","true","img/H_ambi40.png","自我","prac",""
"","","","","","html-keyboard-response","302","909079","0.0-7.4-0.4-1.141","null","<span style='color:GreenYellow; font-size: 70px;'>正确! </span>","null","","","","","","","","","","","","","","","","","","","","","","","feedback_test"
"","","","","","psychophysics","303","910740","0.0-7.4-0.4-0.142","657","","j","","","","","","","","","","","","","key","j","16.66600000000041","683","380","j","true","img/T_ambi40.png","をる","prac",""
"","","","","","html-keyboard-response","304","911247","0.0-7.4-0.4-1.142","null","<span style='color:GreenYellow; font-size: 70px;'>正确! </span>","null","","","","","","","","","","","","","","","","","","","","","","","feedback_test"
"","","","","","psychophysics","305","912908","0.0-7.4-0.4-0.143","658","","f","","","","","","","","","","","","","key","f","16.666000000000086","683","380","j","false","img/H_ambi40.png","自我","prac",""
"","","","","","html-keyboard-response","306","913415","0.0-7.4-0.4-1.143","null","<span style='color:red; font-size: 70px;'>错误! </span>","null","","","","","","","","","","","","","","","","","","","","","","","feedback_test"
"","","","","","psychophysics","307","915053","0.0-7.4-0.4-0.144","627","","j","","","","","","","","","","","","","key","j","17.016863157894267","683","380","j","true","img/T_ambi40.png","をる","prac",""
"","","","","","html-keyboard-response","308","915559","0.0-7.4-0.4-1.144","null","<span style='color:GreenYellow; font-size: 70px;'>正确! </span>","null","","","","","","","","","","","","","","","","","","","","","","","feedback_test"
"","","","","","psychophysics","309","917169","0.0-7.4-0.4-0.145","606","","f","","","","","","","","","","","","","key","f","17.203612903225665","683","380","j","false","img/H_ambi40.png","自我","prac",""
"","","","","","html-keyboard-response","310","917671","0.0-7.4-0.4-1.145","null","<span style='color:red; font-size: 70px;'>错误! </span>","null","","","","","","","","","","","","","","","","","","","","","","","feedback_test"
"","","","","","psychophysics","311","919261","0.0-7.4-0.4-0.146","582","","j","","","","","","","","","","","","","key","j","17.028304347826634","683","380","j","true","img/T_ambi40.png","をる","prac",""
"","","","","","html-keyboard-response","312","919767","0.0-7.4-0.4-1.146","null","<span style='color:GreenYellow; font-size: 70px;'>正确! </span>","null","","","","","","","","","","","","","","","","","","","","","","","feedback_test"
"","","","","","psychophysics","313","921117","0.0-7.4-0.4-0.147","349","","j","","","","","","","","","","","","","key","j","16.66599999999928","683","380","f","false","img/C_ambi40.png","自我","prac",""
"","","","","","html-keyboard-response","314","921623","0.0-7.4-0.4-1.147","null","<span style='color:red; font-size: 70px;'>错误! </span>","null","","","","","","","","","","","","","","","","","","","","","","","feedback_test"
"","","","","","psychophysics","315","923098","0.0-7.4-0.4-0.148","466","","j","","","","","","","","","","","","","key","j","17.26121428571475","683","380","j","true","img/C_ambi40.png","朋友","prac",""
"","","","","","html-keyboard-response","316","923599","0.0-7.4-0.4-1.148","null","<span style='color:GreenYellow; font-size: 70px;'>正确! </span>","null","","","","","","","","","","","","","","","","","","","","","","","feedback_test"
"","","","","","psychophysics","317","925096","0.0-7.4-0.4-0.149","493","","j","","","","","","","","","","","","","key","j","16.666000000000086","683","380","j","true","img/C_ambi40.png","朋友","prac",""
"","","","","","html-keyboard-response","318","925599","0.0-7.4-0.4-1.149","null","<span style='color:GreenYellow; font-size: 70px;'>正确! </span>","null","","","","","","","","","","","","","","","","","","","","","","","feedback_test"
"","","","","","psychophysics","319","927088","0.0-7.4-0.4-0.150","480","","j","","","","","","","","","","","","","key","j","17.053581395348925","683","380","j","true","img/S_ambi40.png","生人","prac",""
"","","","","","html-keyboard-response","320","927596","0.0-7.4-0.4-1.150","null","<span style='color:GreenYellow; font-size: 70px;'>正确! </span>","null","","","","","","","","","","","","","","","","","","","","","","","feedback_test"
"","","","","","psychophysics","321","928960","0.0-7.4-0.4-0.151","362","","j","","","","","","","","","","","","","key","j","16.874324999999953","683","380","j","true","img/H_ambi40.png","自我","prac",""
"","","","","","html-keyboard-response","322","929463","0.0-7.4-0.4-1.151","null","<span style='color:GreenYellow; font-size: 70px;'>正确! </span>","null","","","","","","","","","","","","","","","","","","","","","","","feedback_test"
"","","","","","psychophysics","323","931042","0.0-7.4-0.4-0.152","573","","j","","","","","","","","","","","","","key","j","16.845204301074556","683","380","j","true","img/T_ambi40.png","をる","prac",""
"","","","","","html-keyboard-response","324","931544","0.0-7.4-0.4-1.152","null","<span style='color:GreenYellow; font-size: 70px;'>正确! </span>","null","","","","","","","","","","","","","","","","","","","","","","","feedback_test"
"","","","","","psychophysics","325","932935","0.0-7.4-0.4-0.153","388","","j","","","","","","","","","","","","","key","j","16.869243902438207","683","380","j","true","img/T_ambi40.png","をる","prac",""
"","","","","","html-keyboard-response","326","933440","0.0-7.4-0.4-1.153","null","<span style='color:GreenYellow; font-size: 70px;'>正确! </span>","null","","","","","","","","","","","","","","","","","","","","","","","feedback_test"
"","","","","","psychophysics","327","935026","0.0-7.4-0.4-0.154","571","","j","","","","","","","","","","","","","key","j","16.845204301074556","683","380","f","false","img/S_ambi40.png","自我","prac",""
"","","","","","html-keyboard-response","328","935528","0.0-7.4-0.4-1.154","null","<span style='color:red; font-size: 70px;'>错误! </span>","null","","","","","","","","","","","","","","","","","","","","","","","feedback_test"
"","","","","","psychophysics","329","937089","0.0-7.4-0.4-0.155","558","","j","","","","","","","","","","","","","key","j","16.66599999999963","683","380","f","false","img/C_ambi40.png","生人","prac",""
"","","","","","html-keyboard-response","330","937592","0.0-7.4-0.4-1.155","null","<span style='color:red; font-size: 70px;'>错误! </span>","null","","","","","","","","","","","","","","","","","","","","","","","feedback_test"
"","","","","","psychophysics","331","939215","0.0-7.4-0.4-0.156","617","","j","","","","","","","","","","","","","key","j","17.020595744680712","683","380","f","false","img/S_ambi40.png","朋友","prac",""
"","","","","","html-keyboard-response","332","939720","0.0-7.4-0.4-1.156","null","<span style='color:red; font-size: 70px;'>错误! </span>","null","","","","","","","","","","","","","","","","","","","","","","","feedback_test"
"","","","","","psychophysics","333","941403","0.0-7.4-0.4-0.157","675","","j","","","","","","","","","","","","","key","j","16.66600000000041","683","380","f","false","img/H_ambi40.png","生人","prac",""
"","","","","","html-keyboard-response","334","941912","0.0-7.4-0.4-1.157","null","<span style='color:red; font-size: 70px;'>错误! </span>","null","","","","","","","","","","","","","","","","","","","","","","","feedback_test"
"","","","","","psychophysics","335","943180","0.0-7.4-0.4-0.158","262","","f","","","","","","","","","","","","","key","f","16.66599999999938","683","380","f","true","img/H_ambi40.png","朋友","prac",""
"","","","","","html-keyboard-response","336","943687","0.0-7.4-0.4-1.158","null","<span style='color:GreenYellow; font-size: 70px;'>正确! </span>","null","","","","","","","","","","","","","","","","","","","","","","","feedback_test"
"","","","","","psychophysics","337","945335","0.0-7.4-0.4-0.159","641","","f","","","","","","","","","","","","","key","f","16.66600000000041","683","380","j","false","img/S_ambi40.png","生人","prac",""
"","","","","","html-keyboard-response","338","945839","0.0-7.4-0.4-1.159","null","<span style='color:red; font-size: 70px;'>错误! </span>","null","","","","","","","","","","","","","","","","","","","","","","","feedback_test"
"","","","","","html-keyboard-response","339","952231","0.0-7.4-1.4-0.4","6389","<style>.context{color:white; font-size: 35px; line-height:40px}</style>                          <div><p class='context'>您正确回答了53% 的试次。</p ><p class='context'>您的平均反应时为552毫秒。</p >"," ","","","","","","","","","","","","","","","","","","","","","","",""
"","","","","","instructions","340","989968","0.0-7.4-1.4-1.4","37731","","","","","","","","","","","","","","[{""page_index"":0,""viewing_time"":12700},{""page_index"":1,""viewing_time"":23647},{""page_index"":2,""viewing_time"":1384}]","","","","","","","","","","",""
"","","","","","psychophysics","341","991597","0.0-7.5-0.5-0.160","620","","j","","","","","","","","","","","","","key","j","16.666000000001077","683","380","j","true","img/T_ambi40.png","をる","prac",""
"","","","","","html-keyboard-response","342","992105","0.0-7.5-0.5-1.160","null","<span style='color:GreenYellow; font-size: 70px;'>正确! </span>","null","","","","","","","","","","","","","","","","","","","","","","","feedback_test"
"","","","","","psychophysics","343","993628","0.0-7.5-0.5-0.161","515","","j","","","","","","","","","","","","","key","j","16.66599999999938","683","380","j","true","img/S_ambi40.png","生人","prac",""
"","","","","","html-keyboard-response","344","994129","0.0-7.5-0.5-1.161","null","<span style='color:GreenYellow; font-size: 70px;'>正确! </span>","null","","","","","","","","","","","","","","","","","","","","","","","feedback_test"
"","","","","","psychophysics","345","995659","0.0-7.5-0.5-0.162","529","","j","","","","","","","","","","","","","key","j","16.665999999999038","683","380","f","false","img/H_ambi40.png","生人","prac",""
"","","","","","html-keyboard-response","346","996161","0.0-7.5-0.5-1.162","null","<span style='color:red; font-size: 70px;'>错误! </span>","null","","","","","","","","","","","","","","","","","","","","","","","feedback_test"
"","","","","","psychophysics","347","997806","0.0-7.5-0.5-0.163","641","","j","","","","","","","","","","","","","key","j","16.665999999999222","683","380","f","false","img/S_ambi40.png","自我","prac",""
"","","","","","html-keyboard-response","348","998314","0.0-7.5-0.5-1.163","null","<span style='color:red; font-size: 70px;'>错误! </span>","null","","","","","","","","","","","","","","","","","","","","","","","feedback_test"
"","","","","","psychophysics","349","999861","0.0-7.5-0.5-0.164","541","","j","","","","","","","","","","","","","key","j","16.665999999999038","683","380","f","false","img/S_ambi40.png","朋友","prac",""
"","","","","","html-keyboard-response","350","1000370","0.0-7.5-0.5-1.164","null","<span style='color:red; font-size: 70px;'>错误! </span>","null","","","","","","","","","","","","","","","","","","","","","","","feedback_test"
"","","","","","psychophysics","351","1001850","0.0-7.5-0.5-0.165","472","","j","","","","","","","","","","","","","key","j","16.665999999997773","683","380","j","true","img/C_ambi40.png","朋友","prac",""
"","","","","","html-keyboard-response","352","1002354","0.0-7.5-0.5-1.165","null","<span style='color:GreenYellow; font-size: 70px;'>正确! </span>","null","","","","","","","","","","","","","","","","","","","","","","","feedback_test"
"","","","","","psychophysics","353","1003995","0.0-7.5-0.5-0.166","639","","f","","","","","","","","","","","","","key","f","16.66599999999954","683","380","j","false","img/H_ambi40.png","自我","prac",""
"","","","","","html-keyboard-response","354","1004498","0.0-7.5-0.5-1.166","null","<span style='color:red; font-size: 70px;'>错误! </span>","null","","","","","","","","","","","","","","","","","","","","","","","feedback_test"
"","","","","","psychophysics","355","1006020","0.0-7.5-0.5-0.167","520","","j","","","","","","","","","","","","","key","j","16.666000000001965","683","380","j","true","img/T_ambi40.png","をる","prac",""
"","","","","","html-keyboard-response","356","1006529","0.0-7.5-0.5-1.167","null","<span style='color:GreenYellow; font-size: 70px;'>正确! </span>","null","","","","","","","","","","","","","","","","","","","","","","","feedback_test"
"","","","","","psychophysics","357","1007954","0.0-7.5-0.5-0.168","419","","j","","","","","","","","","","","","","key","j","16.665999999998466","683","380","j","true","img/S_ambi40.png","生人","prac",""
"","","","","","html-keyboard-response","358","1008457","0.0-7.5-0.5-1.168","null","<span style='color:GreenYellow; font-size: 70px;'>正确! </span>","null","","","","","","","","","","","","","","","","","","","","","","","feedback_test"
"","","","","","psychophysics","359","1009911","0.0-7.5-0.5-0.169","447","","j","","","","","","","","","","","","","key","j","16.665999999998117","683","380","f","false","img/C_ambi40.png","自我","prac",""
"","","","","","html-keyboard-response","360","1010417","0.0-7.5-0.5-1.169","null","<span style='color:red; font-size: 70px;'>错误! </span>","null","","","","","","","","","","","","","","","","","","","","","","","feedback_test"
"","","","","","psychophysics","361","1011919","0.0-7.5-0.5-0.170","497","","j","","","","","","","","","","","","","key","j","16.666000000000086","683","380","j","true","img/T_ambi40.png","をる","prac",""
"","","","","","html-keyboard-response","362","1012425","0.0-7.5-0.5-1.170","null","<span style='color:GreenYellow; font-size: 70px;'>正确! </span>","null","","","","","","","","","","","","","","","","","","","","","","","feedback_test"
"","","","","","psychophysics","363","1013842","0.0-7.5-0.5-0.171","411","","j","","","","","","","","","","","","","key","j","17.072487804876843","683","380","f","false","img/H_ambi40.png","朋友","prac",""
"","","","","","html-keyboard-response","364","1014345","0.0-7.5-0.5-1.171","null","<span style='color:red; font-size: 70px;'>错误! </span>","null","","","","","","","","","","","","","","","","","","","","","","","feedback_test"
"","","","","","psychophysics","365","1015908","0.0-7.5-0.5-0.172","561","","j","","","","","","","","","","","","","key","j","16.665999999998377","683","380","j","true","img/H_ambi40.png","自我","prac",""
"","","","","","html-keyboard-response","366","1016409","0.0-7.5-0.5-1.172","null","<span style='color:GreenYellow; font-size: 70px;'>正确! </span>","null","","","","","","","","","","","","","","","","","","","","","","","feedback_test"
"","","","","","psychophysics","367","1018365","0.0-7.5-0.5-0.173","945","","f","","","","","","","","","","","","","key","f","17.26121428571475","683","380","f","true","img/C_ambi40.png","生人","prac",""
"","","","","","html-keyboard-response","368","1018873","0.0-7.5-0.5-1.173","null","<span style='color:GreenYellow; font-size: 70px;'>正确! </span>","null","","","","","","","","","","","","","","","","","","","","","","","feedback_test"
"","","","","","psychophysics","369","1020794","0.0-7.5-0.5-0.174","914","","j","","","","","","","","","","","","","key","j","16.813486725662678","683","380","j","true","img/C_ambi40.png","朋友","prac",""
"","","","","","html-keyboard-response","370","1021297","0.0-7.5-0.5-1.174","null","<span style='color:GreenYellow; font-size: 70px;'>正确! </span>","null","","","","","","","","","","","","","","","","","","","","","","","feedback_test"
"","","","","","psychophysics","371","1022884","0.0-7.5-0.5-0.175","586","","j","","","","","","","","","","","","","key","j","16.666000000000533","683","380","j","true","img/T_ambi40.png","をる","prac",""
"","","","","","html-keyboard-response","372","1023393","0.0-7.5-0.5-1.175","null","<span style='color:GreenYellow; font-size: 70px;'>正确! </span>","null","","","","","","","","","","","","","","","","","","","","","","","feedback_test"
"","","","","","psychophysics","373","1025040","0.0-7.5-0.5-0.176","642","","j","","","","","","","","","","","","","key","j","17.19789361702328","683","380","j","true","img/T_ambi40.png","をる","prac",""
"","","","","","html-keyboard-response","374","1025546","0.0-7.5-0.5-1.176","null","<span style='color:GreenYellow; font-size: 70px;'>正确! </span>","null","","","","","","","","","","","","","","","","","","","","","","","feedback_test"
"","","","","","psychophysics","375","1027286","0.0-7.5-0.5-0.177","739","","f","","","","","","","","","","","","","key","f","16.99601980198018","683","380","j","false","img/H_ambi40.png","自我","prac",""
"","","","","","html-keyboard-response","376","1027795","0.0-7.5-0.5-1.177","null","<span style='color:red; font-size: 70px;'>错误! </span>","null","","","","","","","","","","","","","","","","","","","","","","","feedback_test"
"","","","","","psychophysics","377","1029802","0.0-7.5-0.5-0.178","979","","f","","","","","","","","","","","","","key","f","16.66600000000132","683","380","f","true","img/H_ambi40.png","朋友","prac",""
"","","","","","html-keyboard-response","378","1030307","0.0-7.5-0.5-1.178","null","<span style='color:GreenYellow; font-size: 70px;'>正确! </span>","null","","","","","","","","","","","","","","","","","","","","","","","feedback_test"
"","","","","","psychophysics","379","1032185","0.0-7.5-0.5-0.179","865","","j","","","","","","","","","","","","","key","j","16.96901818181769","683","380","f","false","img/C_ambi40.png","生人","prac",""
"","","","","","html-keyboard-response","380","1032691","0.0-7.5-0.5-1.179","null","<span style='color:red; font-size: 70px;'>错误! </span>","null","","","","","","","","","","","","","","","","","","","","","","","feedback_test"
"","","","","","psychophysics","381","1034285","0.0-7.5-0.5-0.180","587","","j","","","","","","","","","","","","","key","j","17.02440860215074","683","380","j","true","img/T_ambi40.png","をる","prac",""
"","","","","","html-keyboard-response","382","1034787","0.0-7.5-0.5-1.180","null","<span style='color:GreenYellow; font-size: 70px;'>正确! </span>","null","","","","","","","","","","","","","","","","","","","","","","","feedback_test"
"","","","","","psychophysics","383","1036459","0.0-7.5-0.5-0.181","664","","j","","","","","","","","","","","","","key","j","17.00962886598067","683","380","j","true","img/T_ambi40.png","をる","prac",""
"","","","","","html-keyboard-response","384","1036963","0.0-7.5-0.5-1.181","null","<span style='color:GreenYellow; font-size: 70px;'>正确! </span>","null","","","","","","","","","","","","","","","","","","","","","","","feedback_test"
"","","","","","psychophysics","385","1038801","0.0-7.5-0.5-0.182","837","","j","","","","","","","","","","","","","key","j","16.666000000000377","683","380","f","false","img/C_ambi40.png","自我","prac",""
"","","","","","html-keyboard-response","386","1039306","0.0-7.5-0.5-1.182","null","<span style='color:red; font-size: 70px;'>错误! </span>","null","","","","","","","","","","","","","","","","","","","","","","","feedback_test"
"","","","","","psychophysics","387","1041237","0.0-7.5-0.5-0.183","890","","f","","","","","","","","","","","","","key","f","16.812192982456875","683","380","j","false","img/H_ambi40.png","自我","prac",""
"","","","","","html-keyboard-response","388","1041738","0.0-7.5-0.5-1.183","null","<span style='color:red; font-size: 70px;'>错误! </span>","null","","","","","","","","","","","","","","","","","","","","","","","feedback_test"
"","","","","","psychophysics","389","1043662","0.0-7.5-0.5-0.184","916","","j","","","","","","","","","","","","","key","j","16.666000000001013","683","380","j","true","img/S_ambi40.png","生人","prac",""
"","","","","","html-keyboard-response","390","1044170","0.0-7.5-0.5-1.184","null","<span style='color:GreenYellow; font-size: 70px;'>正确! </span>","null","","","","","","","","","","","","","","","","","","","","","","","feedback_test"
"","","","","","psychophysics","391","1045977","0.0-7.5-0.5-0.185","798","","f","","","","","","","","","","","","","key","f","16.98344761904861","683","380","f","true","img/S_ambi40.png","自我","prac",""
"","","","","","html-keyboard-response","392","1046482","0.0-7.5-0.5-1.185","null","<span style='color:GreenYellow; font-size: 70px;'>正确! </span>","null","","","","","","","","","","","","","","","","","","","","","","","feedback_test"
"","","","","","psychophysics","393","1048299","0.0-7.5-0.5-0.186","789","","j","","","","","","","","","","","","","key","j","16.983447619046395","683","380","j","true","img/C_ambi40.png","朋友","prac",""
"","","","","","html-keyboard-response","394","1048802","0.0-7.5-0.5-1.186","null","<span style='color:GreenYellow; font-size: 70px;'>正确! </span>","null","","","","","","","","","","","","","","","","","","","","","","","feedback_test"
"","","","","","psychophysics","395","1050400","0.0-7.5-0.5-0.187","596","","j","","","","","","","","","","","","","key","j","16.666000000000196","683","380","j","true","img/C_ambi40.png","朋友","prac",""
"","","","","","html-keyboard-response","396","1050906","0.0-7.5-0.5-1.187","null","<span style='color:GreenYellow; font-size: 70px;'>正确! </span>","null","","","","","","","","","","","","","","","","","","","","","","","feedback_test"
"","","","","","psychophysics","397","1052453","0.0-7.5-0.5-0.188","539","","j","","","","","","","","","","","","","key","j","16.849142857141548","683","380","j","true","img/T_ambi40.png","をる","prac",""
"","","","","","html-keyboard-response","398","1052954","0.0-7.5-0.5-1.188","null","<span style='color:GreenYellow; font-size: 70px;'>正确! </span>","null","","","","","","","","","","","","","","","","","","","","","","","feedback_test"
"","","","","","psychophysics","399","1054755","0.0-7.5-0.5-0.189","793","","f","","","","","","","","","","","","","key","f","16.983447619046395","683","380","j","false","img/S_ambi40.png","生人","prac",""
"","","","","","html-keyboard-response","400","1055260","0.0-7.5-0.5-1.189","null","<span style='color:red; font-size: 70px;'>错误! </span>","null","","","","","","","","","","","","","","","","","","","","","","","feedback_test"
"","","","","","psychophysics","401","1057076","0.0-7.5-0.5-0.190","814","","f","","","","","","","","","","","","","key","f","16.821757009346474","683","380","f","true","img/S_ambi40.png","朋友","prac",""
"","","","","","html-keyboard-response","402","1057579","0.0-7.5-0.5-1.190","null","<span style='color:GreenYellow; font-size: 70px;'>正确! </span>","null","","","","","","","","","","","","","","","","","","","","","","","feedback_test"
"","","","","","psychophysics","403","1059518","0.0-7.5-0.5-0.191","938","","j","","","","","","","","","","","","","key","j","16.95838596491274","683","380","f","false","img/H_ambi40.png","生人","prac",""
"","","","","","html-keyboard-response","404","1060027","0.0-7.5-0.5-1.191","null","<span style='color:red; font-size: 70px;'>错误! </span>","null","","","","","","","","","","","","","","","","","","","","","","","feedback_test"
"","","","","","html-keyboard-response","405","1065870","0.0-7.5-1.5-0.5","5842","<style>.context{color:white; font-size: 35px; line-height:40px}</style>                          <div><p class='context'>您正确回答了63% 的试次。</p ><p class='context'>您的平均反应时为669毫秒。</p >"," ","","","","","","","","","","","","","","","","","","","","","","",""
"","","","","","instructions","406","1090756","0.0-7.5-1.5-1.5","24878","","","","","","","","","","","","","","[{""page_index"":0,""viewing_time"":16321},{""page_index"":1,""viewing_time"":7152},{""page_index"":2,""viewing_time"":1404}]","","","","","","","","","","",""
"","","","","","psychophysics","407","1093089","0.0-7.6-0.6-0.192","1326","","j","","","","","","","","","","","","","key","j","16.66600000000016","683","380","f","false","img/H_ambi40.png","朋友","prac",""
"","","","","","html-keyboard-response","408","1093596","0.0-7.6-0.6-1.192","null","<span style='color:red; font-size: 70px;'>错误! </span>","null","","","","","","","","","","","","","","","","","","","","","","","feedback_test"
"","","","","","psychophysics","409","1095172","0.0-7.6-0.6-0.193","573","","j","","","","","","","","","","","","","key","j","16.66600000000088","683","380","j","true","img/T_ambi40.png","をる","prac",""
"","","","","","html-keyboard-response","410","1095676","0.0-7.6-0.6-1.193","null","<span style='color:GreenYellow; font-size: 70px;'>正确! </span>","null","","","","","","","","","","","","","","","","","","","","","","","feedback_test"
"","","","","","psychophysics","411","1097260","0.0-7.6-0.6-0.194","580","","j","","","","","","","","","","","","","key","j","16.666000000000533","683","380","j","true","img/T_ambi40.png","をる","prac",""
"","","","","","html-keyboard-response","412","1097764","0.0-7.6-0.6-1.194","null","<span style='color:GreenYellow; font-size: 70px;'>正确! </span>","null","","","","","","","","","","","","","","","","","","","","","","","feedback_test"
"","","","","","psychophysics","413","1099622","0.0-7.6-0.6-0.195","856","","f","","","","","","","","","","","","","key","f","16.818899082568894","683","380","j","false","img/S_ambi40.png","生人","prac",""
"","","","","","html-keyboard-response","414","1100124","0.0-7.6-0.6-1.195","null","<span style='color:red; font-size: 70px;'>错误! </span>","null","","","","","","","","","","","","","","","","","","","","","","","feedback_test"
"","","","","","psychophysics","415","1101789","0.0-7.6-0.6-0.196","659","","j","","","","","","","","","","","","","key","j","17.009628865978268","683","380","j","true","img/C_ambi40.png","朋友","prac",""
"","","","","","html-keyboard-response","416","1102292","0.0-7.6-0.6-1.196","null","<span style='color:GreenYellow; font-size: 70px;'>正确! </span>","null","","","","","","","","","","","","","","","","","","","","","","","feedback_test"
"","","","","","psychophysics","417","1104118","0.0-7.6-0.6-0.197","822","","j","","","","","","","","","","","","","key","j","16.666000000000377","683","380","f","false","img/C_ambi40.png","生人","prac",""
"","","","","","html-keyboard-response","418","1104620","0.0-7.6-0.6-1.197","null","<span style='color:red; font-size: 70px;'>错误! </span>","null","","","","","","","","","","","","","","","","","","","","","","","feedback_test"
"","","","","","psychophysics","419","1106262","0.0-7.6-0.6-0.198","635","","j","","","","","","","","","","","","","key","j","16.66599999999954","683","380","j","true","img/H_ambi40.png","自我","prac",""
"","","","","","html-keyboard-response","420","1106764","0.0-7.6-0.6-1.198","null","<span style='color:GreenYellow; font-size: 70px;'>正确! </span>","null","","","","","","","","","","","","","","","","","","","","","","","feedback_test"
"","","","","","psychophysics","421","1108359","0.0-7.6-0.6-0.199","593","","j","","","","","","","","","","","","","key","j","17.40671111111167","683","380","j","true","img/T_ambi40.png","をる","prac",""
"","","","","","html-keyboard-response","422","1108860","0.0-7.6-0.6-1.199","null","<span style='color:GreenYellow; font-size: 70px;'>正确! </span>","null","","","","","","","","","","","","","","","","","","","","","","","feedback_test"
"","","","","","psychophysics","423","1110751","0.0-7.6-0.6-0.200","888","","j","","","","","","","","","","","","","key","j","16.966288288287515","683","380","j","true","img/H_ambi40.png","自我","prac",""
"","","","","","html-keyboard-response","424","1111255","0.0-7.6-0.6-1.200","null","<span style='color:GreenYellow; font-size: 70px;'>正确! </span>","null","","","","","","","","","","","","","","","","","","","","","","","feedback_test"
"","","","","","psychophysics","425","1112995","0.0-7.6-0.6-0.201","735","","j","","","","","","","","","","","","","key","j","16.665999999999983","683","380","j","true","img/S_ambi40.png","生人","prac",""
"","","","","","html-keyboard-response","426","1113500","0.0-7.6-0.6-1.201","null","<span style='color:GreenYellow; font-size: 70px;'>正确! </span>","null","","","","","","","","","","","","","","","","","","","","","","","feedback_test"
"","","","","","psychophysics","427","1115143","0.0-7.6-0.6-0.202","635","","j","","","","","","","","","","","","","key","j","16.839604166666202","683","380","j","true","img/C_ambi40.png","朋友","prac",""
"","","","","","html-keyboard-response","428","1115644","0.0-7.6-0.6-1.202","null","<span style='color:GreenYellow; font-size: 70px;'>正确! </span>","null","","","","","","","","","","","","","","","","","","","","","","","feedback_test"
"","","","","","psychophysics","429","1117483","0.0-7.6-0.6-0.203","833","","j","","","","","","","","","","","","","key","j","16.974629629629717","683","380","f","false","img/S_ambi40.png","自我","prac",""
"","","","","","html-keyboard-response","430","1117988","0.0-7.6-0.6-1.203","null","<span style='color:red; font-size: 70px;'>错误! </span>","null","","","","","","","","","","","","","","","","","","","","","","","feedback_test"
"","","","","","psychophysics","431","1119594","0.0-7.6-0.6-0.204","599","","j","","","","","","","","","","","","","key","j","16.843297872340624","683","380","j","true","img/T_ambi40.png","をる","prac",""
"","","","","","html-keyboard-response","432","1120100","0.0-7.6-0.6-1.204","null","<span style='color:GreenYellow; font-size: 70px;'>正确! </span>","null","","","","","","","","","","","","","","","","","","","","","","","feedback_test"
"","","","","","psychophysics","433","1121976","0.0-7.6-0.6-0.205","866","","f","","","","","","","","","","","","","key","f","16.665999999999798","683","380","f","true","img/S_ambi40.png","朋友","prac",""
"","","","","","html-keyboard-response","434","1122484","0.0-7.6-0.6-1.205","null","<span style='color:GreenYellow; font-size: 70px;'>正确! </span>","null","","","","","","","","","","","","","","","","","","","","","","","feedback_test"
"","","","","","psychophysics","435","1124408","0.0-7.6-0.6-0.206","901","","f","","","","","","","","","","","","","key","f","17.116432432433474","683","380","f","true","img/C_ambi40.png","自我","prac",""
"","","","","","html-keyboard-response","436","1124917","0.0-7.6-0.6-1.206","null","<span style='color:GreenYellow; font-size: 70px;'>正确! </span>","null","","","","","","","","","","","","","","","","","","","","","","","feedback_test"
"","","","","","psychophysics","437","1126835","0.0-7.6-0.6-0.207","913","","f","","","","","","","","","","","","","key","f","16.963607142856095","683","380","f","true","img/H_ambi40.png","生人","prac",""
"","","","","","html-keyboard-response","438","1127340","0.0-7.6-0.6-1.207","null","<span style='color:GreenYellow; font-size: 70px;'>正确! </span>","null","","","","","","","","","","","","","","","","","","","","","","","feedback_test"
"","","","","","psychophysics","439","1129324","0.0-7.6-0.6-0.208","978","","f","","","","","","","","","","","","","key","f","16.95334482758611","683","380","f","true","img/C_ambi40.png","生人","prac",""
"","","","","","html-keyboard-response","440","1129828","0.0-7.6-0.6-1.208","null","<span style='color:GreenYellow; font-size: 70px;'>正确! </span>","null","","","","","","","","","","","","","","","","","","","","","","","feedback_test"
"","","","","","psychophysics","441","1131737","0.0-7.6-0.6-0.209","906","","j","","","","","","","","","","","","","key","j","16.66599999999924","683","380","f","false","img/S_ambi40.png","自我","prac",""
"","","","","","html-keyboard-response","442","1132244","0.0-7.6-0.6-1.209","null","<span style='color:red; font-size: 70px;'>错误! </span>","null","","","","","","","","","","","","","","","","","","","","","","","feedback_test"
"","","","","","psychophysics","443","1134333","0.0-7.6-0.6-0.210","1086","","j","","","","","","","","","","","","","key","j","17.07920661157051","683","380","j","true","img/H_ambi40.png","自我","prac",""
"","","","","","html-keyboard-response","444","1134835","0.0-7.6-0.6-1.210","null","<span style='color:GreenYellow; font-size: 70px;'>正确! </span>","null","","","","","","","","","","","","","","","","","","","","","","","feedback_test"
"","","","","","psychophysics","445","1137100","0.0-7.6-0.6-0.211","1256","","f","","","","","","","","","","","","","key","f","16.916616541352752","683","380","f","true","img/S_ambi40.png","朋友","prac",""
"","","","","","html-keyboard-response","446","1137603","0.0-7.6-0.6-1.211","null","<span style='color:GreenYellow; font-size: 70px;'>正确! </span>","null","","","","","","","","","","","","","","","","","","","","","","","feedback_test"
"","","","","","psychophysics","447","1139816","0.0-7.6-0.6-0.212","1205","","j","","","","","","","","","","","","","key","j","16.665999999999848","683","380","j","true","img/H_ambi40.png","自我","prac",""
"","","","","","html-keyboard-response","448","1140324","0.0-7.6-0.6-1.212","null","<span style='color:GreenYellow; font-size: 70px;'>正确! </span>","null","","","","","","","","","","","","","","","","","","","","","","","feedback_test"
"","","","","","psychophysics","449","1141953","0.0-7.6-0.6-0.213","626","","j","","","","","","","","","","","","","key","j","17.57176086956473","683","380","j","true","img/C_ambi40.png","朋友","prac",""
"","","","","","html-keyboard-response","450","1142460","0.0-7.6-0.6-1.213","null","<span style='color:GreenYellow; font-size: 70px;'>正确! </span>","null","","","","","","","","","","","","","","","","","","","","","","","feedback_test"
"","","","","","psychophysics","451","1144550","0.0-7.6-0.6-0.214","1088","","f","","","","","","","","","","","","","key","f","16.800403225806452","683","380","f","true","img/C_ambi40.png","自我","prac",""
"","","","","","html-keyboard-response","452","1145055","0.0-7.6-0.6-1.214","null","<span style='color:GreenYellow; font-size: 70px;'>正确! </span>","null","","","","","","","","","","","","","","","","","","","","","","","feedback_test"
"","","","","","psychophysics","453","1146954","0.0-7.6-0.6-0.215","872","","j","","","","","","","","","","","","","key","j","16.814803571429884","683","380","j","true","img/C_ambi40.png","朋友","prac",""
