"success","timeout","failed_images","failed_audio","failed_video","trial_type","trial_index","time_elapsed","internal_node_id","rt","stimulus","response","value","item_width_mm","item_height_mm","item_width_px","px2mm","view_dist_mm","item_width_deg","px2deg","scale_factor","win_width_deg","win_height_deg","view_history","response_type","key_press","avg_frame_time","center_x","center_y","correct_response","correct","Image","word","condition","screen_id"
"true","false","[]","[]","[]","preload","0","562","0.0-0.0","","","","","","","","","","","","","","","","","","","","","","","","","",""
"","","","","","html-keyboard-response","1","61740","0.0-1.0","61178","
     <p>您好，欢迎参加本次实验。</p>
     <p>为充分保障您的权利，请确保您已经知晓并同意《参与实验同意书》以及《数据公开知情同意书》。</p>
     <p>如果您未见过上述内容，请咨询实验员。</p>
     <p>如果您选择继续实验，则表示您已经清楚两份知情同意书的内容并同意。</p>
     <p> <div style = ""color: green""><按任意键至下页></div> </p>
     "," ","","","","","","","","","","","","","","","","","","","","","","",""
"","","","","","html-keyboard-response","2","63278","0.0-2.0","1537","
     <p>本实验首先需要您填写一些基本个人信息。</p>
     <p> <div style = ""color: green""><按任意键至下页></div></p>
     "," ","","","","","","","","","","","","","","","","","","","","","","",""
"","","","","","call-function","3","63279","0.0-3.0-0.0","","","","","","","","","","","","","","","","","","","","","","","","","",""
"","","","","","survey-html-form","4","70438","0.0-3.0-1.0","7157","","{""Q0"":""24""}","","","","","","","","","","","","","","","","","","","","","","",""
"","","","","","html-button-response","5","71992","0.0-3.0-2.0","1553","<p style = 'color : white'>您的性别</p>","0","","","","","","","","","","","","","","","","","","","","","","",""
"","","","","","survey-html-form","6","78206","0.0-3.0-3.0","6213","","{""Q0"":""2003""}","","","","","","","","","","","","","","","","","","","","","","",""
"","","","","","survey-html-form","7","81812","0.0-3.0-4.0","3605","","{""Q0"":""5""}","","","","","","","","","","","","","","","","","","","","","","",""
"","","","","","virtual-chinrest","8","296692","0.0-4.0","214879","","","","85.6","53.98","401.6079047778255","4.692214059878854","609.61","8.032158095556511","50","1.2275654790030432","38.4","18.46","","","","","","","","","","","",""
"true","","","","","fullscreen","9","301062","0.0-5.0","","","","","","","","","","","","","","","","","","","","","","","","","",""
"","","","","","instructions","10","372665","0.0-6.0","71603","","","","","","","","","","","","","","[{""page_index"":0,""viewing_time"":5048},{""page_index"":1,""viewing_time"":54256},{""page_index"":2,""viewing_time"":9346},{""page_index"":3,""viewing_time"":2953}]","","","","","","","","","","",""
"","","","","","psychophysics","11","375171","0.0-7.0-0.0-0.0","null","","null","","","","","","","","","","","","","key","null","6.944674094707457","960","536","j","false","img/H_ambi40.png","自我","prac",""
"","","","","","html-keyboard-response","12","375683","0.0-7.0-0.0-1.0","null","<span class='add_' style='color:yellow; font-size: 70px;'> 太慢! </span>","null","","","","","","","","","","","","","","","","","","","","","","","feedback_test"
"","","","","","psychophysics","13","378185","0.0-7.0-0.0-0.1","null","","null","","","","","","","","","","","","","key","null","6.941287709497125","960","536","j","false","img/C_ambi40.png","朋友","prac",""
"","","","","","html-keyboard-response","14","378688","0.0-7.0-0.0-1.1","null","<span class='add_' style='color:yellow; font-size: 70px;'> 太慢! </span>","null","","","","","","","","","","","","","","","","","","","","","","","feedback_test"
"","","","","","psychophysics","15","380184","0.0-7.0-0.0-0.2","492","","j","","","","","","","","","","","","","key","j","6.942457943925445","960","536","f","false","img/T_ambi40.png","をる","prac",""
"","","","","","html-keyboard-response","16","380696","0.0-7.0-0.0-1.2","null","<span style='color:red; font-size: 70px;'>错误! </span>","null","","","","","","","","","","","","","","","","","","","","","","","feedback_test"
"","","","","","psychophysics","17","383198","0.0-7.0-0.0-0.3","null","","null","","","","","","","","","","","","","key","null","6.943598885793812","960","536","j","false","img/S_ambi40.png","生人","prac",""
"","","","","","html-keyboard-response","18","383703","0.0-7.0-0.0-1.3","null","<span class='add_' style='color:yellow; font-size: 70px;'> 太慢! </span>","null","","","","","","","","","","","","","","","","","","","","","","","feedback_test"
"","","","","","psychophysics","19","386205","0.0-7.0-0.0-0.4","null","","null","","","","","","","","","","","","","key","null","6.943261838440095","960","536","f","false","img/T_ambi40.png","をる","prac",""
"","","","","","html-keyboard-response","20","386718","0.0-7.0-0.0-1.4","null","<span class='add_' style='color:yellow; font-size: 70px;'> 太慢! </span>","null","","","","","","","","","","","","","","","","","","","","","","","feedback_test"
"","","","","","psychophysics","21","388499","0.0-7.0-0.0-0.5","779","","j","","","","","","","","","","","","","key","j","6.940333333333461","960","536","f","false","img/C_ambi40.png","自我","prac",""
"","","","","","html-keyboard-response","22","389007","0.0-7.0-0.0-1.5","null","<span style='color:red; font-size: 70px;'>错误! </span>","null","","","","","","","","","","","","","","","","","","","","","","","feedback_test"
"","","","","","psychophysics","23","391512","0.0-7.0-0.0-0.6","null","","null","","","","","","","","","","","","","key","null","6.944657381615552","960","536","f","false","img/H_ambi40.png","生人","prac",""
"","","","","","html-keyboard-response","24","392023","0.0-7.0-0.0-1.6","null","<span class='add_' style='color:yellow; font-size: 70px;'> 太慢! </span>","null","","","","","","","","","","","","","","","","","","","","","","","feedback_test"
"","","","","","psychophysics","25","393513","0.0-7.0-0.0-0.7","488","","j","","","","","","","","","","","","","key","j","6.945154205607642","960","536","f","false","img/T_ambi40.png","をる","prac",""
"","","","","","html-keyboard-response","26","394015","0.0-7.0-0.0-1.7","null","<span style='color:red; font-size: 70px;'>错误! </span>","null","","","","","","","","","","","","","","","","","","","","","","","feedback_test"
"","","","","","psychophysics","27","396516","0.0-7.0-0.0-0.8","null","","null","","","","","","","","","","","","","key","null","6.942888579387114","960","536","j","false","img/S_ambi40.png","自我","prac",""
"","","","","","html-keyboard-response","28","397028","0.0-7.0-0.0-1.8","null","<span class='add_' style='color:yellow; font-size: 70px;'> 太慢! </span>","null","","","","","","","","","","","","","","","","","","","","","","","feedback_test"
"","","","","","psychophysics","29","399532","0.0-7.0-0.0-0.9","null","","null","","","","","","","","","","","","","key","null","6.944376044568293","960","536","f","false","img/S_ambi40.png","朋友","prac",""
"","","","","","html-keyboard-response","30","400046","0.0-7.0-0.0-1.9","null","<span class='add_' style='color:yellow; font-size: 70px;'> 太慢! </span>","null","","","","","","","","","","","","","","","","","","","","","","","feedback_test"
"","","","","","psychophysics","31","401664","0.0-7.0-0.0-0.10","612","","j","","","","","","","","","","","","","key","j","6.944297413793061","960","536","f","false","img/C_ambi40.png","自我","prac",""
"","","","","","html-keyboard-response","32","402178","0.0-7.0-0.0-1.10","null","<span style='color:red; font-size: 70px;'>错误! </span>","null","","","","","","","","","","","","","","","","","","","","","","","feedback_test"
"","","","","","psychophysics","33","404681","0.0-7.0-0.0-0.11","null","","null","","","","","","","","","","","","","key","null","6.9404596100278555","960","536","j","false","img/C_ambi40.png","生人","prac",""
"","","","","","html-keyboard-response","34","405196","0.0-7.0-0.0-1.11","null","<span class='add_' style='color:yellow; font-size: 70px;'> 太慢! </span>","null","","","","","","","","","","","","","","","","","","","","","","","feedback_test"
"","","","","","psychophysics","35","406954","0.0-7.0-0.0-0.12","757","","j","","","","","","","","","","","","","key","j","6.944388888889022","960","536","j","true","img/H_ambi40.png","朋友","prac",""
"","","","","","html-keyboard-response","36","407459","0.0-7.0-0.0-1.12","null","<span style='color:GreenYellow; font-size: 70px;'>正确! </span>","null","","","","","","","","","","","","","","","","","","","","","","","feedback_test"
"","","","","","psychophysics","37","409962","0.0-7.0-0.0-0.13","null","","null","","","","","","","","","","","","","key","null","6.941199999999986","960","536","f","false","img/S_ambi40.png","朋友","prac",""
"","","","","","html-keyboard-response","38","410471","0.0-7.0-0.0-1.13","null","<span class='add_' style='color:yellow; font-size: 70px;'> 太慢! </span>","null","","","","","","","","","","","","","","","","","","","","","","","feedback_test"
"","","","","","psychophysics","39","412119","0.0-7.0-0.0-0.14","646","","j","","","","","","","","","","","","","key","j","6.944084745762727","960","536","f","false","img/H_ambi40.png","生人","prac",""
"","","","","","html-keyboard-response","40","412627","0.0-7.0-0.0-1.14","null","<span style='color:red; font-size: 70px;'>错误! </span>","null","","","","","","","","","","","","","","","","","","","","","","","feedback_test"
"","","","","","psychophysics","41","415129","0.0-7.0-0.0-0.15","null","","null","","","","","","","","","","","","","key","null","6.942328690807725","960","536","f","false","img/T_ambi40.png","をる","prac",""
"","","","","","html-keyboard-response","42","415645","0.0-7.0-0.0-1.15","null","<span class='add_' style='color:yellow; font-size: 70px;'> 太慢! </span>","null","","","","","","","","","","","","","","","","","","","","","","","feedback_test"
"","","","","","psychophysics","43","418148","0.0-7.0-0.0-0.16","null","","null","","","","","","","","","","","","","key","null","6.94427298050141","960","536","f","false","img/T_ambi40.png","をる","prac",""
"","","","","","html-keyboard-response","44","418659","0.0-7.0-0.0-1.16","null","<span class='add_' style='color:yellow; font-size: 70px;'> 太慢! </span>","null","","","","","","","","","","","","","","","","","","","","","","","feedback_test"
"","","","","","psychophysics","45","421162","0.0-7.0-0.0-0.17","null","","null","","","","","","","","","","","","","key","null","6.963379888268196","960","536","j","false","img/H_ambi40.png","自我","prac",""
"","","","","","html-keyboard-response","46","421679","0.0-7.0-0.0-1.17","null","<span class='add_' style='color:yellow; font-size: 70px;'> 太慢! </span>","null","","","","","","","","","","","","","","","","","","","","","","","feedback_test"
"","","","","","psychophysics","47","424184","0.0-7.0-0.0-0.18","null","","null","","","","","","","","","","","","","key","null","6.941200557103073","960","536","f","false","img/T_ambi40.png","をる","prac",""
"","","","","","html-keyboard-response","48","424693","0.0-7.0-0.0-1.18","null","<span class='add_' style='color:yellow; font-size: 70px;'> 太慢! </span>","null","","","","","","","","","","","","","","","","","","","","","","","feedback_test"
"","","","","","psychophysics","49","427198","0.0-7.0-0.0-0.19","null","","null","","","","","","","","","","","","","key","null","6.942428969359317","960","536","f","false","img/T_ambi40.png","をる","prac",""
"","","","","","html-keyboard-response","50","427703","0.0-7.0-0.0-1.19","null","<span class='add_' style='color:yellow; font-size: 70px;'> 太慢! </span>","null","","","","","","","","","","","","","","","","","","","","","","","feedback_test"
"","","","","","psychophysics","51","429227","0.0-7.0-0.0-0.20","522","","j","","","","","","","","","","","","","key","j","6.943118721461211","960","536","j","true","img/C_ambi40.png","朋友","prac",""
"","","","","","html-keyboard-response","52","429728","0.0-7.0-0.0-1.20","null","<span style='color:GreenYellow; font-size: 70px;'>正确! </span>","null","","","","","","","","","","","","","","","","","","","","","","","feedback_test"
"","","","","","psychophysics","53","431430","0.0-7.0-0.0-0.21","698","","j","","","","","","","","","","","","","key","j","6.944987704918232","960","536","j","true","img/S_ambi40.png","生人","prac",""
"","","","","","html-keyboard-response","54","431942","0.0-7.0-0.0-1.21","null","<span style='color:GreenYellow; font-size: 70px;'>正确! </span>","null","","","","","","","","","","","","","","","","","","","","","","","feedback_test"
"","","","","","psychophysics","55","434447","0.0-7.0-0.0-0.22","null","","null","","","","","","","","","","","","","key","null","6.944629526462323","960","536","f","false","img/S_ambi40.png","朋友","prac",""
"","","","","","html-keyboard-response","56","434959","0.0-7.0-0.0-1.22","null","<span class='add_' style='color:yellow; font-size: 70px;'> 太慢! </span>","null","","","","","","","","","","","","","","","","","","","","","","","feedback_test"
"","","","","","psychophysics","57","436546","0.0-7.0-0.0-0.23","585","","j","","","","","","","","","","","","","key","j","6.974651982378787","960","536","f","false","img/C_ambi40.png","自我","prac",""
"","","","","","html-keyboard-response","58","437059","0.0-7.0-0.0-1.23","null","<span style='color:red; font-size: 70px;'>错误! </span>","null","","","","","","","","","","","","","","","","","","","","","","","feedback_test"
"","","","","","psychophysics","59","438649","0.0-7.0-0.0-0.24","584","","j","","","","","","","","","","","","","key","j","6.944464912280653","960","536","f","false","img/C_ambi40.png","自我","prac",""
"","","","","","html-keyboard-response","60","439158","0.0-7.0-0.0-1.24","null","<span style='color:red; font-size: 70px;'>错误! </span>","null","","","","","","","","","","","","","","","","","","","","","","","feedback_test"
"","","","","","psychophysics","61","441663","0.0-7.0-0.0-0.25","null","","null","","","","","","","","","","","","","key","null","6.944158774373202","960","536","j","false","img/C_ambi40.png","生人","prac",""
"","","","","","html-keyboard-response","62","442166","0.0-7.0-0.0-1.25","null","<span class='add_' style='color:yellow; font-size: 70px;'> 太慢! </span>","null","","","","","","","","","","","","","","","","","","","","","","","feedback_test"
"","","","","","psychophysics","63","443902","0.0-7.0-0.0-0.26","731","","j","","","","","","","","","","","","","key","j","6.944036144578322","960","536","f","false","img/S_ambi40.png","朋友","prac",""
"","","","","","html-keyboard-response","64","444418","0.0-7.0-0.0-1.26","null","<span style='color:red; font-size: 70px;'>错误! </span>","null","","","","","","","","","","","","","","","","","","","","","","","feedback_test"
"","","","","","psychophysics","65","446195","0.0-7.0-0.0-0.27","776","","j","","","","","","","","","","","","","key","j","6.940625984251946","960","536","j","true","img/S_ambi40.png","自我","prac",""
"","","","","","html-keyboard-response","66","446702","0.0-7.0-0.0-1.27","null","<span style='color:GreenYellow; font-size: 70px;'>正确! </span>","null","","","","","","","","","","","","","","","","","","","","","","","feedback_test"
"","","","","","psychophysics","67","449211","0.0-7.0-0.0-0.28","null","","null","","","","","","","","","","","","","key","null","6.945038888888989","960","536","j","false","img/H_ambi40.png","朋友","prac",""
"","","","","","html-keyboard-response","68","449712","0.0-7.0-0.0-1.28","null","<span class='add_' style='color:yellow; font-size: 70px;'> 太慢! </span>","null","","","","","","","","","","","","","","","","","","","","","","","feedback_test"
"","","","","","psychophysics","69","451498","0.0-7.0-0.0-0.29","781","","j","","","","","","","","","","","","","key","j","6.942417968750078","960","536","f","false","img/H_ambi40.png","生人","prac",""
"","","","","","html-keyboard-response","70","452000","0.0-7.0-0.0-1.29","null","<span style='color:red; font-size: 70px;'>错误! </span>","null","","","","","","","","","","","","","","","","","","","","","","","feedback_test"
"","","","","","psychophysics","71","453690","0.0-7.0-0.0-0.30","688","","j","","","","","","","","","","","","","key","j","6.943395061728376","960","536","f","false","img/H_ambi40.png","生人","prac",""
"","","","","","html-keyboard-response","72","454203","0.0-7.0-0.0-1.30","null","<span style='color:red; font-size: 70px;'>错误! </span>","null","","","","","","","","","","","","","","","","","","","","","","","feedback_test"
"","","","","","psychophysics","73","456705","0.0-7.0-0.0-0.31","null","","null","","","","","","","","","","","","","key","null","6.963843575419108","960","536","f","false","img/T_ambi40.png","をる","prac",""
"","","","","","html-keyboard-response","74","457205","0.0-7.0-0.0-1.31","null","<span class='add_' style='color:yellow; font-size: 70px;'> 太慢! </span>","null","","","","","","","","","","","","","","","","","","","","","","","feedback_test"
"","","","","","html-keyboard-response","75","469878","0.0-7.0-1.0-0.0","12672","<style>.context{color:white; font-size: 35px; line-height:40px}</style>                          <div><p class='context'>您正确回答了13% 的试次。</p ><p class='context'>您的平均反应时为688毫秒。</p >"," ","","","","","","","","","","","","","","","","","","","","","","",""
"","","","","","instructions","76","500594","0.0-7.0-1.0-1.0","30715","","","","","","","","","","","","","","[{""page_index"":0,""viewing_time"":3563},{""page_index"":1,""viewing_time"":24354},{""page_index"":2,""viewing_time"":2798}]","","","","","","","","","","",""
"","","","","","psychophysics","77","502279","0.0-7.1-0.1-0.32","681","","j","","","","","","","","","","","","","key","j","6.944057851239667","960","536","j","true","img/C_ambi40.png","朋友","prac",""
"","","","","","html-keyboard-response","78","502795","0.0-7.1-0.1-1.32","null","<span style='color:GreenYellow; font-size: 70px;'>正确! </span>","null","","","","","","","","","","","","","","","","","","","","","","","feedback_test"
"","","","","","psychophysics","79","504219","0.0-7.1-0.1-0.33","420","","j","","","","","","","","","","","","","key","j","6.9424362745097214","960","536","f","false","img/C_ambi40.png","自我","prac",""
"","","","","","html-keyboard-response","80","504723","0.0-7.1-0.1-1.33","null","<span style='color:red; font-size: 70px;'>错误! </span>","null","","","","","","","","","","","","","","","","","","","","","","","feedback_test"
"","","","","","psychophysics","81","506387","0.0-7.1-0.1-0.34","663","","f","","","","","","","","","","","","","key","f","6.943462184873926","960","536","f","true","img/S_ambi40.png","朋友","prac",""
"","","","","","html-keyboard-response","82","506890","0.0-7.1-0.1-1.34","null","<span style='color:GreenYellow; font-size: 70px;'>正确! </span>","null","","","","","","","","","","","","","","","","","","","","","","","feedback_test"
"","","","","","psychophysics","83","508338","0.0-7.1-0.1-0.35","441","","f","","","","","","","","","","","","","key","f","6.94484057971012","960","536","f","true","img/T_ambi40.png","をる","prac",""
"","","","","","html-keyboard-response","84","508851","0.0-7.1-0.1-1.35","null","<span style='color:GreenYellow; font-size: 70px;'>正确! </span>","null","","","","","","","","","","","","","","","","","","","","","","","feedback_test"
"","","","","","psychophysics","85","510392","0.0-7.1-0.1-0.36","536","","f","","","","","","","","","","","","","key","f","6.944900452488574","960","536","f","true","img/H_ambi40.png","生人","prac",""
"","","","","","html-keyboard-response","86","510894","0.0-7.1-0.1-1.36","null","<span style='color:GreenYellow; font-size: 70px;'>正确! </span>","null","","","","","","","","","","","","","","","","","","","","","","","feedback_test"
"","","","","","psychophysics","87","512382","0.0-7.1-0.1-0.37","485","","f","","","","","","","","","","","","","key","f","6.9440469483567835","960","536","f","true","img/T_ambi40.png","をる","prac",""
"","","","","","html-keyboard-response","88","512889","0.0-7.1-0.1-1.37","null","<span style='color:GreenYellow; font-size: 70px;'>正确! </span>","null","","","","","","","","","","","","","","","","","","","","","","","feedback_test"
"","","","","","psychophysics","89","514574","0.0-7.1-0.1-0.38","684","","j","","","","","","","","","","","","","key","j","6.942385892116144","960","536","j","true","img/H_ambi40.png","朋友","prac",""
"","","","","","html-keyboard-response","90","515083","0.0-7.1-0.1-1.38","null","<span style='color:GreenYellow; font-size: 70px;'>正确! </span>","null","","","","","","","","","","","","","","","","","","","","","","","feedback_test"
"","","","","","psychophysics","91","516602","0.0-7.1-0.1-0.39","517","","j","","","","","","","","","","","","","key","j","6.942591743119202","960","536","j","true","img/S_ambi40.png","生人","prac",""
"","","","","","html-keyboard-response","92","517111","0.0-7.1-0.1-1.39","null","<span style='color:GreenYellow; font-size: 70px;'>正确! </span>","null","","","","","","","","","","","","","","","","","","","","","","","feedback_test"
"","","","","","psychophysics","93","518731","0.0-7.1-0.1-0.40","619","","f","","","","","","","","","","","","","key","f","6.939599137930882","960","536","j","false","img/H_ambi40.png","自我","prac",""
"","","","","","html-keyboard-response","94","519234","0.0-7.1-0.1-1.40","null","<span style='color:red; font-size: 70px;'>错误! </span>","null","","","","","","","","","","","","","","","","","","","","","","","feedback_test"
"","","","","","psychophysics","95","520773","0.0-7.1-0.1-0.41","535","","j","","","","","","","","","","","","","key","j","6.9429728506787205","960","536","j","true","img/C_ambi40.png","生人","prac",""
"","","","","","html-keyboard-response","96","521278","0.0-7.1-0.1-1.41","null","<span style='color:GreenYellow; font-size: 70px;'>正确! </span>","null","","","","","","","","","","","","","","","","","","","","","","","feedback_test"
"","","","","","psychophysics","97","523167","0.0-7.1-0.1-0.42","888","","f","","","","","","","","","","","","","key","f","6.940555555555383","960","536","f","true","img/C_ambi40.png","自我","prac",""
"","","","","","html-keyboard-response","98","523679","0.0-7.1-0.1-1.42","null","<span style='color:GreenYellow; font-size: 70px;'>正确! </span>","null","","","","","","","","","","","","","","","","","","","","","","","feedback_test"
"","","","","","psychophysics","99","525408","0.0-7.1-0.1-0.43","727","","j","","","","","","","","","","","","","key","j","6.944729838709933","960","536","j","true","img/S_ambi40.png","自我","prac",""
"","","","","","html-keyboard-response","100","525918","0.0-7.1-0.1-1.43","null","<span style='color:GreenYellow; font-size: 70px;'>正确! </span>","null","","","","","","","","","","","","","","","","","","","","","","","feedback_test"
"","","","","","psychophysics","101","527538","0.0-7.1-0.1-0.44","619","","f","","","","","","","","","","","","","key","f","6.9397370689653926","960","536","f","true","img/T_ambi40.png","をる","prac",""
"","","","","","html-keyboard-response","102","528047","0.0-7.1-0.1-1.44","null","<span style='color:GreenYellow; font-size: 70px;'>正确! </span>","null","","","","","","","","","","","","","","","","","","","","","","","feedback_test"
"","","","","","psychophysics","103","529667","0.0-7.1-0.1-0.45","617","","f","","","","","","","","","","","","","key","f","6.973982683982643","960","536","f","true","img/T_ambi40.png","をる","prac",""
"","","","","","html-keyboard-response","104","530179","0.0-7.1-0.1-1.45","null","<span style='color:GreenYellow; font-size: 70px;'>正确! </span>","null","","","","","","","","","","","","","","","","","","","","","","","feedback_test"
"","","","","","psychophysics","105","531757","0.0-7.1-0.1-0.46","575","","f","","","","","","","","","","","","","key","f","6.944783185840485","960","536","f","true","img/H_ambi40.png","生人","prac",""
"","","","","","html-keyboard-response","106","532262","0.0-7.1-0.1-1.46","null","<span style='color:GreenYellow; font-size: 70px;'>正确! </span>","null","","","","","","","","","","","","","","","","","","","","","","","feedback_test"
"","","","","","psychophysics","107","533974","0.0-7.1-0.1-0.47","709","","f","","","","","","","","","","","","","key","f","6.969714285714114","960","536","f","true","img/S_ambi40.png","朋友","prac",""
"","","","","","html-keyboard-response","108","534484","0.0-7.1-0.1-1.47","null","<span style='color:GreenYellow; font-size: 70px;'>正确! </span>","null","","","","","","","","","","","","","","","","","","","","","","","feedback_test"
"","","","","","psychophysics","109","536268","0.0-7.1-0.1-0.48","774","","j","","","","","","","","","","","","","key","j","6.970556862744978","960","536","j","true","img/C_ambi40.png","生人","prac",""
"","","","","","html-keyboard-response","110","536773","0.0-7.1-0.1-1.48","null","<span style='color:GreenYellow; font-size: 70px;'>正确! </span>","null","","","","","","","","","","","","","","","","","","","","","","","feedback_test"
"","","","","","psychophysics","111","538384","0.0-7.1-0.1-0.49","605","","f","","","","","","","","","","","","","key","f","6.944510822510951","960","536","f","true","img/H_ambi40.png","生人","prac",""
"","","","","","html-keyboard-response","112","538900","0.0-7.1-0.1-1.49","null","<span style='color:GreenYellow; font-size: 70px;'>正确! </span>","null","","","","","","","","","","","","","","","","","","","","","","","feedback_test"
"","","","","","psychophysics","113","540551","0.0-7.1-0.1-0.50","647","","j","","","","","","","","","","","","","key","j","6.942476793249306","960","536","j","true","img/H_ambi40.png","自我","prac",""
"","","","","","html-keyboard-response","114","541059","0.0-7.1-0.1-1.50","null","<span style='color:GreenYellow; font-size: 70px;'>正确! </span>","null","","","","","","","","","","","","","","","","","","","","","","","feedback_test"
"","","","","","psychophysics","115","542578","0.0-7.1-0.1-0.51","516","","f","","","","","","","","","","","","","key","f","6.944082568807596","960","536","f","true","img/T_ambi40.png","をる","prac",""
"","","","","","html-keyboard-response","116","543089","0.0-7.1-0.1-1.51","null","<span style='color:GreenYellow; font-size: 70px;'>正确! </span>","null","","","","","","","","","","","","","","","","","","","","","","","feedback_test"
"","","","","","psychophysics","117","544897","0.0-7.1-0.1-0.52","807","","f","","","","","","","","","","","","","key","f","6.943330769231006","960","536","j","false","img/C_ambi40.png","朋友","prac",""
"","","","","","html-keyboard-response","118","545408","0.0-7.1-0.1-1.52","null","<span style='color:red; font-size: 70px;'>错误! </span>","null","","","","","","","","","","","","","","","","","","","","","","","feedback_test"
"","","","","","psychophysics","119","547113","0.0-7.1-0.1-0.53","702","","j","","","","","","","","","","","","","key","j","6.944199999999635","960","536","f","false","img/H_ambi40.png","生人","prac",""
"","","","","","html-keyboard-response","120","547627","0.0-7.1-0.1-1.53","null","<span style='color:red; font-size: 70px;'>错误! </span>","null","","","","","","","","","","","","","","","","","","","","","","","feedback_test"
"","","","","","psychophysics","121","549218","0.0-7.1-0.1-0.54","585","","j","","","","","","","","","","","","","key","j","6.9446315789470665","960","536","f","false","img/C_ambi40.png","自我","prac",""
"","","","","","html-keyboard-response","122","549723","0.0-7.1-0.1-1.54","null","<span style='color:red; font-size: 70px;'>错误! </span>","null","","","","","","","","","","","","","","","","","","","","","","","feedback_test"
"","","","","","psychophysics","123","551296","0.0-7.1-0.1-0.55","573","","f","","","","","","","","","","","","","key","f","6.94475111111119","960","536","j","false","img/S_ambi40.png","生人","prac",""
"","","","","","html-keyboard-response","124","551810","0.0-7.1-0.1-1.55","null","<span style='color:red; font-size: 70px;'>错误! </span>","null","","","","","","","","","","","","","","","","","","","","","","","feedback_test"
"","","","","","psychophysics","125","553311","0.0-7.1-0.1-0.56","498","","f","","","","","","","","","","","","","key","f","6.944483720929751","960","536","f","true","img/T_ambi40.png","をる","prac",""
"","","","","","html-keyboard-response","126","553827","0.0-7.1-0.1-1.56","null","<span style='color:GreenYellow; font-size: 70px;'>正确! </span>","null","","","","","","","","","","","","","","","","","","","","","","","feedback_test"
"","","","","","psychophysics","127","555617","0.0-7.1-0.1-0.57","789","","f","","","","","","","","","","","","","key","f","6.9443359375","960","536","j","false","img/S_ambi40.png","自我","prac",""
"","","","","","html-keyboard-response","128","556127","0.0-7.1-0.1-1.57","null","<span style='color:red; font-size: 70px;'>错误! </span>","null","","","","","","","","","","","","","","","","","","","","","","","feedback_test"
"","","","","","psychophysics","129","557898","0.0-7.1-0.1-0.58","766","","f","","","","","","","","","","","","","key","f","6.944590551181014","960","536","j","false","img/H_ambi40.png","朋友","prac",""
"","","","","","html-keyboard-response","130","558406","0.0-7.1-0.1-1.58","null","<span style='color:red; font-size: 70px;'>错误! </span>","null","","","","","","","","","","","","","","","","","","","","","","","feedback_test"
"","","","","","psychophysics","131","560265","0.0-7.1-0.1-0.59","856","","f","","","","","","","","","","","","","key","f","6.9445842696630224","960","536","f","true","img/S_ambi40.png","朋友","prac",""
"","","","","","html-keyboard-response","132","560780","0.0-7.1-0.1-1.59","null","<span style='color:GreenYellow; font-size: 70px;'>正确! </span>","null","","","","","","","","","","","","","","","","","","","","","","","feedback_test"
"","","","","","psychophysics","133","562786","0.0-7.1-0.1-0.60","1001","","f","","","","","","","","","","","","","key","f","6.944163194444425","960","536","f","true","img/C_ambi40.png","自我","prac",""
"","","","","","html-keyboard-response","134","563302","0.0-7.1-0.1-1.60","null","<span style='color:GreenYellow; font-size: 70px;'>正确! </span>","null","","","","","","","","","","","","","","","","","","","","","","","feedback_test"
"","","","","","psychophysics","135","564889","0.0-7.1-0.1-0.61","584","","j","","","","","","","","","","","","","key","j","6.944548245613859","960","536","f","false","img/S_ambi40.png","朋友","prac",""
"","","","","","html-keyboard-response","136","565403","0.0-7.1-0.1-1.61","null","<span style='color:red; font-size: 70px;'>错误! </span>","null","","","","","","","","","","","","","","","","","","","","","","","feedback_test"
"","","","","","psychophysics","137","566992","0.0-7.1-0.1-0.62","588","","f","","","","","","","","","","","","","key","f","6.94475770925145","960","536","f","true","img/T_ambi40.png","をる","prac",""
"","","","","","html-keyboard-response","138","567503","0.0-7.1-0.1-1.62","null","<span style='color:GreenYellow; font-size: 70px;'>正确! </span>","null","","","","","","","","","","","","","","","","","","","","","","","feedback_test"
"","","","","","psychophysics","139","569121","0.0-7.1-0.1-0.63","614","","f","","","","","","","","","","","","","key","f","6.945465517241371","960","536","f","true","img/T_ambi40.png","をる","prac",""
"","","","","","html-keyboard-response","140","569626","0.0-7.1-0.1-1.63","null","<span style='color:GreenYellow; font-size: 70px;'>正确! </span>","null","","","","","","","","","","","","","","","","","","","","","","","feedback_test"
"","","","","","html-keyboard-response","141","578243","0.0-8.0","8615","<style>.context{color:white; font-size: 35px; line-height:40px}</style>                          <div><p class='context'>您正确回答了72% 的试次。</p ><p class='context'>您的平均反应时为642毫秒。</p ><p class='context'>恭喜您完成练习。按任意键进入正式实验。</p ><p class='footer' style='font-size: 35px; line-height:40px;'>请在进入正式实验实验之前将您的<span style='color: lightgreen;'>食指</span>放在电脑键盘的相应键位上进行按键。</p >"," ","","","","","","","","","","","","","","","","","","","","","","",""
"","","","","","psychophysics","142","580094","0.0-9.0-0.0-0.0-0.0-0.0","845","","f","","","","","","","","","","","","","key","f","6.943256603773543","960","536","f","true","img/H_ambi40.png","生人","same",""
"","","","","","html-keyboard-response","143","580599","0.0-9.0-0.0-0.0-0.0-1.0","null","<span style='color:GreenYellow; font-size: 70px;'>正确! </span>","null","","","","","","","","","","","","","","","","","","","","","","","feedback_test"
"","","","","","psychophysics","144","582324","0.0-9.0-0.0-0.0-0.0-0.1","720","","f","","","","","","","","","","","","","key","f","6.944060728745252","960","536","j","false","img/S_ambi40.png","自我","same",""
"","","","","","html-keyboard-response","145","582836","0.0-9.0-0.0-0.0-0.0-1.1","null","<span style='color:red; font-size: 70px;'>错误! </span>","null","","","","","","","","","","","","","","","","","","","","","","","feedback_test"
"","","","","","psychophysics","146","584579","0.0-9.0-0.0-0.0-0.0-0.2","739","","f","","","","","","","","","","","","","key","f","6.942487999999896","960","536","j","false","img/S_ambi40.png","生人","same",""
"","","","","","html-keyboard-response","147","585090","0.0-9.0-0.0-0.0-0.0-1.2","null","<span style='color:red; font-size: 70px;'>错误! </span>","null","","","","","","","","","","","","","","","","","","","","","","","feedback_test"
"","","","","","psychophysics","148","586923","0.0-9.0-0.0-0.0-0.0-0.3","832","","f","","","","","","","","","","","","","key","f","6.943015267175377","960","536","j","false","img/H_ambi40.png","朋友","same",""
"","","","","","html-keyboard-response","149","587425","0.0-9.0-0.0-0.0-0.0-1.3","null","<span style='color:red; font-size: 70px;'>错误! </span>","null","","","","","","","","","","","","","","","","","","","","","","","feedback_test"
"","","","","","psychophysics","150","589355","0.0-9.0-0.0-0.0-0.0-0.4","930","","f","","","","","","","","","","","","","key","f","6.943512635379071","960","536","j","false","img/C_ambi40.png","生人","same",""
"","","","","","html-keyboard-response","151","589867","0.0-9.0-0.0-0.0-0.0-1.4","null","<span style='color:red; font-size: 70px;'>错误! </span>","null","","","","","","","","","","","","","","","","","","","","","","","feedback_test"
"","","","","","psychophysics","152","591458","0.0-9.0-0.0-0.0-0.0-0.5","589","","f","","","","","","","","","","","","","key","f","6.939635964912636","960","536","f","true","img/T_ambi40.png","をる","same",""
"","","","","","html-keyboard-response","153","591968","0.0-9.0-0.0-0.0-0.0-1.5","null","<span style='color:GreenYellow; font-size: 70px;'>正确! </span>","null","","","","","","","","","","","","","","","","","","","","","","","feedback_test"
"","","","","","psychophysics","154","593864","0.0-9.0-0.0-0.0-0.0-0.6","892","","j","","","","","","","","","","","","","key","j","6.944606617646915","960","536","f","false","img/C_ambi40.png","自我","same",""
"","","","","","html-keyboard-response","155","594376","0.0-9.0-0.0-0.0-0.0-1.6","null","<span style='color:red; font-size: 70px;'>错误! </span>","null","","","","","","","","","","","","","","","","","","","","","","","feedback_test"
"","","","","","psychophysics","156","596094","0.0-9.0-0.0-0.0-0.0-0.7","712","","f","","","","","","","","","","","","","key","f","6.944536585365971","960","536","j","false","img/C_ambi40.png","朋友","same",""
"","","","","","html-keyboard-response","157","596599","0.0-9.0-0.0-0.0-0.0-1.7","null","<span style='color:red; font-size: 70px;'>错误! </span>","null","","","","","","","","","","","","","","","","","","","","","","","feedback_test"
"","","","","","psychophysics","158","598373","0.0-9.0-0.0-0.0-0.0-0.8","770","","f","","","","","","","","","","","","","key","f","6.942929133858099","960","536","j","false","img/S_ambi40.png","生人","same",""
"","","","","","html-keyboard-response","159","598875","0.0-9.0-0.0-0.0-0.0-1.8","null","<span style='color:red; font-size: 70px;'>错误! </span>","null","","","","","","","","","","","","","","","","","","","","","","","feedback_test"
"","","","","","psychophysics","160","600478","0.0-9.0-0.0-0.0-0.0-0.9","602","","f","","","","","","","","","","","","","key","f","6.944192139737869","960","536","f","true","img/T_ambi40.png","をる","same",""
"","","","","","html-keyboard-response","161","600992","0.0-9.0-0.0-0.0-0.0-1.9","null","<span style='color:GreenYellow; font-size: 70px;'>正确! </span>","null","","","","","","","","","","","","","","","","","","","","","","","feedback_test"
"","","","","","psychophysics","162","602910","0.0-9.0-0.0-0.0-0.0-0.10","917","","j","","","","","","","","","","","","","key","j","6.939887272726998","960","536","f","false","img/H_ambi40.png","生人","same",""
"","","","","","html-keyboard-response","163","603422","0.0-9.0-0.0-0.0-0.0-1.10","null","<span style='color:red; font-size: 70px;'>错误! </span>","null","","","","","","","","","","","","","","","","","","","","","","","feedback_test"
"","","","","","psychophysics","164","605150","0.0-9.0-0.0-0.0-0.0-0.11","727","","j","","","","","","","","","","","","","key","j","6.944194331983866","960","536","j","true","img/H_ambi40.png","自我","same",""
"","","","","","html-keyboard-response","165","605658","0.0-9.0-0.0-0.0-0.0-1.11","null","<span style='color:GreenYellow; font-size: 70px;'>正确! </span>","null","","","","","","","","","","","","","","","","","","","","","","","feedback_test"
"","","","","","psychophysics","166","607230","0.0-9.0-0.0-0.0-0.0-0.12","571","","f","","","","","","","","","","","","","key","f","6.941720000000464","960","536","f","true","img/T_ambi40.png","をる","same",""
"","","","","","html-keyboard-response","167","607735","0.0-9.0-0.0-0.0-0.0-1.12","null","<span style='color:GreenYellow; font-size: 70px;'>正确! </span>","null","","","","","","","","","","","","","","","","","","","","","","","feedback_test"
"","","","","","psychophysics","168","609674","0.0-9.0-0.0-0.0-0.0-0.13","933","","f","","","","","","","","","","","","","key","f","6.944435251798404","960","536","f","true","img/C_ambi40.png","自我","same",""
"","","","","","html-keyboard-response","169","610182","0.0-9.0-0.0-0.0-0.0-1.13","null","<span style='color:GreenYellow; font-size: 70px;'>正确! </span>","null","","","","","","","","","","","","","","","","","","","","","","","feedback_test"
"","","","","","psychophysics","170","611866","0.0-9.0-0.0-0.0-0.0-0.14","679","","f","","","","","","","","","","","","","key","f","6.94541493775922","960","536","f","true","img/S_ambi40.png","朋友","same",""
"","","","","","html-keyboard-response","171","612380","0.0-9.0-0.0-0.0-0.0-1.14","null","<span style='color:GreenYellow; font-size: 70px;'>正确! </span>","null","","","","","","","","","","","","","","","","","","","","","","","feedback_test"
"","","","","","psychophysics","172","614044","0.0-9.0-0.0-0.0-0.0-0.15","663","","f","","","","","","","","","","","","","key","f","6.9438487394955475","960","536","f","true","img/S_ambi40.png","朋友","same",""
"","","","","","html-keyboard-response","173","614557","0.0-9.0-0.0-0.0-0.0-1.15","null","<span style='color:GreenYellow; font-size: 70px;'>正确! </span>","null","","","","","","","","","","","","","","","","","","","","","","","feedback_test"
"","","","","","psychophysics","174","616287","0.0-9.0-0.0-0.0-0.0-0.16","725","","j","","","","","","","","","","","","","key","j","6.9448830645161514","960","536","j","true","img/C_ambi40.png","朋友","same",""
"","","","","","html-keyboard-response","175","616802","0.0-9.0-0.0-0.0-0.0-1.16","null","<span style='color:GreenYellow; font-size: 70px;'>正确! </span>","null","","","","","","","","","","","","","","","","","","","","","","","feedback_test"
"","","","","","psychophysics","176","618631","0.0-9.0-0.0-0.0-0.0-0.17","826","","j","","","","","","","","","","","","","key","j","6.9414274809164","960","536","j","true","img/H_ambi40.png","自我","same",""
"","","","","","html-keyboard-response","177","619146","0.0-9.0-0.0-0.0-0.0-1.17","null","<span style='color:GreenYellow; font-size: 70px;'>正确! </span>","null","","","","","","","","","","","","","","","","","","","","","","","feedback_test"
"","","","","","psychophysics","178","621086","0.0-9.0-0.0-0.0-0.0-0.18","934","","j","","","","","","","","","","","","","key","j","6.944467625899405","960","536","f","false","img/H_ambi40.png","生人","same",""
"","","","","","html-keyboard-response","179","621590","0.0-9.0-0.0-0.0-0.0-1.18","null","<span style='color:red; font-size: 70px;'>错误! </span>","null","","","","","","","","","","","","","","","","","","","","","","","feedback_test"
"","","","","","psychophysics","180","623518","0.0-9.0-0.0-0.0-0.0-0.19","921","","j","","","","","","","","","","","","","key","j","6.9439347826085305","960","536","j","true","img/C_ambi40.png","朋友","same",""
"","","","","","html-keyboard-response","181","624028","0.0-9.0-0.0-0.0-0.0-1.19","null","<span style='color:GreenYellow; font-size: 70px;'>正确! </span>","null","","","","","","","","","","","","","","","","","","","","","","","feedback_test"
"","","","","","psychophysics","182","626279","0.0-9.0-0.0-0.0-0.0-0.20","1245","","j","","","","","","","","","","","","","key","j","6.943071207430592","960","536","j","true","img/H_ambi40.png","自我","same",""
"","","","","","html-keyboard-response","183","626780","0.0-9.0-0.0-0.0-0.0-1.20","null","<span style='color:GreenYellow; font-size: 70px;'>正确! </span>","null","","","","","","","","","","","","","","","","","","","","","","","feedback_test"
"","","","","","psychophysics","184","628343","0.0-9.0-0.0-0.0-0.0-0.21","559","","f","","","","","","","","","","","","","key","f","6.944272321428538","960","536","f","true","img/T_ambi40.png","をる","same",""
"","","","","","html-keyboard-response","185","628844","0.0-9.0-0.0-0.0-0.0-1.21","null","<span style='color:GreenYellow; font-size: 70px;'>正确! </span>","null","","","","","","","","","","","","","","","","","","","","","","","feedback_test"
"","","","","","psychophysics","186","630875","0.0-9.0-0.0-0.0-0.0-0.22","1029","","f","","","","","","","","","","","","","key","f","6.944890410959089","960","536","f","true","img/C_ambi40.png","自我","same",""
"","","","","","html-keyboard-response","187","631383","0.0-9.0-0.0-0.0-0.0-1.22","null","<span style='color:GreenYellow; font-size: 70px;'>正确! </span>","null","","","","","","","","","","","","","","","","","","","","","","","feedback_test"
"","","","","","psychophysics","188","632979","0.0-9.0-0.0-0.0-0.0-0.23","591","","f","","","","","","","","","","","","","key","f","6.938947598253149","960","536","f","true","img/T_ambi40.png","をる","same",""
"","","","","","html-keyboard-response","189","633489","0.0-9.0-0.0-0.0-0.0-1.23","null","<span style='color:GreenYellow; font-size: 70px;'>正确! </span>","null","","","","","","","","","","","","","","","","","","","","","","","feedback_test"
"","","","","","psychophysics","190","635411","0.0-9.0-0.0-0.0-0.0-0.24","919","","j","","","","","","","","","","","","","key","j","6.944695652173612","960","536","j","true","img/H_ambi40.png","朋友","same",""
"","","","","","html-keyboard-response","191","635926","0.0-9.0-0.0-0.0-0.0-1.24","null","<span style='color:GreenYellow; font-size: 70px;'>正确! </span>","null","","","","","","","","","","","","","","","","","","","","","","","feedback_test"
"","","","","","psychophysics","192","637716","0.0-9.0-0.0-0.0-0.0-0.25","786","","j","","","","","","","","","","","","","key","j","6.944428015564177","960","536","j","true","img/C_ambi40.png","朋友","same",""
"","","","","","html-keyboard-response","193","638219","0.0-9.0-0.0-0.0-0.0-1.25","null","<span style='color:GreenYellow; font-size: 70px;'>正确! </span>","null","","","","","","","","","","","","","","","","","","","","","","","feedback_test"
"","","","","","psychophysics","194","640122","0.0-9.0-0.0-0.0-0.0-0.26","901","","j","","","","","","","","","","","","","key","j","6.94354212454191","960","536","j","true","img/S_ambi40.png","自我","same",""
"","","","","","html-keyboard-response","195","640635","0.0-9.0-0.0-0.0-0.0-1.26","null","<span style='color:GreenYellow; font-size: 70px;'>正确! </span>","null","","","","","","","","","","","","","","","","","","","","","","","feedback_test"
"","","","","","psychophysics","196","642352","0.0-9.0-0.0-0.0-0.0-0.27","714","","j","","","","","","","","","","","","","key","j","6.937691056910652","960","536","j","true","img/C_ambi40.png","生人","same",""
"","","","","","html-keyboard-response","197","642864","0.0-9.0-0.0-0.0-0.0-1.27","null","<span style='color:GreenYellow; font-size: 70px;'>正确! </span>","null","","","","","","","","","","","","","","","","","","","","","","","feedback_test"
"","","","","","psychophysics","198","644733","0.0-9.0-0.0-0.0-0.0-0.28","864","","f","","","","","","","","","","","","","key","f","6.944190298507699","960","536","f","true","img/S_ambi40.png","朋友","same",""
"","","","","","html-keyboard-response","199","645234","0.0-9.0-0.0-0.0-0.0-1.28","null","<span style='color:GreenYellow; font-size: 70px;'>正确! </span>","null","","","","","","","","","","","","","","","","","","","","","","","feedback_test"
"","","","","","psychophysics","200","647290","0.0-9.0-0.0-0.0-0.0-0.29","1055","","f","","","","","","","","","","","","","key","f","6.943285714285717","960","536","f","true","img/H_ambi40.png","生人","same",""
"","","","","","html-keyboard-response","201","647796","0.0-9.0-0.0-0.0-0.0-1.29","null","<span style='color:GreenYellow; font-size: 70px;'>正确! </span>","null","","","","","","","","","","","","","","","","","","","","","","","feedback_test"
"","","","","","psychophysics","202","649759","0.0-9.0-0.0-0.0-0.0-0.30","962","","f","","","","","","","","","","","","","key","f","6.939287234042814","960","536","f","true","img/S_ambi40.png","朋友","same",""
"","","","","","html-keyboard-response","203","650272","0.0-9.0-0.0-0.0-0.0-1.30","null","<span style='color:GreenYellow; font-size: 70px;'>正确! </span>","null","","","","","","","","","","","","","","","","","","","","","","","feedback_test"
"","","","","","psychophysics","204","651826","0.0-9.0-0.0-0.0-0.0-0.31","549","","f","","","","","","","","","","","","","key","f","6.944193693693845","960","536","f","true","img/C_ambi40.png","自我","same",""
"","","","","","html-keyboard-response","205","652340","0.0-9.0-0.0-0.0-0.0-1.31","null","<span style='color:GreenYellow; font-size: 70px;'>正确! </span>","null","","","","","","","","","","","","","","","","","","","","","","","feedback_test"
"","","","","","psychophysics","206","654521","0.0-9.0-0.0-0.0-0.0-0.32","1175","","j","","","","","","","","","","","","","key","j","6.943872204472939","960","536","j","true","img/S_ambi40.png","生人","same",""
"","","","","","html-keyboard-response","207","655031","0.0-9.0-0.0-0.0-0.0-1.32","null","<span style='color:GreenYellow; font-size: 70px;'>正确! </span>","null","","","","","","","","","","","","","","","","","","","","","","","feedback_test"
"","","","","","psychophysics","208","656851","0.0-9.0-0.0-0.0-0.0-0.33","818","","j","","","","","","","","","","","","","key","j","6.943620689654852","960","536","j","true","img/S_ambi40.png","生人","same",""
"","","","","","html-keyboard-response","209","657361","0.0-9.0-0.0-0.0-0.0-1.33","null","<span style='color:GreenYellow; font-size: 70px;'>正确! </span>","null","","","","","","","","","","","","","","","","","","","","","","","feedback_test"
"","","","","","psychophysics","210","658980","0.0-9.0-0.0-0.0-0.0-0.34","613","","j","","","","","","","","","","","","","key","j","6.9446206896551805","960","536","j","true","img/H_ambi40.png","自我","same",""
"","","","","","html-keyboard-response","211","659484","0.0-9.0-0.0-0.0-0.0-1.34","null","<span style='color:GreenYellow; font-size: 70px;'>正确! </span>","null","","","","","","","","","","","","","","","","","","","","","","","feedback_test"
"","","","","","psychophysics","212","661099","0.0-9.0-0.0-0.0-0.0-0.35","614","","f","","","","","","","","","","","","","key","f","6.944194805194539","960","536","f","true","img/T_ambi40.png","をる","same",""
"","","","","","html-keyboard-response","213","661611","0.0-9.0-0.0-0.0-0.0-1.35","null","<span style='color:GreenYellow; font-size: 70px;'>正确! </span>","null","","","","","","","","","","","","","","","","","","","","","","","feedback_test"
"","","","","","psychophysics","214","663340","0.0-9.0-0.0-0.0-0.0-0.36","724","","j","","","","","","","","","","","","","key","j","6.944794354838743","960","536","j","true","img/S_ambi40.png","自我","same",""
"","","","","","html-keyboard-response","215","663844","0.0-9.0-0.0-0.0-0.0-1.36","null","<span style='color:GreenYellow; font-size: 70px;'>正确! </span>","null","","","","","","","","","","","","","","","","","","","","","","","feedback_test"
"","","","","","psychophysics","216","665518","0.0-9.0-0.0-0.0-0.0-0.37","671","","f","","","","","","","","","","","","","key","f","6.945462499999849","960","536","f","true","img/T_ambi40.png","をる","same",""
"","","","","","html-keyboard-response","217","666022","0.0-9.0-0.0-0.0-0.0-1.37","null","<span style='color:GreenYellow; font-size: 70px;'>正确! </span>","null","","","","","","","","","","","","","","","","","","","","","","","feedback_test"
"","","","","","psychophysics","218","667610","0.0-9.0-0.0-0.0-0.0-0.38","584","","j","","","","","","","","","","","","","key","j","6.943767543859665","960","536","j","true","img/H_ambi40.png","自我","same",""
"","","","","","html-keyboard-response","219","668121","0.0-9.0-0.0-0.0-0.0-1.38","null","<span style='color:GreenYellow; font-size: 70px;'>正确! </span>","null","","","","","","","","","","","","","","","","","","","","","","","feedback_test"
"","","","","","psychophysics","220","669915","0.0-9.0-0.0-0.0-0.0-0.39","792","","j","","","","","","","","","","","","","key","j","6.944000000000029","960","536","j","true","img/C_ambi40.png","朋友","same",""
"","","","","","html-keyboard-response","221","670427","0.0-9.0-0.0-0.0-0.0-1.39","null","<span style='color:GreenYellow; font-size: 70px;'>正确! </span>","null","","","","","","","","","","","","","","","","","","","","","","","feedback_test"
"","","","","","psychophysics","222","672108","0.0-9.0-0.0-0.0-0.0-0.40","678","","j","","","","","","","","","","","","","key","j","6.943970954356738","960","536","j","true","img/H_ambi40.png","自我","same",""
"","","","","","html-keyboard-response","223","672617","0.0-9.0-0.0-0.0-0.0-1.40","null","<span style='color:GreenYellow; font-size: 70px;'>正确! </span>","null","","","","","","","","","","","","","","","","","","","","","","","feedback_test"
"","","","","","psychophysics","224","674174","0.0-9.0-0.0-0.0-0.0-0.41","552","","f","","","","","","","","","","","","","key","f","6.943955156950577","960","536","j","false","img/H_ambi40.png","朋友","same",""
"","","","","","html-keyboard-response","225","674684","0.0-9.0-0.0-0.0-0.0-1.41","null","<span style='color:red; font-size: 70px;'>错误! </span>","null","","","","","","","","","","","","","","","","","","","","","","","feedback_test"
"","","","","","psychophysics","226","676617","0.0-9.0-0.0-0.0-0.0-0.42","931","","f","","","","","","","","","","","","","key","f","6.943949458483499","960","536","f","true","img/S_ambi40.png","朋友","same",""
"","","","","","html-keyboard-response","227","677127","0.0-9.0-0.0-0.0-0.0-1.42","null","<span style='color:GreenYellow; font-size: 70px;'>正确! </span>","null","","","","","","","","","","","","","","","","","","","","","","","feedback_test"
"","","","","","psychophysics","228","678796","0.0-9.0-0.0-0.0-0.0-0.43","666","","j","","","","","","","","","","","","","key","j","6.944598326359673","960","536","f","false","img/C_ambi40.png","自我","same",""
"","","","","","html-keyboard-response","229","679305","0.0-9.0-0.0-0.0-0.0-1.43","null","<span style='color:red; font-size: 70px;'>错误! </span>","null","","","","","","","","","","","","","","","","","","","","","","","feedback_test"
"","","","","","psychophysics","230","681090","0.0-9.0-0.0-0.0-0.0-0.44","780","","j","","","","","","","","","","","","","key","j","6.945121093750004","960","536","j","true","img/S_ambi40.png","生人","same",""
"","","","","","html-keyboard-response","231","681602","0.0-9.0-0.0-0.0-0.0-1.44","null","<span style='color:GreenYellow; font-size: 70px;'>正确! </span>","null","","","","","","","","","","","","","","","","","","","","","","","feedback_test"
"","","","","","psychophysics","232","683457","0.0-9.0-0.0-0.0-0.0-0.45","855","","f","","","","","","","","","","","","","key","f","6.9422631578947085","960","536","f","true","img/S_ambi40.png","朋友","same",""
"","","","","","html-keyboard-response","233","683968","0.0-9.0-0.0-0.0-0.0-1.45","null","<span style='color:GreenYellow; font-size: 70px;'>正确! </span>","null","","","","","","","","","","","","","","","","","","","","","","","feedback_test"
"","","","","","psychophysics","234","685674","0.0-9.0-0.0-0.0-0.0-0.46","704","","j","","","","","","","","","","","","","key","j","6.943820408162927","960","536","j","true","img/C_ambi40.png","生人","same",""
"","","","","","html-keyboard-response","235","686175","0.0-9.0-0.0-0.0-0.0-1.46","null","<span style='color:GreenYellow; font-size: 70px;'>正确! </span>","null","","","","","","","","","","","","","","","","","","","","","","","feedback_test"
"","","","","","psychophysics","236","687841","0.0-9.0-0.0-0.0-0.0-0.47","664","","f","","","","","","","","","","","","","key","f","6.942414225941275","960","536","f","true","img/T_ambi40.png","をる","same",""
"","","","","","html-keyboard-response","237","688342","0.0-9.0-0.0-0.0-0.0-1.47","null","<span style='color:GreenYellow; font-size: 70px;'>正确! </span>","null","","","","","","","","","","","","","","","","","","","","","","","feedback_test"
"","","","","","psychophysics","238","690260","0.0-9.0-0.0-0.0-0.0-0.48","916","","f","","","","","","","","","","","","","key","f","6.945298181817951","960","536","f","true","img/H_ambi40.png","生人","same",""
"","","","","","html-keyboard-response","239","690773","0.0-9.0-0.0-0.0-0.0-1.48","null","<span style='color:GreenYellow; font-size: 70px;'>正确! </span>","null","","","","","","","","","","","","","","","","","","","","","","","feedback_test"
"","","","","","psychophysics","240","692478","0.0-9.0-0.0-0.0-0.0-0.49","704","","f","","","","","","","","","","","","","key","f","6.941803278688716","960","536","f","true","img/T_ambi40.png","をる","same",""
"","","","","","html-keyboard-response","241","692985","0.0-9.0-0.0-0.0-0.0-1.49","null","<span style='color:GreenYellow; font-size: 70px;'>正确! </span>","null","","","","","","","","","","","","","","","","","","","","","","","feedback_test"
"","","","","","psychophysics","242","694794","0.0-9.0-0.0-0.0-0.0-0.50","804","","j","","","","","","","","","","","","","key","j","6.940969111969151","960","536","j","true","img/C_ambi40.png","朋友","same",""
"","","","","","html-keyboard-response","243","695309","0.0-9.0-0.0-0.0-0.0-1.50","null","<span style='color:GreenYellow; font-size: 70px;'>正确! </span>","null","","","","","","","","","","","","","","","","","","","","","","","feedback_test"
"","","","","","psychophysics","244","697225","0.0-9.0-0.0-0.0-0.0-0.51","916","","f","","","","","","","","","","","","","key","f","6.934182481751455","960","536","f","true","img/C_ambi40.png","自我","same",""
"","","","","","html-keyboard-response","245","697740","0.0-9.0-0.0-0.0-0.0-1.51","null","<span style='color:GreenYellow; font-size: 70px;'>正确! </span>","null","","","","","","","","","","","","","","","","","","","","","","","feedback_test"
"","","","","","psychophysics","246","699519","0.0-9.0-0.0-0.0-0.0-0.52","778","","j","","","","","","","","","","","","","key","j","6.944235294117757","960","536","j","true","img/S_ambi40.png","生人","same",""
"","","","","","html-keyboard-response","247","700031","0.0-9.0-0.0-0.0-0.0-1.52","null","<span style='color:GreenYellow; font-size: 70px;'>正确! </span>","null","","","","","","","","","","","","","","","","","","","","","","","feedback_test"
"","","","","","psychophysics","248","701736","0.0-9.0-0.0-0.0-0.0-0.53","704","","f","","","","","","","","","","","","","key","f","6.943946721311372","960","536","f","true","img/H_ambi40.png","生人","same",""
"","","","","","html-keyboard-response","249","702247","0.0-9.0-0.0-0.0-0.0-1.53","null","<span style='color:GreenYellow; font-size: 70px;'>正确! </span>","null","","","","","","","","","","","","","","","","","","","","","","","feedback_test"
"","","","","","psychophysics","250","703801","0.0-9.0-0.0-0.0-0.0-0.54","548","","f","","","","","","","","","","","","","key","f","6.943590090090413","960","536","f","true","img/H_ambi40.png","生人","same",""
"","","","","","html-keyboard-response","251","704310","0.0-9.0-0.0-0.0-0.0-1.54","null","<span style='color:GreenYellow; font-size: 70px;'>正确! </span>","null","","","","","","","","","","","","","","","","","","","","","","","feedback_test"
"","","","","","psychophysics","252","706106","0.0-9.0-0.0-0.0-0.0-0.55","789","","f","","","","","","","","","","","","","key","f","6.944365758755052","960","536","f","true","img/C_ambi40.png","自我","same",""
"","","","","","html-keyboard-response","253","706614","0.0-9.0-0.0-0.0-0.0-1.55","null","<span style='color:GreenYellow; font-size: 70px;'>正确! </span>","null","","","","","","","","","","","","","","","","","","","","","","","feedback_test"
"","","","","","psychophysics","254","708311","0.0-9.0-0.0-0.0-0.0-0.56","697","","j","","","","","","","","","","","","","key","j","6.944259259259087","960","536","j","true","img/C_ambi40.png","生人","same",""
"","","","","","html-keyboard-response","255","708814","0.0-9.0-0.0-0.0-0.0-1.56","null","<span style='color:GreenYellow; font-size: 70px;'>正确! </span>","null","","","","","","","","","","","","","","","","","","","","","","","feedback_test"
"","","","","","psychophysics","256","710541","0.0-9.0-0.0-0.0-0.0-0.57","725","","j","","","","","","","","","","","","","key","j","6.944120967742375","960","536","j","true","img/H_ambi40.png","自我","same",""
"","","","","","html-keyboard-response","257","711044","0.0-9.0-0.0-0.0-0.0-1.57","null","<span style='color:GreenYellow; font-size: 70px;'>正确! </span>","null","","","","","","","","","","","","","","","","","","","","","","","feedback_test"
"","","","","","psychophysics","258","712959","0.0-9.0-0.0-0.0-0.0-0.58","913","","j","","","","","","","","","","","","","key","j","6.93978467153302","960","536","j","true","img/C_ambi40.png","朋友","same",""
"","","","","","html-keyboard-response","259","713464","0.0-9.0-0.0-0.0-0.0-1.58","null","<span style='color:GreenYellow; font-size: 70px;'>正确! </span>","null","","","","","","","","","","","","","","","","","","","","","","","feedback_test"
"","","","","","psychophysics","260","715139","0.0-9.0-0.0-0.0-0.0-0.59","670","","f","","","","","","","","","","","","","key","f","6.941654166666558","960","536","f","true","img/T_ambi40.png","をる","same",""
"","","","","","html-keyboard-response","261","715654","0.0-9.0-0.0-0.0-0.0-1.59","null","<span style='color:GreenYellow; font-size: 70px;'>正确! </span>","null","","","","","","","","","","","","","","","","","","","","","","","feedback_test"
"","","","","","psychophysics","262","717431","0.0-9.0-0.0-0.0-0.0-0.60","774","","j","","","","","","","","","","","","","key","j","6.935470588235458","960","536","f","false","img/S_ambi40.png","朋友","same",""
"","","","","","html-keyboard-response","263","717938","0.0-9.0-0.0-0.0-0.0-1.60","null","<span style='color:red; font-size: 70px;'>错误! </span>","null","","","","","","","","","","","","","","","","","","","","","","","feedback_test"
"","","","","","psychophysics","264","719838","0.0-9.0-0.0-0.0-0.0-0.61","898","","j","","","","","","","","","","","","","key","j","6.943538461538499","960","536","j","true","img/H_ambi40.png","朋友","same",""
"","","","","","html-keyboard-response","265","720344","0.0-9.0-0.0-0.0-0.0-1.61","null","<span style='color:GreenYellow; font-size: 70px;'>正确! </span>","null","","","","","","","","","","","","","","","","","","","","","","","feedback_test"
"","","","","","psychophysics","266","721929","0.0-9.0-0.0-0.0-0.0-0.62","585","","f","","","","","","","","","","","","","key","f","6.944339207048417","960","536","f","true","img/T_ambi40.png","をる","same",""
"","","","","","html-keyboard-response","267","722440","0.0-9.0-0.0-0.0-0.0-1.62","null","<span style='color:GreenYellow; font-size: 70px;'>正确! </span>","null","","","","","","","","","","","","","","","","","","","","","","","feedback_test"
"","","","","","psychophysics","268","724361","0.0-9.0-0.0-0.0-0.0-0.63","920","","j","","","","","","","","","","","","","key","j","6.943989090908912","960","536","j","true","img/S_ambi40.png","生人","same",""
"","","","","","html-keyboard-response","269","724868","0.0-9.0-0.0-0.0-0.0-1.63","null","<span style='color:GreenYellow; font-size: 70px;'>正确! </span>","null","","","","","","","","","","","","","","","","","","","","","","","feedback_test"
"","","","","","psychophysics","270","726553","0.0-9.0-0.0-0.0-0.0-0.64","681","","j","","","","","","","","","","","","","key","j","6.944466942148707","960","536","j","true","img/H_ambi40.png","自我","same",""
"","","","","","html-keyboard-response","271","727064","0.0-9.0-0.0-0.0-0.0-1.64","null","<span style='color:GreenYellow; font-size: 70px;'>正确! </span>","null","","","","","","","","","","","","","","","","","","","","","","","feedback_test"
"","","","","","psychophysics","272","728959","0.0-9.0-0.0-0.0-0.0-0.65","894","","j","","","","","","","","","","","","","key","j","6.9948736059476815","960","536","j","true","img/S_ambi40.png","生人","same",""
"","","","","","html-keyboard-response","273","729471","0.0-9.0-0.0-0.0-0.0-1.65","null","<span style='color:GreenYellow; font-size: 70px;'>正确! </span>","null","","","","","","","","","","","","","","","","","","","","","","","feedback_test"
"","","","","","psychophysics","274","731326","0.0-9.0-0.0-0.0-0.0-0.66","851","","j","","","","","","","","","","","","","key","j","6.944003759398426","960","536","f","false","img/H_ambi40.png","生人","same",""
"","","","","","html-keyboard-response","275","731838","0.0-9.0-0.0-0.0-0.0-1.66","null","<span style='color:red; font-size: 70px;'>错误! </span>","null","","","","","","","","","","","","","","","","","","","","","","","feedback_test"
"","","","","","psychophysics","276","733532","0.0-9.0-0.0-0.0-0.0-0.67","689","","f","","","","","","","","","","","","","key","f","6.943485596707788","960","536","f","true","img/S_ambi40.png","朋友","same",""
"","","","","","html-keyboard-response","277","734045","0.0-9.0-0.0-0.0-0.0-1.67","null","<span style='color:GreenYellow; font-size: 70px;'>正确! </span>","null","","","","","","","","","","","","","","","","","","","","","","","feedback_test"
"","","","","","psychophysics","278","735749","0.0-9.0-0.0-0.0-0.0-0.68","698","","j","","","","","","","","","","","","","key","j","6.944180327868872","960","536","j","true","img/S_ambi40.png","自我","same",""
"","","","","","html-keyboard-response","279","736258","0.0-9.0-0.0-0.0-0.0-1.68","null","<span style='color:GreenYellow; font-size: 70px;'>正确! </span>","null","","","","","","","","","","","","","","","","","","","","","","","feedback_test"
"","","","","","psychophysics","280","737915","0.0-9.0-0.0-0.0-0.0-0.69","655","","j","","","","","","","","","","","","","key","j","6.9430756302518155","960","536","f","false","img/C_ambi40.png","自我","same",""
"","","","","","html-keyboard-response","281","738421","0.0-9.0-0.0-0.0-0.0-1.69","null","<span style='color:red; font-size: 70px;'>错误! </span>","null","","","","","","","","","","","","","","","","","","","","","","","feedback_test"
"","","","","","psychophysics","282","740158","0.0-9.0-0.0-0.0-0.0-0.70","732","","j","","","","","","","","","","","","","key","j","6.943714859437695","960","536","j","true","img/C_ambi40.png","朋友","same",""
"","","","","","html-keyboard-response","283","740663","0.0-9.0-0.0-0.0-0.0-1.70","null","<span style='color:GreenYellow; font-size: 70px;'>正确! </span>","null","","","","","","","","","","","","","","","","","","","","","","","feedback_test"
"","","","","","psychophysics","284","742299","0.0-9.0-0.0-0.0-0.0-0.71","630","","f","","","","","","","","","","","","","key","f","6.944299145299209","960","536","f","true","img/T_ambi40.png","をる","same",""
"","","","","","html-keyboard-response","285","742809","0.0-9.0-0.0-0.0-0.0-1.71","null","<span style='color:GreenYellow; font-size: 70px;'>正确! </span>","null","","","","","","","","","","","","","","","","","","","","","","","feedback_test"
"","","","","","psychophysics","286","744529","0.0-9.0-0.0-0.0-0.0-0.72","714","","j","","","","","","","","","","","","","key","j","6.944499999999799","960","536","j","true","img/H_ambi40.png","自我","same",""
"","","","","","html-keyboard-response","287","745034","0.0-9.0-0.0-0.0-0.0-1.72","null","<span style='color:GreenYellow; font-size: 70px;'>正确! </span>","null","","","","","","","","","","","","","","","","","","","","","","","feedback_test"
"","","","","","psychophysics","288","746684","0.0-9.0-0.0-0.0-0.0-0.73","646","","f","","","","","","","","","","","","","key","f","6.945063559322172","960","536","f","true","img/C_ambi40.png","自我","same",""
"","","","","","html-keyboard-response","289","747200","0.0-9.0-0.0-0.0-0.0-1.73","null","<span style='color:GreenYellow; font-size: 70px;'>正确! </span>","null","","","","","","","","","","","","","","","","","","","","","","","feedback_test"
"","","","","","psychophysics","290","748977","0.0-9.0-0.0-0.0-0.0-0.74","772","","f","","","","","","","","","","","","","key","f","6.9412705882351995","960","536","f","true","img/H_ambi40.png","生人","same",""
"","","","","","html-keyboard-response","291","749483","0.0-9.0-0.0-0.0-0.0-1.74","null","<span style='color:GreenYellow; font-size: 70px;'>正确! </span>","null","","","","","","","","","","","","","","","","","","","","","","","feedback_test"
"","","","","","psychophysics","292","751384","0.0-9.0-0.0-0.0-0.0-0.75","895","","j","","","","","","","","","","","","","key","j","6.944367647058885","960","536","j","true","img/H_ambi40.png","朋友","same",""
"","","","","","html-keyboard-response","293","751899","0.0-9.0-0.0-0.0-0.0-1.75","null","<span style='color:GreenYellow; font-size: 70px;'>正确! </span>","null","","","","","","","","","","","","","","","","","","","","","","","feedback_test"
"","","","","","psychophysics","294","753537","0.0-9.0-0.0-0.0-0.0-0.76","637","","f","","","","","","","","","","","","","key","f","6.94417948717934","960","536","f","true","img/T_ambi40.png","をる","same",""
"","","","","","html-keyboard-response","295","754051","0.0-9.0-0.0-0.0-0.0-1.76","null","<span style='color:GreenYellow; font-size: 70px;'>正确! </span>","null","","","","","","","","","","","","","","","","","","","","","","","feedback_test"
"","","","","","psychophysics","296","755817","0.0-9.0-0.0-0.0-0.0-0.77","765","","f","","","","","","","","","","","","","key","f","6.940391304347804","960","536","f","true","img/S_ambi40.png","朋友","same",""
"","","","","","html-keyboard-response","297","756319","0.0-9.0-0.0-0.0-0.0-1.77","null","<span style='color:GreenYellow; font-size: 70px;'>正确! </span>","null","","","","","","","","","","","","","","","","","","","","","","","feedback_test"
"","","","","","psychophysics","298","757908","0.0-9.0-0.0-0.0-0.0-0.78","585","","f","","","","","","","","","","","","","key","f","6.974925110131986","960","536","f","true","img/C_ambi40.png","自我","same",""
"","","","","","html-keyboard-response","299","758415","0.0-9.0-0.0-0.0-0.0-1.78","null","<span style='color:GreenYellow; font-size: 70px;'>正确! </span>","null","","","","","","","","","","","","","","","","","","","","","","","feedback_test"
"","","","","","psychophysics","300","760075","0.0-9.0-0.0-0.0-0.0-0.79","655","","f","","","","","","","","","","","","","key","f","6.944310924369928","960","536","j","false","img/S_ambi40.png","生人","same",""
"","","","","","html-keyboard-response","301","760579","0.0-9.0-0.0-0.0-0.0-1.79","null","<span style='color:red; font-size: 70px;'>错误! </span>","null","","","","","","","","","","","","","","","","","","","","","","","feedback_test"
"","","","","","psychophysics","302","762493","0.0-9.0-0.0-0.0-0.0-0.80","914","","j","","","","","","","","","","","","","key","j","6.965978021978233","960","536","j","true","img/C_ambi40.png","朋友","same",""
"","","","","","html-keyboard-response","303","763005","0.0-9.0-0.0-0.0-0.0-1.80","null","<span style='color:GreenYellow; font-size: 70px;'>正确! </span>","null","","","","","","","","","","","","","","","","","","","","","","","feedback_test"
"","","","","","psychophysics","304","764977","0.0-9.0-0.0-0.0-0.0-0.81","967","","j","","","","","","","","","","","","","key","j","6.944250883392219","960","536","j","true","img/H_ambi40.png","自我","same",""
"","","","","","html-keyboard-response","305","765491","0.0-9.0-0.0-0.0-0.0-1.81","null","<span style='color:GreenYellow; font-size: 70px;'>正确! </span>","null","","","","","","","","","","","","","","","","","","","","","","","feedback_test"
"","","","","","psychophysics","306","767129","0.0-9.0-0.0-0.0-0.0-0.82","633","","f","","","","","","","","","","","","","key","f","6.943600000000182","960","536","f","true","img/T_ambi40.png","をる","same",""
"","","","","","html-keyboard-response","307","767633","0.0-9.0-0.0-0.0-0.0-1.82","null","<span style='color:GreenYellow; font-size: 70px;'>正确! </span>","null","","","","","","","","","","","","","","","","","","","","","","","feedback_test"
"","","","","","psychophysics","308","769384","0.0-9.0-0.0-0.0-0.0-0.83","749","","j","","","","","","","","","","","","","key","j","6.939888000000268","960","536","j","true","img/C_ambi40.png","朋友","same",""
"","","","","","html-keyboard-response","309","769885","0.0-9.0-0.0-0.0-0.0-1.83","null","<span style='color:GreenYellow; font-size: 70px;'>正确! </span>","null","","","","","","","","","","","","","","","","","","","","","","","feedback_test"
"","","","","","psychophysics","310","772105","0.0-9.0-0.0-0.0-0.0-0.84","1215","","f","","","","","","","","","","","","","key","f","6.943657232704353","960","536","f","true","img/H_ambi40.png","生人","same",""
"","","","","","html-keyboard-response","311","772609","0.0-9.0-0.0-0.0-0.0-1.84","null","<span style='color:GreenYellow; font-size: 70px;'>正确! </span>","null","","","","","","","","","","","","","","","","","","","","","","","feedback_test"
"","","","","","psychophysics","312","774272","0.0-9.0-0.0-0.0-0.0-0.85","657","","j","","","","","","","","","","","","","key","j","6.943231092436736","960","536","j","true","img/S_ambi40.png","自我","same",""
"","","","","","html-keyboard-response","313","774773","0.0-9.0-0.0-0.0-0.0-1.85","null","<span style='color:GreenYellow; font-size: 70px;'>正确! </span>","null","","","","","","","","","","","","","","","","","","","","","","","feedback_test"
"","","","","","psychophysics","314","776388","0.0-9.0-0.0-0.0-0.0-0.86","614","","f","","","","","","","","","","","","","key","f","6.943268398268479","960","536","f","true","img/T_ambi40.png","をる","same",""
"","","","","","html-keyboard-response","315","776901","0.0-9.0-0.0-0.0-0.0-1.86","null","<span style='color:GreenYellow; font-size: 70px;'>正确! </span>","null","","","","","","","","","","","","","","","","","","","","","","","feedback_test"
"","","","","","psychophysics","316","778542","0.0-9.0-0.0-0.0-0.0-0.87","636","","f","","","","","","","","","","","","","key","f","6.943217021276421","960","536","f","true","img/S_ambi40.png","朋友","same",""
"","","","","","html-keyboard-response","317","779058","0.0-9.0-0.0-0.0-0.0-1.87","null","<span style='color:GreenYellow; font-size: 70px;'>正确! </span>","null","","","","","","","","","","","","","","","","","","","","","","","feedback_test"
"","","","","","psychophysics","318","780812","0.0-9.0-0.0-0.0-0.0-0.88","753","","j","","","","","","","","","","","","","key","j","6.943760956175146","960","536","j","true","img/S_ambi40.png","生人","same",""
"","","","","","html-keyboard-response","319","781328","0.0-9.0-0.0-0.0-0.0-1.88","null","<span style='color:GreenYellow; font-size: 70px;'>正确! </span>","null","","","","","","","","","","","","","","","","","","","","","","","feedback_test"
"","","","","","psychophysics","320","783053","0.0-9.0-0.0-0.0-0.0-0.89","724","","j","","","","","","","","","","","","","key","j","6.943619433198","960","536","j","true","img/C_ambi40.png","生人","same",""
"","","","","","html-keyboard-response","321","783561","0.0-9.0-0.0-0.0-0.0-1.89","null","<span style='color:GreenYellow; font-size: 70px;'>正确! </span>","null","","","","","","","","","","","","","","","","","","","","","","","feedback_test"
"","","","","","psychophysics","322","785219","0.0-9.0-0.0-0.0-0.0-0.90","654","","j","","","","","","","","","","","","","key","j","6.972434599156381","960","536","j","true","img/S_ambi40.png","生人","same",""
"","","","","","html-keyboard-response","323","785722","0.0-9.0-0.0-0.0-0.0-1.90","null","<span style='color:GreenYellow; font-size: 70px;'>正确! </span>","null","","","","","","","","","","","","","","","","","","","","","","","feedback_test"
"","","","","","psychophysics","324","787373","0.0-9.0-0.0-0.0-0.0-0.91","648","","j","","","","","","","","","","","","","key","j","7.003391489361789","960","536","j","true","img/C_ambi40.png","生人","same",""
"","","","","","html-keyboard-response","325","787874","0.0-9.0-0.0-0.0-0.0-1.91","null","<span style='color:GreenYellow; font-size: 70px;'>正确! </span>","null","","","","","","","","","","","","","","","","","","","","","","","feedback_test"
"","","","","","psychophysics","326","789427","0.0-9.0-0.0-0.0-0.0-0.92","550","","f","","","","","","","","","","","","","key","f","6.94424215246633","960","536","f","true","img/C_ambi40.png","自我","same",""
"","","","","","html-keyboard-response","327","789944","0.0-9.0-0.0-0.0-0.0-1.92","null","<span style='color:GreenYellow; font-size: 70px;'>正确! </span>","null","","","","","","","","","","","","","","","","","","","","","","","feedback_test"
"","","","","","psychophysics","328","791745","0.0-9.0-0.0-0.0-0.0-0.93","798","","j","","","","","","","","","","","","","key","j","7.025133333333275","960","536","j","true","img/C_ambi40.png","朋友","same",""
"","","","","","html-keyboard-response","329","792246","0.0-9.0-0.0-0.0-0.0-1.93","null","<span style='color:GreenYellow; font-size: 70px;'>正确! </span>","null","","","","","","","","","","","","","","","","","","","","","","","feedback_test"
"","","","","","psychophysics","330","793848","0.0-9.0-0.0-0.0-0.0-0.94","596","","f","","","","","","","","","","","","","key","f","6.9436986899566655","960","536","f","true","img/S_ambi40.png","朋友","same",""
"","","","","","html-keyboard-response","331","794359","0.0-9.0-0.0-0.0-0.0-1.94","null","<span style='color:GreenYellow; font-size: 70px;'>正确! </span>","null","","","","","","","","","","","","","","","","","","","","","","","feedback_test"
"","","","","","psychophysics","332","796078","0.0-9.0-0.0-0.0-0.0-0.95","715","","f","","","","","","","","","","","","","key","f","6.941630081301063","960","536","j","false","img/H_ambi40.png","朋友","same",""
"","","","","","html-keyboard-response","333","796591","0.0-9.0-0.0-0.0-0.0-1.95","null","<span style='color:red; font-size: 70px;'>错误! </span>","null","","","","","","","","","","","","","","","","","","","","","","","feedback_test"
"","","","","","psychophysics","334","798194","0.0-9.0-0.0-0.0-0.0-0.96","601","","f","","","","","","","","","","","","","key","f","6.94349130434794","960","536","f","true","img/C_ambi40.png","自我","same",""
"","","","","","html-keyboard-response","335","798709","0.0-9.0-0.0-0.0-0.0-1.96","null","<span style='color:GreenYellow; font-size: 70px;'>正确! </span>","null","","","","","","","","","","","","","","","","","","","","","","","feedback_test"
"","","","","","psychophysics","336","800386","0.0-9.0-0.0-0.0-0.0-0.97","674","","f","","","","","","","","","","","","","key","f","6.943454166666682","960","536","f","true","img/H_ambi40.png","生人","same",""
"","","","","","html-keyboard-response","337","800890","0.0-9.0-0.0-0.0-0.0-1.97","null","<span style='color:GreenYellow; font-size: 70px;'>正确! </span>","null","","","","","","","","","","","","","","","","","","","","","","","feedback_test"
"","","","","","psychophysics","338","802742","0.0-9.0-0.0-0.0-0.0-0.98","851","","j","","","","","","","","","","","","","key","j","6.943195488721419","960","536","j","true","img/S_ambi40.png","自我","same",""
"","","","","","html-keyboard-response","339","803244","0.0-9.0-0.0-0.0-0.0-1.98","null","<span style='color:GreenYellow; font-size: 70px;'>正确! </span>","null","","","","","","","","","","","","","","","","","","","","","","","feedback_test"
"","","","","","psychophysics","340","804795","0.0-9.0-0.0-0.0-0.0-0.99","550","","f","","","","","","","","","","","","","key","f","6.943369369369172","960","536","f","true","img/T_ambi40.png","をる","same",""
"","","","","","html-keyboard-response","341","805308","0.0-9.0-0.0-0.0-0.0-1.99","null","<span style='color:GreenYellow; font-size: 70px;'>正确! </span>","null","","","","","","","","","","","","","","","","","","","","","","","feedback_test"
"","","","","","psychophysics","342","806950","0.0-9.0-0.0-0.0-0.0-0.100","640","","j","","","","","","","","","","","","","key","j","6.944076595744712","960","536","j","true","img/C_ambi40.png","朋友","same",""
"","","","","","html-keyboard-response","343","807452","0.0-9.0-0.0-0.0-0.0-1.100","null","<span style='color:GreenYellow; font-size: 70px;'>正确! </span>","null","","","","","","","","","","","","","","","","","","","","","","","feedback_test"
"","","","","","psychophysics","344","809344","0.0-9.0-0.0-0.0-0.0-0.101","890","","f","","","","","","","","","","","","","key","f","6.942464944649216","960","536","f","true","img/H_ambi40.png","生人","same",""
"","","","","","html-keyboard-response","345","809846","0.0-9.0-0.0-0.0-0.0-1.101","null","<span style='color:GreenYellow; font-size: 70px;'>正确! </span>","null","","","","","","","","","","","","","","","","","","","","","","","feedback_test"
"","","","","","psychophysics","346","811371","0.0-9.0-0.0-0.0-0.0-0.102","522","","f","","","","","","","","","","","","","key","f","6.943123287671208","960","536","f","true","img/T_ambi40.png","をる","same",""
"","","","","","html-keyboard-response","347","811883","0.0-9.0-0.0-0.0-0.0-1.102","null","<span style='color:GreenYellow; font-size: 70px;'>正确! </span>","null","","","","","","","","","","","","","","","","","","","","","","","feedback_test"
"","","","","","psychophysics","348","813426","0.0-9.0-0.0-0.0-0.0-0.103","541","","f","","","","","","","","","","","","","key","f","6.944477272727421","960","536","f","true","img/T_ambi40.png","をる","same",""
"","","","","","html-keyboard-response","349","813930","0.0-9.0-0.0-0.0-0.0-1.103","null","<span style='color:GreenYellow; font-size: 70px;'>正确! </span>","null","","","","","","","","","","","","","","","","","","","","","","","feedback_test"
"","","","","","psychophysics","350","815554","0.0-9.0-0.0-0.0-0.0-0.104","622","","j","","","","","","","","","","","","","key","j","6.97383189655174","960","536","j","true","img/H_ambi40.png","自我","same",""
"","","","","","html-keyboard-response","351","816060","0.0-9.0-0.0-0.0-0.0-1.104","null","<span style='color:GreenYellow; font-size: 70px;'>正确! </span>","null","","","","","","","","","","","","","","","","","","","","","","","feedback_test"
"","","","","","psychophysics","352","817657","0.0-9.0-0.0-0.0-0.0-0.105","592","","j","","","","","","","","","","","","","key","j","6.9401484716156965","960","536","j","true","img/H_ambi40.png","自我","same",""
"","","","","","html-keyboard-response","353","818172","0.0-9.0-0.0-0.0-0.0-1.105","null","<span style='color:GreenYellow; font-size: 70px;'>正确! </span>","null","","","","","","","","","","","","","","","","","","","","","","","feedback_test"
"","","","","","psychophysics","354","819963","0.0-9.0-0.0-0.0-0.0-0.106","788","","j","","","","","","","","","","","","","key","j","6.944618677042772","960","536","j","true","img/S_ambi40.png","生人","same",""
"","","","","","html-keyboard-response","355","820470","0.0-9.0-0.0-0.0-0.0-1.106","null","<span style='color:GreenYellow; font-size: 70px;'>正确! </span>","null","","","","","","","","","","","","","","","","","","","","","","","feedback_test"
"","","","","","psychophysics","356","822167","0.0-9.0-0.0-0.0-0.0-0.107","693","","f","","","","","","","","","","","","","key","f","6.944065843621142","960","536","f","true","img/S_ambi40.png","朋友","same",""
"","","","","","html-keyboard-response","357","822679","0.0-9.0-0.0-0.0-0.0-1.107","null","<span style='color:GreenYellow; font-size: 70px;'>正确! </span>","null","","","","","","","","","","","","","","","","","","","","","","","feedback_test"
"","","","","","html-keyboard-response","358","831930","0.0-9.0-0.0-0.0-1.0","9250","<style>.context{color:white; font-size: 35px; line-height:40px}</style>                          <div><p class='context'>您正确回答了85% 的试次。</p><p class='context'>您的平均反应时为748毫秒。</p><p class='context'>请按任意键进入休息</p></div>"," ","","","","","","","","","","","","","","","","","","","","","","",""
"","","","","","html-button-response","359","884807","0.0-9.0-0.0-0.0-2.0","52876","
                    <p>您当前还剩余5组实验</p>
                    <p>现在是休息时间，当您结束休息后，您可以点击 结束休息 按钮 继续</p>
                    <p>建议休息时间还剩余<span id=""iii"">60</span>秒</p>","0","","","","","","","","","","","","","","","","","","","","","","",""
"","","","","","psychophysics","360","886930","0.0-9.0-0.0-0.0-0.1-0.108","1117","","j","","","","","","","","","","","","","key","j","6.944569078947289","960","536","j","true","img/S_ambi40.png","自我","same",""
"","","","","","html-keyboard-response","361","887441","0.0-9.0-0.0-0.0-0.1-1.108","null","<span style='color:GreenYellow; font-size: 70px;'>正确! </span>","null","","","","","","","","","","","","","","","","","","","","","","","feedback_test"
"","","","","","psychophysics","362","889059","0.0-9.0-0.0-0.0-0.1-0.109","614","","f","","","","","","","","","","","","","key","f","6.945012931034555","960","536","f","true","img/C_ambi40.png","自我","same",""
"","","","","","html-keyboard-response","363","889572","0.0-9.0-0.0-0.0-0.1-1.109","null","<span style='color:GreenYellow; font-size: 70px;'>正确! </span>","null","","","","","","","","","","","","","","","","","","","","","","","feedback_test"
"","","","","","psychophysics","364","891302","0.0-9.0-0.0-0.0-0.1-0.110","726","","j","","","","","","","","","","","","","key","j","6.943338709677318","960","536","j","true","img/H_ambi40.png","自我","same",""
"","","","","","html-keyboard-response","365","891809","0.0-9.0-0.0-0.0-0.1-1.110","null","<span style='color:GreenYellow; font-size: 70px;'>正确! </span>","null","","","","","","","","","","","","","","","","","","","","","","","feedback_test"
"","","","","","psychophysics","366","893380","0.0-9.0-0.0-0.0-0.1-0.111","567","","f","","","","","","","","","","","","","key","f","6.9496415929206385","960","536","f","true","img/C_ambi40.png","自我","same",""
"","","","","","html-keyboard-response","367","893895","0.0-9.0-0.0-0.0-0.1-1.111","null","<span style='color:GreenYellow; font-size: 70px;'>正确! </span>","null","","","","","","","","","","","","","","","","","","","","","","","feedback_test"
"","","","","","psychophysics","368","895547","0.0-9.0-0.0-0.0-0.1-0.112","651","","j","","","","","","","","","","","","","key","j","6.93886016949151","960","536","j","true","img/H_ambi40.png","朋友","same",""
"","","","","","html-keyboard-response","369","896061","0.0-9.0-0.0-0.0-0.1-1.112","null","<span style='color:GreenYellow; font-size: 70px;'>正确! </span>","null","","","","","","","","","","","","","","","","","","","","","","","feedback_test"
"","","","","","psychophysics","370","897777","0.0-9.0-0.0-0.0-0.1-0.113","714","","j","","","","","","","","","","","","","key","j","6.940772357723312","960","536","j","true","img/C_ambi40.png","朋友","same",""
"","","","","","html-keyboard-response","371","898279","0.0-9.0-0.0-0.0-0.1-1.113","null","<span style='color:GreenYellow; font-size: 70px;'>正确! </span>","null","","","","","","","","","","","","","","","","","","","","","","","feedback_test"
"","","","","","psychophysics","372","899906","0.0-9.0-0.0-0.0-0.1-0.114","621","","j","","","","","","","","","","","","","key","j","6.944317596566328","960","536","j","true","img/H_ambi40.png","自我","same",""
"","","","","","html-keyboard-response","373","900414","0.0-9.0-0.0-0.0-0.1-1.114","null","<span style='color:GreenYellow; font-size: 70px;'>正确! </span>","null","","","","","","","","","","","","","","","","","","","","","","","feedback_test"
"","","","","","psychophysics","374","902085","0.0-9.0-0.0-0.0-0.1-0.115","668","","j","","","","","","","","","","","","","key","j","6.972569037656978","960","536","f","false","img/S_ambi40.png","朋友","same",""
"","","","","","html-keyboard-response","375","902600","0.0-9.0-0.0-0.0-0.1-1.115","null","<span style='color:red; font-size: 70px;'>错误! </span>","null","","","","","","","","","","","","","","","","","","","","","","","feedback_test"
"","","","","","psychophysics","376","904441","0.0-9.0-0.0-0.0-0.1-0.116","837","","j","","","","","","","","","","","","","key","j","6.970722433460253","960","536","j","true","img/S_ambi40.png","生人","same",""
"","","","","","html-keyboard-response","377","904944","0.0-9.0-0.0-0.0-0.1-1.116","null","<span style='color:GreenYellow; font-size: 70px;'>正确! </span>","null","","","","","","","","","","","","","","","","","","","","","","","feedback_test"
"","","","","","psychophysics","378","906696","0.0-9.0-0.0-0.0-0.1-0.117","751","","j","","","","","","","","","","","","","key","j","6.944027888446219","960","536","j","true","img/C_ambi40.png","生人","same",""
"","","","","","html-keyboard-response","379","907200","0.0-9.0-0.0-0.0-0.1-1.117","null","<span style='color:GreenYellow; font-size: 70px;'>正确! </span>","null","","","","","","","","","","","","","","","","","","","","","","","feedback_test"
"","","","","","psychophysics","380","908875","0.0-9.0-0.0-0.0-0.1-0.118","674","","j","","","","","","","","","","","","","key","j","6.940254166666516","960","536","j","true","img/C_ambi40.png","朋友","same",""
"","","","","","html-keyboard-response","381","909387","0.0-9.0-0.0-0.0-0.1-1.118","null","<span style='color:GreenYellow; font-size: 70px;'>正确! </span>","null","","","","","","","","","","","","","","","","","","","","","","","feedback_test"
"","","","","","psychophysics","382","911016","0.0-9.0-0.0-0.0-0.1-0.119","627","","f","","","","","","","","","","","","","key","f","6.942343347639949","960","536","f","true","img/H_ambi40.png","生人","same",""
"","","","","","html-keyboard-response","383","911532","0.0-9.0-0.0-0.0-0.1-1.119","null","<span style='color:GreenYellow; font-size: 70px;'>正确! </span>","null","","","","","","","","","","","","","","","","","","","","","","","feedback_test"
"","","","","","psychophysics","384","913070","0.0-9.0-0.0-0.0-0.1-0.120","536","","f","","","","","","","","","","","","","key","f","6.943619909502431","960","536","f","true","img/T_ambi40.png","をる","same",""
"","","","","","html-keyboard-response","385","913579","0.0-9.0-0.0-0.0-0.1-1.120","null","<span style='color:GreenYellow; font-size: 70px;'>正确! </span>","null","","","","","","","","","","","","","","","","","","","","","","","feedback_test"
"","","","","","psychophysics","386","915337","0.0-9.0-0.0-0.0-0.1-0.121","754","","j","","","","","","","","","","","","","key","j","6.944293650793418","960","536","j","true","img/S_ambi40.png","生人","same",""
"","","","","","html-keyboard-response","387","915850","0.0-9.0-0.0-0.0-0.1-1.121","null","<span style='color:GreenYellow; font-size: 70px;'>正确! </span>","null","","","","","","","","","","","","","","","","","","","","","","","feedback_test"
"","","","","","psychophysics","388","917442","0.0-9.0-0.0-0.0-0.1-0.122","588","","f","","","","","","","","","","","","","key","f","6.94138596491253","960","536","f","true","img/T_ambi40.png","をる","same",""
"","","","","","html-keyboard-response","389","917946","0.0-9.0-0.0-0.0-0.1-1.122","null","<span style='color:GreenYellow; font-size: 70px;'>正确! </span>","null","","","","","","","","","","","","","","","","","","","","","","","feedback_test"
"","","","","","psychophysics","390","919583","0.0-9.0-0.0-0.0-0.1-0.123","632","","f","","","","","","","","","","","","","key","f","6.944319148936329","960","536","f","true","img/S_ambi40.png","朋友","same",""
"","","","","","html-keyboard-response","391","920093","0.0-9.0-0.0-0.0-0.1-1.123","null","<span style='color:GreenYellow; font-size: 70px;'>正确! </span>","null","","","","","","","","","","","","","","","","","","","","","","","feedback_test"
"","","","","","psychophysics","392","921787","0.0-9.0-0.0-0.0-0.1-0.124","691","","f","","","","","","","","","","","","","key","f","7.001514522821538","960","536","f","true","img/H_ambi40.png","生人","same",""
"","","","","","html-keyboard-response","393","922299","0.0-9.0-0.0-0.0-0.1-1.124","null","<span style='color:GreenYellow; font-size: 70px;'>正确! </span>","null","","","","","","","","","","","","","","","","","","","","","","","feedback_test"
"","","","","","psychophysics","394","923803","0.0-9.0-0.0-0.0-0.1-0.125","497","","f","","","","","","","","","","","","","key","f","6.94300930232546","960","536","f","true","img/T_ambi40.png","をる","same",""
"","","","","","html-keyboard-response","395","924307","0.0-9.0-0.0-0.0-0.1-1.125","null","<span style='color:GreenYellow; font-size: 70px;'>正确! </span>","null","","","","","","","","","","","","","","","","","","","","","","","feedback_test"
"","","","","","psychophysics","396","925856","0.0-9.0-0.0-0.0-0.1-0.126","543","","f","","","","","","","","","","","","","key","f","6.945135135134905","960","536","f","true","img/S_ambi40.png","朋友","same",""
"","","","","","html-keyboard-response","397","926369","0.0-9.0-0.0-0.0-0.1-1.126","null","<span style='color:GreenYellow; font-size: 70px;'>正确! </span>","null","","","","","","","","","","","","","","","","","","","","","","","feedback_test"
"","","","","","psychophysics","398","927884","0.0-9.0-0.0-0.0-0.1-0.127","509","","f","","","","","","","","","","","","","key","f","6.944188940092012","960","536","f","true","img/T_ambi40.png","をる","same",""
"","","","","","html-keyboard-response","399","928390","0.0-9.0-0.0-0.0-0.1-1.127","null","<span style='color:GreenYellow; font-size: 70px;'>正确! </span>","null","","","","","","","","","","","","","","","","","","","","","","","feedback_test"
"","","","","","psychophysics","400","929902","0.0-9.0-0.0-0.0-0.1-0.128","507","","f","","","","","","","","","","","","","key","f","7.042323943662037","960","536","f","true","img/C_ambi40.png","自我","same",""
"","","","","","html-keyboard-response","401","930407","0.0-9.0-0.0-0.0-0.1-1.128","null","<span style='color:GreenYellow; font-size: 70px;'>正确! </span>","null","","","","","","","","","","","","","","","","","","","","","","","feedback_test"
"","","","","","psychophysics","402","932142","0.0-9.0-0.0-0.0-0.1-0.129","732","","j","","","","","","","","","","","","","key","j","6.940686746988067","960","536","j","true","img/H_ambi40.png","自我","same",""
"","","","","","html-keyboard-response","403","932651","0.0-9.0-0.0-0.0-0.1-1.129","null","<span style='color:GreenYellow; font-size: 70px;'>正确! </span>","null","","","","","","","","","","","","","","","","","","","","","","","feedback_test"
"","","","","","psychophysics","404","934334","0.0-9.0-0.0-0.0-0.1-0.130","681","","f","","","","","","","","","","","","","key","f","6.944394190871075","960","536","f","true","img/H_ambi40.png","生人","same",""
"","","","","","html-keyboard-response","405","934839","0.0-9.0-0.0-0.0-0.1-1.130","null","<span style='color:GreenYellow; font-size: 70px;'>正确! </span>","null","","","","","","","","","","","","","","","","","","","","","","","feedback_test"
"","","","","","psychophysics","406","936338","0.0-9.0-0.0-0.0-0.1-0.131","499","","f","","","","","","","","","","","","","key","f","6.937869158878631","960","536","j","false","img/C_ambi40.png","生人","same",""
"","","","","","html-keyboard-response","407","936851","0.0-9.0-0.0-0.0-0.1-1.131","null","<span style='color:red; font-size: 70px;'>错误! </span>","null","","","","","","","","","","","","","","","","","","","","","","","feedback_test"
"","","","","","psychophysics","408","938681","0.0-9.0-0.0-0.0-0.1-0.132","828","","j","","","","","","","","","","","","","key","j","6.943749049429679","960","536","j","true","img/S_ambi40.png","生人","same",""
"","","","","","html-keyboard-response","409","939197","0.0-9.0-0.0-0.0-0.1-1.132","null","<span style='color:GreenYellow; font-size: 70px;'>正确! </span>","null","","","","","","","","","","","","","","","","","","","","","","","feedback_test"
"","","","","","psychophysics","410","940922","0.0-9.0-0.0-0.0-0.1-0.133","722","","j","","","","","","","","","","","","","key","j","6.943449392712577","960","536","j","true","img/S_ambi40.png","生人","same",""
"","","","","","html-keyboard-response","411","941426","0.0-9.0-0.0-0.0-0.1-1.133","null","<span style='color:GreenYellow; font-size: 70px;'>正确! </span>","null","","","","","","","","","","","","","","","","","","","","","","","feedback_test"
"","","","","","psychophysics","412","943102","0.0-9.0-0.0-0.0-0.1-0.134","675","","f","","","","","","","","","","","","","key","f","6.943395833333003","960","536","f","true","img/H_ambi40.png","生人","same",""
"","","","","","html-keyboard-response","413","943608","0.0-9.0-0.0-0.0-0.1-1.134","null","<span style='color:GreenYellow; font-size: 70px;'>正确! </span>","null","","","","","","","","","","","","","","","","","","","","","","","feedback_test"
"","","","","","psychophysics","414","945357","0.0-9.0-0.0-0.0-0.1-0.135","747","","j","","","","","","","","","","","","","key","j","6.9434143426291","960","536","j","true","img/C_ambi40.png","朋友","same",""
"","","","","","html-keyboard-response","415","945866","0.0-9.0-0.0-0.0-0.1-1.135","null","<span style='color:GreenYellow; font-size: 70px;'>正确! </span>","null","","","","","","","","","","","","","","","","","","","","","","","feedback_test"
"","","","","","psychophysics","416","947448","0.0-9.0-0.0-0.0-0.1-0.136","581","","f","","","","","","","","","","","","","key","f","6.942938053097053","960","536","f","true","img/S_ambi40.png","朋友","same",""
"","","","","","html-keyboard-response","417","947962","0.0-9.0-0.0-0.0-0.1-1.136","null","<span style='color:GreenYellow; font-size: 70px;'>正确! </span>","null","","","","","","","","","","","","","","","","","","","","","","","feedback_test"
"","","","","","psychophysics","418","949604","0.0-9.0-0.0-0.0-0.1-0.137","638","","j","","","","","","","","","","","","","key","j","6.944804255319066","960","536","j","true","img/S_ambi40.png","自我","same",""
"","","","","","html-keyboard-response","419","950115","0.0-9.0-0.0-0.0-0.1-1.137","null","<span style='color:GreenYellow; font-size: 70px;'>正确! </span>","null","","","","","","","","","","","","","","","","","","","","","","","feedback_test"
"","","","","","psychophysics","420","951907","0.0-9.0-0.0-0.0-0.1-0.138","790","","j","","","","","","","","","","","","","key","j","6.943206225681311","960","536","j","true","img/H_ambi40.png","朋友","same",""
"","","","","","html-keyboard-response","421","952421","0.0-9.0-0.0-0.0-0.1-1.138","null","<span style='color:GreenYellow; font-size: 70px;'>正确! </span>","null","","","","","","","","","","","","","","","","","","","","","","","feedback_test"
"","","","","","psychophysics","422","954100","0.0-9.0-0.0-0.0-0.1-0.139","677","","f","","","","","","","","","","","","","key","f","6.944912863070246","960","536","f","true","img/C_ambi40.png","自我","same",""
"","","","","","html-keyboard-response","423","954612","0.0-9.0-0.0-0.0-0.1-1.139","null","<span style='color:GreenYellow; font-size: 70px;'>正确! </span>","null","","","","","","","","","","","","","","","","","","","","","","","feedback_test"
"","","","","","psychophysics","424","956292","0.0-9.0-0.0-0.0-0.1-0.140","675","","j","","","","","","","","","","","","","key","j","6.944037344398487","960","536","j","true","img/H_ambi40.png","自我","same",""
"","","","","","html-keyboard-response","425","956799","0.0-9.0-0.0-0.0-0.1-1.140","null","<span style='color:GreenYellow; font-size: 70px;'>正确! </span>","null","","","","","","","","","","","","","","","","","","","","","","","feedback_test"
"","","","","","psychophysics","426","958508","0.0-9.0-0.0-0.0-0.1-0.141","704","","f","","","","","","","","","","","","","key","f","6.94397959183683","960","536","f","true","img/T_ambi40.png","をる","same",""
"","","","","","html-keyboard-response","427","959014","0.0-9.0-0.0-0.0-0.1-1.141","null","<span style='color:GreenYellow; font-size: 70px;'>正确! </span>","null","","","","","","","","","","","","","","","","","","","","","","","feedback_test"
"","","","","","psychophysics","428","960689","0.0-9.0-0.0-0.0-0.1-0.142","669","","f","","","","","","","","","","","","","key","f","6.944770833333314","960","536","f","true","img/T_ambi40.png","をる","same",""
"","","","","","html-keyboard-response","429","961191","0.0-9.0-0.0-0.0-0.1-1.142","null","<span style='color:GreenYellow; font-size: 70px;'>正确! </span>","null","","","","","","","","","","","","","","","","","","","","","","","feedback_test"
"","","","","","psychophysics","430","962816","0.0-9.0-0.0-0.0-0.1-0.143","623","","j","","","","","","","","","","","","","key","j","6.9435622317595564","960","536","j","true","img/C_ambi40.png","朋友","same",""
"","","","","","html-keyboard-response","431","963326","0.0-9.0-0.0-0.0-0.1-1.143","null","<span style='color:GreenYellow; font-size: 70px;'>正确! </span>","null","","","","","","","","","","","","","","","","","","","","","","","feedback_test"
"","","","","","psychophysics","432","964959","0.0-9.0-0.0-0.0-0.1-0.144","627","","f","","","","","","","","","","","","","key","f","6.944444444444445","960","536","f","true","img/H_ambi40.png","生人","same",""
"","","","","","html-keyboard-response","433","965465","0.0-9.0-0.0-0.0-0.1-1.144","null","<span style='color:GreenYellow; font-size: 70px;'>正确! </span>","null","","","","","","","","","","","","","","","","","","","","","","","feedback_test"
"","","","","","psychophysics","434","967225","0.0-9.0-0.0-0.0-0.1-0.145","754","","f","","","","","","","","","","","","","key","f","6.943123015873079","960","536","f","true","img/S_ambi40.png","朋友","same",""
"","","","","","html-keyboard-response","435","967733","0.0-9.0-0.0-0.0-0.1-1.145","null","<span style='color:GreenYellow; font-size: 70px;'>正确! </span>","null","","","","","","","","","","","","","","","","","","","","","","","feedback_test"
"","","","","","psychophysics","436","969455","0.0-9.0-0.0-0.0-0.1-0.146","720","","j","","","","","","","","","","","","","key","j","6.941307692307326","960","536","j","true","img/H_ambi40.png","自我","same",""
"","","","","","html-keyboard-response","437","969963","0.0-9.0-0.0-0.0-0.1-1.146","null","<span style='color:GreenYellow; font-size: 70px;'>正确! </span>","null","","","","","","","","","","","","","","","","","","","","","","","feedback_test"
"","","","","","psychophysics","438","971496","0.0-9.0-0.0-0.0-0.1-0.147","532","","f","","","","","","","","","","","","","key","f","6.943223744292199","960","536","f","true","img/T_ambi40.png","をる","same",""
"","","","","","html-keyboard-response","439","972002","0.0-9.0-0.0-0.0-0.1-1.147","null","<span style='color:GreenYellow; font-size: 70px;'>正确! </span>","null","","","","","","","","","","","","","","","","","","","","","","","feedback_test"
"","","","","","psychophysics","440","973625","0.0-9.0-0.0-0.0-0.1-0.148","620","","j","","","","","","","","","","","","","key","j","6.943261802575227","960","536","j","true","img/H_ambi40.png","自我","same",""
"","","","","","html-keyboard-response","441","974131","0.0-9.0-0.0-0.0-0.1-1.148","null","<span style='color:GreenYellow; font-size: 70px;'>正确! </span>","null","","","","","","","","","","","","","","","","","","","","","","","feedback_test"
"","","","","","psychophysics","442","975741","0.0-9.0-0.0-0.0-0.1-0.149","610","","f","","","","","","","","","","","","","key","f","6.94412173913063","960","536","j","false","img/S_ambi40.png","生人","same",""
"","","","","","html-keyboard-response","443","976249","0.0-9.0-0.0-0.0-0.1-1.149","null","<span style='color:red; font-size: 70px;'>错误! </span>","null","","","","","","","","","","","","","","","","","","","","","","","feedback_test"
