"success","timeout","failed_images","failed_audio","failed_video","trial_type","trial_index","time_elapsed","internal_node_id","rt","stimulus","response","value","item_width_mm","item_height_mm","item_width_px","px2mm","view_dist_mm","item_width_deg","px2deg","scale_factor","win_width_deg","win_height_deg","view_history","response_type","key_press","avg_frame_time","center_x","center_y","correct_response","correct","Image","word","condition","screen_id"
"true","false","[]","[]","[]","preload","0","361","0.0-0.0","","","","","","","","","","","","","","","","","","","","","","","","","",""
"","","","","","html-keyboard-response","1","72906","0.0-1.0","72543","
     <p>您好，欢迎参加本次实验。</p>
     <p>为充分保障您的权利，请确保您已经知晓并同意《参与实验同意书》以及《数据公开知情同意书》。</p>
     <p>如果您未见过上述内容，请咨询实验员。</p>
     <p>如果您选择继续实验，则表示您已经清楚两份知情同意书的内容并同意。</p>
     <p> <div style = ""color: green""><按任意键至下页></div> </p>
     ","enter","","","","","","","","","","","","","","","","","","","","","","",""
"","","","","","html-keyboard-response","2","74006","0.0-2.0","1100","
     <p>本实验首先需要您填写一些基本个人信息。</p>
     <p> <div style = ""color: green""><按任意键至下页></div></p>
     ","enter","","","","","","","","","","","","","","","","","","","","","","",""
"","","","","","call-function","3","74007","0.0-3.0-0.0","","","","","","","","","","","","","","","","","","","","","","","","","",""
"","","","","","survey-html-form","4","77544","0.0-3.0-1.0","3515","","{""Q0"":""21""}","","","","","","","","","","","","","","","","","","","","","","",""
"","","","","","html-button-response","5","79106","0.0-3.0-2.0","1561","<p style = 'color : white'>您的性别</p>","1","","","","","","","","","","","","","","","","","","","","","","",""
"","","","","","survey-html-form","6","81973","0.0-3.0-3.0","2865","","{""Q0"":""2003""}","","","","","","","","","","","","","","","","","","","","","","",""
"","","","","","survey-html-form","7","84449","0.0-3.0-4.0","2476","","{""Q0"":""5""}","","","","","","","","","","","","","","","","","","","","","","",""
"","","","","","virtual-chinrest","8","126552","0.0-4.0","42101","","","","85.6","53.98","424.89236473290487","4.968142493882143","576.09","8.497847294658097","50","0.9037582970957585","29.64","14.28","","","","","","","","","","","",""
"true","","","","","fullscreen","9","129013","0.0-5.0","","","","","","","","","","","","","","","","","","","","","","","","","",""
"","","","","","instructions","10","151951","0.0-6.0","22937","","","","","","","","","","","","","","[{""page_index"":0,""viewing_time"":5457},{""page_index"":1,""viewing_time"":8706},{""page_index"":2,""viewing_time"":3400},{""page_index"":1,""viewing_time"":2146},{""page_index"":2,""viewing_time"":1817},{""page_index"":3,""viewing_time"":1412}]","","","","","","","","","","",""
"","","","","","psychophysics","11","153436","0.0-7.0-0.0-0.0","482","","f","","","","","","","","","","","","","key","f","16.687670454545614","768","428","j","false","img/S_ambi40.png","生人","prac",""
"","","","","","html-keyboard-response","12","153937","0.0-7.0-0.0-1.0","null","<span style='color:red; font-size: 70px;'>错误! </span>","null","","","","","","","","","","","","","","","","","","","","","","","feedback_test"
"","","","","","psychophysics","13","155227","0.0-7.0-0.0-0.1","288","","j","","","","","","","","","","","","","key","j","16.681210526315752","768","428","j","true","img/S_ambi40.png","生人","prac",""
"","","","","","html-keyboard-response","14","155729","0.0-7.0-0.0-1.1","null","<span style='color:GreenYellow; font-size: 70px;'>正确! </span>","null","","","","","","","","","","","","","","","","","","","","","","","feedback_test"
"","","","","","psychophysics","15","157028","0.0-7.0-0.0-0.2","298","","f","","","","","","","","","","","","","key","f","16.67657894736859","768","428","f","true","img/S_ambi40.png","朋友","prac",""
"","","","","","html-keyboard-response","16","157529","0.0-7.0-0.0-1.2","null","<span style='color:GreenYellow; font-size: 70px;'>正确! </span>","null","","","","","","","","","","","","","","","","","","","","","","","feedback_test"
"","","","","","psychophysics","17","158838","0.0-7.0-0.0-0.3","308","","f","","","","","","","","","","","","","key","f","16.679974025973745","768","428","j","false","img/H_ambi40.png","自我","prac",""
"","","","","","html-keyboard-response","18","159339","0.0-7.0-0.0-1.3","null","<span style='color:red; font-size: 70px;'>错误! </span>","null","","","","","","","","","","","","","","","","","","","","","","","feedback_test"
"","","","","","psychophysics","19","160559","0.0-7.0-0.0-0.4","219","","j","","","","","","","","","","","","","key","j","16.682250000000042","768","428","f","false","img/C_ambi40.png","生人","prac",""
"","","","","","html-keyboard-response","20","161060","0.0-7.0-0.0-1.4","null","<span style='color:red; font-size: 70px;'>错误! </span>","null","","","","","","","","","","","","","","","","","","","","","","","feedback_test"
"","","","","","psychophysics","21","162250","0.0-7.0-0.0-0.5","174","","j","","","","","","","","","","","","","key","j","16.68315714285709","768","428","f","false","img/H_ambi40.png","朋友","prac",""
"","","","","","html-keyboard-response","22","162752","0.0-7.0-0.0-1.5","null","<span style='color:yellow; font-size: 70px;'>过快! </span>","null","","","","","","","","","","","","","","","","","","","","","","","feedback_test"
"","","","","","psychophysics","23","164046","0.0-7.0-0.0-0.6","293","","f","","","","","","","","","","","","","key","f","16.685065789473715","768","428","j","false","img/H_ambi40.png","自我","prac",""
"","","","","","html-keyboard-response","24","164547","0.0-7.0-0.0-1.6","null","<span style='color:red; font-size: 70px;'>错误! </span>","null","","","","","","","","","","","","","","","","","","","","","","","feedback_test"
"","","","","","psychophysics","25","165742","0.0-7.0-0.0-0.7","194","","j","","","","","","","","","","","","","key","j","16.681549295774435","768","428","f","false","img/T_ambi40.png","をる","prac",""
"","","","","","html-keyboard-response","26","166243","0.0-7.0-0.0-1.7","null","<span style='color:yellow; font-size: 70px;'>过快! </span>","null","","","","","","","","","","","","","","","","","","","","","","","feedback_test"
"","","","","","psychophysics","27","167544","0.0-7.0-0.0-0.8","300","","f","","","","","","","","","","","","","key","f","16.68161038961035","768","428","f","true","img/T_ambi40.png","をる","prac",""
"","","","","","html-keyboard-response","28","168045","0.0-7.0-0.0-1.8","null","<span style='color:GreenYellow; font-size: 70px;'>正确! </span>","null","","","","","","","","","","","","","","","","","","","","","","","feedback_test"
"","","","","","psychophysics","29","169374","0.0-7.0-0.0-0.9","327","","j","","","","","","","","","","","","","key","j","16.684628205127993","768","428","f","false","img/T_ambi40.png","をる","prac",""
"","","","","","html-keyboard-response","30","169875","0.0-7.0-0.0-1.9","null","<span style='color:red; font-size: 70px;'>错误! </span>","null","","","","","","","","","","","","","","","","","","","","","","","feedback_test"
"","","","","","psychophysics","31","171134","0.0-7.0-0.0-0.10","257","","f","","","","","","","","","","","","","key","f","16.672081081081036","768","428","f","true","img/C_ambi40.png","自我","prac",""
"","","","","","html-keyboard-response","32","171635","0.0-7.0-0.0-1.10","null","<span style='color:GreenYellow; font-size: 70px;'>正确! </span>","null","","","","","","","","","","","","","","","","","","","","","","","feedback_test"
"","","","","","psychophysics","33","172920","0.0-7.0-0.0-0.11","254","","f","","","","","","","","","","","","","key","f","16.684486842104985","768","428","j","false","img/C_ambi40.png","朋友","prac",""
"","","","","","html-keyboard-response","34","173422","0.0-7.0-0.0-1.11","null","<span style='color:red; font-size: 70px;'>错误! </span>","null","","","","","","","","","","","","","","","","","","","","","","","feedback_test"
"","","","","","psychophysics","35","174663","0.0-7.0-0.0-0.12","240","","f","","","","","","","","","","","","","key","f","16.688082191780964","768","428","j","false","img/C_ambi40.png","朋友","prac",""
"","","","","","html-keyboard-response","36","175163","0.0-7.0-0.0-1.12","null","<span style='color:red; font-size: 70px;'>错误! </span>","null","","","","","","","","","","","","","","","","","","","","","","","feedback_test"
"","","","","","psychophysics","37","176392","0.0-7.0-0.0-0.13","227","","f","","","","","","","","","","","","","key","f","16.6804722222219","768","428","f","true","img/T_ambi40.png","をる","prac",""
"","","","","","html-keyboard-response","38","176892","0.0-7.0-0.0-1.13","null","<span style='color:GreenYellow; font-size: 70px;'>正确! </span>","null","","","","","","","","","","","","","","","","","","","","","","","feedback_test"
"","","","","","psychophysics","39","178014","0.0-7.0-0.0-0.14","119","","j","","","","","","","","","","","","","key","j","16.681242424242416","768","428","f","false","img/H_ambi40.png","生人","prac",""
"","","","","","html-keyboard-response","40","178515","0.0-7.0-0.0-1.14","null","<span style='color:yellow; font-size: 70px;'>过快! </span>","null","","","","","","","","","","","","","","","","","","","","","","","feedback_test"
"","","","","","psychophysics","41","179724","0.0-7.0-0.0-0.15","209","","f","","","","","","","","","","","","","key","f","16.68555555555536","768","428","f","true","img/S_ambi40.png","自我","prac",""
"","","","","","html-keyboard-response","42","180226","0.0-7.0-0.0-1.15","null","<span style='color:GreenYellow; font-size: 70px;'>正确! </span>","null","","","","","","","","","","","","","","","","","","","","","","","feedback_test"
"","","","","","psychophysics","43","181554","0.0-7.0-0.0-0.16","326","","f","","","","","","","","","","","","","key","f","16.684935897435746","768","428","j","false","img/H_ambi40.png","自我","prac",""
"","","","","","html-keyboard-response","44","182055","0.0-7.0-0.0-1.16","null","<span style='color:red; font-size: 70px;'>错误! </span>","null","","","","","","","","","","","","","","","","","","","","","","","feedback_test"
"","","","","","psychophysics","45","183415","0.0-7.0-0.0-0.17","340","","f","","","","","","","","","","","","","key","f","16.6851749999998","768","428","f","true","img/T_ambi40.png","をる","prac",""
"","","","","","html-keyboard-response","46","183916","0.0-7.0-0.0-1.17","null","<span style='color:GreenYellow; font-size: 70px;'>正确! </span>","null","","","","","","","","","","","","","","","","","","","","","","","feedback_test"
"","","","","","psychophysics","47","185181","0.0-7.0-0.0-0.18","263","","j","","","","","","","","","","","","","key","j","16.685120000000268","768","428","f","false","img/S_ambi40.png","自我","prac",""
"","","","","","html-keyboard-response","48","185682","0.0-7.0-0.0-1.18","null","<span style='color:red; font-size: 70px;'>错误! </span>","null","","","","","","","","","","","","","","","","","","","","","","","feedback_test"
"","","","","","psychophysics","49","186873","0.0-7.0-0.0-0.19","189","","f","","","","","","","","","","","","","key","f","16.687600000000177","768","428","f","true","img/T_ambi40.png","をる","prac",""
"","","","","","html-keyboard-response","50","187374","0.0-7.0-0.0-1.19","null","<span style='color:yellow; font-size: 70px;'>过快! </span>","null","","","","","","","","","","","","","","","","","","","","","","","feedback_test"
"","","","","","psychophysics","51","188615","0.0-7.0-0.0-0.20","240","","f","","","","","","","","","","","","","key","f","16.683932432432492","768","428","j","false","img/S_ambi40.png","生人","prac",""
"","","","","","html-keyboard-response","52","189116","0.0-7.0-0.0-1.20","null","<span style='color:red; font-size: 70px;'>错误! </span>","null","","","","","","","","","","","","","","","","","","","","","","","feedback_test"
"","","","","","psychophysics","53","190454","0.0-7.0-0.0-0.21","338","","f","","","","","","","","","","","","","key","f","16.68160759493682","768","428","f","true","img/C_ambi40.png","自我","prac",""
"","","","","","html-keyboard-response","54","190956","0.0-7.0-0.0-1.21","null","<span style='color:GreenYellow; font-size: 70px;'>正确! </span>","null","","","","","","","","","","","","","","","","","","","","","","","feedback_test"
"","","","","","psychophysics","55","192404","0.0-7.0-0.0-0.22","447","","j","","","","","","","","","","","","","key","j","16.68370930232557","768","428","j","true","img/H_ambi40.png","自我","prac",""
"","","","","","html-keyboard-response","56","192905","0.0-7.0-0.0-1.22","null","<span style='color:GreenYellow; font-size: 70px;'>正确! </span>","null","","","","","","","","","","","","","","","","","","","","","","","feedback_test"
"","","","","","psychophysics","57","194371","0.0-7.0-0.0-0.23","435","","j","","","","","","","","","","","","","key","j","16.688632183907963","768","428","j","true","img/C_ambi40.png","朋友","prac",""
"","","","","","html-keyboard-response","58","194872","0.0-7.0-0.0-1.23","null","<span style='color:GreenYellow; font-size: 70px;'>正确! </span>","null","","","","","","","","","","","","","","","","","","","","","","","feedback_test"
"","","","","","psychophysics","59","196136","0.0-7.0-0.0-0.24","263","","f","","","","","","","","","","","","","key","f","16.687054054054112","768","428","f","true","img/T_ambi40.png","をる","prac",""
"","","","","","html-keyboard-response","60","196637","0.0-7.0-0.0-1.24","null","<span style='color:GreenYellow; font-size: 70px;'>正确! </span>","null","","","","","","","","","","","","","","","","","","","","","","","feedback_test"
"","","","","","psychophysics","61","197962","0.0-7.0-0.0-0.25","324","","j","","","","","","","","","","","","","key","j","16.669410256410348","768","428","f","false","img/H_ambi40.png","朋友","prac",""
"","","","","","html-keyboard-response","62","198463","0.0-7.0-0.0-1.25","null","<span style='color:red; font-size: 70px;'>错误! </span>","null","","","","","","","","","","","","","","","","","","","","","","","feedback_test"
"","","","","","psychophysics","63","199813","0.0-7.0-0.0-0.26","328","","j","","","","","","","","","","","","","key","j","16.68478750000031","768","428","f","false","img/H_ambi40.png","生人","prac",""
"","","","","","html-keyboard-response","64","200314","0.0-7.0-0.0-1.26","null","<span style='color:red; font-size: 70px;'>错误! </span>","null","","","","","","","","","","","","","","","","","","","","","","","feedback_test"
"","","","","","psychophysics","65","201563","0.0-7.0-0.0-0.27","248","","f","","","","","","","","","","","","","key","f","16.687891891892022","768","428","j","false","img/C_ambi40.png","朋友","prac",""
"","","","","","html-keyboard-response","66","202064","0.0-7.0-0.0-1.27","null","<span style='color:red; font-size: 70px;'>错误! </span>","null","","","","","","","","","","","","","","","","","","","","","","","feedback_test"
"","","","","","psychophysics","67","203230","0.0-7.0-0.0-0.28","165","","f","","","","","","","","","","","","","key","f","16.68331884057978","768","428","f","true","img/S_ambi40.png","朋友","prac",""
"","","","","","html-keyboard-response","68","203732","0.0-7.0-0.0-1.28","null","<span style='color:yellow; font-size: 70px;'>过快! </span>","null","","","","","","","","","","","","","","","","","","","","","","","feedback_test"
"","","","","","psychophysics","69","204931","0.0-7.0-0.0-0.29","198","","f","","","","","","","","","","","","","key","f","16.687385714285693","768","428","f","true","img/T_ambi40.png","をる","prac",""
"","","","","","html-keyboard-response","70","205431","0.0-7.0-0.0-1.29","null","<span style='color:yellow; font-size: 70px;'>过快! </span>","null","","","","","","","","","","","","","","","","","","","","","","","feedback_test"
"","","","","","psychophysics","71","206821","0.0-7.0-0.0-0.30","389","","j","","","","","","","","","","","","","key","j","16.684609756097636","768","428","j","true","img/S_ambi40.png","生人","prac",""
"","","","","","html-keyboard-response","72","207323","0.0-7.0-0.0-1.30","null","<span style='color:GreenYellow; font-size: 70px;'>正确! </span>","null","","","","","","","","","","","","","","","","","","","","","","","feedback_test"
"","","","","","psychophysics","73","208677","0.0-7.0-0.0-0.31","352","","j","","","","","","","","","","","","","key","j","16.684725000000252","768","428","f","false","img/C_ambi40.png","生人","prac",""
"","","","","","html-keyboard-response","74","209178","0.0-7.0-0.0-1.31","null","<span style='color:red; font-size: 70px;'>错误! </span>","null","","","","","","","","","","","","","","","","","","","","","","","feedback_test"
"","","","","","html-keyboard-response","75","209840","0.0-7.0-1.0-0.0","661","<style>.context{color:white; font-size: 35px; line-height:40px}</style>                          <div><p class='context'>您正确回答了47% 的试次。</p ><p class='context'>您的平均反应时为290毫秒。</p >","j","","","","","","","","","","","","","","","","","","","","","","",""
"","","","","","instructions","76","215354","0.0-7.0-1.0-1.0","5512","","","","","","","","","","","","","","[{""page_index"":0,""viewing_time"":1585},{""page_index"":1,""viewing_time"":1924},{""page_index"":2,""viewing_time"":2003}]","","","","","","","","","","",""
"","","","","","psychophysics","77","216849","0.0-7.1-0.1-0.32","493","","j","","","","","","","","","","","","","key","j","16.687191011235996","768","428","f","false","img/S_ambi40.png","朋友","prac",""
"","","","","","html-keyboard-response","78","217350","0.0-7.1-0.1-1.32","null","<span style='color:red; font-size: 70px;'>错误! </span>","null","","","","","","","","","","","","","","","","","","","","","","","feedback_test"
"","","","","","psychophysics","79","218748","0.0-7.1-0.1-0.33","398","","j","","","","","","","","","","","","","key","j","16.68460240963838","768","428","j","true","img/S_ambi40.png","生人","prac",""
"","","","","","html-keyboard-response","80","219249","0.0-7.1-0.1-1.33","null","<span style='color:GreenYellow; font-size: 70px;'>正确! </span>","null","","","","","","","","","","","","","","","","","","","","","","","feedback_test"
"","","","","","psychophysics","81","220590","0.0-7.1-0.1-0.34","314","","f","","","","","","","","","","","","","key","f","16.686848101265806","768","428","f","true","img/S_ambi40.png","自我","prac",""
"","","","","","html-keyboard-response","82","221092","0.0-7.1-0.1-1.34","null","<span style='color:GreenYellow; font-size: 70px;'>正确! </span>","null","","","","","","","","","","","","","","","","","","","","","","","feedback_test"
"","","","","","psychophysics","83","222395","0.0-7.1-0.1-0.35","303","","f","","","","","","","","","","","","","key","f","16.68215584415563","768","428","j","false","img/C_ambi40.png","朋友","prac",""
"","","","","","html-keyboard-response","84","222896","0.0-7.1-0.1-1.35","null","<span style='color:red; font-size: 70px;'>错误! </span>","null","","","","","","","","","","","","","","","","","","","","","","","feedback_test"
"","","","","","psychophysics","85","224137","0.0-7.1-0.1-0.36","239","","j","","","","","","","","","","","","","key","j","16.68650000000009","768","428","f","false","img/C_ambi40.png","生人","prac",""
"","","","","","html-keyboard-response","86","224638","0.0-7.1-0.1-1.36","null","<span style='color:red; font-size: 70px;'>错误! </span>","null","","","","","","","","","","","","","","","","","","","","","","","feedback_test"
"","","","","","psychophysics","87","225827","0.0-7.1-0.1-0.37","181","","f","","","","","","","","","","","","","key","f","16.684599999999875","768","428","f","true","img/T_ambi40.png","をる","prac",""
"","","","","","html-keyboard-response","88","226328","0.0-7.1-0.1-1.37","null","<span style='color:yellow; font-size: 70px;'>过快! </span>","null","","","","","","","","","","","","","","","","","","","","","","","feedback_test"
"","","","","","psychophysics","89","227726","0.0-7.1-0.1-0.38","396","","f","","","","","","","","","","","","","key","f","16.68444578313228","768","428","f","true","img/T_ambi40.png","をる","prac",""
"","","","","","html-keyboard-response","90","228226","0.0-7.1-0.1-1.38","null","<span style='color:GreenYellow; font-size: 70px;'>正确! </span>","null","","","","","","","","","","","","","","","","","","","","","","","feedback_test"
"","","","","","psychophysics","91","229794","0.0-7.1-0.1-0.39","566","","j","","","","","","","","","","","","","key","j","16.682913978494607","768","428","j","true","img/C_ambi40.png","朋友","prac",""
"","","","","","html-keyboard-response","92","230294","0.0-7.1-0.1-1.39","null","<span style='color:GreenYellow; font-size: 70px;'>正确! </span>","null","","","","","","","","","","","","","","","","","","","","","","","feedback_test"
"","","","","","psychophysics","93","231639","0.0-7.1-0.1-0.40","324","","f","","","","","","","","","","","","","key","f","16.68793670886087","768","428","j","false","img/S_ambi40.png","生人","prac",""
"","","","","","html-keyboard-response","94","232140","0.0-7.1-0.1-1.40","null","<span style='color:red; font-size: 70px;'>错误! </span>","null","","","","","","","","","","","","","","","","","","","","","","","feedback_test"
"","","","","","psychophysics","95","233489","0.0-7.1-0.1-0.41","348","","j","","","","","","","","","","","","","key","j","16.686100000000078","768","428","j","true","img/H_ambi40.png","自我","prac",""
"","","","","","html-keyboard-response","96","233991","0.0-7.1-0.1-1.41","null","<span style='color:GreenYellow; font-size: 70px;'>正确! </span>","null","","","","","","","","","","","","","","","","","","","","","","","feedback_test"
"","","","","","psychophysics","97","235435","0.0-7.1-0.1-0.42","443","","f","","","","","","","","","","","","","key","f","16.686546511627967","768","428","f","true","img/T_ambi40.png","をる","prac",""
"","","","","","html-keyboard-response","98","235936","0.0-7.1-0.1-1.42","null","<span style='color:GreenYellow; font-size: 70px;'>正确! </span>","null","","","","","","","","","","","","","","","","","","","","","","","feedback_test"
"","","","","","psychophysics","99","237375","0.0-7.1-0.1-0.43","420","","f","","","","","","","","","","","","","key","f","16.68732941176482","768","428","f","true","img/T_ambi40.png","をる","prac",""
"","","","","","html-keyboard-response","100","237877","0.0-7.1-0.1-1.43","null","<span style='color:GreenYellow; font-size: 70px;'>正确! </span>","null","","","","","","","","","","","","","","","","","","","","","","","feedback_test"
"","","","","","psychophysics","101","239337","0.0-7.1-0.1-0.44","459","","j","","","","","","","","","","","","","key","j","16.682793103448173","768","428","j","true","img/H_ambi40.png","自我","prac",""
"","","","","","html-keyboard-response","102","239839","0.0-7.1-0.1-1.44","null","<span style='color:GreenYellow; font-size: 70px;'>正确! </span>","null","","","","","","","","","","","","","","","","","","","","","","","feedback_test"
"","","","","","psychophysics","103","241371","0.0-7.1-0.1-0.45","532","","f","","","","","","","","","","","","","key","f","16.684966666666636","768","428","f","true","img/H_ambi40.png","生人","prac",""
"","","","","","html-keyboard-response","104","241873","0.0-7.1-0.1-1.45","null","<span style='color:GreenYellow; font-size: 70px;'>正确! </span>","null","","","","","","","","","","","","","","","","","","","","","","","feedback_test"
"","","","","","psychophysics","105","243237","0.0-7.1-0.1-0.46","343","","j","","","","","","","","","","","","","key","j","16.68603750000002","768","428","f","false","img/C_ambi40.png","自我","prac",""
"","","","","","html-keyboard-response","106","243739","0.0-7.1-0.1-1.46","null","<span style='color:red; font-size: 70px;'>错误! </span>","null","","","","","","","","","","","","","","","","","","","","","","","feedback_test"
"","","","","","psychophysics","107","245108","0.0-7.1-0.1-0.47","366","","f","","","","","","","","","","","","","key","f","16.68845000000001","768","428","f","true","img/H_ambi40.png","朋友","prac",""
"","","","","","html-keyboard-response","108","245609","0.0-7.1-0.1-1.47","null","<span style='color:GreenYellow; font-size: 70px;'>正确! </span>","null","","","","","","","","","","","","","","","","","","","","","","","feedback_test"
"","","","","","psychophysics","109","247043","0.0-7.1-0.1-0.48","433","","f","","","","","","","","","","","","","key","f","16.68691666666668","768","428","f","true","img/T_ambi40.png","をる","prac",""
"","","","","","html-keyboard-response","110","247545","0.0-7.1-0.1-1.48","null","<span style='color:GreenYellow; font-size: 70px;'>正确! </span>","null","","","","","","","","","","","","","","","","","","","","","","","feedback_test"
"","","","","","psychophysics","111","248919","0.0-7.1-0.1-0.49","354","","j","","","","","","","","","","","","","key","j","16.68575308641978","768","428","j","true","img/H_ambi40.png","自我","prac",""
"","","","","","html-keyboard-response","112","249420","0.0-7.1-0.1-1.49","null","<span style='color:GreenYellow; font-size: 70px;'>正确! </span>","null","","","","","","","","","","","","","","","","","","","","","","","feedback_test"
"","","","","","psychophysics","113","250934","0.0-7.1-0.1-0.50","513","","f","","","","","","","","","","","","","key","f","16.686277777777608","768","428","f","true","img/S_ambi40.png","朋友","prac",""
"","","","","","html-keyboard-response","114","251436","0.0-7.1-0.1-1.50","null","<span style='color:GreenYellow; font-size: 70px;'>正确! </span>","null","","","","","","","","","","","","","","","","","","","","","","","feedback_test"
"","","","","","psychophysics","115","253005","0.0-7.1-0.1-0.51","568","","j","","","","","","","","","","","","","key","j","16.682516129032123","768","428","j","true","img/C_ambi40.png","朋友","prac",""
"","","","","","html-keyboard-response","116","253505","0.0-7.1-0.1-1.51","null","<span style='color:GreenYellow; font-size: 70px;'>正确! </span>","null","","","","","","","","","","","","","","","","","","","","","","","feedback_test"
"","","","","","psychophysics","117","254892","0.0-7.1-0.1-0.52","356","","f","","","","","","","","","","","","","key","f","16.68532926829286","768","428","j","false","img/C_ambi40.png","朋友","prac",""
"","","","","","html-keyboard-response","118","255393","0.0-7.1-0.1-1.52","null","<span style='color:red; font-size: 70px;'>错误! </span>","null","","","","","","","","","","","","","","","","","","","","","","","feedback_test"
"","","","","","psychophysics","119","256702","0.0-7.1-0.1-0.53","307","","j","","","","","","","","","","","","","key","j","16.684480519480353","768","428","f","false","img/C_ambi40.png","生人","prac",""
"","","","","","html-keyboard-response","120","257203","0.0-7.1-0.1-1.53","null","<span style='color:red; font-size: 70px;'>错误! </span>","null","","","","","","","","","","","","","","","","","","","","","","","feedback_test"
"","","","","","psychophysics","121","258533","0.0-7.1-0.1-0.54","330","","f","","","","","","","","","","","","","key","f","16.667679487179832","768","428","f","true","img/C_ambi40.png","自我","prac",""
"","","","","","html-keyboard-response","122","259034","0.0-7.1-0.1-1.54","null","<span style='color:GreenYellow; font-size: 70px;'>正确! </span>","null","","","","","","","","","","","","","","","","","","","","","","","feedback_test"
"","","","","","psychophysics","123","260599","0.0-7.1-0.1-0.55","545","","j","","","","","","","","","","","","","key","j","16.686010752688475","768","428","f","false","img/H_ambi40.png","朋友","prac",""
"","","","","","html-keyboard-response","124","261100","0.0-7.1-0.1-1.55","null","<span style='color:red; font-size: 70px;'>错误! </span>","null","","","","","","","","","","","","","","","","","","","","","","","feedback_test"
"","","","","","psychophysics","125","262589","0.0-7.1-0.1-0.56","487","","f","","","","","","","","","","","","","key","f","16.68734090909129","768","428","f","true","img/S_ambi40.png","自我","prac",""
"","","","","","html-keyboard-response","126","263089","0.0-7.1-0.1-1.56","null","<span style='color:GreenYellow; font-size: 70px;'>正确! </span>","null","","","","","","","","","","","","","","","","","","","","","","","feedback_test"
"","","","","","psychophysics","127","264600","0.0-7.1-0.1-0.57","509","","f","","","","","","","","","","","","","key","f","16.68345555555554","768","428","f","true","img/T_ambi40.png","をる","prac",""
"","","","","","html-keyboard-response","128","265101","0.0-7.1-0.1-1.57","null","<span style='color:GreenYellow; font-size: 70px;'>正确! </span>","null","","","","","","","","","","","","","","","","","","","","","","","feedback_test"
"","","","","","psychophysics","129","266516","0.0-7.1-0.1-0.58","401","","f","","","","","","","","","","","","","key","f","16.68245238095239","768","428","f","true","img/T_ambi40.png","をる","prac",""
"","","","","","html-keyboard-response","130","267018","0.0-7.1-0.1-1.58","null","<span style='color:GreenYellow; font-size: 70px;'>正确! </span>","null","","","","","","","","","","","","","","","","","","","","","","","feedback_test"
"","","","","","psychophysics","131","268615","0.0-7.1-0.1-0.59","596","","f","","","","","","","","","","","","","key","f","16.682723404255082","768","428","j","false","img/S_ambi40.png","生人","prac",""
"","","","","","html-keyboard-response","132","269116","0.0-7.1-0.1-1.59","null","<span style='color:red; font-size: 70px;'>错误! </span>","null","","","","","","","","","","","","","","","","","","","","","","","feedback_test"
"","","","","","psychophysics","133","270671","0.0-7.1-0.1-0.60","554","","f","","","","","","","","","","","","","key","f","16.68048913043458","768","428","f","true","img/T_ambi40.png","をる","prac",""
"","","","","","html-keyboard-response","134","271172","0.0-7.1-0.1-1.60","null","<span style='color:GreenYellow; font-size: 70px;'>正确! </span>","null","","","","","","","","","","","","","","","","","","","","","","","feedback_test"
"","","","","","psychophysics","135","272759","0.0-7.1-0.1-0.61","584","","j","","","","","","","","","","","","","key","j","16.683691489361625","768","428","j","true","img/S_ambi40.png","生人","prac",""
"","","","","","html-keyboard-response","136","273260","0.0-7.1-0.1-1.61","null","<span style='color:GreenYellow; font-size: 70px;'>正确! </span>","null","","","","","","","","","","","","","","","","","","","","","","","feedback_test"
"","","","","","psychophysics","137","274837","0.0-7.1-0.1-0.62","576","","j","","","","","","","","","","","","","key","j","16.682569892473033","768","428","j","true","img/H_ambi40.png","自我","prac",""
"","","","","","html-keyboard-response","138","275338","0.0-7.1-0.1-1.62","null","<span style='color:GreenYellow; font-size: 70px;'>正确! </span>","null","","","","","","","","","","","","","","","","","","","","","","","feedback_test"
"","","","","","psychophysics","139","276918","0.0-7.1-0.1-0.63","578","","f","","","","","","","","","","","","","key","f","16.685393617021543","768","428","f","true","img/H_ambi40.png","生人","prac",""
"","","","","","html-keyboard-response","140","277419","0.0-7.1-0.1-1.63","null","<span style='color:GreenYellow; font-size: 70px;'>正确! </span>","null","","","","","","","","","","","","","","","","","","","","","","","feedback_test"
"","","","","","html-keyboard-response","141","291070","0.0-8.0","13650","<style>.context{color:white; font-size: 35px; line-height:40px}</style>                          <div><p class='context'>您正确回答了72% 的试次。</p ><p class='context'>您的平均反应时为448毫秒。</p ><p class='context'>恭喜您完成练习。按任意键进入正式实验。</p ><p class='footer' style='font-size: 35px; line-height:40px;'>请在进入正式实验实验之前将您的<span style='color: lightgreen;'>食指</span>放在电脑键盘的相应键位上进行按键。</p >","j","","","","","","","","","","","","","","","","","","","","","","",""
"","","","","","psychophysics","142","292717","0.0-9.0-0.0-0.0-0.0-0.0","643","","j","","","","","","","","","","","","","key","j","16.68460204081648","768","428","f","false","img/S_ambi40.png","朋友","same",""
"","","","","","html-keyboard-response","143","293219","0.0-9.0-0.0-0.0-0.0-1.0","null","<span style='color:red; font-size: 70px;'>错误! </span>","null","","","","","","","","","","","","","","","","","","","","","","","feedback_test"
"","","","","","psychophysics","144","294709","0.0-9.0-0.0-0.0-0.0-0.1","489","","f","","","","","","","","","","","","","key","f","16.687715909091242","768","428","j","false","img/C_ambi40.png","朋友","same",""
"","","","","","html-keyboard-response","145","295212","0.0-9.0-0.0-0.0-0.0-1.1","null","<span style='color:red; font-size: 70px;'>错误! </span>","null","","","","","","","","","","","","","","","","","","","","","","","feedback_test"
"","","","","","psychophysics","146","296726","0.0-9.0-0.0-0.0-0.0-0.2","513","","f","","","","","","","","","","","","","key","f","16.67708988764109","768","428","f","true","img/T_ambi40.png","をる","same",""
"","","","","","html-keyboard-response","147","297227","0.0-9.0-0.0-0.0-0.0-1.2","null","<span style='color:GreenYellow; font-size: 70px;'>正确! </span>","null","","","","","","","","","","","","","","","","","","","","","","","feedback_test"
"","","","","","psychophysics","148","298970","0.0-9.0-0.0-0.0-0.0-0.3","725","","f","","","","","","","","","","","","","key","f","16.68349038461579","768","428","j","false","img/S_ambi40.png","生人","same",""
"","","","","","html-keyboard-response","149","299471","0.0-9.0-0.0-0.0-0.0-1.3","null","<span style='color:red; font-size: 70px;'>错误! </span>","null","","","","","","","","","","","","","","","","","","","","","","","feedback_test"
"","","","","","psychophysics","150","300905","0.0-9.0-0.0-0.0-0.0-0.4","433","","j","","","","","","","","","","","","","key","j","16.682988235293475","768","428","j","true","img/H_ambi40.png","自我","same",""
"","","","","","html-keyboard-response","151","301406","0.0-9.0-0.0-0.0-0.0-1.4","null","<span style='color:GreenYellow; font-size: 70px;'>正确! </span>","null","","","","","","","","","","","","","","","","","","","","","","","feedback_test"
"","","","","","psychophysics","152","303007","0.0-9.0-0.0-0.0-0.0-0.5","600","","j","","","","","","","","","","","","","key","j","16.684851063830294","768","428","j","true","img/S_ambi40.png","生人","same",""
"","","","","","html-keyboard-response","153","303508","0.0-9.0-0.0-0.0-0.0-1.5","null","<span style='color:GreenYellow; font-size: 70px;'>正确! </span>","null","","","","","","","","","","","","","","","","","","","","","","","feedback_test"
"","","","","","psychophysics","154","305178","0.0-9.0-0.0-0.0-0.0-0.6","663","","f","","","","","","","","","","","","","key","f","16.687202020202566","768","428","f","true","img/S_ambi40.png","自我","same",""
"","","","","","html-keyboard-response","155","305680","0.0-9.0-0.0-0.0-0.0-1.6","null","<span style='color:GreenYellow; font-size: 70px;'>正确! </span>","null","","","","","","","","","","","","","","","","","","","","","","","feedback_test"
"","","","","","psychophysics","156","307182","0.0-9.0-0.0-0.0-0.0-0.7","500","","f","","","","","","","","","","","","","key","f","16.685292134831236","768","428","f","true","img/T_ambi40.png","をる","same",""
"","","","","","html-keyboard-response","157","307682","0.0-9.0-0.0-0.0-0.0-1.7","null","<span style='color:GreenYellow; font-size: 70px;'>正确! </span>","null","","","","","","","","","","","","","","","","","","","","","","","feedback_test"
"","","","","","psychophysics","158","309208","0.0-9.0-0.0-0.0-0.0-0.8","525","","j","","","","","","","","","","","","","key","j","16.682733333333292","768","428","f","false","img/C_ambi40.png","自我","same",""
"","","","","","html-keyboard-response","159","309709","0.0-9.0-0.0-0.0-0.0-1.8","null","<span style='color:red; font-size: 70px;'>错误! </span>","null","","","","","","","","","","","","","","","","","","","","","","","feedback_test"
"","","","","","psychophysics","160","311304","0.0-9.0-0.0-0.0-0.0-0.9","577","","j","","","","","","","","","","","","","key","j","16.685599999999823","768","428","f","false","img/C_ambi40.png","生人","same",""
"","","","","","html-keyboard-response","161","311805","0.0-9.0-0.0-0.0-0.0-1.9","null","<span style='color:red; font-size: 70px;'>错误! </span>","null","","","","","","","","","","","","","","","","","","","","","","","feedback_test"
"","","","","","psychophysics","162","313373","0.0-9.0-0.0-0.0-0.0-0.10","567","","j","","","","","","","","","","","","","key","j","16.68404301075247","768","428","j","true","img/H_ambi40.png","自我","same",""
"","","","","","html-keyboard-response","163","313875","0.0-9.0-0.0-0.0-0.0-1.10","null","<span style='color:GreenYellow; font-size: 70px;'>正确! </span>","null","","","","","","","","","","","","","","","","","","","","","","","feedback_test"
"","","","","","psychophysics","164","315399","0.0-9.0-0.0-0.0-0.0-0.11","522","","f","","","","","","","","","","","","","key","f","16.68971111111136","768","428","f","true","img/H_ambi40.png","生人","same",""
"","","","","","html-keyboard-response","165","315900","0.0-9.0-0.0-0.0-0.0-1.11","null","<span style='color:GreenYellow; font-size: 70px;'>正确! </span>","null","","","","","","","","","","","","","","","","","","","","","","","feedback_test"
"","","","","","psychophysics","166","317499","0.0-9.0-0.0-0.0-0.0-0.12","594","","f","","","","","","","","","","","","","key","f","16.685673684210787","768","428","f","true","img/H_ambi40.png","朋友","same",""
"","","","","","html-keyboard-response","167","318001","0.0-9.0-0.0-0.0-0.0-1.12","null","<span style='color:GreenYellow; font-size: 70px;'>正确! </span>","null","","","","","","","","","","","","","","","","","","","","","","","feedback_test"
"","","","","","psychophysics","168","319555","0.0-9.0-0.0-0.0-0.0-0.13","553","","j","","","","","","","","","","","","","key","j","16.687054347826432","768","428","j","true","img/H_ambi40.png","自我","same",""
"","","","","","html-keyboard-response","169","320057","0.0-9.0-0.0-0.0-0.0-1.13","null","<span style='color:GreenYellow; font-size: 70px;'>正确! </span>","null","","","","","","","","","","","","","","","","","","","","","","","feedback_test"
"","","","","","psychophysics","170","321546","0.0-9.0-0.0-0.0-0.0-0.14","487","","f","","","","","","","","","","","","","key","f","16.679795454545953","768","428","f","true","img/T_ambi40.png","をる","same",""
"","","","","","html-keyboard-response","171","322046","0.0-9.0-0.0-0.0-0.0-1.14","null","<span style='color:GreenYellow; font-size: 70px;'>正确! </span>","null","","","","","","","","","","","","","","","","","","","","","","","feedback_test"
"","","","","","psychophysics","172","323626","0.0-9.0-0.0-0.0-0.0-0.15","571","","j","","","","","","","","","","","","","key","j","16.684688172043398","768","428","j","true","img/C_ambi40.png","朋友","same",""
"","","","","","html-keyboard-response","173","324128","0.0-9.0-0.0-0.0-0.0-1.15","null","<span style='color:GreenYellow; font-size: 70px;'>正确! </span>","null","","","","","","","","","","","","","","","","","","","","","","","feedback_test"
"","","","","","psychophysics","174","325756","0.0-9.0-0.0-0.0-0.0-0.16","627","","f","","","","","","","","","","","","","key","f","16.679416666666537","768","428","j","false","img/S_ambi40.png","生人","same",""
"","","","","","html-keyboard-response","175","326258","0.0-9.0-0.0-0.0-0.0-1.16","null","<span style='color:red; font-size: 70px;'>错误! </span>","null","","","","","","","","","","","","","","","","","","","","","","","feedback_test"
"","","","","","psychophysics","176","327819","0.0-9.0-0.0-0.0-0.0-0.17","560","","j","","","","","","","","","","","","","key","j","16.68216129032249","768","428","j","true","img/C_ambi40.png","朋友","same",""
"","","","","","html-keyboard-response","177","328321","0.0-9.0-0.0-0.0-0.0-1.17","null","<span style='color:GreenYellow; font-size: 70px;'>正确! </span>","null","","","","","","","","","","","","","","","","","","","","","","","feedback_test"
"","","","","","psychophysics","178","330097","0.0-9.0-0.0-0.0-0.0-0.18","772","","j","","","","","","","","","","","","","key","j","16.68944761904755","768","428","j","true","img/C_ambi40.png","朋友","same",""
"","","","","","html-keyboard-response","179","330599","0.0-9.0-0.0-0.0-0.0-1.18","null","<span style='color:GreenYellow; font-size: 70px;'>正确! </span>","null","","","","","","","","","","","","","","","","","","","","","","","feedback_test"
"","","","","","psychophysics","180","333103","0.0-9.0-0.0-0.0-0.0-0.19","null","","null","","","","","","","","","","","","","key","null","42.13877966101735","768","428","f","false","img/T_ambi40.png","をる","same",""
"","","","","","html-keyboard-response","181","333605","0.0-9.0-0.0-0.0-0.0-1.19","null","<span class='add_' style='color:yellow; font-size: 70px;'> 太慢! </span>","null","","","","","","","","","","","","","","","","","","","","","","","feedback_test"
"","","","","","psychophysics","182","335240","0.0-9.0-0.0-0.0-0.0-0.20","633","","f","","","","","","","","","","","","","key","f","16.676302083333212","768","428","f","true","img/T_ambi40.png","をる","same",""
"","","","","","html-keyboard-response","183","335741","0.0-9.0-0.0-0.0-0.0-1.20","null","<span style='color:GreenYellow; font-size: 70px;'>正确! </span>","null","","","","","","","","","","","","","","","","","","","","","","","feedback_test"
"","","","","","psychophysics","184","337140","0.0-9.0-0.0-0.0-0.0-0.21","398","","j","","","","","","","","","","","","","key","j","16.68496385542185","768","428","j","true","img/H_ambi40.png","自我","same",""
"","","","","","html-keyboard-response","185","337641","0.0-9.0-0.0-0.0-0.0-1.21","null","<span style='color:GreenYellow; font-size: 70px;'>正确! </span>","null","","","","","","","","","","","","","","","","","","","","","","","feedback_test"
"","","","","","psychophysics","186","339206","0.0-9.0-0.0-0.0-0.0-0.22","563","","f","","","","","","","","","","","","","key","f","16.68644086021482","768","428","j","false","img/C_ambi40.png","朋友","same",""
"","","","","","html-keyboard-response","187","339707","0.0-9.0-0.0-0.0-0.0-1.22","null","<span style='color:red; font-size: 70px;'>错误! </span>","null","","","","","","","","","","","","","","","","","","","","","","","feedback_test"
"","","","","","psychophysics","188","341178","0.0-9.0-0.0-0.0-0.0-0.23","452","","j","","","","","","","","","","","","","key","j","16.684908045977007","768","428","f","false","img/H_ambi40.png","朋友","same",""
"","","","","","html-keyboard-response","189","341678","0.0-9.0-0.0-0.0-0.0-1.23","null","<span style='color:red; font-size: 70px;'>错误! </span>","null","","","","","","","","","","","","","","","","","","","","","","","feedback_test"
"","","","","","psychophysics","190","343309","0.0-9.0-0.0-0.0-0.0-0.24","628","","j","","","","","","","","","","","","","key","j","19.041694117646994","768","428","f","false","img/C_ambi40.png","自我","same",""
"","","","","","html-keyboard-response","191","343812","0.0-9.0-0.0-0.0-0.0-1.24","null","<span style='color:red; font-size: 70px;'>错误! </span>","null","","","","","","","","","","","","","","","","","","","","","","","feedback_test"
"","","","","","psychophysics","192","345343","0.0-9.0-0.0-0.0-0.0-0.25","531","","f","","","","","","","","","","","","","key","f","19.466423076923","768","428","j","false","img/C_ambi40.png","朋友","same",""
"","","","","","html-keyboard-response","193","345844","0.0-9.0-0.0-0.0-0.0-1.25","null","<span style='color:red; font-size: 70px;'>错误! </span>","null","","","","","","","","","","","","","","","","","","","","","","","feedback_test"
"","","","","","psychophysics","194","347492","0.0-9.0-0.0-0.0-0.0-0.26","646","","f","","","","","","","","","","","","","key","f","16.684000000000065","768","428","j","false","img/S_ambi40.png","生人","same",""
"","","","","","html-keyboard-response","195","347993","0.0-9.0-0.0-0.0-0.0-1.26","null","<span style='color:red; font-size: 70px;'>错误! </span>","null","","","","","","","","","","","","","","","","","","","","","","","feedback_test"
"","","","","","psychophysics","196","349434","0.0-9.0-0.0-0.0-0.0-0.27","440","","j","","","","","","","","","","","","","key","j","16.68316470588256","768","428","j","true","img/H_ambi40.png","自我","same",""
"","","","","","html-keyboard-response","197","349936","0.0-9.0-0.0-0.0-0.0-1.27","null","<span style='color:GreenYellow; font-size: 70px;'>正确! </span>","null","","","","","","","","","","","","","","","","","","","","","","","feedback_test"
"","","","","","psychophysics","198","351416","0.0-9.0-0.0-0.0-0.0-0.28","480","","f","","","","","","","","","","","","","key","f","16.685352272727126","768","428","f","true","img/C_ambi40.png","生人","same",""
"","","","","","html-keyboard-response","199","351917","0.0-9.0-0.0-0.0-0.0-1.28","null","<span style='color:GreenYellow; font-size: 70px;'>正确! </span>","null","","","","","","","","","","","","","","","","","","","","","","","feedback_test"
"","","","","","psychophysics","200","353525","0.0-9.0-0.0-0.0-0.0-0.29","590","","j","","","","","","","","","","","","","key","j","16.684273684210464","768","428","j","true","img/S_ambi40.png","生人","same",""
"","","","","","html-keyboard-response","201","354026","0.0-9.0-0.0-0.0-0.0-1.29","null","<span style='color:GreenYellow; font-size: 70px;'>正确! </span>","null","","","","","","","","","","","","","","","","","","","","","","","feedback_test"
"","","","","","psychophysics","202","355761","0.0-9.0-0.0-0.0-0.0-0.30","734","","f","","","","","","","","","","","","","key","f","16.68645631067977","768","428","f","true","img/S_ambi40.png","朋友","same",""
"","","","","","html-keyboard-response","203","356261","0.0-9.0-0.0-0.0-0.0-1.30","null","<span style='color:GreenYellow; font-size: 70px;'>正确! </span>","null","","","","","","","","","","","","","","","","","","","","","","","feedback_test"
"","","","","","psychophysics","204","357861","0.0-9.0-0.0-0.0-0.0-0.31","598","","f","","","","","","","","","","","","","key","f","16.684473684210158","768","428","f","true","img/H_ambi40.png","生人","same",""
"","","","","","html-keyboard-response","205","358363","0.0-9.0-0.0-0.0-0.0-1.31","null","<span style='color:GreenYellow; font-size: 70px;'>正确! </span>","null","","","","","","","","","","","","","","","","","","","","","","","feedback_test"
"","","","","","psychophysics","206","359981","0.0-9.0-0.0-0.0-0.0-0.32","596","","j","","","","","","","","","","","","","key","j","16.684875000000222","768","428","f","false","img/S_ambi40.png","自我","same",""
"","","","","","html-keyboard-response","207","360482","0.0-9.0-0.0-0.0-0.0-1.32","null","<span style='color:red; font-size: 70px;'>错误! </span>","null","","","","","","","","","","","","","","","","","","","","","","","feedback_test"
"","","","","","psychophysics","208","362038","0.0-9.0-0.0-0.0-0.0-0.33","555","","j","","","","","","","","","","","","","key","j","16.68407526881727","768","428","j","true","img/H_ambi40.png","自我","same",""
"","","","","","html-keyboard-response","209","362539","0.0-9.0-0.0-0.0-0.0-1.33","null","<span style='color:GreenYellow; font-size: 70px;'>正确! </span>","null","","","","","","","","","","","","","","","","","","","","","","","feedback_test"
"","","","","","psychophysics","210","364010","0.0-9.0-0.0-0.0-0.0-0.34","471","","f","","","","","","","","","","","","","key","f","16.683620689655573","768","428","f","true","img/T_ambi40.png","をる","same",""
"","","","","","html-keyboard-response","211","364511","0.0-9.0-0.0-0.0-0.0-1.34","null","<span style='color:GreenYellow; font-size: 70px;'>正确! </span>","null","","","","","","","","","","","","","","","","","","","","","","","feedback_test"
"","","","","","psychophysics","212","366218","0.0-9.0-0.0-0.0-0.0-0.35","682","","f","","","","","","","","","","","","","key","f","16.68541584158429","768","428","j","false","img/S_ambi40.png","生人","same",""
"","","","","","html-keyboard-response","213","366719","0.0-9.0-0.0-0.0-0.0-1.35","null","<span style='color:red; font-size: 70px;'>错误! </span>","null","","","","","","","","","","","","","","","","","","","","","","","feedback_test"
"","","","","","psychophysics","214","368323","0.0-9.0-0.0-0.0-0.0-0.36","602","","j","","","","","","","","","","","","","key","j","16.68504210526344","768","428","f","false","img/H_ambi40.png","生人","same",""
"","","","","","html-keyboard-response","215","368824","0.0-9.0-0.0-0.0-0.0-1.36","null","<span style='color:red; font-size: 70px;'>错误! </span>","null","","","","","","","","","","","","","","","","","","","","","","","feedback_test"
"","","","","","psychophysics","216","370543","0.0-9.0-0.0-0.0-0.0-0.37","719","","j","","","","","","","","","","","","","key","j","16.68530392156875","768","428","j","true","img/C_ambi40.png","朋友","same",""
"","","","","","html-keyboard-response","217","371044","0.0-9.0-0.0-0.0-0.0-1.37","null","<span style='color:GreenYellow; font-size: 70px;'>正确! </span>","null","","","","","","","","","","","","","","","","","","","","","","","feedback_test"
"","","","","","psychophysics","218","372619","0.0-9.0-0.0-0.0-0.0-0.38","574","","f","","","","","","","","","","","","","key","f","16.68486170212743","768","428","j","false","img/S_ambi40.png","生人","same",""
"","","","","","html-keyboard-response","219","373121","0.0-9.0-0.0-0.0-0.0-1.38","null","<span style='color:red; font-size: 70px;'>错误! </span>","null","","","","","","","","","","","","","","","","","","","","","","","feedback_test"
"","","","","","psychophysics","220","374696","0.0-9.0-0.0-0.0-0.0-0.39","574","","j","","","","","","","","","","","","","key","j","16.687075268817058","768","428","j","true","img/H_ambi40.png","自我","same",""
"","","","","","html-keyboard-response","221","375197","0.0-9.0-0.0-0.0-0.0-1.39","null","<span style='color:GreenYellow; font-size: 70px;'>正确! </span>","null","","","","","","","","","","","","","","","","","","","","","","","feedback_test"
"","","","","","psychophysics","222","376791","0.0-9.0-0.0-0.0-0.0-0.40","594","","j","","","","","","","","","","","","","key","j","16.686305263157518","768","428","j","true","img/H_ambi40.png","自我","same",""
"","","","","","html-keyboard-response","223","377292","0.0-9.0-0.0-0.0-0.0-1.40","null","<span style='color:GreenYellow; font-size: 70px;'>正确! </span>","null","","","","","","","","","","","","","","","","","","","","","","","feedback_test"
"","","","","","psychophysics","224","378845","0.0-9.0-0.0-0.0-0.0-0.41","530","","f","","","","","","","","","","","","","key","f","16.6845434782609","768","428","f","true","img/S_ambi40.png","朋友","same",""
"","","","","","html-keyboard-response","225","379346","0.0-9.0-0.0-0.0-0.0-1.41","null","<span style='color:GreenYellow; font-size: 70px;'>正确! </span>","null","","","","","","","","","","","","","","","","","","","","","","","feedback_test"
"","","","","","psychophysics","226","380916","0.0-9.0-0.0-0.0-0.0-0.42","568","","j","","","","","","","","","","","","","key","j","16.685086021505256","768","428","f","false","img/H_ambi40.png","朋友","same",""
"","","","","","html-keyboard-response","227","381417","0.0-9.0-0.0-0.0-0.0-1.42","null","<span style='color:red; font-size: 70px;'>错误! </span>","null","","","","","","","","","","","","","","","","","","","","","","","feedback_test"
"","","","","","psychophysics","228","382967","0.0-9.0-0.0-0.0-0.0-0.43","548","","j","","","","","","","","","","","","","key","j","16.685043478260607","768","428","j","true","img/C_ambi40.png","朋友","same",""
"","","","","","html-keyboard-response","229","383469","0.0-9.0-0.0-0.0-0.0-1.43","null","<span style='color:GreenYellow; font-size: 70px;'>正确! </span>","null","","","","","","","","","","","","","","","","","","","","","","","feedback_test"
"","","","","","psychophysics","230","384982","0.0-9.0-0.0-0.0-0.0-0.44","486","","f","","","","","","","","","","","","","key","f","16.683255555555743","768","428","f","true","img/T_ambi40.png","をる","same",""
"","","","","","html-keyboard-response","231","385483","0.0-9.0-0.0-0.0-0.0-1.44","null","<span style='color:GreenYellow; font-size: 70px;'>正确! </span>","null","","","","","","","","","","","","","","","","","","","","","","","feedback_test"
"","","","","","psychophysics","232","387127","0.0-9.0-0.0-0.0-0.0-0.45","642","","f","","","","","","","","","","","","","key","f","16.684298969072543","768","428","f","true","img/C_ambi40.png","生人","same",""
"","","","","","html-keyboard-response","233","387628","0.0-9.0-0.0-0.0-0.0-1.45","null","<span style='color:GreenYellow; font-size: 70px;'>正确! </span>","null","","","","","","","","","","","","","","","","","","","","","","","feedback_test"
"","","","","","psychophysics","234","389305","0.0-9.0-0.0-0.0-0.0-0.46","676","","j","","","","","","","","","","","","","key","j","16.68551000000036","768","428","j","true","img/C_ambi40.png","朋友","same",""
"","","","","","html-keyboard-response","235","389805","0.0-9.0-0.0-0.0-0.0-1.46","null","<span style='color:GreenYellow; font-size: 70px;'>正确! </span>","null","","","","","","","","","","","","","","","","","","","","","","","feedback_test"
"","","","","","psychophysics","236","391467","0.0-9.0-0.0-0.0-0.0-0.47","642","","f","","","","","","","","","","","","","key","f","16.684489795918534","768","428","f","true","img/S_ambi40.png","自我","same",""
"","","","","","html-keyboard-response","237","391968","0.0-9.0-0.0-0.0-0.0-1.47","null","<span style='color:GreenYellow; font-size: 70px;'>正确! </span>","null","","","","","","","","","","","","","","","","","","","","","","","feedback_test"
"","","","","","psychophysics","238","393648","0.0-9.0-0.0-0.0-0.0-0.48","679","","j","","","","","","","","","","","","","key","j","16.67616161616164","768","428","f","false","img/C_ambi40.png","自我","same",""
"","","","","","html-keyboard-response","239","394150","0.0-9.0-0.0-0.0-0.0-1.48","null","<span style='color:red; font-size: 70px;'>错误! </span>","null","","","","","","","","","","","","","","","","","","","","","","","feedback_test"
"","","","","","psychophysics","240","395850","0.0-9.0-0.0-0.0-0.0-0.49","699","","j","","","","","","","","","","","","","key","j","16.685118811881047","768","428","j","true","img/S_ambi40.png","生人","same",""
"","","","","","html-keyboard-response","241","396351","0.0-9.0-0.0-0.0-0.0-1.49","null","<span style='color:GreenYellow; font-size: 70px;'>正确! </span>","null","","","","","","","","","","","","","","","","","","","","","","","feedback_test"
"","","","","","psychophysics","242","397874","0.0-9.0-0.0-0.0-0.0-0.50","509","","f","","","","","","","","","","","","","key","f","16.683588888889386","768","428","f","true","img/T_ambi40.png","をる","same",""
"","","","","","html-keyboard-response","243","398375","0.0-9.0-0.0-0.0-0.0-1.50","null","<span style='color:GreenYellow; font-size: 70px;'>正确! </span>","null","","","","","","","","","","","","","","","","","","","","","","","feedback_test"
"","","","","","psychophysics","244","399850","0.0-9.0-0.0-0.0-0.0-0.51","474","","f","","","","","","","","","","","","","key","f","16.686590909090725","768","428","f","true","img/T_ambi40.png","をる","same",""
"","","","","","html-keyboard-response","245","400351","0.0-9.0-0.0-0.0-0.0-1.51","null","<span style='color:GreenYellow; font-size: 70px;'>正确! </span>","null","","","","","","","","","","","","","","","","","","","","","","","feedback_test"
"","","","","","psychophysics","246","402225","0.0-9.0-0.0-0.0-0.0-0.52","873","","j","","","","","","","","","","","","","key","j","16.683891891891992","768","428","j","true","img/S_ambi40.png","生人","same",""
"","","","","","html-keyboard-response","247","402725","0.0-9.0-0.0-0.0-0.0-1.52","null","<span style='color:GreenYellow; font-size: 70px;'>正确! </span>","null","","","","","","","","","","","","","","","","","","","","","","","feedback_test"
"","","","","","psychophysics","248","404341","0.0-9.0-0.0-0.0-0.0-0.53","586","","j","","","","","","","","","","","","","key","j","16.68477083333346","768","428","j","true","img/H_ambi40.png","自我","same",""
"","","","","","html-keyboard-response","249","404841","0.0-9.0-0.0-0.0-0.0-1.53","null","<span style='color:GreenYellow; font-size: 70px;'>正确! </span>","null","","","","","","","","","","","","","","","","","","","","","","","feedback_test"
"","","","","","psychophysics","250","406381","0.0-9.0-0.0-0.0-0.0-0.54","538","","f","","","","","","","","","","","","","key","f","16.684692307691996","768","428","j","false","img/S_ambi40.png","生人","same",""
"","","","","","html-keyboard-response","251","406882","0.0-9.0-0.0-0.0-0.0-1.54","null","<span style='color:red; font-size: 70px;'>错误! </span>","null","","","","","","","","","","","","","","","","","","","","","","","feedback_test"
"","","","","","psychophysics","252","408646","0.0-9.0-0.0-0.0-0.0-0.55","763","","j","","","","","","","","","","","","","key","j","16.684619047619137","768","428","j","true","img/H_ambi40.png","自我","same",""
"","","","","","html-keyboard-response","253","409147","0.0-9.0-0.0-0.0-0.0-1.55","null","<span style='color:GreenYellow; font-size: 70px;'>正确! </span>","null","","","","","","","","","","","","","","","","","","","","","","","feedback_test"
"","","","","","psychophysics","254","410772","0.0-9.0-0.0-0.0-0.0-0.56","597","","f","","","","","","","","","","","","","key","f","16.687135416666326","768","428","f","true","img/C_ambi40.png","自我","same",""
"","","","","","html-keyboard-response","255","411273","0.0-9.0-0.0-0.0-0.0-1.56","null","<span style='color:GreenYellow; font-size: 70px;'>正确! </span>","null","","","","","","","","","","","","","","","","","","","","","","","feedback_test"
"","","","","","psychophysics","256","412815","0.0-9.0-0.0-0.0-0.0-0.57","540","","f","","","","","","","","","","","","","key","f","16.674153846153825","768","428","f","true","img/T_ambi40.png","をる","same",""
"","","","","","html-keyboard-response","257","413317","0.0-9.0-0.0-0.0-0.0-1.57","null","<span style='color:GreenYellow; font-size: 70px;'>正确! </span>","null","","","","","","","","","","","","","","","","","","","","","","","feedback_test"
"","","","","","psychophysics","258","415118","0.0-9.0-0.0-0.0-0.0-0.58","799","","f","","","","","","","","","","","","","key","f","16.684018691588808","768","428","f","true","img/S_ambi40.png","朋友","same",""
"","","","","","html-keyboard-response","259","415618","0.0-9.0-0.0-0.0-0.0-1.58","null","<span style='color:GreenYellow; font-size: 70px;'>正确! </span>","null","","","","","","","","","","","","","","","","","","","","","","","feedback_test"
"","","","","","psychophysics","260","417043","0.0-9.0-0.0-0.0-0.0-0.59","418","","j","","","","","","","","","","","","","key","j","16.685178571428487","768","428","j","true","img/C_ambi40.png","朋友","same",""
"","","","","","html-keyboard-response","261","417544","0.0-9.0-0.0-0.0-0.0-1.59","null","<span style='color:GreenYellow; font-size: 70px;'>正确! </span>","null","","","","","","","","","","","","","","","","","","","","","","","feedback_test"
"","","","","","psychophysics","262","419130","0.0-9.0-0.0-0.0-0.0-0.60","584","","f","","","","","","","","","","","","","key","f","16.686542553191835","768","428","f","true","img/S_ambi40.png","自我","same",""
"","","","","","html-keyboard-response","263","419631","0.0-9.0-0.0-0.0-0.0-1.60","null","<span style='color:GreenYellow; font-size: 70px;'>正确! </span>","null","","","","","","","","","","","","","","","","","","","","","","","feedback_test"
"","","","","","psychophysics","264","421211","0.0-9.0-0.0-0.0-0.0-0.61","578","","j","","","","","","","","","","","","","key","j","16.686989361702025","768","428","j","true","img/H_ambi40.png","自我","same",""
"","","","","","html-keyboard-response","265","421713","0.0-9.0-0.0-0.0-0.0-1.61","null","<span style='color:GreenYellow; font-size: 70px;'>正确! </span>","null","","","","","","","","","","","","","","","","","","","","","","","feedback_test"
"","","","","","psychophysics","266","423216","0.0-9.0-0.0-0.0-0.0-0.62","500","","f","","","","","","","","","","","","","key","f","16.683707865168277","768","428","f","true","img/H_ambi40.png","朋友","same",""
"","","","","","html-keyboard-response","267","423717","0.0-9.0-0.0-0.0-0.0-1.62","null","<span style='color:GreenYellow; font-size: 70px;'>正确! </span>","null","","","","","","","","","","","","","","","","","","","","","","","feedback_test"
"","","","","","psychophysics","268","425217","0.0-9.0-0.0-0.0-0.0-0.63","499","","f","","","","","","","","","","","","","key","f","16.68689887640472","768","428","f","true","img/T_ambi40.png","をる","same",""
"","","","","","html-keyboard-response","269","425718","0.0-9.0-0.0-0.0-0.0-1.63","null","<span style='color:GreenYellow; font-size: 70px;'>正确! </span>","null","","","","","","","","","","","","","","","","","","","","","","","feedback_test"
"","","","","","psychophysics","270","427378","0.0-9.0-0.0-0.0-0.0-0.64","659","","j","","","","","","","","","","","","","key","j","16.685060606060567","768","428","f","false","img/H_ambi40.png","生人","same",""
"","","","","","html-keyboard-response","271","427879","0.0-9.0-0.0-0.0-0.0-1.64","null","<span style='color:red; font-size: 70px;'>错误! </span>","null","","","","","","","","","","","","","","","","","","","","","","","feedback_test"
"","","","","","psychophysics","272","429433","0.0-9.0-0.0-0.0-0.0-0.65","538","","f","","","","","","","","","","","","","key","f","16.68493478260833","768","428","j","false","img/S_ambi40.png","生人","same",""
"","","","","","html-keyboard-response","273","429934","0.0-9.0-0.0-0.0-0.0-1.65","null","<span style='color:red; font-size: 70px;'>错误! </span>","null","","","","","","","","","","","","","","","","","","","","","","","feedback_test"
"","","","","","psychophysics","274","431419","0.0-9.0-0.0-0.0-0.0-0.66","484","","j","","","","","","","","","","","","","key","j","16.68369662921334","768","428","f","false","img/C_ambi40.png","生人","same",""
"","","","","","html-keyboard-response","275","431920","0.0-9.0-0.0-0.0-0.0-1.66","null","<span style='color:red; font-size: 70px;'>错误! </span>","null","","","","","","","","","","","","","","","","","","","","","","","feedback_test"
"","","","","","psychophysics","276","433460","0.0-9.0-0.0-0.0-0.0-0.67","539","","j","","","","","","","","","","","","","key","j","16.686021978021497","768","428","j","true","img/H_ambi40.png","自我","same",""
"","","","","","html-keyboard-response","277","433961","0.0-9.0-0.0-0.0-0.0-1.67","null","<span style='color:GreenYellow; font-size: 70px;'>正确! </span>","null","","","","","","","","","","","","","","","","","","","","","","","feedback_test"
"","","","","","psychophysics","278","435467","0.0-9.0-0.0-0.0-0.0-0.68","482","","f","","","","","","","","","","","","","key","f","16.686629213482988","768","428","f","true","img/T_ambi40.png","をる","same",""
"","","","","","html-keyboard-response","279","435968","0.0-9.0-0.0-0.0-0.0-1.68","null","<span style='color:GreenYellow; font-size: 70px;'>正确! </span>","null","","","","","","","","","","","","","","","","","","","","","","","feedback_test"
"","","","","","psychophysics","280","437572","0.0-9.0-0.0-0.0-0.0-0.69","603","","j","","","","","","","","","","","","","key","j","16.683642105263118","768","428","j","true","img/C_ambi40.png","朋友","same",""
"","","","","","html-keyboard-response","281","438073","0.0-9.0-0.0-0.0-0.0-1.69","null","<span style='color:GreenYellow; font-size: 70px;'>正确! </span>","null","","","","","","","","","","","","","","","","","","","","","","","feedback_test"
"","","","","","psychophysics","282","439693","0.0-9.0-0.0-0.0-0.0-0.70","620","","f","","","","","","","","","","","","","key","f","16.683770833333256","768","428","j","false","img/C_ambi40.png","朋友","same",""
"","","","","","html-keyboard-response","283","440194","0.0-9.0-0.0-0.0-0.0-1.70","null","<span style='color:red; font-size: 70px;'>错误! </span>","null","","","","","","","","","","","","","","","","","","","","","","","feedback_test"
"","","","","","psychophysics","284","441757","0.0-9.0-0.0-0.0-0.0-0.71","561","","f","","","","","","","","","","","","","key","f","16.683467391303882","768","428","j","false","img/S_ambi40.png","生人","same",""
"","","","","","html-keyboard-response","285","442258","0.0-9.0-0.0-0.0-0.0-1.71","null","<span style='color:red; font-size: 70px;'>错误! </span>","null","","","","","","","","","","","","","","","","","","","","","","","feedback_test"
"","","","","","psychophysics","286","443857","0.0-9.0-0.0-0.0-0.0-0.72","598","","j","","","","","","","","","","","","","key","j","16.67488297872354","768","428","j","true","img/C_ambi40.png","朋友","same",""
"","","","","","html-keyboard-response","287","444359","0.0-9.0-0.0-0.0-0.0-1.72","null","<span style='color:GreenYellow; font-size: 70px;'>正确! </span>","null","","","","","","","","","","","","","","","","","","","","","","","feedback_test"
"","","","","","psychophysics","288","446050","0.0-9.0-0.0-0.0-0.0-0.73","691","","f","","","","","","","","","","","","","key","f","16.687049504950423","768","428","j","false","img/C_ambi40.png","朋友","same",""
"","","","","","html-keyboard-response","289","446551","0.0-9.0-0.0-0.0-0.0-1.73","null","<span style='color:red; font-size: 70px;'>错误! </span>","null","","","","","","","","","","","","","","","","","","","","","","","feedback_test"
"","","","","","psychophysics","290","448124","0.0-9.0-0.0-0.0-0.0-0.74","569","","f","","","","","","","","","","","","","key","f","16.68638709677391","768","428","j","false","img/S_ambi40.png","生人","same",""
"","","","","","html-keyboard-response","291","448625","0.0-9.0-0.0-0.0-0.0-1.74","null","<span style='color:red; font-size: 70px;'>错误! </span>","null","","","","","","","","","","","","","","","","","","","","","","","feedback_test"
"","","","","","psychophysics","292","450100","0.0-9.0-0.0-0.0-0.0-0.75","474","","f","","","","","","","","","","","","","key","f","16.683643678161076","768","428","f","true","img/T_ambi40.png","をる","same",""
"","","","","","html-keyboard-response","293","450601","0.0-9.0-0.0-0.0-0.0-1.75","null","<span style='color:GreenYellow; font-size: 70px;'>正确! </span>","null","","","","","","","","","","","","","","","","","","","","","","","feedback_test"
"","","","","","psychophysics","294","452060","0.0-9.0-0.0-0.0-0.0-0.76","458","","j","","","","","","","","","","","","","key","j","16.683627906976927","768","428","j","true","img/H_ambi40.png","自我","same",""
"","","","","","html-keyboard-response","295","452561","0.0-9.0-0.0-0.0-0.0-1.76","null","<span style='color:GreenYellow; font-size: 70px;'>正确! </span>","null","","","","","","","","","","","","","","","","","","","","","","","feedback_test"
"","","","","","psychophysics","296","454097","0.0-9.0-0.0-0.0-0.0-0.77","510","","f","","","","","","","","","","","","","key","f","16.6838791208792","768","428","f","true","img/H_ambi40.png","生人","same",""
"","","","","","html-keyboard-response","297","454597","0.0-9.0-0.0-0.0-0.0-1.77","null","<span style='color:GreenYellow; font-size: 70px;'>正确! </span>","null","","","","","","","","","","","","","","","","","","","","","","","feedback_test"
"","","","","","psychophysics","298","456313","0.0-9.0-0.0-0.0-0.0-0.78","714","","f","","","","","","","","","","","","","key","f","16.684784313725473","768","428","j","false","img/S_ambi40.png","生人","same",""
"","","","","","html-keyboard-response","299","456814","0.0-9.0-0.0-0.0-0.0-1.78","null","<span style='color:red; font-size: 70px;'>错误! </span>","null","","","","","","","","","","","","","","","","","","","","","","","feedback_test"
"","","","","","psychophysics","300","458258","0.0-9.0-0.0-0.0-0.0-0.79","442","","j","","","","","","","","","","","","","key","j","16.684823529411325","768","428","j","true","img/S_ambi40.png","生人","same",""
"","","","","","html-keyboard-response","301","458758","0.0-9.0-0.0-0.0-0.0-1.79","null","<span style='color:GreenYellow; font-size: 70px;'>正确! </span>","null","","","","","","","","","","","","","","","","","","","","","","","feedback_test"
"","","","","","psychophysics","302","460343","0.0-9.0-0.0-0.0-0.0-0.80","577","","f","","","","","","","","","","","","","key","f","16.684893617021327","768","428","f","true","img/C_ambi40.png","生人","same",""
"","","","","","html-keyboard-response","303","460844","0.0-9.0-0.0-0.0-0.0-1.80","null","<span style='color:GreenYellow; font-size: 70px;'>正确! </span>","null","","","","","","","","","","","","","","","","","","","","","","","feedback_test"
"","","","","","psychophysics","304","462439","0.0-9.0-0.0-0.0-0.0-0.81","594","","j","","","","","","","","","","","","","key","j","16.68477894736846","768","428","j","true","img/H_ambi40.png","自我","same",""
"","","","","","html-keyboard-response","305","462940","0.0-9.0-0.0-0.0-0.0-1.81","null","<span style='color:GreenYellow; font-size: 70px;'>正确! </span>","null","","","","","","","","","","","","","","","","","","","","","","","feedback_test"
"","","","","","psychophysics","306","464660","0.0-9.0-0.0-0.0-0.0-0.82","717","","f","","","","","","","","","","","","","key","f","16.685549019607624","768","428","f","true","img/C_ambi40.png","自我","same",""
"","","","","","html-keyboard-response","307","465161","0.0-9.0-0.0-0.0-0.0-1.82","null","<span style='color:GreenYellow; font-size: 70px;'>正确! </span>","null","","","","","","","","","","","","","","","","","","","","","","","feedback_test"
"","","","","","psychophysics","308","466796","0.0-9.0-0.0-0.0-0.0-0.83","611","","f","","","","","","","","","","","","","key","f","16.68375257731982","768","428","f","true","img/S_ambi40.png","自我","same",""
"","","","","","html-keyboard-response","309","467297","0.0-9.0-0.0-0.0-0.0-1.83","null","<span style='color:GreenYellow; font-size: 70px;'>正确! </span>","null","","","","","","","","","","","","","","","","","","","","","","","feedback_test"
"","","","","","psychophysics","310","468921","0.0-9.0-0.0-0.0-0.0-0.84","621","","j","","","","","","","","","","","","","key","j","16.683572916666282","768","428","j","true","img/C_ambi40.png","朋友","same",""
"","","","","","html-keyboard-response","311","469422","0.0-9.0-0.0-0.0-0.0-1.84","null","<span style='color:GreenYellow; font-size: 70px;'>正确! </span>","null","","","","","","","","","","","","","","","","","","","","","","","feedback_test"
"","","","","","psychophysics","312","470952","0.0-9.0-0.0-0.0-0.0-0.85","528","","f","","","","","","","","","","","","","key","f","16.68360000000038","768","428","f","true","img/T_ambi40.png","をる","same",""
"","","","","","html-keyboard-response","313","471453","0.0-9.0-0.0-0.0-0.0-1.85","null","<span style='color:GreenYellow; font-size: 70px;'>正确! </span>","null","","","","","","","","","","","","","","","","","","","","","","","feedback_test"
"","","","","","psychophysics","314","473038","0.0-9.0-0.0-0.0-0.0-0.86","583","","j","","","","","","","","","","","","","key","j","16.68555319148916","768","428","f","false","img/H_ambi40.png","朋友","same",""
"","","","","","html-keyboard-response","315","473539","0.0-9.0-0.0-0.0-0.0-1.86","null","<span style='color:red; font-size: 70px;'>错误! </span>","null","","","","","","","","","","","","","","","","","","","","","","","feedback_test"
"","","","","","psychophysics","316","475080","0.0-9.0-0.0-0.0-0.0-0.87","541","","j","","","","","","","","","","","","","key","j","16.687695652173716","768","428","j","true","img/H_ambi40.png","自我","same",""
"","","","","","html-keyboard-response","317","475581","0.0-9.0-0.0-0.0-0.0-1.87","null","<span style='color:GreenYellow; font-size: 70px;'>正确! </span>","null","","","","","","","","","","","","","","","","","","","","","","","feedback_test"
"","","","","","psychophysics","318","477001","0.0-9.0-0.0-0.0-0.0-0.88","419","","f","","","","","","","","","","","","","key","f","16.68612941176466","768","428","f","true","img/T_ambi40.png","をる","same",""
"","","","","","html-keyboard-response","319","477502","0.0-9.0-0.0-0.0-0.0-1.88","null","<span style='color:GreenYellow; font-size: 70px;'>正确! </span>","null","","","","","","","","","","","","","","","","","","","","","","","feedback_test"
"","","","","","psychophysics","320","479265","0.0-9.0-0.0-0.0-0.0-0.89","750","","f","","","","","","","","","","","","","key","f","16.683576923076963","768","428","f","true","img/S_ambi40.png","朋友","same",""
"","","","","","html-keyboard-response","321","479767","0.0-9.0-0.0-0.0-0.0-1.89","null","<span style='color:GreenYellow; font-size: 70px;'>正确! </span>","null","","","","","","","","","","","","","","","","","","","","","","","feedback_test"
"","","","","","psychophysics","322","481412","0.0-9.0-0.0-0.0-0.0-0.90","644","","f","","","","","","","","","","","","","key","f","16.686773195876572","768","428","j","false","img/S_ambi40.png","生人","same",""
"","","","","","html-keyboard-response","323","481913","0.0-9.0-0.0-0.0-0.0-1.90","null","<span style='color:red; font-size: 70px;'>错误! </span>","null","","","","","","","","","","","","","","","","","","","","","","","feedback_test"
"","","","","","psychophysics","324","483543","0.0-9.0-0.0-0.0-0.0-0.91","629","","j","","","","","","","","","","","","","key","j","16.68503092783479","768","428","j","true","img/S_ambi40.png","生人","same",""
"","","","","","html-keyboard-response","325","484046","0.0-9.0-0.0-0.0-0.0-1.91","null","<span style='color:GreenYellow; font-size: 70px;'>正确! </span>","null","","","","","","","","","","","","","","","","","","","","","","","feedback_test"
"","","","","","psychophysics","326","485774","0.0-9.0-0.0-0.0-0.0-0.92","716","","j","","","","","","","","","","","","","key","j","25.027058823528932","768","428","f","false","img/C_ambi40.png","生人","same",""
"","","","","","html-keyboard-response","327","486276","0.0-9.0-0.0-0.0-0.0-1.92","null","<span style='color:red; font-size: 70px;'>错误! </span>","null","","","","","","","","","","","","","","","","","","","","","","","feedback_test"
"","","","","","psychophysics","328","488421","0.0-9.0-0.0-0.0-0.0-0.93","1143","","f","","","","","","","","","","","","","key","f","27.8811315789468","768","428","f","true","img/H_ambi40.png","生人","same",""
"","","","","","html-keyboard-response","329","488922","0.0-9.0-0.0-0.0-0.0-1.93","null","<span style='color:GreenYellow; font-size: 70px;'>正确! </span>","null","","","","","","","","","","","","","","","","","","","","","","","feedback_test"
"","","","","","psychophysics","330","490544","0.0-9.0-0.0-0.0-0.0-0.94","622","","j","","","","","","","","","","","","","key","j","16.68558888888866","768","428","j","true","img/H_ambi40.png","自我","same",""
"","","","","","html-keyboard-response","331","491056","0.0-9.0-0.0-0.0-0.0-1.94","null","<span style='color:GreenYellow; font-size: 70px;'>正确! </span>","null","","","","","","","","","","","","","","","","","","","","","","","feedback_test"
"","","","","","psychophysics","332","492618","0.0-9.0-0.0-0.0-0.0-0.95","541","","f","","","","","","","","","","","","","key","f","26.299508474575813","768","428","j","false","img/C_ambi40.png","朋友","same",""
"","","","","","html-keyboard-response","333","493119","0.0-9.0-0.0-0.0-0.0-1.95","null","<span style='color:red; font-size: 70px;'>错误! </span>","null","","","","","","","","","","","","","","","","","","","","","","","feedback_test"
"","","","","","psychophysics","334","494942","0.0-9.0-0.0-0.0-0.0-0.96","821","","f","","","","","","","","","","","","","key","f","22.31628750000018","768","428","j","false","img/S_ambi40.png","生人","same",""
"","","","","","html-keyboard-response","335","495443","0.0-9.0-0.0-0.0-0.0-1.96","null","<span style='color:red; font-size: 70px;'>错误! </span>","null","","","","","","","","","","","","","","","","","","","","","","","feedback_test"
"","","","","","psychophysics","336","496934","0.0-9.0-0.0-0.0-0.0-0.97","490","","f","","","","","","","","","","","","","key","f","18.127580246913972","768","428","f","true","img/T_ambi40.png","をる","same",""
"","","","","","html-keyboard-response","337","497435","0.0-9.0-0.0-0.0-0.0-1.97","null","<span style='color:GreenYellow; font-size: 70px;'>正确! </span>","null","","","","","","","","","","","","","","","","","","","","","","","feedback_test"
"","","","","","psychophysics","338","498999","0.0-9.0-0.0-0.0-0.0-0.98","534","","f","","","","","","","","","","","","","key","f","16.677911764705854","768","428","f","true","img/T_ambi40.png","をる","same",""
"","","","","","html-keyboard-response","339","499501","0.0-9.0-0.0-0.0-0.0-1.98","null","<span style='color:GreenYellow; font-size: 70px;'>正确! </span>","null","","","","","","","","","","","","","","","","","","","","","","","feedback_test"
"","","","","","psychophysics","340","501050","0.0-9.0-0.0-0.0-0.0-0.99","548","","j","","","","","","","","","","","","","key","j","16.684880434782194","768","428","f","false","img/S_ambi40.png","自我","same",""
"","","","","","html-keyboard-response","341","501551","0.0-9.0-0.0-0.0-0.0-1.99","null","<span style='color:red; font-size: 70px;'>错误! </span>","null","","","","","","","","","","","","","","","","","","","","","","","feedback_test"
"","","","","","psychophysics","342","503062","0.0-9.0-0.0-0.0-0.0-0.100","510","","j","","","","","","","","","","","","","key","j","16.68505555555522","768","428","j","true","img/H_ambi40.png","自我","same",""
"","","","","","html-keyboard-response","343","503563","0.0-9.0-0.0-0.0-0.0-1.100","null","<span style='color:GreenYellow; font-size: 70px;'>正确! </span>","null","","","","","","","","","","","","","","","","","","","","","","","feedback_test"
"","","","","","psychophysics","344","505233","0.0-9.0-0.0-0.0-0.0-0.101","647","","f","","","","","","","","","","","","","key","f","16.68555555555551","768","428","f","true","img/C_ambi40.png","自我","same",""
"","","","","","html-keyboard-response","345","505734","0.0-9.0-0.0-0.0-0.0-1.101","null","<span style='color:GreenYellow; font-size: 70px;'>正确! </span>","null","","","","","","","","","","","","","","","","","","","","","","","feedback_test"
"","","","","","psychophysics","346","507676","0.0-9.0-0.0-0.0-0.0-0.102","941","","f","","","","","","","","","","","","","key","f","17.287216216216162","768","428","f","true","img/S_ambi40.png","朋友","same",""
"","","","","","html-keyboard-response","347","508179","0.0-9.0-0.0-0.0-0.0-1.102","null","<span style='color:GreenYellow; font-size: 70px;'>正确! </span>","null","","","","","","","","","","","","","","","","","","","","","","","feedback_test"
"","","","","","psychophysics","348","509714","0.0-9.0-0.0-0.0-0.0-0.103","533","","j","","","","","","","","","","","","","key","j","18.293891566265543","768","428","j","true","img/H_ambi40.png","自我","same",""
"","","","","","html-keyboard-response","349","510215","0.0-9.0-0.0-0.0-0.0-1.103","null","<span style='color:GreenYellow; font-size: 70px;'>正确! </span>","null","","","","","","","","","","","","","","","","","","","","","","","feedback_test"
"","","","","","psychophysics","350","511776","0.0-9.0-0.0-0.0-0.0-0.104","531","","f","","","","","","","","","","","","","key","f","25.86095000000011","768","428","f","true","img/T_ambi40.png","をる","same",""
"","","","","","html-keyboard-response","351","512278","0.0-9.0-0.0-0.0-0.0-1.104","null","<span style='color:GreenYellow; font-size: 70px;'>正确! </span>","null","","","","","","","","","","","","","","","","","","","","","","","feedback_test"
"","","","","","psychophysics","352","513737","0.0-9.0-0.0-0.0-0.0-0.105","459","","j","","","","","","","","","","","","","key","j","16.685244186046305","768","428","j","true","img/C_ambi40.png","朋友","same",""
"","","","","","html-keyboard-response","353","514239","0.0-9.0-0.0-0.0-0.0-1.105","null","<span style='color:GreenYellow; font-size: 70px;'>正确! </span>","null","","","","","","","","","","","","","","","","","","","","","","","feedback_test"
"","","","","","psychophysics","354","515859","0.0-9.0-0.0-0.0-0.0-0.106","620","","j","","","","","","","","","","","","","key","j","16.68474999999974","768","428","j","true","img/C_ambi40.png","朋友","same",""
"","","","","","html-keyboard-response","355","516360","0.0-9.0-0.0-0.0-0.0-1.106","null","<span style='color:GreenYellow; font-size: 70px;'>正确! </span>","null","","","","","","","","","","","","","","","","","","","","","","","feedback_test"
"","","","","","psychophysics","356","517990","0.0-9.0-0.0-0.0-0.0-0.107","625","","f","","","","","","","","","","","","","key","f","16.684718750000076","768","428","f","true","img/H_ambi40.png","朋友","same",""
"","","","","","html-keyboard-response","357","518491","0.0-9.0-0.0-0.0-0.0-1.107","null","<span style='color:GreenYellow; font-size: 70px;'>正确! </span>","null","","","","","","","","","","","","","","","","","","","","","","","feedback_test"
"","","","","","html-keyboard-response","358","520576","0.0-9.0-0.0-0.0-1.0","2084","<style>.context{color:white; font-size: 35px; line-height:40px}</style>                          <div><p class='context'>您正确回答了69% 的试次。</p><p class='context'>您的平均反应时为584毫秒。</p><p class='context'>请按任意键进入休息</p></div>","enter","","","","","","","","","","","","","","","","","","","","","","",""
"","","","","","html-button-response","359","637048","0.0-9.0-0.0-0.0-2.0","116470","
                    <p>您当前还剩余5组实验</p>
                    <p>现在是休息时间，当您结束休息后，您可以点击 结束休息 按钮 继续</p>
                    <p>建议休息时间还剩余<span id=""iii"">60</span>秒</p>","0","","","","","","","","","","","","","","","","","","","","","","",""
"","","","","","psychophysics","360","639552","0.0-9.0-0.0-0.0-0.1-0.108","null","","null","","","","","","","","","","","","","key","null","16.684798657717558","768","428","f","false","img/C_ambi40.png","自我","same",""
"","","","","","html-keyboard-response","361","640053","0.0-9.0-0.0-0.0-0.1-1.108","null","<span class='add_' style='color:yellow; font-size: 70px;'> 太慢! </span>","null","","","","","","","","","","","","","","","","","","","","","","","feedback_test"
"","","","","","psychophysics","362","641626","0.0-9.0-0.0-0.0-0.1-0.109","572","","j","","","","","","","","","","","","","key","j","16.684956989247322","768","428","j","true","img/C_ambi40.png","朋友","same",""
"","","","","","html-keyboard-response","363","642136","0.0-9.0-0.0-0.0-0.1-1.109","null","<span style='color:GreenYellow; font-size: 70px;'>正确! </span>","null","","","","","","","","","","","","","","","","","","","","","","","feedback_test"
"","","","","","psychophysics","364","643702","0.0-9.0-0.0-0.0-0.1-0.110","547","","j","","","","","","","","","","","","","key","j","16.68352688172011","768","428","j","true","img/C_ambi40.png","朋友","same",""
"","","","","","html-keyboard-response","365","644203","0.0-9.0-0.0-0.0-0.1-1.110","null","<span style='color:GreenYellow; font-size: 70px;'>正确! </span>","null","","","","","","","","","","","","","","","","","","","","","","","feedback_test"
"","","","","","psychophysics","366","645639","0.0-9.0-0.0-0.0-0.1-0.111","434","","f","","","","","","","","","","","","","key","f","16.685717647059764","768","428","j","false","img/H_ambi40.png","自我","same",""
"","","","","","html-keyboard-response","367","646139","0.0-9.0-0.0-0.0-0.1-1.111","null","<span style='color:red; font-size: 70px;'>错误! </span>","null","","","","","","","","","","","","","","","","","","","","","","","feedback_test"
"","","","","","psychophysics","368","647595","0.0-9.0-0.0-0.0-0.1-0.112","455","","f","","","","","","","","","","","","","key","f","16.6837209302331","768","428","f","true","img/S_ambi40.png","自我","same",""
"","","","","","html-keyboard-response","369","648096","0.0-9.0-0.0-0.0-0.1-1.112","null","<span style='color:GreenYellow; font-size: 70px;'>正确! </span>","null","","","","","","","","","","","","","","","","","","","","","","","feedback_test"
"","","","","","psychophysics","370","649496","0.0-9.0-0.0-0.0-0.1-0.113","371","","j","","","","","","","","","","","","","key","j","16.684698795180218","768","428","f","false","img/H_ambi40.png","朋友","same",""
"","","","","","html-keyboard-response","371","649997","0.0-9.0-0.0-0.0-0.1-1.113","null","<span style='color:red; font-size: 70px;'>错误! </span>","null","","","","","","","","","","","","","","","","","","","","","","","feedback_test"
"","","","","","psychophysics","372","651443","0.0-9.0-0.0-0.0-0.1-0.114","444","","j","","","","","","","","","","","","","key","j","16.684965116279145","768","428","j","true","img/H_ambi40.png","自我","same",""
"","","","","","html-keyboard-response","373","651944","0.0-9.0-0.0-0.0-0.1-1.114","null","<span style='color:GreenYellow; font-size: 70px;'>正确! </span>","null","","","","","","","","","","","","","","","","","","","","","","","feedback_test"
"","","","","","psychophysics","374","653510","0.0-9.0-0.0-0.0-0.1-0.115","566","","j","","","","","","","","","","","","","key","j","16.683946236558707","768","428","j","true","img/S_ambi40.png","生人","same",""
"","","","","","html-keyboard-response","375","654011","0.0-9.0-0.0-0.0-0.1-1.115","null","<span style='color:GreenYellow; font-size: 70px;'>正确! </span>","null","","","","","","","","","","","","","","","","","","","","","","","feedback_test"
"","","","","","psychophysics","376","655454","0.0-9.0-0.0-0.0-0.1-0.116","419","","f","","","","","","","","","","","","","key","f","16.687682352940936","768","428","j","false","img/S_ambi40.png","生人","same",""
"","","","","","html-keyboard-response","377","655955","0.0-9.0-0.0-0.0-0.1-1.116","null","<span style='color:red; font-size: 70px;'>错误! </span>","null","","","","","","","","","","","","","","","","","","","","","","","feedback_test"
"","","","","","psychophysics","378","657485","0.0-9.0-0.0-0.0-0.1-0.117","528","","j","","","","","","","","","","","","","key","j","16.684307692307662","768","428","j","true","img/H_ambi40.png","自我","same",""
"","","","","","html-keyboard-response","379","657986","0.0-9.0-0.0-0.0-0.1-1.117","null","<span style='color:GreenYellow; font-size: 70px;'>正确! </span>","null","","","","","","","","","","","","","","","","","","","","","","","feedback_test"
"","","","","","psychophysics","380","659576","0.0-9.0-0.0-0.0-0.1-0.118","589","","j","","","","","","","","","","","","","key","j","16.684946808510738","768","428","f","false","img/S_ambi40.png","朋友","same",""
"","","","","","html-keyboard-response","381","660077","0.0-9.0-0.0-0.0-0.1-1.118","null","<span style='color:red; font-size: 70px;'>错误! </span>","null","","","","","","","","","","","","","","","","","","","","","","","feedback_test"
"","","","","","psychophysics","382","661656","0.0-9.0-0.0-0.0-0.1-0.119","561","","j","","","","","","","","","","","","","key","j","16.68389361702089","768","428","j","true","img/C_ambi40.png","朋友","same",""
"","","","","","html-keyboard-response","383","662158","0.0-9.0-0.0-0.0-0.1-1.119","null","<span style='color:GreenYellow; font-size: 70px;'>正确! </span>","null","","","","","","","","","","","","","","","","","","","","","","","feedback_test"
"","","","","","psychophysics","384","663679","0.0-9.0-0.0-0.0-0.1-0.120","520","","f","","","","","","","","","","","","","key","f","16.684966666666636","768","428","f","true","img/T_ambi40.png","をる","same",""
"","","","","","html-keyboard-response","385","664180","0.0-9.0-0.0-0.0-0.1-1.120","null","<span style='color:GreenYellow; font-size: 70px;'>正确! </span>","null","","","","","","","","","","","","","","","","","","","","","","","feedback_test"
"","","","","","psychophysics","386","665819","0.0-9.0-0.0-0.0-0.1-0.121","637","","j","","","","","","","","","","","","","key","j","16.684350515463745","768","428","j","true","img/S_ambi40.png","生人","same",""
"","","","","","html-keyboard-response","387","666320","0.0-9.0-0.0-0.0-0.1-1.121","null","<span style='color:GreenYellow; font-size: 70px;'>正确! </span>","null","","","","","","","","","","","","","","","","","","","","","","","feedback_test"
"","","","","","psychophysics","388","667914","0.0-9.0-0.0-0.0-0.1-0.122","579","","f","","","","","","","","","","","","","key","f","16.664904255319655","768","428","f","true","img/T_ambi40.png","をる","same",""
"","","","","","html-keyboard-response","389","668415","0.0-9.0-0.0-0.0-0.1-1.122","null","<span style='color:GreenYellow; font-size: 70px;'>正确! </span>","null","","","","","","","","","","","","","","","","","","","","","","","feedback_test"
"","","","","","psychophysics","390","670202","0.0-9.0-0.0-0.0-0.1-0.123","786","","f","","","","","","","","","","","","","key","f","16.68359433962164","768","428","f","true","img/C_ambi40.png","生人","same",""
"","","","","","html-keyboard-response","391","670702","0.0-9.0-0.0-0.0-0.1-1.123","null","<span style='color:GreenYellow; font-size: 70px;'>正确! </span>","null","","","","","","","","","","","","","","","","","","","","","","","feedback_test"
"","","","","","psychophysics","392","672330","0.0-9.0-0.0-0.0-0.1-0.124","627","","f","","","","","","","","","","","","","key","f","16.68576288659764","768","428","f","true","img/H_ambi40.png","生人","same",""
"","","","","","html-keyboard-response","393","672832","0.0-9.0-0.0-0.0-0.1-1.124","null","<span style='color:GreenYellow; font-size: 70px;'>正确! </span>","null","","","","","","","","","","","","","","","","","","","","","","","feedback_test"
"","","","","","psychophysics","394","674321","0.0-9.0-0.0-0.0-0.1-0.125","474","","f","","","","","","","","","","","","","key","f","16.68580898876417","768","428","f","true","img/T_ambi40.png","をる","same",""
"","","","","","html-keyboard-response","395","674822","0.0-9.0-0.0-0.0-0.1-1.125","null","<span style='color:GreenYellow; font-size: 70px;'>正确! </span>","null","","","","","","","","","","","","","","","","","","","","","","","feedback_test"
"","","","","","psychophysics","396","676422","0.0-9.0-0.0-0.0-0.1-0.126","598","","j","","","","","","","","","","","","","key","j","16.68511578947379","768","428","f","false","img/C_ambi40.png","自我","same",""
"","","","","","html-keyboard-response","397","676922","0.0-9.0-0.0-0.0-0.1-1.126","null","<span style='color:red; font-size: 70px;'>错误! </span>","null","","","","","","","","","","","","","","","","","","","","","","","feedback_test"
"","","","","","psychophysics","398","678413","0.0-9.0-0.0-0.0-0.1-0.127","488","","f","","","","","","","","","","","","","key","f","16.683659090909217","768","428","f","true","img/T_ambi40.png","をる","same",""
"","","","","","html-keyboard-response","399","678914","0.0-9.0-0.0-0.0-0.1-1.127","null","<span style='color:GreenYellow; font-size: 70px;'>正确! </span>","null","","","","","","","","","","","","","","","","","","","","","","","feedback_test"
"","","","","","psychophysics","400","680394","0.0-9.0-0.0-0.0-0.1-0.128","459","","f","","","","","","","","","","","","","key","f","16.68450000000038","768","428","f","true","img/C_ambi40.png","生人","same",""
"","","","","","html-keyboard-response","401","680897","0.0-9.0-0.0-0.0-0.1-1.128","null","<span style='color:GreenYellow; font-size: 70px;'>正确! </span>","null","","","","","","","","","","","","","","","","","","","","","","","feedback_test"
"","","","","","psychophysics","402","682295","0.0-9.0-0.0-0.0-0.1-0.129","396","","j","","","","","","","","","","","","","key","j","16.684674698794932","768","428","j","true","img/S_ambi40.png","生人","same",""
"","","","","","html-keyboard-response","403","682796","0.0-9.0-0.0-0.0-0.1-1.129","null","<span style='color:GreenYellow; font-size: 70px;'>正确! </span>","null","","","","","","","","","","","","","","","","","","","","","","","feedback_test"
"","","","","","psychophysics","404","684340","0.0-9.0-0.0-0.0-0.1-0.130","544","","j","","","","","","","","","","","","","key","j","16.686560439559948","768","428","j","true","img/S_ambi40.png","生人","same",""
"","","","","","html-keyboard-response","405","684841","0.0-9.0-0.0-0.0-0.1-1.130","null","<span style='color:GreenYellow; font-size: 70px;'>正确! </span>","null","","","","","","","","","","","","","","","","","","","","","","","feedback_test"
"","","","","","psychophysics","406","686476","0.0-9.0-0.0-0.0-0.1-0.131","630","","f","","","","","","","","","","","","","key","f","16.677625000000262","768","428","j","false","img/C_ambi40.png","朋友","same",""
"","","","","","html-keyboard-response","407","686978","0.0-9.0-0.0-0.0-0.1-1.131","null","<span style='color:red; font-size: 70px;'>错误! </span>","null","","","","","","","","","","","","","","","","","","","","","","","feedback_test"
"","","","","","psychophysics","408","688568","0.0-9.0-0.0-0.0-0.1-0.132","589","","j","","","","","","","","","","","","","key","j","16.685212765956557","768","428","j","true","img/H_ambi40.png","自我","same",""
"","","","","","html-keyboard-response","409","689069","0.0-9.0-0.0-0.0-0.1-1.132","null","<span style='color:GreenYellow; font-size: 70px;'>正确! </span>","null","","","","","","","","","","","","","","","","","","","","","","","feedback_test"
"","","","","","psychophysics","410","690693","0.0-9.0-0.0-0.0-0.1-0.133","623","","j","","","","","","","","","","","","","key","j","16.68361458333311","768","428","j","true","img/H_ambi40.png","自我","same",""
"","","","","","html-keyboard-response","411","691194","0.0-9.0-0.0-0.0-0.1-1.133","null","<span style='color:GreenYellow; font-size: 70px;'>正确! </span>","null","","","","","","","","","","","","","","","","","","","","","","","feedback_test"
"","","","","","psychophysics","412","692869","0.0-9.0-0.0-0.0-0.1-0.134","663","","f","","","","","","","","","","","","","key","f","16.684749999999767","768","428","f","true","img/H_ambi40.png","朋友","same",""
"","","","","","html-keyboard-response","413","693370","0.0-9.0-0.0-0.0-0.1-1.134","null","<span style='color:GreenYellow; font-size: 70px;'>正确! </span>","null","","","","","","","","","","","","","","","","","","","","","","","feedback_test"
"","","","","","psychophysics","414","694960","0.0-9.0-0.0-0.0-0.1-0.135","588","","j","","","","","","","","","","","","","key","j","16.682755319148974","768","428","j","true","img/C_ambi40.png","朋友","same",""
"","","","","","html-keyboard-response","415","695460","0.0-9.0-0.0-0.0-0.1-1.135","null","<span style='color:GreenYellow; font-size: 70px;'>正确! </span>","null","","","","","","","","","","","","","","","","","","","","","","","feedback_test"
"","","","","","psychophysics","416","697027","0.0-9.0-0.0-0.0-0.1-0.136","565","","j","","","","","","","","","","","","","key","j","16.687397849463146","768","428","j","true","img/H_ambi40.png","自我","same",""
"","","","","","html-keyboard-response","417","697529","0.0-9.0-0.0-0.0-0.1-1.136","null","<span style='color:GreenYellow; font-size: 70px;'>正确! </span>","null","","","","","","","","","","","","","","","","","","","","","","","feedback_test"
"","","","","","psychophysics","418","699036","0.0-9.0-0.0-0.0-0.1-0.137","500","","f","","","","","","","","","","","","","key","f","16.685741573034555","768","428","f","true","img/T_ambi40.png","をる","same",""
"","","","","","html-keyboard-response","419","699536","0.0-9.0-0.0-0.0-0.1-1.137","null","<span style='color:GreenYellow; font-size: 70px;'>正确! </span>","null","","","","","","","","","","","","","","","","","","","","","","","feedback_test"
"","","","","","psychophysics","420","701376","0.0-9.0-0.0-0.0-0.1-0.138","839","","f","","","","","","","","","","","","","key","f","16.685944954128807","768","428","f","true","img/S_ambi40.png","自我","same",""
"","","","","","html-keyboard-response","421","701877","0.0-9.0-0.0-0.0-0.1-1.138","null","<span style='color:GreenYellow; font-size: 70px;'>正确! </span>","null","","","","","","","","","","","","","","","","","","","","","","","feedback_test"
"","","","","","psychophysics","422","703542","0.0-9.0-0.0-0.0-0.1-0.139","664","","j","","","","","","","","","","","","","key","j","16.68508163265342","768","428","j","true","img/S_ambi40.png","生人","same",""
"","","","","","html-keyboard-response","423","704055","0.0-9.0-0.0-0.0-0.1-1.139","null","<span style='color:GreenYellow; font-size: 70px;'>正确! </span>","null","","","","","","","","","","","","","","","","","","","","","","","feedback_test"
"","","","","","psychophysics","424","705635","0.0-9.0-0.0-0.0-0.1-0.140","560","","j","","","","","","","","","","","","","key","j","16.687042553192054","768","428","f","false","img/H_ambi40.png","生人","same",""
"","","","","","html-keyboard-response","425","706136","0.0-9.0-0.0-0.0-0.1-1.140","null","<span style='color:red; font-size: 70px;'>错误! </span>","null","","","","","","","","","","","","","","","","","","","","","","","feedback_test"
"","","","","","psychophysics","426","707793","0.0-9.0-0.0-0.0-0.1-0.141","655","","j","","","","","","","","","","","","","key","j","16.68377551020418","768","428","j","true","img/C_ambi40.png","朋友","same",""
"","","","","","html-keyboard-response","427","708294","0.0-9.0-0.0-0.0-0.1-1.141","null","<span style='color:GreenYellow; font-size: 70px;'>正确! </span>","null","","","","","","","","","","","","","","","","","","","","","","","feedback_test"
"","","","","","psychophysics","428","709934","0.0-9.0-0.0-0.0-0.1-0.142","639","","f","","","","","","","","","","","","","key","f","16.68489690721707","768","428","f","true","img/S_ambi40.png","朋友","same",""
"","","","","","html-keyboard-response","429","710434","0.0-9.0-0.0-0.0-0.1-1.142","null","<span style='color:GreenYellow; font-size: 70px;'>正确! </span>","null","","","","","","","","","","","","","","","","","","","","","","","feedback_test"
"","","","","","psychophysics","430","711950","0.0-9.0-0.0-0.0-0.1-0.143","485","","f","","","","","","","","","","","","","key","f","16.685355555555887","768","428","f","true","img/T_ambi40.png","をる","same",""
"","","","","","html-keyboard-response","431","712451","0.0-9.0-0.0-0.0-0.1-1.143","null","<span style='color:GreenYellow; font-size: 70px;'>正确! </span>","null","","","","","","","","","","","","","","","","","","","","","","","feedback_test"
"","","","","","psychophysics","432","714140","0.0-9.0-0.0-0.0-0.1-0.144","687","","f","","","","","","","","","","","","","key","f","16.684560000000054","768","428","f","true","img/H_ambi40.png","朋友","same",""
"","","","","","html-keyboard-response","433","714641","0.0-9.0-0.0-0.0-0.1-1.144","null","<span style='color:GreenYellow; font-size: 70px;'>正确! </span>","null","","","","","","","","","","","","","","","","","","","","","","","feedback_test"
"","","","","","psychophysics","434","716181","0.0-9.0-0.0-0.0-0.1-0.145","538","","f","","","","","","","","","","","","","key","f","16.6826263736258","768","428","f","true","img/T_ambi40.png","をる","same",""
"","","","","","html-keyboard-response","435","716681","0.0-9.0-0.0-0.0-0.1-1.145","null","<span style='color:GreenYellow; font-size: 70px;'>正确! </span>","null","","","","","","","","","","","","","","","","","","","","","","","feedback_test"
"","","","","","psychophysics","436","718291","0.0-9.0-0.0-0.0-0.1-0.146","586","","j","","","","","","","","","","","","","key","j","16.685852631578516","768","428","j","true","img/H_ambi40.png","自我","same",""
"","","","","","html-keyboard-response","437","718793","0.0-9.0-0.0-0.0-0.1-1.146","null","<span style='color:GreenYellow; font-size: 70px;'>正确! </span>","null","","","","","","","","","","","","","","","","","","","","","","","feedback_test"
"","","","","","psychophysics","438","720304","0.0-9.0-0.0-0.0-0.1-0.147","511","","f","","","","","","","","","","","","","key","f","16.681677777778045","768","428","f","true","img/T_ambi40.png","をる","same",""
"","","","","","html-keyboard-response","439","720804","0.0-9.0-0.0-0.0-0.1-1.147","null","<span style='color:GreenYellow; font-size: 70px;'>正确! </span>","null","","","","","","","","","","","","","","","","","","","","","","","feedback_test"
"","","","","","psychophysics","440","722370","0.0-9.0-0.0-0.0-0.1-0.148","565","","j","","","","","","","","","","","","","key","j","16.68462365591443","768","428","j","true","img/H_ambi40.png","自我","same",""
"","","","","","html-keyboard-response","441","722871","0.0-9.0-0.0-0.0-0.1-1.148","null","<span style='color:GreenYellow; font-size: 70px;'>正确! </span>","null","","","","","","","","","","","","","","","","","","","","","","","feedback_test"
"","","","","","psychophysics","442","724549","0.0-9.0-0.0-0.0-0.1-0.149","664","","f","","","","","","","","","","","","","key","f","16.685525252524943","768","428","f","true","img/S_ambi40.png","朋友","same",""
"","","","","","html-keyboard-response","443","725050","0.0-9.0-0.0-0.0-0.1-1.149","null","<span style='color:GreenYellow; font-size: 70px;'>正确! </span>","null","","","","","","","","","","","","","","","","","","","","","","","feedback_test"
"","","","","","psychophysics","444","726695","0.0-9.0-0.0-0.0-0.1-0.150","643","","f","","","","","","","","","","","","","key","f","16.685010204082165","768","428","f","true","img/C_ambi40.png","生人","same",""
